'Start Wavelength	183.907
'End Wavelength	1046.922
'Gate Delay	5.000
'Gate Width (ms)	1.050
'Laser Output Level	0.000
'X Position	0.000
'Y Position	0.000
'Z Position	0.000
'Grid Point Number	1.000
'Shot Number	100.000
183.907	213.000
183.977	-521.000
184.047	-325
184.116	614
184.186	984
184.256	-266
184.325	329
184.395	-30
184.465	-210
184.534	109
184.604	-267
184.674	410
184.743	-361
184.813	226
184.883	232
184.952	-345
185.022	507
185.092	285
185.161	-552
185.231	-318
185.301	81
185.370	264
185.440	-215
185.509	-537
185.579	259
185.649	542
185.718	452
185.788	860
185.857	-382
185.927	19
185.996	249
186.066	129
186.136	478
186.205	125
186.275	93
186.344	-360
186.414	-307
186.483	221
186.553	90
186.622	-258
186.692	-624
186.761	-76
186.831	103
186.900	149
186.970	-614
187.039	247
187.109	1642
187.178	-120
187.248	282
187.317	-150
187.387	-255
187.456	28
187.526	-428
187.595	-178
187.664	70
187.734	323
187.803	231
187.873	629
187.942	961
188.012	-63
188.081	69
188.150	-76
188.220	566
188.289	1103
188.358	246
188.428	430
188.497	-455
188.567	-49
188.636	548
188.705	199
188.775	-132
188.844	-65
188.913	648
188.983	115
189.052	3
189.121	-126
189.191	-239
189.260	196
189.329	210
189.399	592
189.468	245
189.537	151
189.606	355
189.676	-88
189.745	342
189.814	725
189.883	513
189.953	-119
190.022	365
190.091	996
190.161	981
190.230	217
190.299	98
190.368	198
190.437	-750
190.507	468
190.576	25
190.645	509
190.714	-235
190.783	-446
190.853	-231
190.922	238
190.991	-220
191.060	704
191.129	-490
191.198	-196
191.268	288
191.337	-91
191.406	400
191.475	258
191.544	-59
191.613	602
191.682	99
191.752	-257
191.821	341
191.890	676
191.959	110
192.028	-289
192.097	262
192.166	482
192.235	-508
192.304	496
192.373	-627
192.442	68
192.511	515
192.580	232
192.650	615
192.719	603
192.788	545
192.857	-490
192.926	477
192.995	751
193.064	-107
193.133	291
193.202	428
193.271	629
193.340	1186
193.409	1256
193.478	746
193.547	1197
193.615	1069
193.684	1193
193.753	1260
193.822	1083
193.891	872
193.960	939
194.029	298
194.098	648
194.167	-520
194.236	571
194.305	304
194.374	602
194.443	859
194.512	1131
194.580	520
194.649	373
194.718	740
194.787	295
194.856	98
194.925	231
194.994	354
195.062	1240
195.131	960
195.200	854
195.269	876
195.338	697
195.407	-260
195.475	272
195.544	136
195.613	69
195.682	570
195.751	1254
195.819	379
195.888	-53
195.957	915
196.026	330
196.094	1239
196.163	359
196.232	812
196.301	250
196.369	760
196.438	938
196.507	-224
196.576	697
196.644	204
196.713	-37
196.782	335
196.850	466
196.919	239
196.988	527
197.056	-186
197.125	-164
197.194	697
197.262	457
197.331	143
197.400	-626
197.468	420
197.537	-104
197.606	829
197.674	955
197.743	1069
197.812	98
197.880	78
197.949	959
198.017	1169
198.086	626
198.155	903
198.223	244
198.292	717
198.360	1109
198.429	577
198.497	627
198.566	1145
198.635	730
198.703	803
198.772	1490
198.840	1590
198.909	1016
198.977	828
199.046	930
199.114	1174
199.183	330
199.251	630
199.320	690
199.388	-16
199.457	33
199.525	24
199.594	1221
199.662	169
199.731	160
199.799	1042
199.867	-17
199.936	390
200.004	585
200.073	329
200.141	464
200.210	-101
200.278	-110
200.346	733
200.415	698
200.483	915
200.552	703
200.620	625
200.688	913
200.757	561
200.825	-191
200.893	273
200.962	1050
201.030	-263
201.098	-46
201.167	1071
201.235	17
201.303	176
201.372	291
201.440	425
201.508	-150
201.577	497
201.645	463
201.713	-41
201.781	52
201.850	824
201.918	282
201.986	312
202.055	339
202.123	466
202.191	341
202.259	-167
202.327	327
202.396	193
202.464	792
202.532	57
202.600	1372
202.669	1030
202.737	713
202.805	539
202.873	577
202.941	325
203.009	469
203.078	487
203.146	37
203.214	166
203.282	334
203.350	266
203.418	996
203.487	-537
203.555	516
203.623	791
203.691	330
203.759	89
203.827	-408
203.895	781
203.963	350
204.031	427
204.099	504
204.168	573
204.236	377
204.304	560
204.372	612
204.440	1051
204.508	785
204.576	251
204.644	971
204.712	850
204.780	728
204.848	700
204.916	23
204.984	672
205.052	665
205.120	-8
205.188	576
205.256	908
205.324	800
205.392	-292
205.460	1148
205.528	1150
205.596	1574
205.664	394
205.732	-505
205.799	1855
205.867	1940
205.935	187
206.003	1342
206.071	912
206.139	741
206.207	1154
206.275	412
206.343	926
206.411	626
206.478	923
206.546	1060
206.614	1080
206.682	653
206.750	448
206.818	131
206.885	935
206.953	-425
207.021	955
207.089	1403
207.157	1689
207.225	674
207.292	1224
207.360	693
207.428	861
207.496	814
207.563	563
207.631	749
207.699	859
207.767	653
207.834	280
207.902	993
207.970	726
208.038	585
208.105	519
208.173	565
208.241	455
208.309	1628
208.376	711
208.444	790
208.512	833
208.579	757
208.647	925
208.715	1268
208.782	654
208.850	991
208.918	1036
208.985	1205
209.053	459
209.120	563
209.188	752
209.256	937
209.323	740
209.391	997
209.459	1748
209.526	1428
209.594	881
209.661	1028
209.729	943
209.796	1166
209.864	1351
209.932	194
209.999	1980
210.067	1959
210.134	772
210.202	2222
210.269	1036
210.337	1615
210.404	1183
210.472	836
210.539	1113
210.607	936
210.674	1460
210.742	1469
210.809	852
210.877	1000
210.944	1066
211.012	813
211.079	1497
211.146	1225
211.214	782
211.281	1030
211.349	1048
211.416	1504
211.484	1669
211.551	1511
211.618	705
211.686	1615
211.753	1428
211.821	1104
211.888	878
211.955	1203
212.023	1515
212.090	1306
212.157	1051
212.225	1247
212.292	1881
212.359	4207
212.427	6148
212.494	2332
212.561	1792
212.629	1814
212.696	1362
212.763	1306
212.831	800
212.898	2227
212.965	598
213.032	804
213.100	622
213.167	1541
213.234	1814
213.301	1602
213.369	1362
213.436	1060
213.503	1678
213.570	1735
213.638	1749
213.705	787
213.772	1416
213.839	1143
213.906	1770
213.973	1356
214.041	1302
214.108	1673
214.175	1027
214.242	1933
214.309	1577
214.376	1892
214.444	1487
214.511	1019
214.578	1084
214.645	1870
214.712	1983
214.779	1137
214.846	1656
214.913	1561
214.980	2085
215.048	1846
215.115	1844
215.182	2018
215.249	1556
215.316	1579
215.383	1138
215.450	1281
215.517	1508
215.584	1782
215.651	752
215.718	1052
215.785	2447
215.852	1964
215.919	1859
215.986	1729
216.053	1641
216.120	1050
216.187	2473
216.254	1786
216.321	1943
216.388	1641
216.455	1419
216.522	1485
216.589	1722
216.656	2744
216.722	3383
216.789	2586
216.856	3157
216.923	2232
216.990	2100
217.057	2259
217.124	2542
217.191	2353
217.258	2914
217.324	3225
217.391	4120
217.458	3325
217.525	3150
217.592	1730
217.659	1263
217.725	1998
217.792	2184
217.859	3127
217.926	1294
217.993	1245
218.059	1546
218.126	1524
218.193	1841
218.260	1353
218.327	1236
218.393	944
218.460	997
218.527	513
218.594	2179
218.660	1818
218.727	2628
218.794	1842
218.860	1580
218.927	1082
218.994	1028
219.061	1597
219.127	1407
219.194	2207
219.261	1965
219.327	931
219.394	993
219.461	278
219.527	894
219.594	1521
219.661	1683
219.727	248
219.794	1305
219.860	406
219.927	987
219.994	2192
220.060	2990
220.127	1860
220.193	1948
220.260	2526
220.326	3597
220.393	3985
220.460	5619
220.526	3772
220.593	2412
220.659	2402
220.726	3857
220.792	4835
220.859	5307
220.925	7670
220.992	9038
221.058	7665
221.125	6520
221.191	5143
221.258	2805
221.324	1072
221.391	1530
221.457	1650
221.524	1851
221.590	2582
221.657	4729
221.723	2887
221.789	3292
221.856	2640
221.922	1494
221.989	2062
222.055	1688
222.121	582
222.188	2288
222.254	1766
222.321	1244
222.387	848
222.453	1130
222.520	819
222.586	973
222.652	738
222.719	529
222.785	1217
222.851	846
222.918	654
222.984	1336
223.050	835
223.116	174
223.183	1493
223.249	1113
223.315	618
223.382	1008
223.448	661
223.514	693
223.580	857
223.647	1297
223.713	567
223.779	585
223.845	1013
223.911	11
223.978	16
224.044	1390
224.110	647
224.176	947
224.242	605
224.309	411
224.375	1018
224.441	682
224.507	1066
224.573	459
224.639	900
224.705	605
224.772	675
224.838	264
224.904	1173
224.970	-298
225.036	112
225.102	953
225.168	1395
225.234	1623
225.300	1129
225.366	663
225.432	640
225.499	1366
225.565	839
225.631	1014
225.697	1908
225.763	1695
225.829	1998
225.895	2178
225.961	2246
226.027	2748
226.093	1833
226.159	3306
226.225	5225
226.291	10503
226.357	13273
226.423	7700
226.489	4795
226.554	3321
226.620	3406
226.686	4148
226.752	6179
226.818	9233
226.884	14632
226.950	13208
227.016	7233
227.082	5119
227.148	2911
227.214	3353
227.279	2041
227.345	2139
227.411	2482
227.477	1721
227.543	2332
227.609	1835
227.674	1744
227.740	981
227.806	1562
227.872	1168
227.938	1217
228.003	2329
228.069	1513
228.135	1172
228.201	1587
228.267	1774
228.332	1355
228.398	1692
228.464	1935
228.530	884
228.595	1592
228.661	1409
228.727	1517
228.792	1287
228.858	1034
228.924	345
228.990	2404
229.055	1056
229.121	1634
229.187	1046
229.252	1270
229.318	1327
229.384	1619
229.449	1216
229.515	-380
229.581	552
229.646	2505
229.712	1656
229.777	2918
229.843	2094
229.909	3140
229.974	2588
230.040	2439
230.105	1685
230.171	1710
230.236	2564
230.302	2950
230.368	1971
230.433	1964
230.499	1849
230.564	2988
230.630	1227
230.695	1347
230.761	1830
230.826	888
230.892	2589
230.957	1190
231.023	1352
231.088	1790
231.154	1307
231.219	1339
231.284	2070
231.350	2055
231.415	1137
231.481	1478
231.546	722
231.612	1561
231.677	850
231.742	406
231.808	1882
231.873	365
231.939	660
232.004	2502
232.069	2112
232.135	1471
232.200	1221
232.265	938
232.331	1165
232.396	949
232.461	385
232.527	926
232.592	814
232.657	1244
232.723	791
232.788	917
232.853	309
232.918	677
232.984	1176
233.049	699
233.114	279
233.179	1637
233.245	2220
233.310	1930
233.375	657
233.440	1007
233.506	366
233.571	914
233.636	1378
233.701	773
233.766	1771
233.832	1073
233.897	1046
233.962	516
234.027	2002
234.092	1434
234.157	1088
234.222	1672
234.288	1168
234.353	3489
234.418	3640
234.483	2579
234.548	2431
234.613	1944
234.678	2730
234.743	2330
234.808	5499
234.873	2220
234.938	2799
235.004	1724
235.069	1492
235.134	952
235.199	1650
235.264	1390
235.329	406
235.394	1758
235.459	2274
235.524	1473
235.589	1963
235.654	1037
235.719	1491
235.784	1352
235.849	1469
235.913	2646
235.978	2393
236.043	2253
236.108	1778
236.173	1840
236.238	1820
236.303	589
236.368	1188
236.433	3560
236.498	2955
236.563	3676
236.627	7951
236.692	19189
236.757	15995
236.822	8381
236.887	4815
236.952	4648
237.017	2956
237.081	4646
237.146	5161
237.211	12300
237.276	20399
237.341	24788
237.405	14844
237.470	8077
237.535	4795
237.600	3342
237.664	4004
237.729	2498
237.794	3975
237.859	8255
237.923	4387
237.988	2397
238.053	3042
238.118	2895
238.182	4756
238.247	5401
238.312	2331
238.376	2726
238.441	68
238.506	2688
238.570	278
238.635	1919
238.700	656
238.764	1532
238.829	3411
238.893	3063
238.958	1672
239.023	2613
239.087	2094
239.152	2730
239.216	282
239.281	1814
239.346	1252
239.410	733
239.475	1816
239.539	5583
239.604	3370
239.668	2010
239.733	1095
239.797	1713
239.862	2208
239.926	3164
239.991	1961
240.055	1110
240.120	837
240.184	1283
240.249	1399
240.313	1210
240.378	1317
240.442	3581
240.507	4098
240.571	2161
240.635	2000
240.700	3505
240.764	835
240.829	912
240.893	665
240.957	2260
241.022	3426
241.086	4565
241.151	2125
241.215	324
241.279	1279
241.344	2110
241.408	3023
241.472	1361
241.537	1824
241.601	2761
241.665	1366
241.730	2084
241.794	2249
241.858	1781
241.922	2469
241.987	2521
242.051	2340
242.115	1640
242.179	1875
242.244	1203
242.308	2719
242.372	1468
242.436	1917
242.501	2199
242.565	1482
242.629	1335
242.693	2513
242.757	1076
242.822	1550
242.886	1749
242.950	2307
243.014	1295
243.078	2450
243.142	2137
243.206	1389
243.271	1472
243.335	1976
243.399	3281
243.463	10626
243.527	22232
243.591	6985
243.655	4030
243.719	1636
243.783	3772
243.847	4247
243.911	5755
243.975	5177
244.040	3873
244.104	2885
244.168	1977
244.232	3728
244.296	3563
244.360	4602
244.424	1180
244.488	1740
244.552	2505
244.615	1547
244.679	1683
244.743	2042
244.807	1661
244.871	1813
244.935	2019
244.999	1251
245.063	1791
245.127	2681
245.191	3052
245.255	2686
245.319	3168
245.383	1126
245.446	2139
245.510	969
245.574	1595
245.638	1882
245.702	1523
245.766	3946
245.829	3477
245.893	1628
245.957	2178
246.021	2492
246.085	2272
246.149	2512
246.212	7167
246.276	8065
246.340	3688
246.404	3193
246.467	3101
246.531	3819
246.595	3122
246.659	2796
246.722	2450
246.786	3689
246.850	4246
246.913	4414
246.977	2108
247.041	2256
247.104	2465
247.168	2778
247.232	6384
247.295	11614
247.359	4975
247.423	2674
247.486	5325
247.550	3283
247.614	3390
247.677	3278
247.741	2507
247.804	2063
247.868	3313
247.932	5454
247.995	11364
248.059	3926
248.122	2388
248.186	4336
248.249	6585
248.313	18267
248.376	18350
248.440	11253
248.503	4444
248.567	5131
248.630	5543
248.694	8912
248.757	12122
248.821	18347
248.884	13230
248.948	11887
249.011	15419
249.075	22692
249.138	18639
249.202	8626
249.265	4962
249.328	5620
249.392	5120
249.455	4388
249.519	2743
249.582	4567
249.645	6938
249.709	5470
249.772	3985
249.835	3533
249.899	3728
249.962	4426
250.025	3521
250.089	8367
250.152	10538
250.215	5289
250.279	4493
250.342	3996
250.405	3999
250.468	3067
250.532	5241
250.595	8236
250.658	24325
250.721	32840
250.785	13145
250.848	9131
250.911	4924
250.974	4206
251.038	7089
251.101	11922
251.164	6625
251.227	7510
251.290	6859
251.354	10664
251.417	31625
251.480	28768
251.543	24833
251.606	50569
251.669	38269
251.732	17355
251.795	18301
251.859	18419
251.922	35112
251.985	20524
252.048	9957
252.111	6760
252.174	6600
252.237	12661
252.300	23445
252.363	26644
252.426	40327
252.489	18275
252.552	9860
252.615	6254
252.678	8224
252.741	18406
252.804	23138
252.867	44368
252.930	28028
252.993	14907
253.056	9964
253.119	6515
253.182	5349
253.245	8767
253.308	7378
253.371	5106
253.434	5943
253.497	5989
253.559	11473
253.622	7753
253.685	9614
253.748	9793
253.811	4435
253.874	5979
253.937	4581
254.000	3786
254.062	8082
254.125	10475
254.188	12283
254.251	8585
254.314	4301
254.376	7488
254.439	9213
254.502	7940
254.565	7307
254.628	14122
254.690	7418
254.753	3908
254.816	4461
254.878	4484
254.941	8800
255.004	7397
255.067	4014
255.129	3837
255.192	2371
255.255	1388
255.317	3463
255.380	1934
255.443	1204
255.505	1819
255.568	1402
255.631	888
255.693	1761
255.756	550
255.819	2095
255.881	680
255.944	1590
256.006	1354
256.069	1649
256.132	1168
256.194	2052
256.257	3335
256.319	3085
256.382	1807
256.444	2387
256.507	2810
256.569	1755
256.632	1647
256.694	3869
256.757	14988
256.819	35077
256.882	12877
256.944	5933
257.007	6001
257.069	4605
257.132	3501
257.194	3280
257.257	2158
257.319	2749
257.381	3062
257.444	11636
257.506	39999
257.569	41233
257.631	15867
257.693	10224
257.756	5076
257.818	3717
257.880	2974
257.943	2081
258.005	1977
258.067	2234
258.130	2318
258.192	2633
258.254	5923
258.317	2892
258.379	1749
258.441	5817
258.503	5229
258.566	5732
258.628	7522
258.690	1535
258.753	2971
258.815	6675
258.877	3545
258.939	1776
259.001	2496
259.064	2196
259.126	2138
259.188	2729
259.250	2697
259.312	1978
259.375	3757
259.437	4015
259.499	2266
259.561	1759
259.623	2156
259.685	1797
259.747	2087
259.809	5935
259.872	9792
259.934	15616
259.996	15138
260.058	4699
260.120	2216
260.182	1758
260.244	1885
260.306	1224
260.368	2204
260.430	1186
260.492	5335
260.554	6692
260.616	3626
260.678	9595
260.740	9135
260.802	2409
260.864	3427
260.926	1447
260.988	2576
261.050	2478
261.112	7873
261.174	13120
261.236	7238
261.298	2742
261.359	4590
261.421	6044
261.483	2273
261.545	2265
261.607	679
261.669	1647
261.731	3359
261.793	7022
261.854	3260
261.916	2785
261.978	2391
262.040	1987
262.102	1738
262.164	1558
262.225	1873
262.287	1483
262.349	5928
262.411	3980
262.472	2461
262.534	2245
262.596	5119
262.658	1866
262.719	643
262.781	2623
262.843	4690
262.904	2716
262.966	1602
263.028	2699
263.090	14039
263.151	30280
263.213	10898
263.275	7381
263.336	3084
263.398	2858
263.459	970
263.521	2404
263.583	5111
263.644	3392
263.706	1255
263.767	448
263.829	1427
263.891	58
263.952	574
264.014	270
264.075	3281
264.137	7831
264.198	3287
264.260	686
264.321	1562
264.383	4842
264.444	12260
264.506	3295
264.567	2146
264.629	6441
264.690	9161
264.752	3613
264.813	2076
264.875	1193
264.936	2300
264.998	1093
265.059	460
265.120	1394
265.182	3716
265.243	23736
265.305	20251
265.366	4914
265.427	2742
265.489	2388
265.550	1296
265.611	2676
265.673	964
265.734	1602
265.795	1391
265.857	782
265.918	811
265.979	7642
266.040	33661
266.102	23940
266.163	7796
266.224	5157
266.286	3584
266.347	2098
266.408	2222
266.469	1255
266.530	1198
266.592	1043
266.653	3532
266.714	6515
266.775	1495
266.836	604
266.898	375
266.959	2941
267.020	1607
267.081	1623
267.142	1038
267.203	1943
267.264	228
267.326	2516
267.387	526
267.448	62
267.509	1539
267.570	1217
267.631	1415
267.692	551
267.753	712
267.814	466
267.875	4357
267.936	8382
267.997	5278
268.058	4892
268.119	1529
268.180	949
268.241	1103
268.302	1749
268.363	318
268.424	1521
268.485	1686
268.546	171
268.607	388
268.668	827
268.729	1262
268.790	641
268.851	2178
268.912	5420
268.972	4624
269.033	2947
269.094	1258
269.155	1386
269.216	1055
269.277	1871
269.338	919
269.398	1122
269.459	1542
269.520	3286
269.581	3140
269.642	3813
269.702	2656
269.763	1713
269.824	1122
269.885	2754
269.945	4310
270.006	1384
270.067	390
270.128	502
270.188	220
270.249	553
270.310	414
270.370	1680
270.431	1117
270.492	67
270.553	1225
270.613	3844
270.674	7938
270.734	3198
270.795	934
270.856	3158
270.916	895
270.977	1138
271.038	1687
271.098	1664
271.159	3828
271.219	4271
271.280	1336
271.340	1075
271.401	865
271.462	3029
271.522	1227
271.583	1310
271.643	1295
271.704	833
271.764	2511
271.825	6330
271.885	21222
271.946	22988
272.006	7926
272.066	12784
272.127	17243
272.187	5325
272.248	2432
272.308	3191
272.369	12550
272.429	6216
272.489	5527
272.550	5077
272.610	6107
272.671	3296
272.731	3431
272.791	4440
272.852	2645
272.912	2898
272.972	993
273.033	1233
273.093	2482
273.153	2792
273.214	1868
273.274	1856
273.334	11291
273.394	17077
273.455	7148
273.515	7510
273.575	15781
273.635	6143
273.696	8452
273.756	15577
273.816	5533
273.876	3306
273.936	5782
273.997	8640
274.057	1967
274.117	2566
274.177	5132
274.237	24028
274.297	15990
274.358	10245
274.418	13871
274.478	10642
274.538	2508
274.598	2489
274.658	6838
274.718	9576
274.778	3757
274.838	1882
274.898	4023
274.958	11458
275.018	16487
275.078	9241
275.138	3739
275.198	1797
275.258	1650
275.318	2704
275.378	4784
275.438	6083
275.498	3243
275.558	6874
275.618	14039
275.678	10164
275.738	8278
275.798	5573
275.858	2540
275.918	993
275.978	2317
276.038	1875
276.098	897
276.157	5115
276.217	14524
276.277	4792
276.337	3590
276.397	1915
276.457	2352
276.517	1423
276.576	1078
276.636	1294
276.696	3044
276.756	8316
276.815	4392
276.875	1883
276.935	1357
276.995	2202
277.055	1153
277.114	1147
277.174	3033
277.234	10900
277.293	3651
277.353	1920
277.413	1647
277.472	1169
277.532	1482
277.592	2438
277.651	8072
277.711	11754
277.771	4173
277.830	19186
277.890	12042
277.950	9501
278.009	24534
278.069	8579
278.128	9787
278.188	12784
278.248	6644
278.307	15919
278.367	7625
278.426	1977
278.486	1892
278.545	856
278.605	1081
278.664	544
278.724	1298
278.783	6807
278.843	15621
278.902	3888
278.962	2520
279.021	3387
279.081	2844
279.140	2947
279.199	2953
279.259	3883
279.318	1599
279.378	3564
279.437	6425
279.496	21771
279.556	54792
279.615	36067
279.675	9516
279.734	6682
279.793	11720
279.853	14474
279.912	4791
279.971	3011
280.031	2575
280.090	6177
280.149	10244
280.208	8639
280.268	40750
280.327	32407
280.386	7933
280.445	9806
280.505	7245
280.564	3140
280.623	2767
280.682	5068
280.742	8793
280.801	1813
280.860	1535
280.919	729
280.978	1610
281.037	501
281.097	406
281.156	1059
281.215	572
281.274	1402
281.333	11448
281.392	6573
281.451	868
281.510	877
281.569	430
281.628	474
281.688	1031
281.747	1579
281.806	455
281.865	34
281.924	490
281.983	68
282.042	-352
282.101	61
282.160	414
282.219	335
282.278	1178
282.337	6633
282.396	3442
282.454	1186
282.513	2652
282.572	11241
282.631	4788
282.690	832
282.749	595
282.808	1730
282.867	2112
282.926	1661
282.985	1149
283.043	286
283.102	818
283.161	1142
283.220	4368
283.279	10438
283.338	2489
283.396	1274
283.455	1335
283.514	1178
283.573	3486
283.631	2492
283.690	1272
283.749	1361
283.808	4464
283.866	4442
283.925	595
283.984	1255
284.043	2651
284.101	2901
284.160	1009
284.219	2065
284.277	2184
284.336	4331
284.395	15142
284.453	9792
284.512	3459
284.570	6151
284.629	4626
284.688	3653
284.746	3514
284.805	4800
284.863	6087
284.922	7808
284.981	10113
285.039	15650
285.098	28263
285.156	59891
285.215	80035
285.273	84378
285.332	58384
285.390	32641
285.449	19171
285.507	13555
285.566	9308
285.624	7515
285.683	5310
285.741	4711
285.799	3415
285.858	2576
285.916	2939
285.975	2041
286.033	1896
286.091	1185
286.150	1677
286.208	1547
286.267	1596
286.325	2222
286.383	4854
286.442	3253
286.500	746
286.558	1900
286.616	168
286.675	2691
286.733	1260
286.791	1522
286.850	2336
286.908	4115
286.966	5040
287.024	1336
287.083	1599
287.141	493
287.199	1551
287.257	2213
287.315	1951
287.374	2129
287.432	7283
287.490	3708
287.548	1546
287.606	1284
287.664	1570
287.723	2714
287.781	3321
287.839	1465
287.897	2476
287.955	2780
288.013	4921
288.071	13439
288.129	49684
288.187	107200
288.245	46933
288.303	16311
288.361	9441
288.419	6844
288.477	4220
288.535	2275
288.593	1887
288.651	1649
288.709	441
288.767	1452
288.825	1130
288.883	806
288.941	1197
288.999	235
289.057	454
289.115	-576
289.173	-17
289.231	740
289.289	501
289.346	394
289.404	1101
289.462	2902
289.520	2169
289.578	1014
289.636	-248
289.694	752
289.751	142
289.809	201
289.867	422
289.925	1238
289.983	1247
290.040	464
290.098	322
290.156	1418
290.214	1206
290.271	190
290.329	-149
290.387	442
290.444	549
290.502	-443
290.560	212
290.617	88
290.675	-78
290.733	776
290.790	338
290.848	150
290.906	699
290.963	124
291.021	101
291.078	1392
291.136	645
291.194	6183
291.251	11141
291.309	2201
291.366	381
291.424	172
291.481	7
291.539	25
291.596	656
291.654	-665
291.711	218
291.769	1653
291.826	2701
291.884	1592
291.941	478
291.999	781
292.056	1013
292.114	1171
292.171	786
292.228	-15
292.286	1286
292.343	2888
292.401	3888
292.458	1795
292.515	1050
292.573	1649
292.630	1303
292.687	742
292.745	985
292.802	1501
292.859	6519
292.917	12265
292.974	5328
293.031	802
293.089	381
293.146	191
293.203	-42
293.260	705
293.318	1154
293.375	2592
293.432	788
293.489	45
293.546	-64
293.604	1645
293.661	7226
293.718	18356
293.775	8107
293.832	4070
293.889	1393
293.947	1373
294.004	1281
294.061	1403
294.118	6274
294.175	12235
294.232	15144
294.289	5006
294.346	2961
294.403	3488
294.460	1123
294.517	991
294.574	1132
294.631	571
294.688	1582
294.745	6160
294.802	22435
294.859	23624
294.916	6962
294.973	3207
295.030	4435
295.087	3319
295.144	1756
295.201	2555
295.258	1232
295.315	2385
295.372	8794
295.429	13955
295.486	5394
295.542	3971
295.599	11713
295.656	17061
295.713	11438
295.770	14051
295.827	4631
295.883	2775
295.940	2214
295.997	4719
296.054	3639
296.111	1653
296.167	1287
296.224	651
296.281	450
296.338	866
296.394	428
296.451	1679
296.508	5810
296.564	12690
296.621	8062
296.678	18460
296.734	23868
296.791	9156
296.848	4219
296.904	5462
296.961	12182
297.018	18123
297.074	10873
297.131	3488
297.187	2944
297.244	5519
297.301	17227
297.357	25714
297.414	8729
297.470	2941
297.527	2538
297.583	2626
297.640	1908
297.696	1824
297.753	1655
297.809	849
297.866	184
297.922	413
297.979	659
298.035	537
298.092	3898
298.148	9721
298.204	8241
298.261	4625
298.317	8692
298.374	21031
298.430	10414
298.486	3833
298.543	2954
298.599	3399
298.656	4039
298.712	7495
298.768	17757
298.824	10692
298.881	3306
298.937	2629
298.993	1780
299.050	2382
299.106	2073
299.162	2363
299.218	1367
299.275	1040
299.331	1256
299.387	5451
299.443	18039
299.500	16578
299.556	4694
299.612	2833
299.668	2638
299.724	1642
299.780	948
299.837	1798
299.893	3167
299.949	15136
300.005	15289
300.061	14118
300.117	22630
300.173	10393
300.229	4157
300.285	6173
300.341	7697
300.397	3194
300.453	1666
300.510	1706
300.566	1242
300.622	1829
300.678	4536
300.734	11791
300.790	13590
300.845	15895
300.901	9255
300.957	14733
301.013	10498
301.069	3689
301.125	3124
301.181	2815
301.237	2050
301.293	1048
301.349	1005
301.405	1069
301.461	1330
301.516	2380
301.572	2635
301.628	4534
301.684	4050
301.740	6110
301.796	10813
301.851	6738
301.907	12513
301.963	12198
302.019	20536
302.074	49536
302.130	46585
302.186	20998
302.242	8730
302.297	5521
302.353	5998
302.409	11650
302.464	9052
302.520	7813
302.576	19107
302.631	19964
302.687	11043
302.743	4452
302.798	3111
302.854	1755
302.910	2803
302.965	2504
303.021	5940
303.076	6579
303.132	8564
303.187	9696
303.243	3837
303.299	2010
303.354	1630
303.410	1833
303.465	1617
303.521	1371
303.576	1431
303.632	2201
303.687	5752
303.743	15954
303.798	12622
303.853	4595
303.909	3027
303.964	2666
304.020	4960
304.075	7721
304.130	5574
304.186	12710
304.241	11796
304.297	8931
304.352	4065
304.358	3861
304.407	2201
304.449	2677
304.463	2840
304.518	2741
304.539	2442
304.573	1951
304.629	2693
304.630	2733
304.684	4717
304.720	9784
304.739	12333
304.794	18292
304.811	15291
304.850	7913
304.902	4408
304.905	4199
304.960	2428
304.992	2585
305.015	2705
305.071	3015
305.083	2781
305.126	1877
305.173	1443
305.181	1371
305.236	744
305.264	1028
305.292	1426
305.347	2628
305.354	2710
305.402	3091
305.445	2742
305.457	2660
305.512	3680
305.535	3989
305.567	4362
305.622	3627
305.626	3834
305.678	8299
305.716	15854
305.733	18660
305.788	19853
305.807	17503
305.843	13155
305.897	16402
305.898	16438
305.953	15655
305.988	11192
306.008	8695
306.063	6320
306.078	5547
306.118	3692
306.168	2067
306.173	1939
306.228	2094
306.259	1928
306.283	1882
306.338	1732
306.349	1844
306.393	2500
306.440	2886
306.448	2882
306.503	2786
306.530	3020
306.558	4160
306.613	8747
306.620	9403
306.668	13642
306.711	18491
306.723	19076
306.778	14830
306.801	11842
306.833	8161
306.888	3576
306.892	3437
306.943	2885
306.982	2960
306.997	3041
307.052	2396
307.072	2523
307.107	3092
307.162	3996
307.163	3998
307.217	4505
307.253	5022
307.272	5234
307.327	6241
307.343	5960
307.381	5270
307.434	5436
307.436	5577
307.491	9803
307.524	14230
307.546	16017
307.600	17180
307.614	15814
307.655	9864
307.704	5929
307.710	5853
307.765	6396
307.795	7445
307.819	8779
307.874	13075
307.885	13187
307.929	11802
307.975	11336
307.984	11964
308.038	17671
308.065	22226
308.093	34400
308.148	66904
308.156	73135
308.202	105606
308.246	123891
308.257	120986
308.312	78537
308.336	62175
308.366	48565
308.421	29962
308.426	28288
308.475	19905
308.517	14001
308.530	12958
308.585	10842
308.607	9735
308.639	9211
308.694	9335
308.697	9381
308.748	13220
308.787	17365
308.803	17618
308.857	15009
308.877	13932
308.912	13496
308.967	14140
308.967	14147
309.021	20108
309.058	24642
309.076	30699
309.130	53112
309.148	61614
309.185	89799
309.238	135851
309.239	136393
309.293	149963
309.328	146488
309.348	132495
309.402	84219
309.418	72031
309.457	53115
309.508	32214
309.511	31725
309.566	25542
309.598	22179
309.620	22605
309.674	25220
309.688	25936
309.729	25810
309.778	23798
309.783	23367
309.837	18078
309.868	15602
309.892	17851
309.946	24167
309.959	26236
310.001	34979
310.049	42517
310.055	41202
310.109	25537
310.139	17143
310.163	14101
310.218	9001
310.229	8063
310.272	6805
310.319	5611
310.326	5511
310.381	4802
310.409	4521
310.435	4381
310.489	3962
310.499	3918
310.543	4227
310.589	4318
310.598	4364
310.652	4941
310.679	5078
310.706	4633
310.760	3603
310.769	3449
310.814	3282
310.859	3198
310.868	3274
310.923	3474
310.948	3581
310.977	3790
311.031	4259
311.038	4310
311.085	4595
311.128	4766
311.139	4722
311.193	4425
311.218	4252
311.247	4188
311.301	4012
311.308	3986
311.356	4271
311.398	4478
311.410	4478
311.464	4338
311.488	4288
311.518	4437
311.572	4631
311.578	4647
311.626	6378
311.668	7822
311.680	7626
311.734	6539
311.758	6051
311.788	6242
311.842	6567
311.847	6575
311.896	8223
311.937	9680
311.950	9585
312.004	8985
312.027	8682
312.058	7566
312.112	5542
312.117	5323
312.165	5708
312.207	6007
312.297	7337
312.386	7394
312.476	5778
312.566	10549
312.656	6391
312.745	4090
312.835	4918
312.925	6035
313.015	4839
313.104	5987
313.194	4764
313.284	5815
313.374	6907
313.463	7459
313.553	4945
313.643	4310
313.732	4682
313.822	4606
313.912	4866
314.001	5833
314.091	6398
314.180	8625
314.270	7487
314.360	7397
314.449	6102
314.539	5502
314.628	4258
314.718	6262
314.808	5472
314.897	4684
314.987	4614
315.076	5711
315.166	6632
315.255	6312
315.345	6821
315.434	6361
315.524	6473
315.613	6149
315.703	7106
315.792	7931
315.881	5471
315.971	5675
316.060	9193
316.150	11291
316.239	11305
316.328	6295
316.418	5048
316.507	5601
316.597	5972
316.686	5514
316.775	5487
316.865	10374
316.954	4437
317.043	4391
317.133	4383
317.222	4602
317.311	4239
317.400	3561
317.490	6552
317.579	7942
317.668	4314
317.757	5544
317.847	6807
317.936	8087
318.025	12631
318.114	8352
318.203	7245
318.293	13188
318.382	27244
318.471	20638
318.560	25586
318.649	44540
318.738	12215
318.828	6950
318.917	8370
319.006	8660
319.095	16522
319.184	51187
319.273	33451
319.362	17916
319.451	7289
319.540	6523
319.629	12252
319.718	22390
319.807	11154
319.896	17843
319.985	61944
320.074	29885
320.163	7467
320.252	9405
320.341	9717
320.430	10931
320.519	10957
320.608	8540
320.697	6476
320.786	5878
320.875	6759
320.964	8855
321.053	13763
321.142	18279
321.230	21300
321.319	14794
321.408	35697
321.497	16656
321.586	13097
321.675	13303
321.764	15588
321.852	11295
321.941	19613
322.030	15333
322.119	13949
322.207	34059
322.296	19801
322.385	12040
322.474	12743
322.562	39583
322.651	23586
322.740	13177
322.829	17352
322.917	15807
323.006	12126
323.095	11496
323.183	8042
323.272	12337
323.361	16143
323.449	38948
323.538	16344
323.626	26640
323.715	18409
323.804	9368
323.892	23679
323.981	19175
324.069	6041
324.158	12110
324.246	14163
324.335	8177
324.424	13535
324.512	6944
324.601	8987
324.689	13560
324.778	24138
324.866	13321
324.954	6044
325.043	6090
325.131	7048
325.220	11553
325.308	12504
325.397	10852
325.485	8148
325.574	4765
325.662	4468
325.750	5354
325.839	4990
325.927	4898
326.015	5036
326.104	5783
326.192	7171
326.280	4940
326.369	5434
326.457	7665
326.545	12573
326.634	6557
326.722	3371
326.810	4528
326.898	4633
326.987	4690
327.075	9870
327.163	9909
327.251	5985
327.340	10470
327.428	16948
327.516	4623
327.604	2931
327.692	3746
327.781	4498
327.869	6886
327.957	5265
328.045	5273
328.133	4404
328.221	4480
328.309	5002
328.397	5208
328.485	5616
328.574	6799
328.662	20615
328.750	13655
328.838	5437
328.926	4383
329.014	4583
329.102	6586
329.190	15562
329.278	12602
329.366	5218
329.454	4426
329.542	4800
329.630	4972
329.718	5658
329.806	8437
329.893	9188
329.981	13101
330.069	23141
330.157	67139
330.245	131572
330.333	94902
330.421	28575
330.509	16279
330.597	30304
330.684	22593
330.772	9295
330.860	11352
330.948	14553
331.036	8499
331.123	4428
331.211	4995
331.299	5661
331.387	10760
331.475	20383
331.562	7746
331.650	3217
331.738	3925
331.825	4801
331.913	3765
332.001	3849
332.089	4601
332.176	8264
332.264	11783
332.352	11787
332.439	6639
332.527	5979
332.614	4056
332.702	4177
332.790	4144
332.877	6371
332.965	12500
333.052	5791
333.140	5224
333.228	9769
333.315	5450
333.403	4147
333.490	7621
333.578	8450
333.665	12516
333.753	7650
333.840	3760
333.928	5177
334.015	9504
334.103	15604
334.190	55606
334.278	19509
334.365	5765
334.452	5017
334.540	3785
334.627	4293
334.715	6123
334.802	8736
334.889	33793
334.977	41006
335.064	6725
335.151	3992
335.239	5339
335.326	7392
335.413	27744
335.501	47253
335.588	7541
335.675	5502
335.762	6164
335.850	11562
335.937	5742
336.024	10829
336.111	46235
336.199	24302
336.286	5607
336.373	3734
336.460	2794
336.547	3325
336.635	5640
336.722	5064
336.809	4800
336.896	6470
336.983	20115
337.070	48102
337.157	64761
337.245	31760
337.332	22324
337.419	5525
337.506	4899
337.593	4951
337.680	14547
337.767	54218
337.854	17666
337.941	17372
338.028	13249
338.115	6737
338.202	8446
338.289	10370
338.376	29144
338.463	14097
338.550	28176
338.637	36913
338.724	8315
338.811	10009
338.898	4721
338.984	3599
339.071	6027
339.158	6298
339.245	14064
339.332	11347
339.419	7929
339.506	9078
339.593	2492
339.679	4300
339.766	3995
339.853	5300
339.940	11345
340.027	4698
340.113	5038
340.200	6538
340.287	4879
340.374	6130
340.460	10238
340.547	5632
340.634	7870
340.720	23238
340.807	16626
340.894	3637
340.980	4678
341.067	3650
341.154	4949
341.240	6159
341.327	14455
341.414	6429
341.500	7383
341.587	4958
341.674	4077
341.760	8979
341.847	12037
341.933	5088
342.020	2784
342.106	3198
342.193	4647
342.279	7881
342.366	6222
342.452	10872
342.539	6572
342.625	11331
342.712	28652
342.798	13972
342.885	7168
342.971	3187
343.058	3266
343.144	2850
343.230	3939
343.317	4117
343.403	3560
343.490	2734
343.576	3470
343.662	3543
343.749	4029
343.835	5418
343.921	9355
344.008	36042
344.094	86613
344.180	26244
344.267	10876
344.353	23096
344.439	28255
344.525	15998
344.612	14382
344.698	17415
344.784	11561
344.870	5328
344.957	4084
345.043	7149
345.129	5016
345.215	10190
345.301	6806
345.387	4598
345.474	3523
345.560	3502
345.646	4105
345.732	4189
345.818	5556
345.904	4526
345.990	4513
346.076	3292
346.162	6376
346.249	4614
346.335	3467
346.421	3495
346.507	10106
346.593	32987
346.679	11703
346.765	4873
346.851	4253
346.937	3919
347.023	3770
347.108	5055
347.194	3827
347.280	3541
347.366	5415
347.452	9933
347.538	38589
347.624	32709
347.710	27234
347.796	5804
347.882	4250
347.967	4067
348.053	6558
348.139	4290
348.225	3141
348.311	3956
348.397	3110
348.482	5059
348.568	5754
348.654	2836
348.740	3518
348.825	3025
348.911	6813
348.997	18075
349.083	38836
349.168	9186
349.254	4750
349.340	5055
349.425	3596
349.511	5727
349.597	6431
349.682	8450
349.768	25543
349.854	15810
349.939	4884
350.025	3669
350.110	5148
350.196	3893
350.282	2518
350.367	2983
350.453	4996
350.538	4917
350.624	5803
350.709	5356
350.795	4121
350.880	3608
350.966	4069
351.051	4812
351.137	4391
351.222	4016
351.308	9144
351.393	26698
351.479	9798
351.564	4681
351.649	3982
351.735	3116
351.820	2578
351.906	3215
351.991	4690
352.076	14994
352.162	26791
352.247	7526
352.332	5309
352.418	8490
352.503	11554
352.588	37021
352.673	36376
352.759	9202
352.844	5481
352.929	5228
353.014	7023
353.100	4810
353.185	5932
353.270	9208
353.355	11948
353.441	4734
353.526	5006
353.611	8915
353.696	12463
353.781	7990
353.866	4542
353.952	5223
354.037	9278
354.122	21159
354.207	19889
354.292	8774
354.377	4526
354.462	4269
354.547	5584
354.632	5779
354.717	5842
354.802	5623
354.887	3933
354.972	3290
355.057	4008
355.142	3480
355.227	5904
355.312	7431
355.397	15040
355.482	32798
355.567	19893
355.652	11445
355.737	12591
355.822	28415
355.907	29006
355.991	6478
356.076	4240
356.161	3863
356.246	3839
356.331	5363
356.416	8038
356.501	39152
356.585	50087
356.670	12068
356.755	8290
356.840	9769
356.924	28375
357.009	98940
357.094	51582
357.179	14810
357.263	9780
357.348	8199
357.433	9176
357.517	8924
357.602	8011
357.687	5617
357.771	8767
357.856	28506
357.941	21631
358.025	26938
358.110	99773
358.195	63186
358.279	14135
358.364	10598
358.448	22522
358.533	60125
358.617	49974
358.702	42803
358.787	20483
358.871	12577
358.956	11789
359.040	5084
359.125	3534
359.209	4662
359.294	13578
359.378	26745
359.462	11832
359.547	5668
359.631	4557
359.716	3894
359.800	4906
359.885	6362
359.969	5177
360.053	4606
360.138	4253
360.222	6050
360.306	11260
360.391	9251
360.475	14724
360.559	37690
360.644	26262
360.728	20420
360.812	23108
360.896	65406
360.981	36307
361.065	23368
361.149	7946
361.233	6564
361.318	5900
361.402	5927
361.486	6526
361.570	3935
361.654	6684
361.739	12070
361.823	40799
361.907	70025
361.991	18091
362.075	9008
362.159	19022
362.243	14879
362.327	9912
362.411	8059
362.495	6599
362.580	5493
362.664	3848
362.748	4089
362.832	4445
362.916	4075
363.000	10228
363.084	36404
363.168	74640
363.252	25776
363.336	9050
363.420	12238
363.503	40529
363.587	58421
363.671	12358
363.755	8478
363.839	11943
363.923	6528
364.007	10735
364.091	12445
364.175	13070
364.258	63358
364.342	38880
364.426	13660
364.510	9333
364.594	12137
364.677	15334
364.761	53396
364.845	48171
364.929	20444
365.013	17569
365.096	12363
365.180	17406
365.264	16489
365.347	68415
365.431	36966
365.515	11352
365.598	5106
365.682	5896
365.766	9233
365.849	14071
365.933	6405
366.017	9156
366.100	7536
366.184	3189
366.267	4141
366.351	4333
366.435	3690
366.518	3732
366.602	3610
366.685	3602
366.769	4567
366.852	8271
366.936	15595
367.019	9874
367.103	7475
367.186	15614
367.270	5523
367.353	2859
367.436	3774
367.520	4140
367.603	5170
367.687	6883
367.770	11812
367.853	8775
367.937	17112
368.020	33012
368.104	10610
368.187	9285
368.270	15722
368.353	15475
368.437	11578
368.520	19506
368.603	16576
368.687	21769
368.770	43490
368.853	14481
368.936	13475
369.020	16203
369.103	6598
369.186	4972
369.269	5519
369.352	7939
369.436	12544
369.519	9063
369.602	4801
369.685	5285
369.768	5420
369.851	5292
369.934	4194
370.018	4823
370.101	9691
370.184	9817
370.267	7072
370.350	12948
370.433	17772
370.516	31043
370.599	37933
370.682	12609
370.765	30025
370.848	32631
370.931	49570
371.014	25569
371.097	7087
371.180	5953
371.263	4039
371.346	3358
371.429	4281
371.511	4521
371.594	8028
371.677	13361
371.760	17036
371.843	14055
371.926	41712
372.009	99373
372.091	44050
372.174	23557
372.257	46092
372.340	22759
372.423	19568
372.505	25325
372.588	11885
372.671	16058
372.754	47320
372.836	29496
372.919	21515
373.002	50479
373.085	18449
373.167	12223
373.250	24175
373.332	48098
373.415	61017
373.498	119850
373.580	58970
373.663	53777
373.746	81460
373.828	27617
373.911	12540
373.993	11271
374.076	40340
374.159	45555
374.241	15602
374.324	42503
374.406	33869
374.489	32872
374.571	97678
374.654	50593
374.736	23260
374.819	58861
374.901	85676
374.983	92598
375.066	24287
375.148	10437
375.231	28993
375.313	68771
375.395	31255
375.478	8266
375.560	5383
375.643	7211
375.725	15972
375.807	68719
375.890	59022
375.972	22345
376.054	14414
376.136	16515
376.219	9831
376.301	18960
376.383	61890
376.465	29780
376.548	18051
376.630	20041
376.712	52298
376.794	29946
376.877	5975
376.959	4069
377.041	5784
377.123	11134
377.205	14435
377.287	4293
377.369	3769
377.452	3028
377.534	4123
377.616	3596
377.698	3718
377.780	2761
377.862	4160
377.944	4317
378.026	2493
378.108	2802
378.190	3400
378.272	3639
378.354	2450
378.436	2707
378.518	5435
378.600	22131
378.682	19801
378.764	31147
378.846	27199
378.928	9919
379.010	14217
379.091	9747
379.173	4558
379.255	3705
379.337	5131
379.419	13351
379.501	42381
379.583	21946
379.664	6621
379.746	11981
379.828	33069
379.910	44016
379.991	39046
380.073	9870
380.155	5733
380.237	4853
380.318	4057
380.400	4475
380.482	7753
380.564	12916
380.645	10301
380.727	10736
380.809	7831
380.890	6338
380.972	4252
381.053	4578
381.135	5639
381.217	10321
381.298	35637
381.380	21319
381.461	14189
381.543	48416
381.624	70868
381.706	18617
381.787	10066
381.869	12067
381.951	23320
382.032	84937
382.113	68800
382.195	20080
382.276	11963
382.358	17549
382.439	50415
382.521	55367
382.602	84736
382.684	44403
382.765	69633
382.846	78177
382.928	92630
383.009	59175
383.090	41162
383.172	123586
383.253	194205
383.334	81241
383.416	75620
383.497	46502
383.578	23765
383.659	39135
383.741	110618
383.822	268941
383.903	160490
383.984	61142
384.066	94673
384.147	69961
384.228	18126
384.309	12610
384.390	9890
384.471	7692
384.553	8237
384.634	9727
384.715	11238
384.796	7394
384.877	7652
384.958	27152
385.039	39487
385.120	18145
385.201	8685
385.282	9643
385.363	9601
385.444	9195
385.525	13929
385.606	39868
385.687	38684
385.768	12768
385.849	13505
385.930	45357
386.011	83541
386.092	30527
386.173	9042
386.254	6892
386.335	7112
386.416	7133
386.496	19615
386.577	36935
386.658	15330
386.739	9288
386.820	8744
386.901	6629
386.981	6618
387.062	4708
387.143	7133
387.224	28552
387.304	32023
387.385	13107
387.466	7946
387.547	12103
387.627	8512
387.708	10613
387.789	46474
387.869	66946
387.950	21088
388.031	5317
388.111	4718
388.192	12683
388.273	19178
388.353	11461
388.434	6640
388.514	11101
388.595	43952
388.676	66747
388.756	37647
388.837	33828
388.917	23819
388.998	6002
389.078	6480
389.159	4862
389.239	3533
389.320	7986
389.400	6832
389.480	10949
389.561	32048
389.641	19688
389.722	7944
389.802	12871
389.883	13523
389.963	35245
390.043	25104
390.124	9703
390.204	12642
390.284	38715
390.365	27130
390.445	27457
390.525	60945
390.605	55886
390.686	25689
390.766	10007
390.846	5333
390.927	3579
391.007	4474
391.087	5810
391.167	4619
391.247	4412
391.328	5491
391.408	11098
391.488	10036
391.568	3189
391.648	5592
391.728	9095
391.808	7502
391.888	8226
391.969	16034
392.049	30945
392.129	16984
392.209	14445
392.289	35357
392.369	22938
392.449	21863
392.529	14604
392.609	8694
392.689	9198
392.769	29980
392.849	30473
392.929	18447
393.009	47242
393.089	33002
393.169	11263
393.248	17733
393.328	105158
393.408	136699
393.488	30089
393.568	9002
393.648	7972
393.728	5156
393.807	5423
393.887	6197
393.967	7403
394.047	10021
394.127	15610
394.206	23699
394.286	70849
394.366	234763
394.446	287869
394.525	115153
394.605	35543
394.685	21604
394.764	33402
394.844	53772
394.924	40104
395.003	14252
395.083	9884
395.163	8691
395.242	7790
395.322	8407
395.402	5791
395.481	9698
395.561	18077
395.640	54726
395.720	40155
395.799	57249
395.879	58999
395.958	43313
396.038	110364
396.117	294474
396.197	349738
396.276	183605
396.356	72086
396.435	41932
396.515	25061
396.594	17138
396.673	18362
396.753	30177
396.832	107754
396.912	112400
396.991	40334
397.070	11800
397.150	7452
397.229	6067
397.308	5592
397.388	4896
397.467	5029
397.546	3635
397.625	3027
397.705	6251
397.784	7153
397.863	3866
397.942	3559
398.022	4108
398.101	12764
398.180	50833
398.259	30820
398.338	7925
398.417	5840
398.497	3551
398.576	4480
398.655	2507
398.734	3133
398.813	3519
398.892	12132
398.971	51452
399.050	31498
399.129	4755
399.208	3610
399.287	3482
399.366	3363
399.445	3057
399.524	3632
399.603	2438
399.682	6278
399.761	14164
399.840	51906
399.919	47015
399.998	7680
400.077	2442
400.156	2337
400.235	4166
400.313	3161
400.392	3656
400.471	16352
400.550	33208
400.629	10275
400.708	4894
400.786	4653
400.865	12932
400.944	17260
401.023	8985
401.102	2778
401.180	2344
401.259	2856
401.338	3318
401.416	4707
401.495	4545
401.574	3938
401.652	3522
401.731	4926
401.810	3055
401.888	2096
401.967	1979
402.046	3129
402.124	4776
402.203	6470
402.281	3976
402.360	5339
402.438	16509
402.517	14081
402.596	4828
402.674	4954
402.753	2339
402.831	2468
402.910	2477
402.988	7251
403.066	22603
403.145	15593
403.223	8464
403.302	20962
403.380	15358
403.459	13689
403.537	6698
403.615	3886
403.694	1356
403.772	3044
403.850	2973
403.929	3225
404.007	2516
404.085	5325
404.164	5346
404.242	5933
404.320	18460
404.398	62343
404.477	72711
404.555	78224
404.633	77758
404.711	55074
404.789	42318
404.868	11976
404.946	4640
405.024	4239
405.102	2850
405.180	3009
405.258	1951
405.336	2652
405.415	2216
405.493	6670
405.571	4978
405.649	1599
405.727	1819
405.805	5738
405.883	3790
405.961	4207
406.039	5282
406.117	3255
406.195	4173
406.273	13532
406.351	58138
406.429	43231
406.507	8847
406.585	4448
406.663	3781
406.740	4499
406.818	4555
406.896	2555
406.974	3605
407.052	4930
407.130	32344
407.208	56313
407.285	14341
407.363	2983
407.441	2662
407.519	2708
407.596	3088
407.674	5986
407.752	9475
407.830	17143
407.907	9283
407.985	3640
408.063	2710
408.141	2210
408.218	5192
408.296	4652
408.373	2363
408.451	3424
408.529	2966
408.606	1964
408.684	1247
408.762	1377
408.839	964
408.917	1608
408.994	1162
409.072	1323
409.149	1296
409.227	3059
409.304	2848
409.382	1300
409.459	1096
409.537	1845
409.614	2086
409.692	1415
409.769	654
409.846	2355
409.924	3813
410.001	3634
410.079	2946
410.156	2726
410.233	2811
410.311	2395
410.388	774
410.465	3053
410.543	3611
410.620	2589
410.697	2450
410.775	2745
410.852	963
410.929	2609
411.006	5606
411.083	3054
411.161	6670
411.238	10277
411.315	4583
411.392	1809
411.469	4246
411.547	6077
411.624	2783
411.701	2182
411.778	2148
411.855	6167
411.932	3018
412.009	1691
412.086	2181
412.163	2566
412.240	2839
412.317	5133
412.394	3650
412.471	2376
412.548	1275
412.625	2369
412.702	2452
412.779	7037
412.856	4992
412.933	1983
413.010	2644
413.087	4077
413.164	16214
413.241	30398
413.318	7841
413.395	3918
413.471	6938
413.548	4002
413.625	2739
413.702	2743
413.779	3163
413.855	534
413.932	1323
414.009	1134
414.086	2123
414.162	1647
414.239	2543
414.316	14073
414.393	39907
414.469	16028
414.546	2174
414.623	1819
414.699	1854
414.776	2599
414.853	2456
414.929	2916
415.006	2175
415.082	2220
415.159	2529
415.236	2987
415.312	1924
415.389	4127
415.465	5946
415.542	3263
415.618	2041
415.695	3897
415.771	1948
415.848	3110
415.924	2284
416.000	2928
416.077	1797
416.153	1031
416.230	244
416.306	970
416.383	993
416.459	2143
416.535	796
416.612	972
416.688	1327
416.764	988
416.841	790
416.917	1352
416.993	1889
417.069	2734
417.146	4894
417.222	11831
417.298	5579
417.374	1991
417.451	2420
417.527	2719
417.603	3498
417.679	2936
417.755	2372
417.831	1249
417.908	1005
417.984	683
418.060	1395
418.136	4599
418.212	7381
418.288	3723
418.364	2323
418.440	832
418.516	3969
418.592	4357
418.668	9072
418.744	13218
418.820	11315
418.896	3398
418.972	1038
419.048	1737
419.124	5960
419.200	4986
419.276	1116
419.352	1522
419.428	1068
419.504	1543
419.579	3064
419.655	2203
419.731	1655
419.807	7032
419.883	13283
419.959	11440
420.034	3679
420.110	4927
420.186	22733
420.262	22984
420.337	4247
420.413	2575
420.489	2243
420.565	2612
420.640	1719
420.716	2636
420.792	855
420.867	1944
420.943	1824
421.019	3984
421.094	3125
421.170	1581
421.245	319
421.321	1257
421.397	1657
421.472	2294
421.548	4473
421.623	6811
421.699	3248
421.774	2200
421.850	1190
421.925	3643
422.001	3473
422.076	1584
422.152	2202
422.227	4517
422.302	5007
422.378	4175
422.453	6950
422.529	14681
422.604	54497
422.679	141271
422.755	91366
422.830	22765
422.905	6812
422.981	3314
423.056	2251
423.131	2575
423.207	1805
423.282	3290
423.357	7245
423.432	5481
423.508	2740
423.583	11347
423.658	10022
423.733	3058
423.808	3210
423.883	4146
423.959	2684
424.034	1883
424.109	1742
424.184	844
424.259	1077
424.334	1211
424.409	22
424.484	1892
424.559	1500
424.634	1428
424.709	1769
424.784	2965
424.859	2390
424.934	3231
425.009	16043
425.084	29606
425.159	13191
425.234	2338
425.309	1016
425.384	8054
425.459	17688
425.534	6400
425.609	1133
425.683	1171
425.758	1523
425.833	1934
425.908	3573
425.983	7797
426.058	30183
426.132	16179
426.207	2570
426.282	5452
426.357	4764
426.431	1993
426.506	1737
426.581	1856
426.655	2317
426.730	1092
426.805	1059
426.879	2381
426.954	1333
427.029	4093
427.103	20055
427.178	54090
427.253	29940
427.327	4687
427.402	4922
427.476	18527
427.551	10723
427.625	2858
427.700	2508
427.774	1306
427.849	2500
427.923	1501
427.998	688
428.072	1141
428.147	3848
428.221	9444
428.296	18771
428.370	8775
428.444	2060
428.519	5840
428.593	11522
428.667	11330
428.742	12757
428.816	10127
428.890	17464
428.965	30696
429.039	15785
429.113	15243
429.188	6375
429.262	1918
429.336	3048
429.410	14535
429.485	11595
429.559	10279
429.633	9599
429.707	2819
429.781	4242
429.855	23268
429.930	36149
430.004	26697
430.078	50823
430.152	42715
430.226	23514
430.300	25108
430.374	4604
430.448	3553
430.522	12621
430.596	49045
430.670	30199
430.744	28797
430.818	57488
430.892	17747
430.966	3800
431.040	1984
431.114	1430
431.188	1271
431.262	593
431.336	1246
431.410	4662
431.484	14931
431.557	12633
431.631	2433
431.705	1170
431.779	2036
431.853	10836
431.927	9515
432.000	2628
432.074	2145
432.148	2662
432.222	2867
432.295	1433
432.369	2102
432.443	2122
432.516	16658
432.590	52360
432.664	25844
432.737	3520
432.811	1349
432.885	658
432.958	2028
433.032	960
433.106	542
433.179	578
433.253	1563
433.326	1166
433.400	445
433.473	862
433.547	1033
433.620	563
433.694	3437
433.767	4414
433.841	1213
433.914	991
433.988	1264
434.061	1094
434.134	1569
434.208	847
434.281	294
434.355	511
434.428	1337
434.501	1067
434.575	764
434.648	676
434.721	1158
434.795	791
434.868	877
434.941	-223
435.014	-21
435.088	966
435.161	2405
435.234	2345
435.307	4111
435.381	1274
435.454	710
435.527	463
435.600	514
435.673	822
435.746	910
435.819	620
435.892	1192
435.966	463
436.039	752
436.112	1740
436.185	199
436.258	514
436.331	-229
436.404	648
436.477	859
436.550	1088
436.623	732
436.696	-148
436.769	2120
436.842	1073
436.915	2173
436.987	1792
437.060	1463
437.133	659
437.206	456
437.279	1345
437.352	1027
437.425	651
437.498	1362
437.570	4532
437.643	6500
437.716	1677
437.789	1288
437.861	2999
437.934	11665
438.007	5558
438.080	1627
438.152	1458
438.225	4106
438.298	20668
438.370	68146
438.443	36562
438.516	12327
438.588	3213
438.661	842
438.734	929
438.806	718
438.879	2085
438.951	2812
439.024	6012
439.096	2399
439.169	1144
439.241	1417
439.314	842
439.386	2448
439.459	2690
439.531	4852
439.604	2383
439.676	1646
439.749	742
439.821	670
439.893	664
439.966	904
440.038	1471
440.110	2561
440.183	1352
440.255	844
440.327	2627
440.400	9717
440.472	42644
440.544	35463
440.617	5155
440.689	4898
440.761	5329
440.833	8957
440.905	6396
440.978	1690
441.050	578
441.122	934
441.194	888
441.266	806
441.338	863
441.411	1991
441.483	14535
441.555	27082
441.627	6720
441.699	4213
441.771	2783
441.843	1475
441.915	429
441.987	1615
442.059	687
442.131	2062
442.203	2925
442.275	3336
442.347	2461
442.419	1730
442.491	3525
442.563	8687
442.635	7266
442.706	12262
442.778	14109
442.850	2248
442.922	784
442.994	1653
443.066	3620
443.137	2153
443.209	1232
443.281	1642
443.353	2634
443.425	6573
443.496	15561
443.568	15384
443.640	5453
443.711	2529
443.783	841
443.855	1589
443.926	192
443.998	1005
444.070	1778
444.141	2212
444.213	3757
444.285	4051
444.356	2577
444.428	2730
444.499	1013
444.571	-120
444.642	959
444.714	1031
444.785	2578
444.857	4334
444.928	7808
445.000	5311
445.071	5098
445.143	7670
445.214	2985
445.285	3882
445.357	12282
445.428	16350
445.500	30418
445.571	24370
445.642	9428
445.714	8042
445.785	15153
445.856	4395
445.928	3940
445.999	3859
446.070	2359
446.141	3069
446.213	4766
446.284	2492
446.355	1641
446.426	1919
446.497	1098
446.569	2893
446.640	4295
446.711	3672
446.782	649
446.853	1524
446.924	1979
446.995	1881
447.066	1343
447.138	4216
447.209	2371
447.280	700
447.351	564
447.422	861
447.493	1361
447.564	1992
447.635	2865
447.706	1969
447.777	264
447.847	261
447.918	381
447.989	1171
448.060	2667
448.131	7154
448.202	6765
448.273	4708
448.344	2687
448.414	969
448.485	1040
448.556	1788
448.627	372
448.698	1629
448.768	563
448.839	1747
448.910	3213
448.981	3410
449.051	1658
449.122	1580
449.193	1011
449.263	1112
449.334	989
449.405	2806
449.475	4299
449.546	4119
449.616	3653
449.687	4573
449.758	1895
449.828	1575
449.899	448
449.969	906
450.040	841
450.110	1821
450.181	1402
450.251	911
450.322	1102
450.392	1549
450.463	941
450.533	167
450.604	1084
450.674	851
450.744	864
450.815	1400
450.885	1050
450.955	1207
451.026	1210
451.096	1282
451.166	1182
451.237	3496
451.307	10733
451.377	4344
451.447	734
451.518	1063
451.588	801
451.658	2353
451.728	2053
451.799	10606
451.869	13766
451.939	3073
452.009	1129
452.079	891
452.149	1348
452.219	3218
452.289	12220
452.360	10116
452.430	1692
452.500	2165
452.570	2029
452.640	2698
452.710	4702
452.780	11612
452.850	7780
452.920	8298
452.990	2679
453.060	2318
453.129	2888
453.199	3725
453.269	10081
453.339	27016
453.409	43998
453.479	38986
453.549	62188
453.619	68795
453.688	27736
453.758	4857
453.828	1916
453.898	1374
453.968	777
454.037	1951
454.087	1549
454.107	1380
454.168	1239
454.177	1210
454.247	983
454.249	1004
454.316	1238
454.330	1375
454.386	1882
454.411	3326
454.456	5610
454.492	7965
454.525	10073
454.574	5390
454.595	3342
454.655	1420
454.665	1119
454.734	1881
454.736	1921
454.804	2892
454.817	4331
454.873	9933
454.898	11199
454.943	13328
454.979	8175
455.013	3577
455.060	2409
455.082	1984
455.141	2293
455.152	2328
455.221	6663
455.222	6815
455.291	17170
455.303	16429
455.360	12233
455.384	17334
455.430	25811
455.465	20763
455.499	15877
455.546	12543
455.569	11015
455.627	7865
455.638	7333
455.707	2252
455.708	2256
455.777	1383
455.789	1465
455.846	1831
455.869	1463
455.916	746
455.950	1396
455.985	1938
456.031	1543
456.054	1398
456.112	1445
456.124	1446
456.193	1426
456.193	1416
456.262	1729
456.274	1808
456.332	2130
456.355	2049
456.401	1908
456.436	1763
456.470	1415
456.516	1408
456.540	1518
456.597	1227
456.609	1147
456.678	1209
456.678	1200
456.747	530
456.759	652
456.817	1437
456.840	1551
456.886	1554
456.920	1456
456.955	1474
457.001	1320
457.024	1196
457.082	1096
457.093	1136
457.162	1554
457.163	1567
457.232	1944
457.243	1888
457.301	1532
457.324	1465
457.370	1400
457.405	1408
457.439	1556
457.485	1762
457.508	1729
457.566	1466
457.577	1434
457.646	1830
457.647	1840
457.715	2336
457.727	2365
457.784	2459
457.808	2352
457.853	2160
457.889	2503
457.922	2776
457.969	2380
457.991	2174
458.050	2899
458.060	3013
458.129	2869
458.130	2886
458.198	3071
458.211	2894
458.267	1876
458.292	1565
458.336	1555
458.372	1747
458.405	1836
458.453	1670
458.474	1693
458.533	2727
458.543	2860
458.611	3879
458.614	3932
458.680	4428
458.694	4174
458.749	2830
458.775	2188
458.818	1447
458.855	1531
458.887	1758
458.936	1971
458.955	1955
459.016	2162
459.024	2223
459.093	1668
459.097	1691
459.162	2066
459.177	2144
459.230	2436
459.257	2662
459.299	3020
459.338	2989
459.368	2965
459.418	3883
459.437	3950
459.499	3393
459.505	3397
459.574	2894
459.579	2857
459.643	2166
459.659	2267
459.711	2972
459.740	3001
459.780	2466
459.820	2180
459.849	2447
459.900	2936
459.917	2920
459.981	3221
459.986	3246
460.054	3173
460.061	3148
460.123	3249
460.141	3255
460.191	3334
460.222	3859
460.260	4503
460.302	4913
460.328	4538
460.382	3277
460.397	3210
460.462	3296
460.465	3315
460.534	4161
460.543	4197
460.602	7268
460.623	8689
460.671	12883
460.703	17321
460.739	18810
460.783	19531
460.808	17232
460.864	4571
460.876	3383
460.944	2973
460.945	2968
461.013	3097
461.024	3095
461.081	2759
461.104	2793
461.150	3112
461.184	3296
461.218	3108
461.264	2429
461.286	2317
461.345	2582
461.355	2594
461.423	2304
461.425	2306
461.491	2544
461.505	2563
461.559	4033
461.585	4885
461.628	7580
461.665	10082
461.696	11286
461.745	15174
461.764	14200
461.825	6198
461.832	5933
461.901	3261
461.905	3246
461.969	3264
461.985	3315
462.037	3246
462.065	2933
462.105	2737
462.145	2840
462.173	4009
462.225	5941
462.241	6376
462.305	9521
462.310	9451
462.378	7642
462.385	7219
462.446	4086
462.465	3248
462.514	3163
462.545	3638
462.582	3689
462.625	3541
462.650	3579
462.705	3445
462.718	3390
462.785	3068
462.786	3082
462.854	4267
462.865	4462
462.922	5481
462.945	5976
462.990	5639
463.025	4849
463.058	3992
463.104	2994
463.126	3046
463.184	3426
463.194	3450
463.262	3579
463.264	3568
463.330	3151
463.344	3163
463.398	4023
463.424	4275
463.466	3720
463.504	3522
463.533	3814
463.583	3906
463.601	3734
463.663	3218
463.669	3294
463.737	4637
463.743	4704
463.805	6623
463.823	7349
463.873	10790
463.903	12806
463.940	13914
463.982	15714
464.008	13711
464.062	7859
464.076	7230
464.142	3993
464.144	3966
464.211	3585
464.221	3558
464.279	3653
464.301	3725
464.347	4129
464.381	4337
464.414	4644
464.461	5056
464.482	5325
464.540	6374
464.550	6248
464.617	4798
464.620	4753
464.685	5431
464.699	5518
464.753	6554
464.779	7191
464.820	8387
464.859	9500
464.888	9169
464.938	8301
464.956	8214
465.018	7993
465.023	7936
465.091	6897
465.098	6793
465.158	7230
465.177	7382
465.226	6983
465.257	6699
465.293	7158
465.336	7659
465.361	7844
465.416	8270
465.428	8567
465.495	10178
465.496	10222
465.563	14958
465.575	15776
465.631	19454
465.654	21284
465.698	16060
465.734	10867
465.765	9344
465.813	7237
465.833	7289
465.893	7626
465.900	7605
465.968	7514
465.972	7487
466.035	7050
466.052	6976
466.102	7421
466.131	7582
466.170	8056
466.210	8574
466.237	8485
466.290	8278
466.304	8457
466.369	9101
466.372	9114
466.439	9144
466.449	9134
466.506	9759
466.528	9980
466.573	11626
466.607	12830
466.641	16582
466.687	21786
466.708	24315
466.766	31362
466.775	29708
466.842	16834
466.845	16188
466.909	12680
466.925	11900
466.977	11008
467.004	10529
467.044	10829
467.083	11110
467.111	12226
467.163	14266
467.178	14556
467.242	15672
467.245	15613
467.312	13902
467.321	13654
467.379	13947
467.400	14020
467.446	14041
467.480	14013
467.559	13124
467.638	11129
467.717	12040
467.796	11640
467.875	12528
467.955	10855
468.034	14352
468.113	25374
468.192	35223
468.271	17114
468.350	10015
468.429	9441
468.508	9402
468.588	9305
468.667	9499
468.746	9598
468.825	9260
468.904	9277
468.983	9901
469.062	11750
469.141	14715
469.220	9959
469.299	9266
469.378	9496
469.456	12389
469.535	11524
469.614	10917
469.693	9931
469.772	12048
469.851	14002
469.930	12758
470.009	9818
470.088	9057
470.166	9736
470.245	11482
470.324	12096
470.403	11548
470.482	9826
470.560	9031
470.639	9724
470.718	10167
470.797	10060
470.875	9840
470.954	10918
471.033	13142
471.111	9387
471.190	7362
471.269	7048
471.347	7789
471.426	8702
471.505	9880
471.583	11425
471.662	10263
471.740	9182
471.819	9069
471.898	7504
471.976	8770
472.055	9187
472.133	8780
472.212	9960
472.290	10521
472.369	9296
472.447	8493
472.526	8101
472.604	8810
472.683	8731
472.761	9286
472.839	8291
472.918	8696
472.996	8396
473.075	8552
473.153	9350
473.231	7574
473.310	9006
473.388	9201
473.466	9006
473.545	10062
473.623	11665
473.701	11620
473.780	8692
473.858	7624
473.936	9734
474.014	8260
474.093	8126
474.171	10185
474.249	13776
474.327	10382
474.405	7796
474.484	7359
474.562	7331
474.640	8289
474.718	8082
474.796	9705
474.874	8428
474.952	7634
475.030	7382
475.108	8647
475.187	10474
475.265	10384
475.343	9866
475.421	10534
475.499	9658
475.577	8389
475.655	9386
475.733	13964
475.811	22166
475.889	22219
475.966	18702
476.044	7408
476.122	7989
476.200	8539
476.278	7939
476.356	7287
476.434	7705
476.512	7144
476.590	8385
476.667	8062
476.745	6769
476.823	8119
476.901	7056
476.979	7608
477.056	8119
477.134	7868
477.212	8230
477.290	8513
477.367	7044
477.445	7110
477.523	6311
477.601	7587
477.678	6306
477.756	7916
477.834	8628
477.911	6657
477.989	6465
478.066	7080
478.144	6788
478.222	7709
478.299	7380
478.377	8753
478.454	6339
478.532	6530
478.609	6106
478.687	8519
478.764	6302
478.842	6896
478.919	7100
478.997	6922
479.074	6548
479.152	6880
479.229	8028
479.307	6665
479.384	5776
479.461	5989
479.539	5765
479.616	7363
479.694	7113
479.771	6930
479.848	6991
479.926	7612
480.003	10284
480.080	7113
480.157	6378
480.235	6380
480.312	6657
480.389	5506
480.467	8684
480.544	11154
480.621	7911
480.698	7350
480.775	7982
480.853	7632
480.930	7490
481.007	6915
481.084	6712
481.161	8217
481.238	7644
481.315	6305
481.392	6156
481.470	6997
481.547	6950
481.624	6089
481.701	5394
481.778	6912
481.855	6768
481.932	8542
482.009	12734
482.086	12886
482.163	6318
482.240	5621
482.317	7765
482.393	7380
482.470	6624
482.547	6239
482.624	6220
482.701	7793
482.778	6036
482.855	5949
482.932	5343
483.009	5309
483.085	5565
483.162	6327
483.239	7899
483.316	5691
483.393	6285
483.469	5322
483.546	6901
483.623	6738
483.699	4976
483.776	6220
483.853	7076
483.930	8757
484.006	18159
484.083	33114
484.160	28035
484.236	39428
484.313	36308
484.389	24609
484.466	21957
484.543	20367
484.619	19524
484.696	21245
484.772	21272
484.849	22394
484.925	20272
485.002	19298
485.078	19846
485.155	20481
485.231	18818
485.308	18439
485.384	18396
485.461	19923
485.537	25342
485.614	32831
485.690	20409
485.766	17936
485.843	18444
485.919	20683
485.995	23742
486.072	17496
486.148	16967
486.224	16243
486.301	16509
486.377	18086
486.453	18063
486.530	19850
486.606	23157
486.682	27432
486.758	26494
486.835	30113
486.911	23946
486.987	32487
487.063	38659
487.139	42417
487.215	35511
487.292	22845
487.368	18502
487.444	18882
487.520	20495
487.596	19832
487.672	18230
487.748	21286
487.824	27036
487.900	22237
487.976	16823
488.052	17849
488.128	21402
488.204	19293
488.280	17435
488.356	17425
488.432	25368
488.508	42114
488.584	23992
488.660	16055
488.736	15408
488.812	15763
488.888	19584
488.964	22218
489.039	35533
489.115	58275
489.191	47770
489.267	18584
489.343	16304
489.418	15285
489.494	14228
489.570	14231
489.646	15183
489.722	14545
489.797	13837
489.873	16152
489.949	28562
490.024	33627
490.100	14477
490.176	14073
490.251	14327
490.327	18673
490.403	14860
490.478	12551
490.554	11549
490.629	11946
490.705	12294
490.781	12817
490.856	11626
490.932	12999
491.007	13191
491.083	13711
491.158	12278
491.234	14039
491.309	22654
491.385	29239
491.460	14718
491.536	12631
491.611	12683
491.686	12302
491.762	15455
491.837	22753
491.913	39772
491.988	49670
492.063	74111
492.139	31258
492.214	17374
492.289	12200
492.365	9809
492.440	11714
492.515	11818
492.590	12549
492.666	10114
492.741	12009
492.816	16035
492.891	12898
492.967	10791
493.042	9599
493.117	10675
493.192	12129
493.267	13644
493.342	40220
493.418	72120
493.493	23410
493.568	10160
493.643	9539
493.718	10324
493.793	13372
493.868	16860
493.943	13675
494.018	10667
494.093	9428
494.168	9148
494.243	9036
494.318	8434
494.393	8973
494.468	9010
494.543	8692
494.618	8626
494.693	9356
494.768	8001
494.842	8568
494.917	8955
494.992	8427
495.067	9561
495.142	8844
495.217	8626
495.292	9517
495.366	9774
495.441	12374
495.516	14279
495.591	16213
495.665	38007
495.740	107040
495.815	79085
495.890	17461
495.964	12088
496.039	13259
496.114	11648
496.188	11560
496.263	12993
496.338	11288
496.412	12553
496.487	14240
496.561	14501
496.636	16598
496.710	14403
496.785	13827
496.860	15609
496.934	14748
497.009	13666
497.083	14116
497.158	15860
497.232	16461
497.307	18985
497.381	18351
497.455	19590
497.530	24036
497.604	22418
497.679	22072
497.753	27151
497.827	35798
497.902	34750
497.976	37642
498.050	51367
498.125	150709
498.199	232389
498.273	65333
498.348	42977
498.422	37354
498.496	35355
498.570	33671
498.645	28095
498.719	25973
498.793	26254
498.867	29379
498.941	34473
499.016	59415
499.090	174991
499.164	126549
499.238	20147
499.312	16444
499.386	17781
499.460	17452
499.534	14432
499.609	16223
499.683	19531
499.757	20669
499.831	25767
499.905	99336
499.979	156262
500.053	32835
500.127	23864
500.201	19732
500.275	13907
500.349	12906
500.422	13207
500.496	16466
500.570	27226
500.644	60617
500.718	133188
500.792	63926
500.866	13564
500.940	14033
501.013	15056
501.087	12741
501.161	18338
501.235	25146
501.309	34183
501.382	97263
501.456	139944
501.530	31985
501.603	38401
501.677	29196
501.751	8942
501.825	11454
501.898	14526
501.972	41978
502.046	46873
502.119	12643
502.193	18358
502.266	48248
502.340	41114
502.413	20476
502.487	45147
502.561	33741
502.634	15878
502.708	10173
502.781	9349
502.855	8886
502.928	7090
503.002	8491
503.075	6150
503.149	7988
503.222	7898
503.295	8410
503.369	10083
503.442	10999
503.516	25650
503.589	77922
503.662	77189
503.736	23151
503.809	34320
503.882	42345
503.956	40899
504.029	59046
504.102	20505
504.175	18297
504.249	9922
504.322	8894
504.395	9916
504.468	7668
504.542	6945
504.615	6866
504.688	6518
504.761	6178
504.834	7773
504.907	8948
504.980	14439
505.053	11177
505.127	8764
505.200	13799
505.273	10874
505.346	7475
505.419	6790
505.492	6836
505.565	6044
505.638	5886
505.711	5008
505.784	5546
505.857	5076
505.930	6987
506.003	4991
506.076	7620
506.149	7609
506.221	9232
506.294	9074
506.367	14299
506.440	55819
506.513	58482
506.586	12093
506.659	8194
506.731	6512
506.804	6756
506.877	9817
506.950	8737
507.022	5519
507.095	6728
507.168	10461
507.241	7794
507.313	5342
507.386	5382
507.459	8490
507.531	6267
507.604	5745
507.677	6486
507.749	5148
507.822	7089
507.894	12532
507.967	21608
508.040	14959
508.112	12240
508.185	10474
508.257	9895
508.330	13308
508.402	11053
508.475	9405
508.547	9659
508.620	9631
508.692	12487
508.765	12194
508.837	8539
508.909	8376
508.982	8159
509.054	9272
509.127	8283
509.199	7767
509.271	7188
509.344	8179
509.416	8130
509.488	8094
509.560	8270
509.633	8252
509.705	8596
509.777	9748
509.849	11568
509.922	10444
509.994	9707
510.066	9326
510.138	9699
510.210	17248
510.283	19902
510.355	15567
510.427	13414
510.499	11763
510.571	12081
510.643	10625
510.715	15433
510.787	15206
510.859	12604
510.931	11688
511.003	15171
511.076	17322
511.148	11165
511.219	9232
511.291	14164
511.363	18084
511.435	12156
511.507	9554
511.579	11197
511.651	10994
511.723	9311
511.795	8895
511.867	9686
511.939	10616
512.010	14686
512.082	16493
512.154	10146
512.226	10461
512.298	13396
512.369	20981
512.441	18189
512.513	15237
512.585	12027
512.656	12348
512.728	13183
512.800	12815
512.871	11112
512.943	10875
513.015	9944
513.086	11012
513.158	11319
513.230	10938
513.301	12693
513.373	15588
513.444	11386
513.516	9867
513.588	10541
513.659	10495
513.731	12592
513.802	10835
513.874	16969
513.945	28563
514.016	17736
514.088	10019
514.159	10998
514.231	13123
514.302	18490
514.374	17400
514.445	13462
514.516	18906
514.588	20467
514.659	12488
514.730	16960
514.802	20236
514.873	14459
514.944	20239
515.016	17000
515.087	16656
515.158	16149
515.229	23657
515.301	18255
515.372	24064
515.443	22654
515.514	17185
515.585	13507
515.656	12882
515.728	10919
515.799	10183
515.870	10687
515.941	10988
516.012	10105
516.083	13658
516.154	15075
516.225	16300
516.296	16562
516.367	14033
516.438	13871
516.509	16337
516.580	20708
516.651	39217
516.722	147094
516.793	141013
516.864	28515
516.935	24159
517.006	23427
517.077	27782
517.148	49143
517.219	127712
517.289	303244
517.360	134242
517.431	60507
517.502	16769
517.573	14704
517.643	14441
517.714	15507
517.785	16065
517.856	14320
517.926	17582
517.997	18137
518.068	20711
518.138	27419
518.209	32194
518.280	80113
518.350	348155
518.421	279232
518.492	40331
518.562	17714
518.633	15387
518.703	12578
518.774	14893
518.845	15616
518.915	17507
518.986	14967
519.056	14887
519.127	23208
519.197	33696
519.268	69134
519.338	79247
519.408	19037
519.479	20003
519.549	18430
519.620	12587
519.690	10177
519.760	10421
519.831	10054
519.901	11082
519.971	10386
520.042	10308
520.112	11419
520.182	12703
520.253	14495
520.323	11121
520.393	13147
520.463	23245
520.534	15038
520.604	28903
520.674	21151
520.744	13309
520.814	26191
520.885	37009
520.955	22425
521.025	76879
521.095	67791
521.165	12936
521.235	9712
521.305	9553
521.375	9401
521.445	8993
521.515	11939
521.585	12768
521.655	13997
521.725	11223
521.795	11201
521.865	8440
521.935	12378
522.005	13274
522.075	8161
522.145	10122
522.215	8426
522.285	12579
522.355	14054
522.424	22858
522.494	26408
522.564	16872
522.634	18534
522.704	57797
522.774	46659
522.843	11658
522.913	8797
522.983	10497
523.053	10390
523.122	9225
523.192	10172
523.262	24402
523.331	42993
523.401	14081
523.471	9113
523.540	8451
523.610	5705
523.680	7592
523.749	7606
523.819	7872
523.888	9014
523.958	7202
524.027	7525
524.097	8466
524.166	7172
524.236	7681
524.305	9799
524.375	7566
524.444	5884
524.514	8522
524.583	7454
524.653	8040
524.722	10033
524.791	8940
524.861	8394
524.930	7121
524.999	7007
525.069	10456
525.138	9534
525.207	9529
525.277	8013
525.346	6967
525.415	7420
525.484	7176
525.554	7721
525.623	8036
525.692	7236
525.761	6470
525.830	7017
525.900	7068
525.969	8163
526.038	9251
526.107	8064
526.176	16460
526.245	17051
526.314	13586
526.383	16138
526.452	15986
526.522	20521
526.591	33022
526.660	32249
526.729	21064
526.797	16877
526.867	25449
526.935	123401
527.004	164191
527.073	69880
527.142	14100
527.211	9576
527.280	8391
527.349	9863
527.418	5938
527.487	6871
527.555	5898
527.624	5650
527.693	5083
527.762	6590
527.831	5738
527.899	6740
527.968	5469
528.037	6361
528.106	7506
528.174	11487
528.243	12119
528.312	11211
528.380	19010
528.449	9863
528.518	7730
528.586	4599
528.655	5983
528.723	6105
528.792	5057
528.861	5347
528.929	5662
528.998	6208
529.066	5381
529.135	5808
529.203	5206
529.272	4660
529.340	6008
529.409	6349
529.477	5043
529.545	5405
529.614	9108
529.682	6110
529.751	10164
529.819	10707
529.887	8255
529.956	5404
530.024	7069
530.092	5381
530.161	6988
530.229	8113
530.297	7926
530.365	6328
530.434	5169
530.502	4715
530.570	5904
530.638	4124
530.707	6218
530.775	7899
530.843	5898
530.911	6143
530.979	5589
531.047	5617
531.115	6111
531.183	5519
531.252	6111
531.320	6095
531.388	5491
531.456	6422
531.524	4362
531.592	6132
531.660	7274
531.728	5522
531.796	5597
531.864	5742
531.932	6388
532.000	5443
532.067	6352
532.135	7231
532.203	7527
532.271	8149
532.339	10734
532.407	25445
532.475	25506
532.542	12729
532.610	11742
532.678	12040
532.746	34134
532.814	132966
532.881	66570
532.949	11595
533.017	7863
533.084	6735
533.152	6338
533.220	6578
533.287	6211
533.355	6852
533.423	6940
533.490	6258
533.558	5628
533.625	7415
533.693	7066
533.761	8063
533.828	8607
533.896	7344
533.963	12727
534.031	16621
534.098	21169
534.166	16320
534.233	9431
534.300	8806
534.368	9438
534.435	8747
534.503	8867
534.570	8845
534.637	8275
534.705	6779
534.772	6818
534.840	6300
534.907	10282
534.974	13765
535.041	7948
535.109	8163
535.176	6918
535.243	6799
535.310	6176
535.378	6102
535.445	6714
535.512	6432
535.579	6197
535.646	5735
535.714	6070
535.781	9185
535.848	9546
535.915	9740
535.982	10441
536.049	10755
536.116	11390
536.183	8806
536.250	8573
536.317	8849
536.384	8191
536.451	10481
536.518	12052
536.585	9263
536.652	10029
536.719	12687
536.786	11551
536.853	9526
536.920	13091
536.987	17720
537.053	16965
537.120	49989
537.187	91244
537.254	14312
537.321	7601
537.388	8560
537.454	6106
537.521	6147
537.588	6388
537.654	7347
537.721	9436
537.788	10277
537.855	7605
537.921	6708
537.988	7693
538.055	7628
538.121	7406
538.188	7549
538.254	9634
538.321	16909
538.388	14338
538.454	7603
538.521	7251
538.587	7082
538.654	6710
538.720	6777
538.787	6118
538.853	7388
538.920	8674
538.986	9320
539.053	7610
539.119	8725
539.185	7691
539.252	9125
539.318	11922
539.385	12574
539.451	10246
539.517	11867
539.583	11084
539.650	16624
539.716	55480
539.782	32445
539.849	9597
539.915	7755
539.981	8580
540.047	8830
540.114	9035
540.180	10194
540.246	7996
540.312	9700
540.378	16179
540.444	19832
540.510	17294
540.576	57329
540.643	39011
540.709	9571
540.775	8009
540.841	8619
540.907	10183
540.973	16091
541.039	15078
541.105	13462
541.171	9763
541.237	7819
541.303	8447
541.369	11893
541.435	10311
541.500	14857
541.566	12288
541.632	8662
541.698	7530
541.764	7527
541.830	7439
541.896	6518
541.961	7410
542.027	7252
542.093	7663
542.159	9469
542.224	8578
542.290	11672
542.356	15740
542.421	19808
542.487	13283
542.553	9669
542.618	10494
542.684	10093
542.750	8945
542.815	10804
542.881	12828
542.947	42996
543.012	63157
543.078	11769
543.143	8701
543.209	9349
543.274	8501
543.340	10362
543.405	15503
543.471	41727
543.536	17059
543.602	9217
543.667	6942
543.732	9105
543.798	7113
543.863	8440
543.928	8171
543.994	7785
544.059	8012
544.124	8438
544.190	8130
544.255	9170
544.320	9451
544.386	8663
544.451	10501
544.516	12777
544.581	12269
544.646	24200
544.712	67050
544.777	23075
544.842	11666
544.907	10948
544.972	10499
545.037	9956
545.102	10765
545.168	10986
545.233	11362
545.298	11434
545.363	13572
545.428	13834
545.493	18776
545.558	41903
545.623	33093
545.688	12018
545.753	11467
545.818	10913
545.883	11095
545.947	9942
546.012	10902
546.077	11593
546.142	11415
546.207	11402
546.272	12988
546.337	13100
546.401	11602
546.466	11772
546.531	9965
546.596	12101
546.661	10994
546.725	11797
546.790	9992
546.855	9798
546.919	9228
546.984	9987
547.049	10449
547.113	11816
547.178	11204
547.243	10738
547.307	11319
547.372	11477
547.436	13981
547.501	11326
547.565	11375
547.630	11798
547.695	12961
547.759	13425
547.823	13140
547.888	11052
547.952	10529
548.017	10857
548.081	11796
548.146	14010
548.210	15199
548.274	10402
548.339	10307
548.403	10495
548.468	9491
548.532	10126
548.596	9933
548.660	10305
548.725	10527
548.789	11063
548.853	13467
548.917	11439
548.982	12186
549.046	16643
549.110	10449
549.174	11048
549.238	10168
549.303	9679
549.367	11702
549.431	10203
549.495	9738
549.559	10983
549.623	11134
549.687	12354
549.751	16717
549.815	13684
549.879	12259
549.943	10385
550.007	12036
550.071	11282
550.135	15215
550.199	14338
550.263	11154
550.327	11724
550.391	15523
550.455	13690
550.519	10792
550.582	12310
550.646	14267
550.710	19682
550.774	12268
550.838	11495
550.901	11721
550.965	12313
551.029	12875
551.093	14604
551.156	15104
551.220	21958
551.284	33433
551.347	18062
551.411	26024
551.475	44737
551.538	18362
551.602	12290
551.666	11748
551.729	10865
551.793	11723
551.856	11690
551.920	11318
551.983	11677
552.047	11383
552.110	10832
552.174	10686
552.237	10586
552.301	11549
552.364	11567
552.428	10778
552.491	10365
552.554	11613
552.618	10927
552.681	12407
552.745	11546
552.808	14470
552.871	19532
552.934	16248
552.998	12796
553.061	12767
553.124	13005
553.187	13523
553.251	14388
553.314	15965
553.377	15656
553.440	20653
553.503	47640
553.567	141993
553.630	51323
553.693	14177
553.756	12017
553.819	10492
553.882	10916
553.945	11256
554.008	10031
554.071	9392
554.134	10979
554.197	10823
554.260	9591
554.323	11272
554.386	10608
554.449	10255
554.512	10489
554.575	10377
554.638	9561
554.701	10388
554.764	9965
554.827	9569
554.889	9695
554.952	8687
555.015	10100
555.078	9459
555.141	9722
555.203	9121
555.266	9169
555.329	10175
555.391	9947
555.454	9366
555.517	10427
555.580	10012
555.642	8887
555.705	9151
555.768	9643
555.830	8814
555.893	9723
555.955	8411
556.018	9886
556.080	9753
556.143	10226
556.206	9072
556.268	10411
556.330	10470
556.393	9857
556.455	9916
556.518	12589
556.580	15069
556.643	10278
556.705	9577
556.767	9912
556.830	9959
556.892	10260
556.955	13695
557.017	13541
557.079	9442
557.142	9041
557.204	10275
557.266	15490
557.328	18912
557.391	10550
557.453	9844
557.515	9155
557.577	9648
557.639	11326
557.701	9590
557.764	7869
557.826	8809
557.888	9175
557.950	8620
558.012	8888
558.074	8568
558.136	11113
558.198	16325
558.260	14427
558.322	9289
558.384	10626
558.446	11458
558.508	10472
558.570	12954
558.632	16582
558.694	28749
558.756	20353
558.818	20836
558.880	61735
558.942	39322
559.003	18094
559.065	16027
559.127	11189
559.189	10715
559.251	10965
559.312	11297
559.374	14333
559.436	33743
559.498	34651
559.559	12179
559.621	10909
559.683	11096
559.744	14097
559.806	23093
559.868	37079
559.929	18654
559.991	13512
560.052	12329
560.114	16189
560.176	17910
560.237	14164
560.299	20909
560.360	14378
560.422	11416
560.483	11293
560.545	11401
560.606	9928
560.667	10824
560.729	10586
560.790	10322
560.852	10972
560.913	10602
560.974	10640
561.036	9401
561.097	10748
561.158	10944
561.220	11215
561.281	11001
561.342	11849
561.403	12972
561.465	14157
561.526	21948
561.587	37807
561.648	18958
561.709	12386
561.771	11076
561.832	11584
561.893	11331
561.954	11152
562.015	10787
562.076	12137
562.137	11352
562.198	11794
562.259	11330
562.320	10694
562.381	11765
562.442	14594
562.503	14696
562.564	12118
562.625	11815
562.686	11421
562.747	11879
562.808	13002
562.869	11113
562.930	12793
562.991	14515
563.051	13412
563.112	12029
563.173	12074
563.234	11375
563.294	10626
563.355	10777
563.416	12266
563.477	12014
563.537	12851
563.598	13237
563.659	12128
563.720	12575
563.780	12242
563.841	12528
563.901	12689
563.962	12139
564.023	11525
564.083	11907
564.144	12333
564.204	12442
564.265	12338
564.325	13305
564.386	17673
564.446	20986
564.507	12417
564.567	12771
564.628	11949
564.688	11835
564.749	12931
564.809	13482
564.869	14246
564.930	13507
564.990	13050
565.050	12530
565.111	13185
565.171	12526
565.231	12400
565.292	14169
565.352	11601
565.412	13190
565.472	13090
565.532	13451
565.593	14237
565.653	13008
565.713	14233
565.773	14342
565.833	14596
565.893	18628
565.953	16179
566.013	14500
566.074	15620
566.134	18295
566.194	21061
566.254	24340
566.314	21390
566.374	18388
566.434	18438
566.494	17920
566.554	19256
566.614	19048
566.673	20003
566.733	21714
566.793	22835
566.853	23234
566.913	23823
566.973	24272
567.033	26068
567.092	24393
567.152	23618
567.212	24703
567.272	25853
567.331	26446
567.391	27356
567.451	28832
567.511	30527
567.570	31974
567.630	27377
567.690	25319
567.749	25744
567.809	27514
567.868	30048
567.928	32666
567.988	38153
568.047	44040
568.107	51683
568.166	65303
568.226	88613
568.285	124921
568.345	133716
568.404	120696
568.464	108670
568.523	101413
568.582	97900
568.642	102052
568.701	115283
568.761	142865
568.820	197729
568.879	232390
568.939	208753
568.998	173304
569.057	141488
569.116	116377
569.176	95467
569.235	79878
569.294	67729
569.353	58580
569.413	51901
569.472	45372
569.531	41563
569.590	36254
569.649	33367
569.708	31329
569.767	29949
569.827	28615
569.886	27374
569.945	24288
570.004	22758
570.063	20659
570.122	20713
570.181	20277
570.240	20042
570.299	20101
570.358	19534
570.417	18764
570.475	16503
570.534	16478
570.593	16620
570.652	15317
570.711	16395
570.770	14087
570.829	15179
570.887	15263
570.946	15419
571.005	14296
571.064	13159
571.122	13340
571.181	13883
571.240	13629
571.299	12423
571.357	12775
571.416	13821
571.475	13437
571.533	14311
571.592	12938
571.650	12321
571.709	11874
571.768	11916
571.826	11832
571.885	11772
571.943	10686
572.002	11593
572.060	11385
572.119	11896
572.177	10862
572.236	10246
572.294	10093
572.352	12084
572.411	10757
572.469	11021
572.528	10304
572.586	11049
572.644	10986
572.703	14566
572.761	12716
572.819	11410
572.877	11003
572.936	10362
572.994	10305
573.052	9492
573.110	10613
573.169	10880
573.227	9016
573.285	9331
573.343	9859
573.401	10538
573.459	10359
573.517	10019
573.576	10527
573.634	10686
573.692	11013
573.750	10068
573.808	9692
573.866	10428
573.924	11587
573.982	12250
574.040	10585
574.098	9318
574.155	9975
574.213	9398
574.271	9525
574.329	10087
574.387	9425
574.445	9561
574.503	10056
574.560	9042
574.618	9277
574.676	9774
574.734	8990
574.792	9680
574.849	9499
574.907	8915
574.965	8852
575.022	8723
575.080	8514
575.138	9151
575.195	8287
575.253	9302
575.311	10299
575.368	9081
575.426	9505
575.483	10141
575.541	9363
575.598	8448
575.656	9497
575.713	8928
575.771	9825
575.828	9369
575.886	8726
575.943	9704
576.001	9418
576.058	10171
576.115	9321
576.173	10067
576.230	10626
576.287	11434
576.345	10841
576.402	11049
576.459	9742
576.517	9696
576.574	11010
576.631	11048
576.688	9605
576.746	9730
576.803	10186
576.860	9779
576.917	10472
576.974	10317
577.031	10447
577.089	10556
577.146	10122
577.203	10337
577.260	11087
577.317	10363
577.374	10335
577.431	10557
577.488	10629
577.545	9491
577.602	11378
577.659	10167
577.716	11704
577.773	13225
577.830	12143
577.886	11168
577.943	10693
578.000	10886
578.057	11924
578.114	12708
578.171	13616
578.227	15449
578.284	16578
578.341	16196
578.398	13745
578.454	13336
578.511	12507
578.568	12053
578.625	11114
578.681	11220
578.738	10448
578.794	11062
578.851	10729
578.908	10602
578.964	11947
579.021	11497
579.077	11344
579.134	10864
579.190	10342
579.247	10879
579.303	10732
579.360	10427
579.416	10648
579.473	11121
579.529	10802
579.586	10778
579.642	11094
579.698	11496
579.755	12107
579.811	12962
579.867	12578
579.924	12249
579.980	13305
580.036	13988
580.093	16003
580.149	19934
580.205	24801
580.261	22970
580.317	18964
580.374	16099
580.430	16743
580.486	15543
580.542	13280
580.598	13947
580.619	13301
580.654	12184
580.692	12734
580.710	13011
580.765	12160
580.767	12136
580.823	12602
580.838	12583
580.879	12544
580.911	12392
580.935	12270
580.984	11775
580.991	11717
581.047	12327
581.057	12334
581.103	12357
581.130	12842
581.159	13375
581.203	15140
581.215	15586
581.270	15026
581.276	15004
581.326	14801
581.349	14498
581.382	14094
581.422	14018
581.438	13953
581.494	14501
581.494	14494
581.550	13561
581.567	13446
581.606	13233
581.640	13574
581.661	13742
581.713	14297
581.717	14345
581.773	13541
581.786	13483
581.829	13338
581.859	14062
581.885	14669
581.932	14379
581.940	14319
581.996	14662
582.004	14673
582.052	14589
582.077	14347
582.107	14175
582.150	14935
582.163	15141
582.219	15419
582.223	15363
582.274	14633
582.296	14772
582.330	14952
582.368	15333
582.386	15537
582.441	15454
582.441	15450
582.497	15809
582.514	15761
582.552	15929
582.587	16840
582.608	17242
582.659	17574
582.663	17593
582.719	17125
582.732	17009
582.774	16757
582.805	16729
582.830	16714
582.877	17277
582.885	17350
582.941	17383
582.950	17518
582.996	18365
583.023	18756
583.052	19320
583.095	20064
583.107	20299
583.162	22728
583.168	23039
583.218	25690
583.240	25471
583.273	24581
583.313	23742
583.328	23467
583.384	22410
583.385	22358
583.439	21033
583.458	21197
583.494	21548
583.531	21313
583.549	21225
583.603	21737
583.605	21757
583.660	21123
583.676	21252
583.715	21502
583.748	21679
583.770	22007
583.820	22177
583.825	22169
583.881	22959
583.893	23087
583.936	23486
583.965	23269
583.991	23159
584.038	23494
584.046	23579
584.101	24144
584.110	24132
584.156	24052
584.183	24141
584.211	24223
584.255	25699
584.266	26040
584.321	25148
584.328	25075
584.376	25235
584.400	26010
584.431	26983
584.472	26714
584.486	26538
584.541	27089
584.545	27124
584.596	28243
584.617	28314
584.651	28567
584.689	29411
584.706	29794
584.761	30331
584.762	30309
584.816	30412
584.834	30979
584.871	32153
584.906	32728
584.926	33113
584.978	32877
584.980	32898
585.035	33861
585.051	34202
585.090	35442
585.123	36456
585.145	37038
585.195	37001
585.200	37058
585.254	38664
585.267	39010
585.309	41038
585.340	42082
585.364	42471
585.412	42582
585.419	42536
585.473	42733
585.484	42568
585.528	43247
585.556	44349
585.583	45731
585.628	47108
585.637	47796
585.692	53755
585.700	54836
585.747	61359
585.772	62563
585.801	59405
585.845	52444
585.856	51589
585.910	51120
585.917	50919
585.965	51220
585.989	51672
586.019	52975
586.061	54330
586.074	54673
586.128	56687
586.133	56669
586.183	58115
586.205	59009
586.237	60491
586.277	61836
586.292	62388
586.346	63605
586.349	63575
586.401	65039
586.421	65815
586.455	67819
586.493	70046
586.509	71600
586.564	75957
586.565	75997
586.618	88329
586.637	91801
586.672	90754
586.709	85554
586.727	84058
586.781	83651
586.781	83807
586.835	86194
586.853	86924
586.889	89094
586.925	90813
586.944	92298
586.996	96739
586.998	97056
587.052	101329
587.068	102468
587.106	105640
587.140	108179
587.161	110259
587.212	114912
587.215	115451
587.269	122348
587.284	123865
587.323	128507
587.356	132390
587.377	135797
587.427	142812
587.431	143635
587.485	152082
587.499	153776
587.539	160257
587.571	165444
587.593	171102
587.643	182135
587.648	183489
587.702	194811
587.715	197314
587.755	209197
587.786	217925
587.810	225299
587.858	238839
587.864	241446
587.917	263709
587.930	268206
587.971	288038
588.001	302229
588.025	315367
588.073	339938
588.079	344483
588.133	380201
588.145	387345
588.187	421915
588.217	445798
588.241	470065
588.288	515674
588.295	524230
588.348	587516
588.360	600245
588.402	666253
588.431	710630
588.456	758578
588.503	848678
588.510	867304
588.564	1005633
588.575	1032308
588.617	1170990
588.646	1263604
588.671	1358891
588.718	1530790
588.725	1557885
588.778	1735556
588.789	1765024
588.832	1770196
588.861	1753946
588.886	1600278
588.932	1276700
588.939	1247440
588.993	993089
589.004	953163
589.047	1330400
589.075	1589283
589.100	1726342
589.147	1944979
589.154	1943548
589.207	1867564
589.218	1845543
589.261	1767247
589.290	1709120
589.314	1711463
589.361	1710522
589.368	1725820
589.421	1818988
589.433	1833106
589.475	1788001
589.504	1736753
589.528	1567858
589.576	1201249
589.582	1224465
589.635	1447384
589.647	1497451
589.689	1718010
589.718	1846464
589.742	1757109
589.790	1545796
589.795	1523549
589.849	1270167
589.861	1208261
589.902	1067842
589.932	960276
589.955	901518
590.004	770799
590.009	763989
590.062	669426
590.075	644497
590.115	591020
590.146	547345
590.168	526351
590.218	475504
590.222	473636
590.275	431641
590.289	419628
590.328	395824
590.360	374527
590.381	364512
590.431	337208
590.435	336878
590.488	314266
590.503	307029
590.541	292690
590.574	278574
590.594	273195
590.645	256808
590.647	257087
590.700	243148
590.716	238238
590.753	229784
590.787	220609
590.806	217802
590.859	207278
590.859	207795
590.912	198438
590.930	194755
590.965	189702
591.001	183393
591.018	181772
591.071	175327
591.072	174676
591.124	169622
591.143	167059
591.177	163881
591.214	159287
591.230	158503
591.283	154325
591.285	153620
591.336	148988
591.356	146540
591.389	144925
591.427	141853
591.442	140958
591.495	135747
591.498	134895
591.547	131083
591.569	128783
591.600	127831
591.640	125285
591.653	125477
591.706	124715
591.711	124176
591.759	121988
591.782	120242
591.811	120351
591.853	119508
591.864	119060
591.917	114475
591.924	113402
591.969	111116
591.995	109215
592.022	108974
592.066	107467
592.075	107892
592.127	108163
592.137	107814
592.180	108825
592.208	108843
592.233	106819
592.279	101730
592.285	101699
592.338	98342
592.350	97212
592.390	95596
592.421	93762
592.443	93941
592.491	93213
592.495	93440
592.548	91752
592.562	90945
592.600	90728
592.633	89905
592.653	89395
592.704	86699
592.705	87162
592.775	85163
592.846	85543
592.916	83270
592.987	83374
593.058	82052
593.128	78813
593.199	76035
593.270	74259
593.341	73538
593.411	72370
593.482	73037
593.553	70374
593.623	69111
593.694	67762
593.764	69519
593.835	67689
593.906	64690
593.976	64126
594.047	64449
594.117	65549
594.188	66282
594.258	60567
594.329	59966
594.399	58372
594.470	58659
594.540	56011
594.611	56987
594.681	55931
594.751	54909
594.822	56797
594.892	55929
594.963	55325
595.033	55572
595.103	54386
595.174	54245
595.244	60515
595.314	70175
595.384	54612
595.455	51612
595.525	51203
595.595	51596
595.665	50757
595.736	49512
595.806	50304
595.876	48591
595.946	48418
596.016	47172
596.087	47923
596.157	48033
596.227	47418
596.297	47610
596.367	47864
596.437	48404
596.507	52778
596.577	59713
596.647	47809
596.717	44984
596.787	45613
596.857	44731
596.927	46377
596.997	45141
597.067	44310
597.137	48212
597.207	47957
597.277	44363
597.347	44418
597.417	42576
597.487	44762
597.557	44182
597.626	44498
597.696	44519
597.766	48316
597.836	53901
597.906	45743
597.975	42602
598.045	41400
598.115	40409
598.185	40989
598.254	42162
598.324	41020
598.394	41670
598.464	41291
598.533	41038
598.603	40927
598.672	40283
598.742	39818
598.812	39567
598.881	39464
598.951	38543
599.020	37975
599.090	38392
599.159	38722
599.229	37687
599.299	36660
599.368	36401
599.437	37002
599.507	36488
599.576	38259
599.646	38958
599.715	41701
599.785	37316
599.854	37025
599.924	39011
599.993	37807
600.062	35516
600.132	36315
600.201	36338
600.270	37576
600.340	37154
600.409	35859
600.478	36571
600.547	36396
600.617	36342
600.686	36245
600.755	35398
600.824	35172
600.894	36063
600.963	33949
601.032	33234
601.101	34676
601.170	33732
601.239	33881
601.308	33569
601.378	34589
601.447	34122
601.516	32965
601.585	32777
601.654	33112
601.723	34163
601.792	34588
601.861	36287
601.930	40021
601.999	37581
602.068	34316
602.137	32543
602.206	33592
602.275	33588
602.343	35928
602.412	36638
602.481	33245
602.550	31578
602.619	32005
602.688	33235
602.756	32327
602.825	32863
602.894	31947
602.963	31145
603.032	32136
603.100	31694
603.169	31452
603.238	32026
603.307	31691
603.375	31047
603.444	31360
603.513	31649
603.581	31041
603.650	32440
603.719	30095
603.787	30314
603.856	30145
603.924	29984
603.993	31711
604.061	30924
604.130	30827
604.198	30936
604.267	31475
604.335	30914
604.404	29638
604.472	30968
604.541	29243
604.609	30891
604.678	30501
604.746	30320
604.815	30259
604.883	31175
604.951	30538
605.020	29800
605.088	30966
605.156	29954
605.225	30194
605.293	30119
605.361	29801
605.429	29989
605.498	30145
605.566	30803
605.634	30701
605.702	30411
605.771	30339
605.839	30719
605.907	28624
605.975	29451
606.043	29699
606.111	29789
606.180	30147
606.248	35001
606.316	39976
606.384	30414
606.452	33742
606.520	34309
606.588	30609
606.656	26916
606.724	27486
606.792	26807
606.860	25763
606.928	24873
606.996	25656
607.064	24488
607.132	24086
607.200	25602
607.267	25842
607.335	24698
607.403	24535
607.471	24880
607.539	26120
607.607	24861
607.674	24216
607.742	24558
607.810	24809
607.878	25085
607.946	24425
608.013	24781
608.081	24949
608.149	25884
608.216	24045
608.284	25592
608.352	24385
608.419	25831
608.487	30035
608.555	28227
608.622	24071
608.690	24988
608.757	23880
608.825	25440
608.893	26423
608.960	28992
609.028	32502
609.095	31870
609.163	26780
609.230	24918
609.298	26420
609.365	24593
609.432	24949
609.500	26388
609.567	26332
609.635	27435
609.702	27372
609.769	28423
609.837	28519
609.904	28034
609.971	27435
610.039	32572
610.106	40066
610.173	60921
610.241	120027
610.308	195299
610.375	155531
610.442	54714
610.509	34230
610.577	28323
610.644	26306
610.711	26384
610.778	26864
610.845	25741
610.912	28447
610.980	30000
611.047	40541
611.114	36514
611.181	26904
611.248	24285
611.315	24384
611.382	23068
611.449	24438
611.516	24681
611.583	23638
611.650	24312
611.717	24793
611.784	23953
611.851	25582
611.918	28589
611.984	28749
612.051	32494
612.118	50062
612.185	103370
612.252	103271
612.319	34275
612.386	26845
612.452	26394
612.519	27104
612.586	32965
612.653	30090
612.719	24432
612.786	24706
612.853	23534
612.919	23979
612.986	23509
613.053	23484
613.120	22260
613.186	21970
613.253	24745
613.319	22756
613.386	23174
613.453	23174
613.519	25418
613.586	28099
613.652	39339
613.719	33951
613.785	31395
613.852	24657
613.918	22215
613.985	26391
614.051	31018
614.118	53242
614.184	65810
614.250	27947
614.317	23226
614.383	22475
614.449	22693
614.516	22286
614.582	23427
614.648	21955
614.715	21735
614.781	22854
614.847	24282
614.914	25007
614.980	25220
615.046	24133
615.112	25583
615.179	27971
615.245	31960
615.311	44594
615.377	77168
615.443	114578
615.509	66937
615.575	40019
615.642	32959
615.708	31871
615.774	33840
615.840	40377
615.906	51922
615.972	79854
616.038	160090
616.104	236556
616.170	210655
616.236	195951
616.302	65321
616.368	41100
616.434	34386
616.500	32897
616.565	31204
616.631	31533
616.697	29741
616.763	28951
616.829	32323
616.895	41718
616.961	45391
617.026	33471
617.092	26281
617.158	26716
617.224	24651
617.289	25144
617.355	25275
617.421	26086
617.487	26701
617.552	25386
617.618	23913
617.684	23355
617.749	25417
617.815	23533
617.880	24169
617.946	23636
618.012	23270
618.077	24883
618.143	24250
618.208	24313
618.274	25498
618.339	26897
618.405	24678
618.470	25364
618.536	24605
618.601	27701
618.667	28286
618.732	26597
618.798	25909
618.863	24749
618.928	25461
618.994	26653
619.059	29013
619.124	36006
619.190	31061
619.255	25602
619.320	24906
619.386	25499
619.451	24207
619.516	25358
619.581	25054
619.647	24881
619.712	25387
619.777	25355
619.842	26105
619.907	26560
619.972	25682
620.038	26097
620.103	24814
620.168	23812
620.233	23442
620.298	24039
620.363	23812
620.428	24096
620.493	24178
620.558	24253
620.623	24472
620.688	23667
620.753	23950
620.818	23472
620.883	24505
620.948	23858
621.013	24655
621.078	25414
621.143	24055
621.207	26167
621.272	26022
621.337	27857
621.402	28425
621.467	33310
621.532	35920
621.596	30934
621.661	30177
621.726	27747
621.791	28294
621.855	29042
621.920	29927
621.985	29339
622.049	31728
622.114	31255
622.179	29489
622.243	31084
622.308	30894
622.373	31132
622.437	30927
622.502	30353
622.566	29923
622.631	29394
622.695	30336
622.760	31424
622.824	30174
622.889	29992
622.953	31951
623.018	40105
623.082	42965
623.147	31369
623.211	30068
623.276	30155
623.340	28700
623.404	27933
623.469	28516
623.533	28112
623.597	26478
623.662	28002
623.726	27403
623.790	27457
623.854	27867
623.919	27885
623.983	27059
624.047	27829
624.111	26823
624.176	27093
624.240	29876
624.304	33120
624.368	28483
624.432	28101
624.496	27691
624.560	28792
624.625	30295
624.689	27360
624.753	26737
624.817	27631
624.881	25521
624.945	26574
625.009	25983
625.073	26384
625.137	28953
625.201	31145
625.265	33867
625.329	27192
625.393	27998
625.456	27518
625.520	25816
625.584	29602
625.648	32311
625.712	41539
625.776	76656
625.839	98703
625.903	54325
625.967	29271
626.031	38162
626.095	59327
626.158	34233
626.222	24092
626.286	24171
626.349	23035
626.413	23022
626.477	26495
626.540	23115
626.604	22782
626.668	23039
626.731	22901
626.795	24347
626.858	24149
626.922	23188
626.986	24510
627.049	21615
627.113	21785
627.176	21828
627.240	21188
627.303	22294
627.366	22063
627.430	22039
627.493	22420
627.557	22016
627.620	23112
627.684	22854
627.747	23000
627.810	21420
627.874	22592
627.937	20920
628.000	22218
628.064	22500
628.127	20408
628.190	21083
628.253	21122
628.317	21097
628.380	21795
628.443	20518
628.506	21505
628.569	20400
628.632	19755
628.696	20809
628.759	19713
628.822	19335
628.885	19950
628.948	19843
629.011	21035
629.074	19316
629.137	19118
629.200	19076
629.263	21324
629.326	18938
629.389	18748
629.452	18970
629.515	20460
629.578	19659
629.641	20880
629.704	19839
629.767	20498
629.830	20356
629.892	17722
629.955	18967
630.018	20893
630.081	19918
630.144	22179
630.207	20048
630.269	20977
630.332	19406
630.395	19946
630.458	19312
630.520	18275
630.583	18795
630.646	17496
630.708	17270
630.771	16600
630.834	18156
630.896	17036
630.959	17025
631.021	17244
631.084	18051
631.146	19023
631.209	19856
631.272	16775
631.334	17199
631.397	16567
631.459	16524
631.522	16886
631.584	17263
631.646	16649
631.709	17745
631.771	20126
631.834	18619
631.896	15877
631.958	15395
632.021	17230
632.083	14997
632.145	16781
632.208	16706
632.270	17652
632.332	16449
632.395	14720
632.457	16309
632.519	16400
632.581	17028
632.643	14612
632.706	15976
632.768	14909
632.830	15407
632.892	15813
632.954	15456
633.016	17263
633.078	16101
633.141	14267
633.203	15216
633.265	15088
633.327	15679
633.389	14789
633.451	16758
633.513	19312
633.575	18246
633.637	17237
633.698	17204
633.760	16596
633.822	14595
633.884	15289
633.946	15036
634.008	15175
634.070	15886
634.132	19091
634.193	17127
634.255	15045
634.317	14421
634.379	15504
634.441	14624
634.502	15559
634.564	13771
634.626	13973
634.687	13650
634.749	14875
634.811	15254
634.873	14299
634.934	13645
634.996	13913
635.057	14020
635.119	14190
635.181	13724
635.242	14505
635.304	12622
635.365	14994
635.427	12885
635.488	13935
635.550	13640
635.611	13705
635.673	12984
635.734	14651
635.796	13973
635.857	15094
635.918	13637
635.980	13981
636.041	12599
636.102	14218
636.164	13695
636.225	14413
636.286	13170
636.348	14971
636.409	13811
636.470	12229
636.531	12977
636.593	15263
636.654	14982
636.715	12930
636.776	12322
636.838	12383
636.899	12504
636.960	12382
637.021	12773
637.082	12331
637.143	13040
637.204	12376
637.265	11120
637.326	12290
637.387	11905
637.448	11567
637.509	12278
637.570	12242
637.631	13170
637.692	11372
637.753	10804
637.814	12477
637.875	11898
637.936	13248
637.997	11483
638.058	13443
638.119	12877
638.179	11623
638.240	11222
638.301	12372
638.362	11180
638.423	11663
638.483	12712
638.544	11901
638.605	12117
638.666	11230
638.726	12065
638.787	12225
638.848	11284
638.908	11359
638.969	11313
639.030	11702
639.090	10794
639.151	11191
639.211	12272
639.272	12942
639.332	19498
639.393	15431
639.453	11263
639.514	12206
639.574	11801
639.635	10199
639.695	11547
639.756	11859
639.816	12036
639.877	11719
639.937	16368
639.997	21544
640.058	13538
640.118	11364
640.178	10912
640.239	10552
640.299	9918
640.359	10892
640.420	10863
640.480	10094
640.540	10098
640.600	10084
640.661	10021
640.721	10069
640.781	13659
640.841	10960
640.901	11722
640.961	10822
641.021	10349
641.082	11618
641.142	14867
641.202	13468
641.262	9607
641.322	11416
641.382	9693
641.442	10130
641.502	9960
641.562	10934
641.622	9946
641.682	10628
641.742	9839
641.802	10468
641.861	10716
641.921	10647
641.981	11905
642.041	12193
642.101	13423
642.161	11069
642.221	9799
642.280	10351
642.340	9009
642.400	9582
642.460	9649
642.519	10173
642.579	9399
642.639	10475
642.698	7851
642.758	11327
642.818	10036
642.877	10323
642.937	10352
642.997	11496
643.056	15059
643.116	11034
643.175	11288
643.235	9668
643.294	9621
643.354	10545
643.414	9374
643.473	10808
643.532	10234
643.592	10280
643.651	11972
643.711	15741
643.770	23156
643.830	41304
643.889	105971
643.948	45842
644.008	12752
644.067	10556
644.126	9367
644.186	9838
644.245	10325
644.304	8430
644.363	9736
644.423	8548
644.482	9124
644.541	9243
644.600	7777
644.659	9819
644.719	9036
644.778	10959
644.837	10577
644.896	13968
644.955	22988
645.014	17561
645.073	14392
645.132	9414
645.191	9168
645.250	9768
645.309	8790
645.368	9217
645.427	9515
645.486	8494
645.545	11885
645.604	9057
645.663	9580
645.722	8887
645.781	9110
645.840	9401
645.898	9159
645.957	10621
646.016	9955
646.075	13714
646.134	19904
646.192	38942
646.251	76895
646.310	21428
646.369	10290
646.427	9912
646.486	8147
646.545	8534
646.603	9192
646.662	7861
646.721	7637
646.779	7510
646.838	7172
646.896	8786
646.955	8260
647.014	9476
647.072	10045
647.131	15339
647.189	13548
647.248	8203
647.306	8842
647.365	8341
647.423	6653
647.481	9315
647.540	7109
647.598	7718
647.657	7302
647.715	8469
647.773	7241
647.832	7656
647.890	7128
647.948	7530
648.007	8485
648.065	7786
648.123	8261
648.181	11117
648.240	10468
648.298	11266
648.356	8327
648.414	9113
648.472	8614
648.531	8630
648.589	7733
648.647	7689
648.705	7444
648.763	8311
648.821	6928
648.879	6391
648.937	7861
648.995	8586
649.053	8061
649.111	8890
649.169	10667
649.227	12091
649.285	16199
649.343	35936
649.401	32831
649.459	23134
649.516	22564
649.574	12941
649.632	21604
649.690	31853
649.748	16160
649.806	16393
649.863	28154
649.921	18063
649.979	12688
650.037	7920
650.094	6849
650.152	7389
650.210	7092
650.268	8690
650.325	7598
650.383	8163
650.440	6139
650.498	8004
650.556	8183
650.613	7453
650.671	8020
650.728	7425
650.786	8068
650.843	7948
650.901	6034
650.958	7331
651.016	6931
651.073	6833
651.131	6493
651.188	6633
651.246	7811
651.303	6916
651.360	6872
651.418	6997
651.475	7614
651.532	6831
651.590	7291
651.647	6949
651.704	7053
651.762	6770
651.819	8014
651.876	6984
651.933	7270
651.990	6484
652.048	5781
652.105	6354
652.162	7055
652.219	6509
652.276	6883
652.333	6953
652.390	5784
652.448	6856
652.505	7262
652.562	7283
652.619	8439
652.676	11998
652.733	16696
652.790	8279
652.847	6340
652.904	7385
652.961	4994
653.017	7205
653.074	7075
653.131	6587
653.188	5508
653.245	6636
653.302	6845
653.359	5792
653.415	6485
653.472	5964
653.529	6395
653.586	5488
653.642	6281
653.699	5913
653.756	5941
653.813	6171
653.869	6509
653.926	5512
653.983	5847
654.039	6492
654.096	6108
654.152	7081
654.209	5167
654.266	6301
654.322	5800
654.379	7055
654.435	7739
654.492	7663
654.548	8090
654.605	12220
654.661	9963
654.717	7049
654.774	7379
654.830	6769
654.887	6201
654.943	6872
655.000	6957
655.056	7304
655.112	7242
655.168	6805
655.225	6694
655.281	7431
655.337	7570
655.394	11006
655.450	10173
655.506	8113
655.562	10169
655.618	11628
655.675	6434
655.731	6435
655.787	6405
655.843	7321
655.899	5442
655.955	7351
656.011	6019
656.067	5144
656.123	6612
656.179	5869
656.235	7894
656.291	5159
656.347	7082
656.403	5634
656.459	6258
656.515	7381
656.571	7145
656.627	6850
656.683	6594
656.739	8009
656.795	7201
656.850	6817
656.906	7719
656.962	7462
657.018	5593
657.074	5071
657.129	5981
657.185	6874
657.241	6428
657.297	7148
657.352	6537
657.408	5916
657.464	7320
657.519	6097
657.575	5939
657.630	6260
657.686	6265
657.742	5779
657.797	5363
657.853	5674
657.908	8339
657.964	5818
658.019	5803
658.075	7055
658.130	6464
658.186	5349
658.241	6486
658.297	5672
658.352	5779
658.407	6459
658.463	5119
658.518	6483
658.573	6743
658.629	6506
658.684	5896
658.739	6318
658.795	4475
658.850	5942
658.905	5346
658.960	6568
659.016	4667
659.071	6237
659.126	6770
659.181	6309
659.236	8809
659.291	10626
659.346	7994
659.401	8624
659.457	8671
659.512	11750
659.567	9284
659.622	6143
659.677	5983
659.732	5092
659.787	6346
659.842	6441
659.897	7977
659.952	6433
660.007	6485
660.061	6600
660.116	5052
660.171	5831
660.226	6431
660.281	6921
660.336	6134
660.391	6844
660.445	5294
660.500	6002
660.555	6401
660.610	6387
660.664	6299
660.719	5644
660.774	6710
660.828	6208
660.883	5715
660.938	6260
660.992	4775
661.047	6594
661.101	6183
661.156	5919
661.211	6330
661.265	5487
661.320	6167
661.374	6812
661.429	5197
661.483	6561
661.538	5983
661.592	5615
661.647	5693
661.701	6336
661.755	5957
661.810	6109
661.864	5093
661.919	5883
661.973	6335
662.027	6275
662.081	5183
662.136	5740
662.190	5857
662.244	6375
662.299	5809
662.353	5882
662.407	5912
662.461	5352
662.515	5582
662.569	4652
662.624	7154
662.678	6056
662.732	6445
662.786	5698
662.840	6114
662.894	6561
662.948	5550
663.002	6344
663.056	5863
663.110	5730
663.164	5888
663.218	6056
663.272	6124
663.326	7035
663.380	6216
663.434	6032
663.488	5731
663.542	6253
663.595	6455
663.649	6315
663.703	6294
663.757	6174
663.811	5628
663.864	4908
663.918	5893
663.972	5530
664.026	5554
664.079	5578
664.133	6068
664.187	4996
664.240	5592
664.294	5022
664.348	5870
664.401	5743
664.455	6124
664.508	5507
664.562	5914
664.615	6230
664.669	5670
664.722	5465
664.776	5433
664.829	5352
664.883	5451
664.936	5095
664.990	5845
665.043	6974
665.097	5601
665.150	7294
665.203	6356
665.257	6591
665.310	6492
665.363	6786
665.417	6134
665.470	6584
665.523	6032
665.576	6809
665.630	6968
665.683	6333
665.736	6535
665.789	6376
665.842	6255
665.895	7109
665.949	6519
666.002	5754
666.055	6528
666.108	6854
666.161	6287
666.214	6789
666.267	6840
666.320	7907
666.373	7290
666.426	6544
666.479	5250
666.532	6464
666.585	6399
666.638	7836
666.691	6758
666.744	7239
666.796	6428
666.849	6245
666.902	7128
666.955	6110
667.008	5544
667.060	6080
667.113	5359
667.166	5627
667.219	5241
667.271	6049
667.324	6787
667.377	6339
667.430	6776
667.482	7664
667.535	7939
667.587	6254
667.640	6571
667.693	6894
667.745	8427
667.798	10910
667.850	7246
667.903	6868
667.955	6366
668.008	6119
668.060	7425
668.113	6270
668.165	7605
668.218	7090
668.270	7231
668.322	6193
668.375	6017
668.427	6668
668.479	6380
668.532	7072
668.584	6809
668.636	6461
668.689	6982
668.741	5666
668.793	6521
668.845	5851
668.898	7035
668.950	6429
669.002	6864
669.054	6547
669.106	6046
669.158	7455
669.211	6717
669.263	6956
669.315	8296
669.367	8981
669.419	7349
669.471	8286
669.523	8003
669.575	10017
669.627	9157
669.679	7457
669.731	7601
669.783	8325
669.835	8192
669.886	7423
669.938	8200
669.990	8555
670.042	8461
670.094	8980
670.146	9545
670.197	10056
670.249	13589
670.301	16055
670.353	20750
670.404	28762
670.456	39289
670.508	57502
670.560	85499
670.611	133922
670.663	216630
670.715	418760
670.766	702789
670.818	456996
670.869	122870
670.921	47828
670.972	30387
671.024	21612
671.075	17523
671.127	14919
671.178	11306
671.230	10704
671.281	10268
671.333	9329
671.384	9183
671.436	9224
671.487	8950
671.538	8371
671.590	8750
671.641	9160
671.692	9359
671.744	10741
671.795	12138
671.846	8957
671.897	7245
671.949	7854
672.000	7316
672.051	6999
672.102	7711
672.153	6808
672.204	6855
672.256	6492
672.307	7004
672.358	6367
672.409	7769
672.460	6999
672.511	6279
672.562	6178
672.613	7335
672.664	6950
672.715	5946
672.766	6688
672.817	6402
672.868	6035
672.919	6328
672.970	6356
673.021	5278
673.071	5602
673.122	6735
673.173	6560
673.224	5933
673.275	6156
673.326	5034
673.376	5487
673.427	5534
673.478	5434
673.528	6031
673.579	5085
673.630	6130
673.680	5859
673.731	5558
673.782	4639
673.832	6244
673.883	6393
673.934	5446
673.984	5905
674.035	5772
674.085	5816
674.136	6063
674.186	6490
674.237	6427
674.287	8492
674.338	7483
674.388	5695
674.438	6108
674.489	5108
674.539	5338
674.589	6154
674.640	6122
674.690	5461
674.740	5852
674.791	6682
674.841	6255
674.891	6361
674.942	5383
674.992	5017
675.042	5253
675.092	5213
675.142	4773
675.193	5676
675.243	4170
675.293	5350
675.343	4887
675.393	5389
675.443	6163
675.493	5356
675.543	4940
675.593	5993
675.643	5095
675.693	5020
675.743	5294
675.793	5097
675.843	4966
675.893	5372
675.943	5498
675.993	4875
676.043	5181
676.093	5548
676.142	4858
676.192	5304
676.242	5212
676.292	4683
676.341	4909
676.391	5627
676.441	4401
676.491	4631
676.540	4701
676.590	3737
676.640	4389
676.689	5364
676.739	4475
676.789	4846
676.838	4869
676.888	4970
676.937	3562
676.987	4808
677.037	4743
677.086	3755
677.136	4121
677.185	4638
677.235	3883
677.284	4113
677.333	4208
677.383	3691
677.432	3655
677.482	4013
677.531	4286
677.580	3956
677.630	4392
677.679	4356
677.728	4708
677.778	4615
677.827	3848
677.876	4215
677.925	2973
677.975	4295
678.024	4278
678.073	5225
678.122	5079
678.171	5271
678.220	4977
678.269	4949
678.319	5010
678.368	4482
678.417	4938
678.466	4606
678.515	5456
678.564	4329
678.613	4747
678.662	4371
678.711	4673
678.760	4872
678.809	4664
678.857	5211
678.906	4982
678.955	4539
679.004	4848
679.053	4783
679.102	4713
679.151	4852
679.199	4710
679.248	5001
679.297	4776
679.346	4624
679.394	4949
679.443	4569
679.492	4015
679.540	4058
679.589	4650
679.638	5159
679.686	4169
679.735	4683
679.784	4086
679.832	4557
679.881	4387
679.929	4134
679.978	3606
680.026	4767
680.075	4469
680.123	3615
680.172	4412
680.220	3882
680.268	3607
680.317	4512
680.365	4302
680.414	4058
680.462	3908
680.510	3689
680.559	3911
680.607	3901
680.655	3841
680.703	4526
680.752	4493
680.800	4419
680.848	3591
680.896	3972
680.945	4014
680.993	3910
681.041	3911
681.089	3874
681.137	3923
681.185	3831
681.233	3749
681.258	3754
681.281	3750
681.329	3939
681.377	3775
681.380	3844
681.425	4950
681.473	3863
681.502	4354
681.521	4670
681.569	3980
681.617	4302
681.624	4288
681.665	4132
681.713	5025
681.745	4438
681.761	4138
681.809	3853
681.857	4221
681.867	4123
681.904	3731
681.952	3557
681.989	4289
682.000	4502
682.048	4429
682.096	4161
682.111	4185
682.143	4177
682.191	3904
682.233	4389
682.239	4452
682.286	4240
682.334	3185
682.354	3480
682.382	3851
682.430	4176
682.476	3639
682.477	3617
682.525	3829
682.572	4177
682.598	3871
682.620	3587
682.667	4126
682.715	4625
682.720	4629
682.763	4528
682.810	4049
682.841	4100
682.857	4124
682.905	4503
682.952	4152
682.963	4188
683.000	4258
683.047	3915
683.085	4532
683.095	4686
683.142	4641
683.190	4480
683.206	4146
683.237	3522
683.284	4224
683.328	4220
683.332	4210
683.379	4566
683.426	3760
683.449	4041
683.473	4318
683.521	4863
683.568	4102
683.571	4143
683.615	4539
683.662	5175
683.693	4912
683.709	4761
683.757	4133
683.804	4668
683.814	4593
683.851	4240
683.898	4653
683.936	4537
683.945	4514
683.992	4700
684.039	4894
684.057	4814
684.086	4646
684.133	4750
684.179	4470
684.180	4455
684.227	4091
684.274	4745
684.300	5006
684.321	5136
684.368	5381
684.415	5180
684.422	5132
684.462	4894
684.509	5053
684.543	4761
684.556	4613
684.603	4742
684.649	4847
684.665	4939
684.696	5221
684.743	4569
684.786	4911
684.790	4933
684.837	4766
684.883	5845
684.908	5756
684.930	5650
684.977	5972
685.023	5461
685.029	5492
685.070	5522
685.117	5191
685.150	5159
685.164	5199
685.210	5825
685.257	5469
685.272	5624
685.303	5784
685.350	5573
685.393	5566
685.396	5579
685.443	5819
685.490	5757
685.514	6053
685.536	6253
685.583	5785
685.629	5920
685.636	5953
685.675	6052
685.722	6329
685.757	5705
685.768	5514
685.815	6033
685.861	6013
685.878	5883
685.908	5616
685.954	5953
686.000	5628
686.000	5623
686.047	6251
686.093	6837
686.121	6742
686.139	6554
686.185	6384
686.232	5651
686.242	5673
686.278	5807
686.324	5915
686.363	5943
686.370	5973
686.416	5894
686.463	6455
686.484	6592
686.509	6617
686.555	6032
686.601	6473
686.606	6453
686.647	6385
686.693	6356
686.727	6173
686.739	6099
686.785	6195
686.831	5790
686.848	6160
686.877	6789
686.923	6438
686.969	6471
686.969	6470
687.015	6570
687.061	5963
687.090	6115
687.107	6194
687.153	6512
687.199	6346
687.211	6288
687.245	6248
687.291	6248
687.332	6271
687.336	6279
687.382	6803
687.428	6615
687.453	6401
687.474	6108
687.520	5992
687.565	6181
687.574	6084
687.611	5896
687.657	6443
687.695	6418
687.702	6411
687.748	6612
687.794	6632
687.816	6681
687.839	6642
687.885	6091
687.931	6010
687.937	6093
687.976	6685
688.022	6421
688.058	6318
688.067	6313
688.113	6935
688.158	6342
688.179	6647
688.204	7001
688.249	6832
688.295	7061
688.300	7080
688.340	7190
688.386	6842
688.421	6793
688.431	6757
688.477	6806
688.522	6691
688.542	6718
688.567	6853
688.613	6675
688.658	6745
688.663	6747
688.703	6751
688.749	6834
688.784	6922
688.794	6987
688.839	7579
688.884	7392
688.905	7401
688.930	7210
688.975	7248
689.020	6731
689.026	6745
689.065	7079
689.110	6608
689.146	6807
689.155	6891
689.201	6919
689.246	7571
689.267	7554
689.291	7394
689.336	7455
689.381	7227
689.388	7201
689.426	7271
689.471	7014
689.509	7183
689.516	7214
689.561	7522
689.606	7314
689.630	7263
689.651	7162
689.696	6803
689.741	7140
689.750	7029
689.785	6946
689.830	7314
689.871	7386
689.875	7372
689.920	7540
689.965	7580
689.992	7431
690.010	7444
690.054	7549
690.099	7873
690.112	7865
690.144	7756
690.189	7644
690.233	7698
690.233	7708
690.278	7979
690.323	8013
690.354	8411
690.367	8577
690.412	8731
690.457	9045
690.474	9047
690.501	9058
690.546	8829
690.590	9021
690.595	9037
690.635	9521
690.680	9743
690.716	10177
690.724	10389
690.769	11489
690.813	12903
690.836	13517
690.857	14770
690.902	17439
690.946	20763
690.957	21414
690.991	27939
691.035	38432
691.077	49954
691.080	50138
691.124	49007
691.168	43486
691.198	40415
691.213	37068
691.257	28872
691.301	20397
691.318	17443
691.346	15953
691.390	13507
691.434	10718
691.439	10504
691.478	10613
691.522	10440
691.559	10138
691.567	10155
691.611	10385
691.655	10021
691.680	9969
691.699	9890
691.743	9871
691.787	9462
691.800	9473
691.831	9611
691.875	9357
691.919	9417
691.921	9406
691.964	9553
692.008	9254
692.041	9165
692.052	9154
692.096	9428
692.139	9259
692.162	9208
692.183	9242
692.227	9520
692.271	9412
692.282	9456
692.315	9759
692.359	9816
692.402	10143
692.403	10160
692.447	10147
692.490	9848
692.523	9891
692.534	9980
692.578	9894
692.622	10180
692.643	10149
692.666	10005
692.709	9688
692.753	9606
692.763	9536
692.797	9648
692.840	9900
692.884	9846
692.884	9863
692.928	10297
692.971	10239
693.004	10255
693.015	10238
693.059	10186
693.102	10329
693.124	10175
693.146	10207
693.189	10524
693.233	10811
693.245	10846
693.276	11410
693.320	12394
693.363	13254
693.365	13260
693.407	13912
693.450	14880
693.485	15519
693.493	16040
693.537	18722
693.580	21275
693.605	23002
693.624	26086
693.667	32851
693.710	40417
693.725	43076
693.753	57051
693.797	80152
693.840	104894
693.845	107494
693.883	104286
693.926	94851
693.966	86534
693.970	84554
694.013	64143
694.056	44579
694.086	31303
694.099	29773
694.142	25065
694.185	20299
694.206	18113
694.229	17434
694.272	15859
694.315	14492
694.326	14095
694.358	13986
694.401	14042
694.444	13880
694.446	13839
694.487	13257
694.530	12735
694.566	12270
694.573	12231
694.616	11769
694.659	11252
694.686	11125
694.702	11211
694.745	11135
694.787	11068
694.806	10998
694.830	10968
694.873	10950
694.916	11130
694.926	11086
694.959	11115
695.002	11197
695.044	11222
695.046	11200
695.087	11207
695.130	11298
695.166	11261
695.172	11301
695.215	11460
695.258	11620
695.286	11620
695.301	11622
695.343	11593
695.386	11656
695.406	11668
695.428	11672
695.471	11375
695.514	11315
695.526	11277
695.556	11256
695.599	11272
695.641	11057
695.646	11009
695.684	10705
695.726	10521
695.766	10286
695.769	10333
695.811	10674
695.854	10891
695.886	11041
695.896	11010
695.938	10928
695.981	10638
696.005	10589
696.023	10712
696.065	10746
696.108	10845
696.125	10914
696.150	11114
696.192	11205
696.235	11456
696.245	11461
696.277	11413
696.319	11422
696.361	11343
696.365	11317
696.404	11624
696.446	11816
696.485	12136
696.488	12178
696.530	12187
696.572	12186
696.604	12240
696.614	12181
696.656	11813
696.698	11311
696.724	11056
696.740	11156
696.783	11205
696.825	11399
696.844	11469
696.867	11522
696.909	11512
696.951	11439
696.964	11412
696.992	11332
697.034	11088
697.076	10992
697.083	10927
697.118	10999
697.160	11145
697.202	11155
697.203	11128
697.244	11159
697.286	11270
697.323	11286
697.327	11331
697.369	11536
697.411	11568
697.442	11712
697.453	11698
697.494	11377
697.536	11141
697.562	10967
697.578	11084
697.620	11256
697.661	11473
697.682	11546
697.703	11615
697.744	11792
697.786	11829
697.801	11826
697.828	12034
697.869	12323
697.911	12614
697.921	12655
697.952	12470
697.994	12111
698.035	11908
698.040	11842
698.077	11544
698.118	11156
698.160	10826
698.160	10797
698.201	11320
698.243	11827
698.279	12274
698.284	12300
698.325	12186
698.367	12132
698.399	12037
698.408	12029
698.449	11875
698.491	11690
698.518	11564
698.532	11668
698.573	11857
698.614	12057
698.638	12149
698.656	12303
698.697	12592
698.738	12865
698.757	12964
698.779	12776
698.820	12347
698.862	11924
698.877	11739
698.903	12141
698.944	12732
698.985	13329
698.996	13462
699.026	13118
699.067	12596
699.116	11944
699.235	11534
699.354	12063
699.474	12674
699.593	12492
699.713	13720
699.832	12865
699.951	12955
700.070	12224
700.190	12290
700.309	11742
700.428	12075
700.547	11381
700.667	11790
700.786	11648
700.905	12488
701.024	12841
701.143	12397
701.262	11436
701.381	11141
701.500	11724
701.619	12851
701.738	11618
701.857	12704
701.976	11869
702.095	12544
702.214	12675
702.333	12615
702.452	11888
702.571	11713
702.690	12611
702.809	11269
702.928	12358
703.047	11895
703.165	11620
703.284	11840
703.403	11962
703.522	12551
703.640	12072
703.759	13637
703.878	14195
703.997	12126
704.115	11550
704.234	12581
704.353	11474
704.471	11462
704.590	10867
704.708	11482
704.827	11722
704.946	11856
705.064	11751
705.183	12412
705.301	13597
705.420	17685
705.538	16232
705.656	14428
705.775	14850
705.893	23566
706.012	28654
706.130	15513
706.249	14657
706.367	15167
706.485	14667
706.604	14728
706.722	15078
706.840	15260
706.958	15467
707.077	14996
707.195	13969
707.313	14590
707.431	13985
707.549	13699
707.668	13146
707.786	14704
707.904	13694
708.022	13570
708.140	13621
708.258	14351
708.376	13910
708.494	14044
708.612	15013
708.730	19197
708.848	18306
708.966	16727
709.084	16537
709.202	17217
709.320	16930
709.438	16877
709.556	16180
709.674	16228
709.791	17134
709.909	16035
710.027	15654
710.145	16016
710.263	16425
710.380	15973
710.498	15770
710.616	15722
710.733	15626
710.851	16271
710.969	15711
711.086	15797
711.204	14745
711.322	15451
711.439	15537
711.557	15968
711.674	15493
711.792	14693
711.909	17316
712.027	17498
712.144	15492
712.262	15074
712.379	16632
712.497	21965
712.614	22321
712.732	18786
712.849	17599
712.966	17985
713.084	19415
713.201	19343
713.318	18986
713.436	17709
713.553	18766
713.670	19545
713.787	18961
713.905	19336
714.022	17865
714.139	17535
714.256	18193
714.373	17658
714.490	19111
714.608	20169
714.725	32238
714.842	36658
714.959	17609
715.076	17315
715.193	16538
715.310	16290
715.427	16649
715.544	16504
715.661	16282
715.778	16782
715.895	17500
716.011	17138
716.128	17514
716.245	16195
716.362	17423
716.479	18020
716.596	16491
716.713	15642
716.829	15998
716.946	16561
717.063	15761
717.180	15412
717.296	15515
717.413	15581
717.530	15277
717.646	15787
717.763	15165
717.880	15821
717.996	15523
718.113	14940
718.229	15585
718.346	15093
718.462	14977
718.579	16300
718.695	18331
718.812	18259
718.928	16654
719.045	14812
719.161	14197
719.277	14795
719.394	14823
719.510	15684
719.626	14610
719.743	17108
719.859	14291
719.975	15840
720.092	17888
720.208	23540
720.324	17169
720.440	14344
720.557	15139
720.673	16839
720.789	19607
720.905	28126
721.021	19568
721.137	14535
721.253	14585
721.369	14752
721.486	15209
721.602	16593
721.718	14813
721.834	14017
721.950	14526
722.066	13787
722.181	13560
722.297	14189
722.413	13772
722.529	14596
722.645	13051
722.761	13765
722.877	13786
722.993	12954
723.108	13202
723.224	13794
723.340	13860
723.456	13371
723.571	13540
723.687	13778
723.803	13856
723.918	12798
724.034	13057
724.150	13228
724.265	13372
724.381	16832
724.497	19508
724.612	13180
724.728	13002
724.843	12187
724.959	13060
725.074	15772
725.190	18715
725.305	12289
725.421	12313
725.536	12029
725.651	12268
725.767	11444
725.882	12177
725.997	11369
726.113	12181
726.228	12112
726.343	11912
726.459	11834
726.574	12126
726.689	11848
726.804	11585
726.920	11925
727.035	11663
727.150	12126
727.265	12139
727.380	12507
727.495	12053
727.610	10654
727.725	11967
727.841	12911
727.956	19622
728.071	17486
728.186	11608
728.301	11323
728.416	12505
728.531	11515
728.645	11614
728.760	10901
728.875	11206
728.990	11635
729.105	10509
729.220	12112
729.335	11596
729.449	11079
729.564	11242
729.679	10285
729.794	10379
729.908	11512
730.023	10974
730.138	10923
730.253	9861
730.367	10660
730.482	11133
730.596	11229
730.711	11596
730.826	11807
730.940	10924
731.055	10775
731.169	11202
731.284	10074
731.398	10506
731.513	11133
731.627	10787
731.742	11634
731.856	11486
731.970	10208
732.085	9895
732.199	11007
732.313	10791
732.428	11356
732.542	14212
732.656	12656
732.771	10498
732.885	10344
732.999	10121
733.113	11356
733.227	10855
733.342	10320
733.456	10138
733.570	10011
733.684	9648
733.798	10114
733.912	9844
734.026	9867
734.140	10310
734.254	10284
734.368	12250
734.482	13531
734.596	9536
734.710	10151
734.824	9504
734.938	10115
735.052	10042
735.166	10113
735.280	10315
735.393	9876
735.507	9616
735.621	10824
735.735	13034
735.849	10975
735.962	9623
736.076	10364
736.190	10329
736.303	11238
736.417	11776
736.531	9429
736.644	10657
736.758	10482
736.872	9590
736.985	9177
737.099	9739
737.212	9629
737.326	9388
737.439	9365
737.553	9736
737.666	9717
737.780	9147
737.893	9314
738.007	9626
738.120	8949
738.233	9665
738.347	9987
738.460	9992
738.573	9918
738.687	9263
738.800	9611
738.913	9639
739.026	9980
739.140	10406
739.253	10298
739.366	9324
739.479	9742
739.592	9130
739.705	9917
739.818	9374
739.932	9466
740.045	8878
740.158	8675
740.271	9749
740.384	9600
740.497	9310
740.610	9402
740.723	9266
740.836	10269
740.949	9040
741.062	10637
741.174	10385
741.287	9221
741.400	9142
741.513	9449
741.626	9582
741.739	9443
741.851	9575
741.964	9790
742.077	9555
742.189	8921
742.302	9507
742.415	9362
742.527	9218
742.640	8985
742.753	8870
742.865	9688
742.978	9458
743.090	9687
743.203	9405
743.316	9529
743.428	9933
743.541	9617
743.653	8707
743.766	8833
743.878	9400
743.990	9712
744.103	10592
744.215	9023
744.327	9663
744.440	10404
744.552	11035
744.664	9910
744.777	9986
744.889	8843
745.001	9874
745.113	8926
745.226	9089
745.338	9228
745.450	9062
745.562	9621
745.674	9366
745.786	9605
745.898	9337
746.010	9680
746.122	9113
746.234	8910
746.347	9342
746.459	10231
746.570	9204
746.682	9667
746.794	9350
746.906	10528
747.018	10157
747.130	10559
747.242	8923
747.354	9802
747.466	9621
747.577	9710
747.689	9809
747.801	9830
747.913	9463
748.024	8672
748.136	8695
748.248	9543
748.359	9935
748.471	9792
748.583	8623
748.694	10551
748.806	11593
748.918	10706
749.029	10297
749.141	9965
749.252	9780
749.364	9818
749.475	11801
749.587	10385
749.698	9096
749.809	10003
749.921	9781
750.032	10477
750.144	9010
750.255	9489
750.366	9362
750.478	9695
750.589	9438
750.700	9782
750.811	10260
750.923	11155
751.034	12387
751.145	12576
751.256	10234
751.367	10089
751.479	9909
751.590	9606
751.701	10059
751.812	10287
751.923	10529
752.034	9937
752.145	10225
752.256	9342
752.367	10041
752.478	10261
752.589	10594
752.700	9844
752.811	9916
752.922	10135
753.032	10810
753.143	11032
753.254	10182
753.365	11525
753.476	10466
753.586	10754
753.697	9858
753.808	10254
753.919	10056
754.029	10590
754.140	10565
754.251	10902
754.361	10450
754.472	10546
754.582	10419
754.693	10737
754.804	10979
754.914	11004
755.025	10819
755.135	10231
755.246	11238
755.356	10787
755.466	11351
755.577	11540
755.687	11398
755.798	11865
755.908	11425
756.018	11146
756.129	11464
756.239	11992
756.349	11283
756.460	12200
756.570	12624
756.680	11794
756.790	12507
756.900	12067
757.011	12376
757.121	12345
757.231	13208
757.341	13051
757.451	12641
757.561	12458
757.671	12923
757.781	12706
757.891	14155
758.001	13624
758.111	13860
758.221	14218
758.331	13792
758.441	15152
758.551	14594
758.661	14993
758.771	16286
758.880	15178
758.990	14867
759.100	15291
759.210	15734
759.320	15909
759.429	16337
759.539	16850
759.649	16694
759.758	17353
759.868	18297
759.978	17328
760.087	18509
760.197	18013
760.307	17738
760.416	17943
760.526	18811
760.635	20301
760.745	20237
760.854	21114
760.964	21441
761.073	21611
761.182	21865
761.292	22600
761.401	23133
761.511	22639
761.620	23779
761.729	23662
761.839	24821
761.948	25790
762.057	26108
762.166	28040
762.276	27792
762.385	29686
762.494	29617
762.603	30642
762.712	31705
762.822	33102
762.931	34661
763.040	36077
763.149	37541
763.258	38349
763.367	41007
763.476	42790
763.585	45010
763.694	47511
763.803	49011
763.912	51912
764.021	57264
764.130	59323
764.238	63317
764.347	66953
764.456	72601
764.565	78173
764.674	84579
764.783	93172
764.891	103438
765.000	115862
765.109	129262
765.217	148821
765.326	173100
765.435	204760
765.543	246620
765.652	302334
765.761	382781
765.869	490131
765.978	646670
766.086	848714
766.195	1063278
766.303	1174848
766.412	935438
766.520	999706
766.629	1282600
766.737	1050623
766.846	794901
766.954	592288
767.062	451473
767.171	353595
767.279	279012
767.387	231441
767.496	192817
767.604	167619
767.712	147341
767.820	132090
767.928	121308
768.037	111106
768.145	106278
768.253	101341
768.361	98829
768.469	98207
768.577	100298
768.685	105680
768.793	111895
768.901	125196
769.009	144061
769.117	171293
769.225	218490
769.333	295108
769.441	414989
769.549	618478
769.657	900541
769.765	1059600
769.873	909899
769.981	1134711
770.088	890617
770.196	593589
770.304	412704
770.412	303383
770.519	237053
770.627	189489
770.735	157152
770.842	133715
770.950	114108
771.058	99863
771.165	91135
771.273	79442
771.380	74766
771.488	67968
771.595	62339
771.703	57609
771.810	53951
771.918	50414
772.025	46998
772.133	45205
772.240	42902
772.348	39894
772.455	37964
772.562	37318
772.670	34950
772.777	34610
772.884	32511
772.991	31307
773.099	30202
773.206	27874
773.313	27582
773.420	27487
773.528	25039
773.635	25492
773.742	24954
773.849	23629
773.956	21856
774.063	23479
774.170	22256
774.277	21929
774.384	21646
774.491	19366
774.598	20253
774.705	20274
774.812	20078
774.919	19528
775.026	18981
775.133	18174
775.239	17880
775.346	16863
775.453	17737
775.560	16791
775.667	16712
775.773	15759
775.880	17254
775.987	15972
776.093	16278
776.200	14980
776.307	14779
776.413	15093
776.520	13830
776.627	14877
776.733	15076
776.840	13472
776.946	14627
777.053	13764
777.159	14207
777.266	13345
777.372	14440
777.478	14184
777.585	13687
777.691	12672
777.798	12238
777.904	13139
778.010	13368
778.117	14026
778.223	12094
778.329	12068
778.435	11140
778.542	11534
778.648	10872
778.754	10415
778.860	11455
778.966	11628
779.072	11594
779.178	11476
779.284	10833
779.391	13048
779.497	13572
779.603	18286
779.708	27493
779.815	60707
779.920	191829
780.026	316494
780.132	58655
780.238	18294
780.344	14401
780.450	13912
780.556	12278
780.661	10286
780.767	10409
780.873	9462
780.979	9013
781.085	9473
781.190	9566
781.296	9290
781.402	9404
781.507	8359
781.613	8606
781.719	7986
781.824	7771
781.930	8427
782.035	8620
782.141	9139
782.246	8048
782.352	8031
782.457	7767
782.563	8125
782.668	8044
782.773	7825
782.879	7585
782.984	8305
783.090	8808
783.195	9464
783.300	7856
783.405	7348
783.511	6587
783.616	8045
783.721	6954
783.826	7317
783.932	8225
784.037	7124
784.142	7107
784.247	5895
784.352	7975
784.457	7618
784.562	7338
784.667	7045
784.772	7171
784.877	6423
784.982	6622
785.087	6942
785.192	7263
785.297	6471
785.402	6708
785.507	6585
785.611	6728
785.716	5770
785.821	6386
785.926	6343
786.031	6167
786.135	6034
786.240	5551
786.345	5768
786.450	6045
786.554	6786
786.659	6294
786.763	5497
786.868	6470
786.973	6942
787.077	5138
787.182	6363
787.286	6172
787.391	6575
787.495	5599
787.600	5547
787.704	5949
787.809	5564
787.913	5782
788.017	6142
788.122	5394
788.226	6651
788.330	5746
788.435	5728
788.539	6043
788.643	6195
788.747	5730
788.852	6363
788.956	5587
789.060	5778
789.164	5483
789.268	5232
789.372	5558
789.476	4657
789.580	5299
789.684	5275
789.788	5479
789.892	5493
789.996	5201
790.100	5525
790.204	4946
790.308	5907
790.412	5197
790.516	5825
790.620	5451
790.724	5844
790.828	4705
790.931	3949
791.035	5787
791.139	5868
791.242	4453
791.346	5342
791.450	4981
791.554	4691
791.657	3415
791.761	6120
791.864	5072
791.968	4147
792.072	4737
792.175	5086
792.279	4571
792.382	5646
792.486	4230
792.589	4998
792.693	5191
792.796	4509
792.899	5303
793.003	5271
793.106	3541
793.209	4402
793.313	5284
793.416	3919
793.519	4863
793.623	5247
793.726	5496
793.829	5244
793.932	4850
794.035	4883
794.138	5994
794.242	5914
794.345	9052
794.448	14738
794.551	33877
794.654	107029
794.757	188561
794.860	33515
794.963	8260
795.066	5965
795.169	6686
795.272	5170
795.375	6341
795.477	5051
795.580	4752
795.683	3900
795.786	4296
795.889	4195
795.991	5162
796.094	4773
796.197	3372
796.300	5231
796.402	4099
796.505	4286
796.608	3574
796.710	4252
796.813	4502
796.915	3505
797.018	4122
797.120	4140
797.223	2894
797.326	5138
797.428	3902
797.530	3772
797.633	4035
797.735	4423
797.838	4307
797.940	4571
798.042	2456
798.145	3299
798.247	3379
798.349	3357
798.452	3228
798.554	3649
798.656	3033
798.758	4864
798.860	3060
798.962	3559
799.065	2995
799.167	2911
799.269	3723
799.371	4082
799.473	3674
799.575	3702
799.677	3781
799.779	3898
799.881	3272
799.983	3531
800.085	3894
800.187	3194
800.289	2068
800.390	2874
800.492	3885
800.594	4371
800.696	2734
800.798	3216
800.899	3063
801.001	3726
801.103	2776
801.205	3192
801.306	2552
801.408	2939
801.509	3475
801.611	3521
801.713	2942
801.814	2741
801.916	2246
802.017	3140
802.119	2293
802.220	2688
802.322	1761
802.423	4628
802.525	2722
802.626	3734
802.727	2862
802.829	3727
802.930	1707
803.031	3949
803.133	3257
803.234	2960
803.335	3163
803.436	2185
803.538	2355
803.639	1921
803.740	3478
803.841	1897
803.942	3076
804.043	2596
804.144	2432
804.245	2432
804.346	2267
804.447	2318
804.548	3340
804.649	3449
804.750	1819
804.851	2621
804.952	2309
805.053	3367
805.154	1566
805.255	2863
805.355	2169
805.456	2883
805.557	2313
805.658	2106
805.758	3624
805.859	3094
805.960	2092
806.061	2376
806.161	1828
806.262	2290
806.362	2460
806.463	2162
806.564	2522
806.664	2148
806.765	2675
806.865	2610
806.966	2096
807.066	2477
807.166	2493
807.267	2620
807.367	1568
807.468	2094
807.568	1633
807.668	2303
807.769	2273
807.869	2405
807.969	2450
808.069	2541
808.170	2699
808.270	2836
808.370	2759
808.470	3496
808.570	2095
808.670	2254
808.770	2325
808.870	2408
808.970	2700
809.070	1898
809.170	1589
809.271	2956
809.370	2222
809.470	3012
809.570	1786
809.670	1873
809.770	1730
809.870	2469
809.970	3270
810.070	3030
810.169	2396
810.269	1806
810.369	2145
810.469	1920
810.568	1963
810.668	2133
810.768	1794
810.867	1947
810.967	2600
811.066	2275
811.166	1809
811.265	2849
811.365	1438
811.464	1778
811.564	2171
811.663	1837
811.763	1317
811.862	2563
811.962	2603
812.061	1661
812.160	1876
812.260	1824
812.359	2870
812.458	2786
812.557	7136
812.657	9142
812.756	3624
812.855	2464
812.954	2269
813.053	2964
813.153	2288
813.252	1869
813.351	2183
813.450	2755
813.549	1752
813.648	2251
813.747	1763
813.846	2631
813.945	1338
814.044	2830
814.143	1749
814.242	2196
814.341	1896
814.439	1957
814.538	2642
814.637	2318
814.736	2453
814.835	2758
814.933	2673
815.032	2618
815.131	2262
815.229	2286
815.328	2817
815.427	1666
815.525	2584
815.624	3717
815.722	2302
815.821	3158
815.919	2629
816.018	2333
816.116	3140
816.215	3549
816.313	2833
816.412	3524
816.510	3281
816.609	4818
816.707	4259
816.805	3858
816.904	3733
817.002	4846
817.100	5592
817.198	6975
817.296	6417
817.395	8023
817.493	9934
817.591	11800
817.689	15181
817.787	19756
817.885	32433
817.983	56904
818.081	106961
818.179	221173
818.277	436351
818.375	415100
818.473	163397
818.571	71664
818.669	45047
818.767	38419
818.865	39582
818.963	45831
819.061	63104
819.158	101823
819.256	185637
819.354	354078
819.452	579310
819.549	468907
819.647	212480
819.745	100377
819.842	59243
819.940	39486
820.038	29498
820.135	23309
820.233	19342
820.330	14440
820.428	12094
820.525	10875
820.623	9269
820.720	8341
820.818	7982
820.915	6938
821.012	6397
821.110	5024
821.207	5538
821.304	4591
821.402	5065
821.499	4686
821.596	4884
821.693	3954
821.791	3957
821.888	4007
821.985	4483
822.082	4626
822.179	3566
822.276	2456
822.373	2921
822.470	2954
822.567	3054
822.664	2589
822.761	3196
822.858	2079
822.955	1858
823.052	2609
823.149	1851
823.246	2072
823.343	2297
823.440	3220
823.536	1790
823.633	2162
823.730	1936
823.827	2143
823.923	1924
824.020	2957
824.117	1684
824.213	769
824.310	2110
824.407	2429
824.503	1984
824.600	1524
824.696	2109
824.793	1898
824.889	739
824.986	1535
825.082	1338
825.179	1353
825.275	1115
825.371	1122
825.468	1899
825.564	743
825.660	1015
825.757	1289
825.853	1771
825.949	963
826.045	1661
826.142	377
826.238	688
826.334	737
826.430	414
826.526	1171
826.622	882
826.718	1150
826.814	1065
826.910	2250
827.006	872
827.102	632
827.198	1475
827.294	866
827.390	953
827.486	1434
827.582	51
827.678	494
827.774	1694
827.869	272
827.965	1639
828.061	1026
828.157	629
828.252	1224
828.348	304
828.444	2208
828.539	1200
828.635	553
828.731	1936
828.826	274
828.922	2043
829.017	1224
829.113	1121
829.208	885
829.304	-34
829.399	1298
829.495	882
829.590	757
829.685	318
829.781	1483
829.876	479
829.971	1239
830.066	592
830.162	900
830.257	648
830.352	1013
830.447	1149
830.543	1181
830.638	143
830.733	1163
830.828	915
830.923	922
831.018	587
831.113	412
831.208	174
831.303	536
831.398	879
831.493	461
831.588	264
831.683	117
831.778	801
831.873	511
831.967	1497
832.062	865
832.157	236
832.252	2009
832.346	-62
832.441	949
832.536	1056
832.631	3071
832.725	2421
832.820	184
832.914	277
833.009	519
833.104	135
833.198	593
833.293	-55
833.387	599
833.482	1156
833.576	449
833.670	779
833.765	-262
833.859	1181
833.954	1317
834.048	573
834.142	-78
834.237	-56
834.331	-64
834.425	104
834.519	561
834.613	1230
834.708	827
834.802	779
834.896	434
834.990	-53
835.084	-72
835.178	6
835.272	412
835.366	-383
835.460	146
835.554	818
835.648	392
835.742	347
835.836	1014
835.930	105
836.024	1108
836.117	750
836.211	893
836.305	446
836.399	1179
836.493	375
836.586	1503
836.680	253
836.774	567
836.867	837
836.961	-648
837.055	347
837.148	415
837.242	201
837.335	-513
837.429	332
837.522	416
837.616	1141
837.709	1327
837.803	526
837.896	1334
837.989	466
838.083	789
838.176	1847
838.269	1900
838.363	1069
838.456	951
838.549	983
838.642	1415
838.735	2699
838.829	1660
838.922	-121
839.015	643
839.108	129
839.201	1170
839.294	990
839.387	942
839.480	550
839.573	1099
839.666	827
839.759	1695
839.852	-121
839.945	915
840.038	496
840.131	891
840.223	626
840.316	946
840.409	1307
840.502	118
840.594	338
840.687	526
840.780	1011
840.873	-109
840.965	1137
841.058	612
841.150	652
841.243	1461
841.336	162
841.428	931
841.521	-213
841.613	-197
841.706	90
841.798	1065
841.890	855
841.983	476
842.075	1426
842.167	590
842.260	-486
842.352	672
842.444	861
842.537	808
842.629	2453
842.721	1271
842.813	416
842.905	-257
842.997	730
843.090	1001
843.182	1110
843.274	1036
843.366	3583
843.458	5961
843.550	4231
843.642	1179
843.734	-12
843.826	638
843.918	613
844.009	520
844.101	26
844.193	725
844.285	431
844.377	392
844.469	610
844.560	248
844.652	406
844.744	842
844.835	511
844.927	984
845.019	230
845.110	991
845.202	94
845.293	454
845.385	95
845.476	349
845.568	524
845.659	-308
845.751	378
845.842	709
845.934	-683
846.025	408
846.116	-189
846.208	70
846.299	-836
846.390	342
846.482	540
846.573	521
846.664	559
846.755	956
846.846	948
846.937	-1278
847.029	783
847.120	-146
847.211	49
847.302	800
847.393	-1069
847.484	627
847.575	199
847.666	-233
847.757	86
847.847	341
847.938	1266
848.029	350
848.120	-467
848.211	-221
848.302	381
848.392	245
848.483	233
848.574	-237
848.664	-152
848.755	642
848.846	220
848.936	109
849.027	940
849.118	564
849.208	-682
849.299	461
849.389	194
849.480	-46
849.570	1118
849.661	132
849.751	42
849.841	52
849.932	-94
850.022	-118
850.112	-215
850.203	585
850.293	-182
850.383	260
850.474	-275
850.564	368
850.654	-110
850.744	529
850.834	2
850.924	65
851.014	5
851.104	164
851.194	352
851.284	889
851.374	207
851.464	98
851.554	-238
851.644	404
851.734	939
851.824	2172
851.914	2589
852.004	7342
852.094	6550
852.183	1127
852.273	441
852.363	511
852.452	-297
852.542	628
852.632	-263
852.721	160
852.811	253
852.901	-113
852.990	-197
853.080	166
853.169	-316
853.259	-724
853.348	-692
853.438	-114
853.527	-550
853.617	-853
853.706	1260
853.795	584
853.885	758
853.974	867
854.063	2251
854.152	3702
854.242	2428
854.331	345
854.420	99
854.509	-451
854.598	-961
854.687	443
854.777	12
854.866	36
854.955	-382
855.044	-75
855.133	-204
855.222	-295
855.311	-769
855.400	594
855.488	-539
855.577	135
855.666	133
855.755	842
855.844	224
855.933	119
856.021	-18
856.110	562
856.199	-388
856.288	-410
856.376	-542
856.465	-313
856.554	111
856.642	-200
856.731	-12
856.819	275
856.908	-282
856.996	307
857.085	-263
857.173	-23
857.262	145
857.350	144
857.438	-191
857.527	346
857.615	304
857.703	-59
857.792	-822
857.880	-2
857.968	-145
858.056	-486
858.145	406
858.233	166
858.321	-1017
858.409	611
858.497	-678
858.585	-310
858.673	-418
858.761	-80
858.849	-481
858.937	-111
859.025	-259
859.113	1113
859.201	-965
859.289	-777
859.377	-493
859.465	-277
859.552	-427
859.640	322
859.728	379
859.816	-504
859.903	353
859.991	-134
860.079	39
860.166	-837
860.254	-148
860.342	553
860.429	-637
860.517	-869
860.604	208
860.692	-420
860.779	-656
860.867	-451
860.954	-198
861.042	4
861.129	-65
861.216	-584
861.304	-985
861.391	-438
861.478	-421
861.565	-561
861.653	445
861.740	-763
861.827	-492
861.914	467
862.001	336
862.089	-376
862.176	597
862.263	-200
862.350	-917
862.437	-903
862.524	-650
862.611	-557
862.698	-508
862.785	-117
862.871	21
862.958	-476
863.045	-55
863.132	158
863.219	246
863.306	-1215
863.392	642
863.479	-518
863.566	-524
863.652	126
863.739	-350
863.826	-260
863.912	-700
863.999	-822
864.086	351
864.172	12
864.259	-314
864.345	136
864.432	-209
864.518	-538
864.604	-394
864.691	-385
864.777	-675
864.863	34
864.950	-335
865.036	59
865.122	-613
865.209	-92
865.295	-573
865.381	-930
865.467	-158
865.553	100
865.639	-737
865.726	-180
865.812	311
865.898	418
865.984	1074
866.070	2120
866.156	3097
866.242	655
866.328	38
866.414	170
866.499	-197
866.585	86
866.671	-806
866.757	-432
866.843	-1291
866.928	-102
867.014	-738
867.100	-137
867.186	-397
867.271	593
867.357	25
867.442	-159
867.528	-842
867.614	122
867.699	-288
867.785	-91
867.870	-221
867.956	-81
868.041	236
868.127	-757
868.212	-283
868.297	-647
868.383	269
868.468	420
868.553	733
868.639	1499
868.724	964
868.809	2294
868.894	387
868.979	-178
869.065	-358
869.150	-847
869.235	-1189
869.320	-384
869.405	-522
869.490	-799
869.575	-1278
869.660	-85
869.745	-300
869.830	-621
869.915	-918
870.000	-328
870.085	-473
870.169	-561
870.254	-783
870.339	-481
870.424	-569
870.509	-682
870.593	-501
870.678	-95
870.763	-1123
870.847	-142
870.932	-711
871.016	-924
871.101	-596
871.186	-326
871.270	-476
871.355	110
871.439	-613
871.523	-231
871.608	-444
871.692	141
871.777	-320
871.861	-808
871.945	-929
872.030	-597
872.114	-818
872.198	-952
872.282	-1019
872.367	-331
872.451	-1411
872.535	-414
872.619	-388
872.703	11
872.787	-313
872.871	-649
872.955	-1065
873.039	-363
873.123	-521
873.207	370
873.291	-1324
873.375	-1117
873.459	-303
873.543	-1108
873.627	-712
873.711	-1478
873.794	-155
873.878	-1263
873.962	-737
874.045	-703
874.129	-245
874.137	-288
874.213	-715
874.245	-801
874.296	-944
874.352	-703
874.380	-585
874.460	-320
874.464	-310
874.547	-762
874.568	-733
874.631	-650
874.676	-537
874.714	-439
874.784	-533
874.798	-553
874.881	114
874.892	-15
874.965	-872
874.999	-603
875.048	-276
875.107	-437
875.131	-486
875.215	-184
875.215	-183
875.298	66
875.323	-268
875.381	-965
875.430	-625
875.465	-411
875.538	-662
875.548	-694
875.631	-614
875.646	-591
875.714	-567
875.753	-872
875.798	-1152
875.861	-534
875.881	-348
875.964	-625
875.968	-621
876.047	-514
876.076	-271
876.130	98
876.183	-255
876.213	-450
876.291	-401
876.296	-388
876.379	-753
876.398	-507
876.462	241
876.506	-48
876.545	-349
876.613	-138
876.628	-62
876.711	-988
876.721	-894
876.794	-282
876.828	-333
876.877	-378
876.935	-507
876.960	-540
877.043	-392
877.043	-393
877.125	-592
877.150	-288
877.208	303
877.258	-119
877.291	-320
877.365	-629
877.374	-682
877.456	-227
877.472	-231
877.539	-136
877.579	-230
877.622	-392
877.687	-457
877.704	-476
877.787	-579
877.794	-617
877.869	-1006
877.901	-846
877.952	-440
878.008	-125
878.034	-53
878.115	-89
878.117	-89
878.199	-458
878.222	-289
878.282	127
878.329	8
878.364	-25
878.437	-396
878.447	-467
878.529	-467
878.544	-538
878.611	-670
878.651	-266
878.694	56
878.758	-336
878.776	-417
878.858	-592
878.865	-567
878.941	-199
878.972	-141
879.023	-206
879.078	-518
879.105	-582
879.185	-216
879.187	-207
879.269	-89
879.292	-149
879.351	-528
879.399	-614
879.433	-459
879.506	192
879.516	214
879.598	-813
879.613	-750
879.680	-91
879.720	-10
879.762	-187
879.827	-911
879.844	-968
879.926	-219
879.933	-185
880.007	-335
880.040	-516
880.089	-468
880.147	159
880.171	346
880.253	484
880.254	482
880.335	276
880.360	223
880.417	427
880.467	861
880.499	1134
880.574	2220
880.580	2276
880.662	514
880.680	436
880.744	145
880.787	-89
880.825	-293
880.893	-609
880.907	-585
880.989	-144
881.000	-130
881.070	-335
881.106	-396
881.152	-389
881.213	-238
881.233	-197
881.315	-281
881.319	-264
881.396	217
881.426	31
881.478	-375
881.532	-312
881.559	-362
881.639	-7
881.641	7
881.722	-184
881.745	-231
881.803	-4
881.852	283
881.885	177
881.958	267
881.966	300
882.047	-62
882.064	-73
882.129	398
882.171	681
882.210	553
882.277	479
882.291	512
882.372	427
882.383	384
882.454	41
882.489	-92
882.535	-248
882.596	-450
882.616	-569
882.697	-714
882.702	-721
882.778	-284
882.808	-219
882.859	-163
882.914	-59
882.940	-2
883.020	-87
883.021	-84
883.102	544
883.127	414
883.183	-276
883.233	-620
883.264	-407
883.339	95
883.345	86
883.426	172
883.445	127
883.507	333
883.551	361
883.587	100
883.657	-171
883.668	-130
883.749	288
883.763	269
883.830	-31
883.869	13
883.910	123
883.975	68
883.991	-25
884.072	-160
884.081	-202
884.152	-40
884.187	-118
884.233	-213
884.292	57
884.314	16
884.394	-204
884.398	-235
884.475	-197
884.504	-162
884.555	-91
884.610	180
884.636	89
884.716	-372
884.716	-367
884.797	49
884.821	74
884.877	-188
884.927	-300
884.958	-85
885.033	304
885.038	290
885.118	99
885.139	12
885.199	218
885.244	283
885.279	174
885.350	364
885.359	378
885.439	304
885.456	211
885.520	233
885.561	485
885.600	349
885.667	-112
885.680	-115
885.760	-121
885.773	-100
885.840	119
885.878	138
885.920	275
885.984	580
886.000	569
886.080	391
886.089	368
886.160	234
886.195	177
886.240	83
886.300	-56
886.320	-152
886.400	-367
886.406	-393
886.480	-294
886.511	-273
886.560	9
886.616	341
886.640	348
886.720	609
886.722	602
886.800	183
886.827	140
886.879	58
886.932	-147
886.959	-83
887.038	361
887.039	369
887.119	612
887.143	656
887.198	452
887.248	342
887.278	557
887.354	1017
887.358	981
887.437	181
887.459	-20
887.517	546
887.564	840
887.596	675
887.669	515
887.676	518
887.755	337
887.774	320
887.835	459
887.880	585
887.914	530
887.985	268
887.994	248
888.073	62
888.090	35
888.153	366
888.195	600
888.232	494
888.300	237
888.311	240
888.391	253
888.405	241
888.470	249
888.510	320
888.549	755
888.615	1429
888.628	1261
888.708	206
888.720	44
888.787	295
888.825	405
888.866	121
888.930	-318
888.945	-297
889.024	-153
889.035	-135
889.103	-226
889.140	-270
889.182	-10
889.245	373
889.261	444
889.340	786
889.349	822
889.419	210
889.454	-95
889.498	-18
889.559	87
889.577	198
889.656	702
889.664	751
889.735	723
889.768	706
889.814	670
889.873	622
889.978	262
890.083	343
890.187	692
890.292	575
890.397	1034
890.501	781
890.606	1133
890.710	213
890.815	-151
890.919	753
891.024	328
891.128	711
891.233	17
891.337	483
891.442	594
891.546	773
891.650	-130
891.755	1301
891.859	622
891.963	265
892.068	-80
892.172	708
892.276	-109
892.380	378
892.484	250
892.589	480
892.693	13
892.797	582
892.901	-560
893.005	1030
893.109	34
893.213	443
893.317	539
893.421	417
893.525	-474
893.629	438
893.733	687
893.837	507
893.941	195
894.045	1238
894.148	913
894.252	1304
894.356	509
894.460	607
894.564	746
894.667	1117
894.771	318
894.875	320
894.978	-121
895.082	-61
895.186	56
895.289	1078
895.393	1316
895.496	-90
895.600	129
895.703	842
895.807	301
895.910	58
896.014	668
896.117	-110
896.221	441
896.324	-78
896.427	144
896.531	78
896.634	471
896.737	733
896.840	316
896.944	135
897.047	601
897.150	1003
897.253	-172
897.356	566
897.460	-238
897.563	12
897.666	157
897.769	855
897.872	583
897.975	49
898.078	1001
898.181	414
898.284	244
898.387	174
898.490	781
898.593	911
898.695	-130
898.798	304
898.901	837
899.004	218
899.107	-36
899.209	717
899.312	-710
899.415	480
899.518	-125
899.620	206
899.723	-389
899.826	1151
899.928	875
900.031	-102
900.133	161
900.236	357
900.338	156
900.441	-104
900.543	127
900.646	760
900.748	3
900.851	-158
900.953	522
901.055	502
901.158	-358
901.260	287
901.362	376
901.465	-213
901.567	232
901.669	-503
901.771	358
901.873	473
901.976	-467
902.078	973
902.180	263
902.282	776
902.384	-468
902.486	207
902.588	378
902.690	616
902.792	666
902.894	757
902.996	177
903.098	640
903.200	196
903.302	-138
903.404	610
903.505	-210
903.607	-230
903.709	612
903.811	471
903.913	144
904.014	49
904.116	-2
904.218	-86
904.319	26
904.421	462
904.523	454
904.624	253
904.726	525
904.827	-256
904.929	805
905.030	123
905.132	314
905.233	235
905.335	407
905.436	-219
905.537	286
905.639	454
905.740	-283
905.841	238
905.943	879
906.044	-11
906.145	-33
906.247	55
906.348	528
906.449	-110
906.550	372
906.651	398
906.752	467
906.854	-235
906.955	32
907.056	-24
907.157	665
907.258	-2
907.359	-127
907.460	378
907.561	537
907.662	287
907.762	282
907.863	-271
907.964	-89
908.065	-232
908.166	-120
908.267	-172
908.367	146
908.468	-4
908.569	370
908.670	733
908.770	-460
908.871	532
908.971	-332
909.072	-79
909.173	953
909.273	-23
909.374	489
909.474	-178
909.575	158
909.675	-95
909.776	808
909.876	292
909.977	67
910.077	218
910.177	463
910.278	6
910.378	232
910.478	-293
910.579	-153
910.679	-40
910.779	201
910.879	555
910.980	-41
911.080	-198
911.180	-222
911.280	-751
911.380	750
911.480	779
911.580	541
911.680	1
911.780	1140
911.880	-236
911.980	-151
912.080	-708
912.180	251
912.280	224
912.380	-180
912.480	865
912.580	211
912.679	252
912.779	1286
912.879	-330
912.979	299
913.078	340
913.178	534
913.278	-327
913.377	618
913.477	258
913.577	-205
913.676	-61
913.776	479
913.875	-49
913.975	162
914.074	159
914.174	27
914.273	-206
914.373	732
914.472	461
914.572	-25
914.671	262
914.770	110
914.870	274
914.969	-68
915.068	253
915.167	-142
915.267	342
915.366	313
915.465	-30
915.564	707
915.663	196
915.763	-207
915.862	155
915.961	140
916.060	-434
916.159	402
916.258	-406
916.357	425
916.456	582
916.555	-210
916.654	-624
916.752	-486
916.851	-244
916.950	-732
917.049	133
917.148	-111
917.247	-535
917.345	523
917.444	-26
917.543	391
917.642	-120
917.740	96
917.839	-665
917.937	522
918.036	370
918.135	-27
918.233	885
918.332	-362
918.430	-412
918.529	-140
918.627	-384
918.726	405
918.824	107
918.923	-215
919.021	-410
919.119	-823
919.218	453
919.316	134
919.414	-303
919.512	-627
919.611	-841
919.709	-533
919.807	-673
919.905	441
920.003	-136
920.102	83
920.200	-670
920.298	-251
920.396	97
920.494	-865
920.592	-367
920.690	292
920.788	-608
920.886	-288
920.984	-417
921.082	-46
921.180	419
921.277	-355
921.375	-444
921.473	-405
921.571	-586
921.669	519
921.766	3
921.864	815
921.962	524
922.060	-185
922.157	-17
922.255	453
922.352	-491
922.450	100
922.548	-128
922.645	-428
922.743	-284
922.840	-188
922.938	205
923.035	650
923.133	-693
923.230	413
923.327	-63
923.425	549
923.522	-642
923.619	-1237
923.717	-1009
923.814	-418
923.911	-110
924.008	182
924.106	-553
924.203	-961
924.300	-736
924.397	-902
924.494	-418
924.591	-202
924.688	137
924.786	152
924.883	-522
924.979	-371
925.077	-243
925.173	609
925.270	217
925.367	-325
925.464	501
925.561	-475
925.658	-263
925.755	-113
925.852	232
925.948	421
926.045	163
926.142	-672
926.239	29
926.335	66
926.432	-570
926.529	708
926.625	699
926.722	-89
926.818	-795
926.915	71
927.011	-692
927.108	-367
927.204	-621
927.301	-714
927.397	124
927.494	-281
927.590	-216
927.687	-235
927.783	-564
927.879	-153
927.976	-653
928.072	1091
928.168	-732
928.264	-275
928.361	-168
928.457	-104
928.553	-216
928.649	160
928.745	-473
928.841	-6
928.937	-391
929.033	-599
929.129	127
929.225	277
929.321	194
929.417	-377
929.513	-581
929.609	-843
929.705	-1014
929.801	-762
929.897	-1205
929.993	-40
930.089	-634
930.184	-546
930.280	-355
930.376	-503
930.471	-1501
930.567	-55
930.663	-1455
930.758	75
930.854	-1051
930.950	-255
931.045	-521
931.141	-333
931.236	-375
931.332	-1025
931.427	-811
931.523	-223
931.618	40
931.714	-756
931.809	-67
931.905	-348
932.000	-1004
932.095	-489
932.191	-520
932.286	-416
932.381	-1105
932.476	278
932.572	-1461
932.667	-665
932.762	-488
932.857	-155
932.952	38
933.047	103
933.142	-490
933.237	-469
933.332	-1082
933.427	-351
933.522	-780
933.617	55
933.712	-253
933.807	-424
933.902	-740
933.997	-327
934.092	-720
934.187	-659
934.282	-294
934.376	-13
934.471	-1250
934.566	-233
934.661	-1085
934.755	-527
934.850	-428
934.945	-35
935.039	-587
935.134	22
935.228	-1145
935.323	-520
935.417	-799
935.512	-262
935.606	-1253
935.701	-160
935.795	-852
935.890	-1265
935.984	-97
936.079	-615
936.173	-806
936.267	-1342
936.362	-1155
936.456	-944
936.550	-737
936.644	-32
936.738	732
936.833	-76
936.927	-273
937.021	-1077
937.115	-424
937.209	-1877
937.303	-1088
937.397	378
937.491	-1159
937.585	-262
937.679	-117
937.773	474
937.867	-126
937.961	-87
938.055	-1285
938.149	-674
938.243	-259
938.337	122
938.430	-380
938.524	-57
938.618	539
938.712	348
938.805	-552
938.899	-410
938.993	-1007
939.086	-72
939.180	20
939.274	301
939.367	-383
939.461	-539
939.554	-976
939.648	441
939.741	-487
939.835	-98
939.928	184
940.022	-5
940.115	-775
940.208	-101
940.302	-656
940.395	-450
940.488	-660
940.582	221
940.675	-969
940.768	-369
940.861	-1091
940.954	-134
941.048	-947
941.141	-647
941.234	-486
941.327	-39
941.420	-1
941.513	-512
941.606	-1031
941.699	293
941.792	-788
941.885	-141
941.978	-1193
942.071	109
942.164	-1147
942.257	-210
942.349	-123
942.442	-414
942.535	-613
942.628	-836
942.721	-915
942.813	-242
942.906	516
942.999	222
943.091	-828
943.184	-673
943.277	-606
943.369	-133
943.462	184
943.554	-1017
943.647	-348
943.739	-997
943.832	50
943.924	-1103
944.017	-26
944.109	-572
944.201	-988
944.294	396
944.386	-802
944.478	-464
944.571	-207
944.663	-592
944.755	-1071
944.847	-866
944.940	-584
945.032	-994
945.124	-958
945.216	124
945.308	-434
945.400	-178
945.492	-1503
945.584	-346
945.676	-925
945.768	-234
945.860	-661
945.952	-710
946.044	-583
946.136	157
946.228	-913
946.320	-739
946.412	-166
946.503	-279
946.595	107
946.687	-589
946.779	-267
946.870	-614
946.962	-168
947.054	402
947.145	-768
947.237	-567
947.329	-730
947.420	39
947.512	-909
947.603	67
947.695	-465
947.786	-1614
947.878	337
947.969	-1010
948.061	-1255
948.152	-761
948.243	-545
948.335	13
948.426	-933
948.517	-457
948.609	-750
948.700	-626
948.791	-464
948.882	-898
948.973	-627
949.065	-334
949.156	-674
949.247	-774
949.338	-1074
949.429	-278
949.520	-466
949.611	-1164
949.702	-1078
949.793	-440
949.884	-1250
949.975	-638
950.066	-207
950.157	-427
950.247	-37
950.338	-317
950.429	-880
950.520	-151
950.611	-467
950.701	-522
950.792	-643
950.883	-425
950.973	-603
951.064	-497
951.155	-726
951.245	26
951.336	270
951.427	-1525
951.517	-330
951.608	-195
951.698	-744
951.788	-1749
951.879	-726
951.969	-371
952.060	-1305
952.150	-508
952.240	-405
952.331	-975
952.421	393
952.511	-1049
952.602	-674
952.692	-591
952.782	-1094
952.872	-381
952.962	-503
953.052	-747
953.143	-393
953.233	-530
953.323	-275
953.413	-974
953.503	-430
953.593	422
953.683	-89
953.773	-996
953.863	-663
953.953	-456
954.042	-942
954.132	-643
954.222	-814
954.312	-449
954.402	-461
954.492	-269
954.581	-61
954.671	-961
954.761	-1045
954.850	408
954.940	-1064
955.030	-350
955.119	-1302
955.209	-574
955.298	-844
955.388	-246
955.477	32
955.567	-1574
955.656	-585
955.746	211
955.835	-1143
955.925	-766
956.014	-1186
956.103	-761
956.193	-550
956.282	-420
956.371	-730
956.461	16
956.550	-1380
956.639	-1143
956.728	-690
956.817	-724
956.906	-1225
956.995	-322
957.085	-1080
957.174	-145
957.263	-954
957.352	-687
957.441	66
957.530	131
957.619	19
957.708	-972
957.796	-1033
957.885	-458
957.974	-695
958.063	-775
958.152	-1136
958.241	-363
958.329	-979
958.418	-563
958.507	-882
958.596	-198
958.684	-900
958.773	-931
958.861	-460
958.950	29
959.039	-594
959.127	-249
959.216	-4
959.304	-794
959.393	-925
959.481	174
959.570	-412
959.658	-739
959.746	-1400
959.835	-362
959.923	-387
960.011	-135
960.100	-440
960.188	-227
960.276	-918
960.365	-504
960.453	-563
960.541	-480
960.629	-291
960.717	-26
960.805	-1108
960.893	-310
960.981	-903
961.069	-596
961.158	-677
961.245	-249
961.333	-1130
961.421	-955
961.509	-370
961.597	-733
961.685	-1130
961.773	-319
961.861	-1278
961.949	-466
962.036	-754
962.124	-495
962.212	-579
962.299	-267
962.387	-1874
962.475	-605
962.562	-725
962.650	-556
962.738	-786
962.825	-830
962.913	-575
963.000	-1781
963.088	-1539
963.175	-649
963.263	-816
963.350	-473
963.438	-955
963.525	-916
963.612	-411
963.700	-600
963.787	1773
963.874	25
963.962	-743
964.049	-464
964.136	-1101
964.223	-1406
964.310	-1607
964.398	-341
964.485	-798
964.572	-669
964.659	-1203
964.746	-636
964.833	-381
964.920	-612
965.007	-1025
965.094	-941
965.181	-1039
965.268	-719
965.355	-1278
965.441	-1037
965.528	-1396
965.615	-572
965.702	-1105
965.789	-765
965.875	-1101
965.962	-528
966.049	-806
966.136	-314
966.222	-1297
966.309	-1185
966.395	-1166
966.482	-747
966.569	-1488
966.655	-851
966.742	-578
966.828	-1068
966.915	-251
967.001	-791
967.087	-465
967.174	-715
967.260	-381
967.347	-1071
967.433	-1661
967.519	287
967.605	-596
967.692	-94
967.778	-1063
967.864	-864
967.950	-1281
968.036	-1550
968.123	-1251
968.209	-464
968.295	-1650
968.381	17
968.467	-175
968.553	-882
968.639	-491
968.725	-935
968.811	-704
968.897	-990
968.983	-673
969.069	-1343
969.154	-436
969.240	-165
969.326	-486
969.412	-555
969.497	-1597
969.583	-2302
969.669	440
969.755	-583
969.840	-779
969.926	-300
970.012	-1479
970.097	-672
970.183	-802
970.268	-861
970.354	-1327
970.439	127
970.525	-230
970.610	-107
970.696	-1184
970.781	-678
970.866	-1604
970.952	-1170
971.037	-2176
971.122	-731
971.208	-1479
971.293	-956
971.378	-600
971.463	-343
971.549	-1125
971.634	-1271
971.719	-953
971.804	-1295
971.889	-746
971.974	-828
972.059	-1042
972.144	-297
972.229	-1367
972.314	-736
972.399	-1249
972.484	-1303
972.569	-819
972.654	-947
972.739	15
972.824	-521
972.908	-1656
972.993	-1066
973.078	-1523
973.163	-579
973.247	-1295
973.332	-2231
973.417	399
973.501	-678
973.586	-1092
973.671	-1463
973.755	-1111
973.840	176
973.924	-427
974.009	-664
974.093	-1531
974.178	-765
974.262	-1168
974.346	-863
974.431	-425
974.515	-695
974.600	-1226
974.684	-701
974.768	-1021
974.852	-74
974.937	-984
975.021	-550
975.105	-1469
975.189	-217
975.273	-944
975.358	-1200
975.442	-1355
975.526	-847
975.610	-1381
975.694	-1009
975.778	-532
975.862	-568
975.946	-2565
976.030	-549
976.114	-1110
976.198	-761
976.281	-1800
976.365	-1122
976.449	-1617
976.533	-869
976.617	-1092
976.700	-831
976.784	-1451
976.868	-1338
976.951	-683
977.035	-980
977.119	-998
977.202	-850
977.286	-838
977.369	-964
977.453	-1409
977.536	-939
977.620	-1329
977.703	-982
977.787	-2150
977.870	-188
977.953	-460
978.037	-1831
978.120	-1411
978.203	-1275
978.287	-1140
978.370	-1042
978.453	-1248
978.536	-1843
978.620	-252
978.703	-893
978.786	-788
978.869	-1034
978.952	-1922
979.035	-360
979.118	-722
979.201	-1049
979.284	-1035
979.367	-1424
979.450	-1249
979.533	-972
979.616	-1515
979.699	-1096
979.782	-1714
979.865	-688
979.948	-1605
980.030	-1654
980.113	-891
980.196	-1762
980.279	-1031
980.361	-1676
980.444	-1676
980.526	-1170
980.609	-1093
980.692	-701
980.774	-1069
980.857	-1571
980.939	-1660
981.022	-1822
981.104	-1463
981.187	-987
981.269	-382
981.352	-682
981.434	-1587
981.516	-1132
981.599	-728
981.681	-1256
981.763	-527
981.846	-525
981.928	-1249
982.010	-1144
982.092	-1795
982.174	-1218
982.256	-1844
982.339	-1356
982.421	-1421
982.503	-706
982.585	-2027
982.667	-925
982.749	-1161
982.831	-1230
982.913	-1582
982.995	-1128
983.077	-1868
983.158	-1256
983.240	-2080
983.322	-595
983.404	-914
983.486	-1614
983.568	-1231
983.649	-1742
983.731	-1113
983.813	-1554
983.894	-1304
983.976	-1852
984.058	-1662
984.139	-844
984.221	-2075
984.302	-1475
984.384	-1331
984.465	-1983
984.547	-593
984.628	-798
984.710	-1133
984.791	-628
984.872	-372
984.954	-621
985.035	-1122
985.116	-1428
985.198	-1942
985.279	-701
985.360	-1960
985.441	-757
985.522	-1909
985.604	-1254
985.685	-2262
985.766	-842
985.847	-626
985.928	-2095
986.009	-1327
986.090	-1036
986.171	-631
986.252	-1485
986.333	-1322
986.414	-1024
986.495	-1598
986.576	-862
986.656	-1210
986.737	-1261
986.818	-1596
986.899	-1387
986.980	-1433
987.060	-696
987.141	-2022
987.222	-1830
987.302	-2012
987.383	-1193
987.464	-2065
987.544	-668
987.625	-1012
987.705	-712
987.786	-1209
987.866	-1545
987.947	-2018
988.027	-991
988.108	-1480
988.188	-1518
988.268	-1549
988.349	-1531
988.429	-1198
988.509	-1778
988.589	-990
988.670	-2220
988.750	-1710
988.830	-1867
988.910	-1465
988.990	-978
989.070	-1954
989.151	-1024
989.231	-2711
989.311	-189
989.391	-1581
989.471	-1898
989.551	-1595
989.631	-1228
989.711	-1362
989.791	-1627
989.870	-2575
989.950	-973
990.030	-2226
990.110	-896
990.190	-1396
990.269	-1740
990.349	-1241
990.429	-1383
990.509	-1444
990.588	-1706
990.668	-1413
990.747	-897
990.827	-1211
990.907	-1118
990.986	-429
991.066	-1020
991.145	-1831
991.225	-974
991.304	-1860
991.383	-1610
991.463	-1698
991.542	-1177
991.622	-2089
991.701	-2156
991.780	-1537
991.859	-832
991.939	-1389
992.018	-1519
992.097	-1167
992.176	-1290
992.256	-1688
992.335	-1976
992.414	-1838
992.493	-1292
992.572	-1795
992.651	-576
992.730	-2454
992.809	-1436
992.888	-985
992.967	-1978
993.046	-1676
993.125	-1632
993.203	-816
993.282	-874
993.361	-1935
993.440	-1217
993.519	-1670
993.597	-1686
993.676	-1507
993.755	-1699
993.834	-495
993.912	-2030
993.991	-919
994.069	-1370
994.148	-1700
994.226	-1585
994.305	-1091
994.384	-1783
994.462	-378
994.540	-1634
994.619	-2203
994.697	-871
994.776	-2178
994.854	-1328
994.932	-1900
995.011	-709
995.089	-1717
995.167	-938
995.245	-1316
995.324	-1520
995.402	-914
995.480	-1094
995.558	-1107
995.636	-1674
995.714	-1176
995.792	-812
995.870	-1884
995.948	-1411
996.026	-1253
996.104	-2472
996.182	-1449
996.260	-1224
996.338	-1632
996.416	-1910
996.494	-1478
996.572	-12
996.649	-1373
996.727	-1364
996.805	-1269
996.883	-947
996.960	-1541
997.038	-1016
997.116	-1738
997.193	-2045
997.271	-605
997.348	-1681
997.426	-1808
997.504	-1798
997.581	-720
997.658	-770
997.736	-1771
997.813	-1947
997.891	-680
997.968	-1240
998.046	-1564
998.123	-1092
998.200	-1028
998.277	-1949
998.355	-613
998.432	-1625
998.509	-1399
998.586	-141
998.663	-909
998.741	-1358
998.818	-2383
998.895	-1457
998.972	-2069
999.049	-1026
999.126	-2767
999.203	-1308
999.280	-1445
999.357	-1291
999.434	-1993
999.511	-1170
999.587	-962
999.664	-1370
999.741	-551
999.818	-43
999.895	-1618
999.971	-1512
1000.048	-921
1000.125	496
1000.202	-1784
1000.278	-1485
1000.355	-1652
1000.431	-640
1000.508	-1582
1000.584	-2245
1000.661	-1093
1000.738	-1704
1000.814	-1894
1000.890	-1032
1000.967	-1375
1001.043	-423
1001.120	-2183
1001.196	-1022
1001.272	-1803
1001.349	-1452
1001.425	-1655
1001.501	-1222
1001.577	-2200
1001.654	-1466
1001.730	-1310
1001.806	-1325
1001.882	-1690
1001.958	-1261
1002.034	-1798
1002.110	-1325
1002.186	-1793
1002.262	-1678
1002.338	-1739
1002.414	-1071
1002.490	-1115
1002.566	-446
1002.642	-1787
1002.718	-1332
1002.794	-2187
1002.870	-1208
1002.945	-1186
1003.021	-1996
1003.097	-1475
1003.173	-1138
1003.248	-1698
1003.324	-1598
1003.400	-1664
1003.475	-2200
1003.551	-916
1003.626	-1004
1003.702	-1807
1003.777	-1042
1003.853	-2212
1003.928	-1103
1004.004	-1738
1004.079	-887
1004.155	-1777
1004.230	-1800
1004.305	-1096
1004.381	-1100
1004.456	-1111
1004.531	-1262
1004.607	-2006
1004.682	-1754
1004.757	-1939
1004.832	-1535
1004.907	-2146
1004.982	-1936
1005.057	-1698
1005.133	-1649
1005.208	-1068
1005.283	-995
1005.358	-913
1005.433	-1415
1005.508	-1424
1005.583	-1253
1005.657	-2138
1005.732	-556
1005.807	-2368
1005.882	-1205
1005.957	-1035
1006.032	-348
1006.106	-1847
1006.181	-829
1006.256	-1256
1006.331	-1134
1006.405	-1501
1006.480	-982
1006.554	-1416
1006.629	-1006
1006.704	-2429
1006.778	-1112
1006.853	-950
1006.927	-1402
1007.002	-894
1007.076	-976
1007.150	-2257
1007.225	-1331
1007.299	-1465
1007.373	-845
1007.448	-1645
1007.522	-630
1007.596	-991
1007.671	-1339
1007.745	-1056
1007.819	-2205
1007.893	-1836
1007.967	-1090
1008.041	-2804
1008.115	-1171
1008.190	-1836
1008.264	-1002
1008.338	-1735
1008.412	-1599
1008.486	-1570
1008.560	-1296
1008.633	-2374
1008.707	-1799
1008.781	-1837
1008.855	-1568
1008.929	-1553
1009.003	-737
1009.076	-2156
1009.150	-54
1009.224	-2298
1009.298	-1457
1009.371	-2084
1009.445	-1041
1009.519	-2173
1009.592	-3127
1009.666	-2237
1009.739	-948
1009.813	-2400
1009.886	-1031
1009.960	-2548
1010.033	-876
1010.107	-980
1010.180	-2036
1010.253	-1173
1010.327	-1644
1010.400	-2307
1010.473	-1457
1010.547	-708
1010.620	-1591
1010.693	-1220
1010.766	-2152
1010.840	-1229
1010.913	-766
1010.986	-1696
1011.059	-748
1011.132	-1970
1011.205	-804
1011.278	-1966
1011.351	-1430
1011.424	-1221
1011.497	-1819
1011.570	-1964
1011.643	-1429
1011.716	-1563
1011.789	-2063
1011.862	-1995
1011.934	-1171
1012.007	-1683
1012.080	-2001
1012.153	-2030
1012.225	-927
1012.298	-1441
1012.371	-1713
1012.443	-1068
1012.516	-1843
1012.588	-1718
1012.661	-1874
1012.733	-2472
1012.806	-983
1012.879	-1482
1012.951	-1701
1013.023	-1791
1013.096	-1570
1013.168	-1724
1013.241	-985
1013.313	-2268
1013.385	-1402
1013.458	-884
1013.530	-1065
1013.602	-1760
1013.674	-1365
1013.746	-2197
1013.819	-2051
1013.891	-1754
1013.963	-2098
1014.035	-2199
1014.107	-1005
1014.179	-1705
1014.251	-1853
1014.323	-1609
1014.395	-1400
1014.467	-1910
1014.539	-1282
1014.611	-2012
1014.683	-1625
1014.754	-1919
1014.826	-2013
1014.898	-2244
1014.970	-1745
1015.042	-1341
1015.113	-1252
1015.185	-1630
1015.257	-1774
1015.328	-1754
1015.400	-1558
1015.471	-1671
1015.543	-2208
1015.615	-2024
1015.686	-1764
1015.757	-2247
1015.829	-1179
1015.901	-1724
1015.972	-1432
1016.043	-2429
1016.115	-1372
1016.186	-1812
1016.257	-2680
1016.328	-1119
1016.400	-1382
1016.471	-2873
1016.542	-1395
1016.613	-2462
1016.685	-1713
1016.756	-1389
1016.827	-1596
1016.898	-1588
1016.969	-1163
1017.040	-1565
1017.111	-2195
1017.182	-2144
1017.253	-1518
1017.324	-2263
1017.395	-1776
1017.466	-1712
1017.537	-1824
1017.608	-1632
1017.678	-1343
1017.749	-2412
1017.820	-1506
1017.891	-2557
1017.961	-1799
1018.032	-1663
1018.103	-1817
1018.173	-1814
1018.244	-2337
1018.315	-2042
1018.385	-531
1018.456	-1733
1018.526	-2111
1018.597	-1379
1018.667	-2322
1018.738	-2127
1018.808	-1886
1018.878	-2504
1018.949	-1051
1019.019	-2340
1019.089	-1538
1019.160	-2456
1019.230	-2414
1019.300	-2180
1019.371	-2085
1019.441	-2028
1019.511	-1302
1019.581	-2375
1019.651	-1295
1019.721	-1923
1019.791	-859
1019.861	-2099
1019.931	-1896
1020.001	-2038
1020.071	-810
1020.141	-1942
1020.211	-1386
1020.281	-1224
1020.351	-2190
1020.421	-2092
1020.491	-1377
1020.560	-1944
1020.630	-1487
1020.700	-1893
1020.770	-1947
1020.839	-2788
1020.909	-2152
1020.979	-2058
1021.048	-1545
1021.118	-1728
1021.187	-1146
1021.257	-1799
1021.326	-1511
1021.396	-2164
1021.465	-1756
1021.535	-2867
1021.604	-2110
1021.674	-1544
1021.743	-1667
1021.812	-1054
1021.882	-2309
1021.951	-2070
1022.020	-2350
1022.089	-2610
1022.159	-2876
1022.228	-1698
1022.297	-1664
1022.366	-1591
1022.435	-2352
1022.504	-2237
1022.573	-1990
1022.642	-1792
1022.711	-1415
1022.781	-2488
1022.849	-2196
1022.918	-3120
1022.987	-1798
1023.056	-1814
1023.125	-1893
1023.194	-1864
1023.263	-993
1023.331	-1456
1023.400	-2242
1023.469	-2029
1023.538	-1341
1023.606	-2927
1023.675	-2229
1023.744	-1734
1023.812	-2535
1023.881	-2075
1023.949	-1789
1024.018	-1609
1024.086	-1494
1024.155	-2310
1024.223	-1923
1024.292	-1594
1024.360	-1863
1024.429	-1391
1024.497	-2231
1024.565	-1700
1024.634	-1472
1024.702	-1718
1024.770	-1624
1024.838	-2665
1024.907	-1051
1024.975	-2570
1025.043	-1216
1025.111	-1825
1025.179	-1095
1025.247	-2007
1025.315	-1819
1025.383	-2556
1025.451	-1678
1025.519	-1898
1025.587	-1496
1025.655	-1231
1025.723	-2443
1025.791	-1650
1025.859	-1680
1025.927	-1536
1025.995	-2454
1026.062	-1611
1026.130	-1912
1026.198	-2087
1026.266	-2329
1026.333	-1277
1026.401	-1316
1026.469	-2416
1026.536	-1980
1026.604	-2124
1026.671	-1770
1026.739	-2371
1026.806	-1537
1026.874	-2273
1026.941	-2156
1027.009	-2133
1027.076	-3207
1027.144	-2313
1027.211	-2414
1027.278	-2636
1027.345	-1534
1027.413	-2675
1027.480	-1093
1027.547	-2075
1027.614	-1887
1027.682	-1603
1027.749	-2199
1027.816	-2265
1027.883	-1526
1027.950	-1527
1028.017	-2572
1028.084	-2048
1028.151	-2343
1028.218	-2311
1028.285	-1508
1028.352	-1977
1028.419	-1626
1028.486	-2702
1028.553	-1607
1028.619	-2585
1028.686	-2454
1028.753	-1717
1028.820	-1956
1028.886	-2285
1028.953	-982
1029.020	-1433
1029.086	-1939
1029.153	-2460
1029.220	-2047
1029.286	-1944
1029.353	-1814
1029.419	-2766
1029.486	-2444
1029.552	-1486
1029.619	-1943
1029.685	-1225
1029.751	-2119
1029.818	-1086
1029.884	-2050
1029.951	-1522
1030.017	-2163
1030.083	-1845
1030.149	-1793
1030.216	-2204
1030.282	-1008
1030.348	-1499
1030.414	-3030
1030.480	-2153
1030.546	-2143
1030.612	-1938
1030.678	-2243
1030.744	-2173
1030.810	-1343
1030.876	-2017
1030.942	-2581
1031.008	-2404
1031.074	-1176
1031.140	-1641
1031.206	-1326
1031.272	-2141
1031.337	-1750
1031.403	-1615
1031.469	-2238
1031.534	-2151
1031.600	-920
1031.666	-2451
1031.731	-2718
1031.797	-2102
1031.863	-1233
1031.928	-2017
1031.994	-1545
1032.059	-2040
1032.125	-1279
1032.190	-1210
1032.256	-1140
1032.321	-2212
1032.386	-2483
1032.452	-2419
1032.517	-2004
1032.582	-1978
1032.647	-1899
1032.713	-1747
1032.778	-1260
1032.843	-2491
1032.908	-1714
1032.974	-2633
1033.039	-1938
1033.104	-1679
1033.169	-2630
1033.234	-2278
1033.299	-1967
1033.364	-1461
1033.429	-1878
1033.494	-2253
1033.559	-1767
1033.624	-2061
1033.688	-1849
1033.753	-2413
1033.818	-1770
1033.883	-2457
1033.948	-1953
1034.013	-1657
1034.077	-1733
1034.142	-2179
1034.207	-2085
1034.271	-2314
1034.336	-2080
1034.400	-2257
1034.465	-1762
1034.530	-2363
1034.594	-1786
1034.658	-2096
1034.723	-1569
1034.787	-2671
1034.852	-1545
1034.916	-2298
1034.981	-2537
1035.045	-1637
1035.109	-1719
1035.173	-2364
1035.238	-2204
1035.302	-2218
1035.366	-1953
1035.430	-2165
1035.495	-2681
1035.559	-1018
1035.623	-2421
1035.687	-2251
1035.751	-1498
1035.815	-2202
1035.879	-1669
1035.943	-2691
1036.007	-2290
1036.071	-1786
1036.135	-2157
1036.198	-2067
1036.262	-2004
1036.326	-2085
1036.390	-1477
1036.454	-1864
1036.517	-1578
1036.581	-1943
1036.645	-882
1036.709	-1321
1036.772	-1944
1036.836	-1391
1036.900	-2326
1036.963	-1931
1037.026	-2261
1037.090	-2616
1037.154	-1833
1037.217	-2985
1037.280	-2355
1037.344	-1673
1037.407	-2049
1037.471	-1469
1037.534	-2363
1037.597	-2769
1037.661	-1585
1037.724	-2254
1037.787	-1567
1037.850	-1618
1037.913	-2438
1037.977	-1808
1038.040	-2069
1038.103	-1497
1038.166	-2826
1038.229	-2227
1038.292	-2882
1038.355	-1645
1038.418	-2193
1038.481	-1954
1038.544	-2171
1038.607	-2374
1038.670	-2306
1038.732	-1974
1038.795	-2191
1038.858	-2316
1038.921	-1543
1038.984	-1752
1039.046	-2673
1039.109	-2881
1039.172	-2183
1039.234	-1989
1039.297	-1691
1039.360	-2219
1039.422	-2490
1039.485	-2059
1039.547	-2131
1039.610	-2012
1039.672	-2162
1039.734	-2395
1039.797	-1767
1039.859	-2088
1039.922	-2035
1039.984	-1857
1040.046	-2421
1040.109	-2003
1040.171	-1960
1040.233	-1166
1040.295	-1854
1040.358	-1945
1040.420	-1786
1040.482	-2330
1040.544	-1500
1040.606	-2060
1040.668	-1693
1040.730	-2768
1040.792	-2004
1040.854	-2062
1040.916	-1891
1040.978	-2354
1041.040	-1050
1041.102	-2086
1041.164	-1988
1041.225	-2538
1041.287	-2179
1041.349	-1588
1041.411	-2324
1041.472	-2102
1041.534	-1690
1041.596	-2123
1041.657	-1176
1041.719	-2897
1041.781	-2377
1041.842	-2514
1041.904	-2222
1041.965	-1838
1042.027	-2346
1042.088	-2312
1042.150	-2229
1042.211	-1805
1042.272	-2320
1042.334	-2332
1042.395	-2117
1042.456	-2081
1042.518	-1137
1042.579	-1986
1042.640	-2428
1042.701	-2046
1042.763	-1809
1042.824	-2317
1042.885	-2283
1042.946	-1295
1043.007	-1639
1043.068	-2339
1043.129	-1023
1043.190	-2702
1043.251	-2064
1043.312	-2763
1043.373	-1759
1043.434	-1992
1043.495	-1906
1043.556	-1243
1043.616	-1729
1043.677	-2045
1043.738	-2839
1043.799	-1943
1043.859	-1774
1043.920	-2327
1043.981	-1456
1044.041	-1943
1044.102	-1488
1044.162	-1607
1044.223	-2050
1044.284	-1760
1044.344	-1809
1044.405	-2370
1044.465	-2299
1044.525	-2571
1044.586	-1820
1044.646	-2004
1044.707	-1752
1044.767	-2114
1044.827	-2208
1044.887	-2310
1044.948	-1694
1045.008	-1789
1045.068	-1035
1045.128	-2262
1045.188	-1098
1045.249	-1606
1045.309	-1468
1045.369	-2327
1045.429	-2118
1045.489	-1721
1045.549	-2154
1045.609	-2050
1045.669	-1889
1045.729	-1716
1045.789	-990
1045.848	-1776
1045.908	-1749
1045.968	-2033
1046.028	-2064
1046.088	-1298
1046.147	-1049
1046.207	-1382
1046.267	-1057
1046.326	-1545
1046.386	-1090
1046.446	-1140
1046.505	-1300
1046.565	-1285
1046.624	-463
1046.684	-549
1046.743	-795
1046.803	-913
1046.862	-868
1046.922	0
