'Start Wavelength	183.907
'End Wavelength	1046.922
'Gate Delay	5.000
'Gate Width (ms)	1.050
'Laser Output Level	0.000
'X Position	0.000
'Y Position	0.000
'Z Position	0.000
'Grid Point Number	1.000
'Shot Number	100.000
183.907	-60.000
183.977	-201.000
184.047	-160
184.116	464
184.186	-271
184.256	519
184.325	78
184.395	112
184.465	-107
184.534	-182
184.604	394
184.674	-302
184.743	215
184.813	554
184.883	232
184.952	310
185.022	888
185.092	-148
185.161	-177
185.231	175
185.301	-436
185.370	386
185.440	207
185.509	-537
185.579	-239
185.649	105
185.718	242
185.788	550
185.857	270
185.927	-178
185.996	410
186.066	-331
186.136	346
186.205	674
186.275	263
186.344	179
186.414	236
186.483	-334
186.553	380
186.622	921
186.692	-97
186.761	490
186.831	480
186.900	656
186.970	164
187.039	906
187.109	735
187.178	547
187.248	487
187.317	364
187.387	-637
187.456	-29
187.526	526
187.595	-222
187.664	-74
187.734	41
187.803	502
187.873	562
187.942	632
188.012	464
188.081	299
188.150	674
188.220	485
188.289	763
188.358	807
188.428	114
188.497	344
188.567	303
188.636	681
188.705	-52
188.775	59
188.844	-64
188.913	650
188.983	-67
189.052	314
189.121	1214
189.191	423
189.260	152
189.329	-44
189.399	525
189.468	119
189.537	19
189.606	-163
189.676	339
189.745	21
189.814	713
189.883	275
189.953	994
190.022	569
190.091	1199
190.161	1023
190.230	575
190.299	604
190.368	682
190.437	-34
190.507	445
190.576	314
190.645	575
190.714	154
190.783	-3
190.853	580
190.922	-221
190.991	577
191.060	494
191.129	-564
191.198	517
191.268	-480
191.337	707
191.406	370
191.475	408
191.544	142
191.613	307
191.682	-245
191.752	-147
191.821	11
191.890	322
191.959	85
192.028	490
192.097	382
192.166	1168
192.235	469
192.304	292
192.373	-239
192.442	46
192.511	502
192.580	903
192.650	817
192.719	209
192.788	1110
192.857	760
192.926	425
192.995	269
193.064	1193
193.133	1754
193.202	1795
193.271	1838
193.340	1478
193.409	858
193.478	1540
193.547	2608
193.615	2558
193.684	2070
193.753	1307
193.822	1089
193.891	59
193.960	444
194.029	940
194.098	1191
194.167	33
194.236	582
194.305	811
194.374	468
194.443	390
194.512	936
194.580	451
194.649	752
194.718	848
194.787	684
194.856	208
194.925	1112
194.994	1050
195.062	259
195.131	982
195.200	705
195.269	1251
195.338	368
195.407	585
195.475	1596
195.544	1641
195.613	837
195.682	635
195.751	1261
195.819	992
195.888	1386
195.957	1452
196.026	924
196.094	1289
196.163	325
196.232	2030
196.301	1346
196.369	530
196.438	871
196.507	1058
196.576	1044
196.644	294
196.713	596
196.782	494
196.850	1503
196.919	600
196.988	766
197.056	345
197.125	597
197.194	1037
197.262	855
197.331	-95
197.400	908
197.468	827
197.537	845
197.606	865
197.674	1528
197.743	926
197.812	1150
197.880	2187
197.949	1302
198.017	1082
198.086	1019
198.155	569
198.223	1255
198.292	2554
198.360	1010
198.429	410
198.497	1205
198.566	1240
198.635	2182
198.703	1357
198.772	415
198.840	2454
198.909	1406
198.977	-2
199.046	957
199.114	1313
199.183	490
199.251	857
199.320	918
199.388	381
199.457	617
199.525	604
199.594	659
199.662	67
199.731	866
199.799	1255
199.867	928
199.936	929
200.004	804
200.073	636
200.141	1179
200.210	708
200.278	288
200.346	1502
200.415	1388
200.483	1329
200.552	1742
200.620	725
200.688	705
200.757	808
200.825	608
200.893	549
200.962	1025
201.030	668
201.098	739
201.167	984
201.235	857
201.303	576
201.372	600
201.440	1313
201.508	1722
201.577	1288
201.645	1181
201.713	878
201.781	1133
201.850	1479
201.918	1381
201.986	1071
202.055	991
202.123	937
202.191	1705
202.259	506
202.327	1478
202.396	748
202.464	884
202.532	926
202.600	2299
202.669	1279
202.737	1348
202.805	939
202.873	893
202.941	1158
203.009	883
203.078	894
203.146	1207
203.214	1294
203.282	668
203.350	1102
203.418	530
203.487	748
203.555	1633
203.623	1022
203.691	499
203.759	357
203.827	690
203.895	647
203.963	1311
204.031	1004
204.099	1142
204.168	897
204.236	1597
204.304	1358
204.372	1135
204.440	928
204.508	755
204.576	173
204.644	1472
204.712	371
204.780	1273
204.848	-155
204.916	987
204.984	-506
205.052	1672
205.120	1554
205.188	1086
205.256	698
205.324	837
205.392	1648
205.460	1269
205.528	1174
205.596	1132
205.664	952
205.732	1032
205.799	2168
205.867	3537
205.935	1601
206.003	1304
206.071	1560
206.139	1705
206.207	1404
206.275	451
206.343	1351
206.411	767
206.478	931
206.546	1886
206.614	1675
206.682	1093
206.750	908
206.818	1658
206.885	2204
206.953	1120
207.021	2215
207.089	1713
207.157	489
207.225	1011
207.292	1226
207.360	-56
207.428	1575
207.496	925
207.563	1359
207.631	1915
207.699	1242
207.767	1190
207.834	1528
207.902	1280
207.970	1248
208.038	1638
208.105	1330
208.173	2175
208.241	1690
208.309	2094
208.376	1379
208.444	2073
208.512	1599
208.579	1562
208.647	2129
208.715	2223
208.782	2153
208.850	1446
208.918	1974
208.985	1400
209.053	1811
209.120	2099
209.188	1681
209.256	1070
209.323	1163
209.391	1779
209.459	1652
209.526	1709
209.594	2462
209.661	1768
209.729	2102
209.796	2081
209.864	1554
209.932	2162
209.999	2281
210.067	1710
210.134	1712
210.202	2631
210.269	2597
210.337	3146
210.404	1739
210.472	1992
210.539	1741
210.607	2070
210.674	1975
210.742	1738
210.809	2404
210.877	1853
210.944	2508
211.012	1923
211.079	2847
211.146	1871
211.214	2175
211.281	2522
211.349	2488
211.416	2501
211.484	2280
211.551	2095
211.618	2142
211.686	2223
211.753	1873
211.821	2673
211.888	2024
211.955	2170
212.023	2023
212.090	1528
212.157	2083
212.225	2770
212.292	2768
212.359	5113
212.427	9454
212.494	4880
212.561	3270
212.629	2824
212.696	2600
212.763	2382
212.831	1811
212.898	2641
212.965	1844
213.032	2288
213.100	1625
213.167	2090
213.234	2866
213.301	2654
213.369	2519
213.436	1716
213.503	2396
213.570	2769
213.638	2793
213.705	2376
213.772	1632
213.839	2195
213.906	2218
213.973	1767
214.041	2201
214.108	2425
214.175	2396
214.242	2505
214.309	2255
214.376	2572
214.444	2326
214.511	2050
214.578	2184
214.645	3265
214.712	3008
214.779	3210
214.846	2463
214.913	3561
214.980	2912
215.048	3279
215.115	3753
215.182	3459
215.249	2889
215.316	2511
215.383	2614
215.450	2176
215.517	2208
215.584	1630
215.651	2281
215.718	2193
215.785	2690
215.852	2545
215.919	2579
215.986	2218
216.053	2012
216.120	2382
216.187	2046
216.254	2763
216.321	1994
216.388	2194
216.455	2292
216.522	3253
216.589	3456
216.656	3956
216.722	4664
216.789	4309
216.856	4417
216.923	3956
216.990	2725
217.057	3429
217.124	4321
217.191	4728
217.258	5246
217.324	5619
217.391	5284
217.458	5039
217.525	4135
217.592	3594
217.659	1870
217.725	4010
217.792	3322
217.859	2841
217.926	1389
217.993	2028
218.059	2700
218.126	2169
218.193	2689
218.260	1888
218.327	1739
218.393	1727
218.460	1730
218.527	1869
218.594	1659
218.660	2370
218.727	3435
218.794	1705
218.860	2292
218.927	2092
218.994	1544
219.061	1615
219.127	1745
219.194	2748
219.261	1268
219.327	1170
219.394	1847
219.461	2187
219.527	1115
219.594	2225
219.661	1927
219.727	739
219.794	1588
219.860	1893
219.927	2176
219.994	3677
220.060	4834
220.127	4581
220.193	3560
220.260	4083
220.326	5630
220.393	8098
220.460	9687
220.526	7066
220.593	4793
220.659	5281
220.726	5013
220.792	9024
220.859	8859
220.925	12554
220.992	14337
221.058	12627
221.125	9444
221.191	7025
221.258	3193
221.324	3283
221.391	3257
221.457	2848
221.524	2407
221.590	2996
221.657	7407
221.723	4290
221.789	4491
221.856	4153
221.922	3046
221.989	2303
222.055	1985
222.121	2399
222.188	3295
222.254	3676
222.321	1650
222.387	1234
222.453	1503
222.520	1415
222.586	1222
222.652	1593
222.719	1246
222.785	2004
222.851	1188
222.918	1254
222.984	2186
223.050	2032
223.116	1319
223.183	3008
223.249	663
223.315	1269
223.382	1206
223.448	1583
223.514	1088
223.580	664
223.647	458
223.713	1070
223.779	989
223.845	1306
223.911	1257
223.978	1162
224.044	1368
224.110	1147
224.176	577
224.242	1531
224.309	1189
224.375	341
224.441	1296
224.507	1337
224.573	1317
224.639	1521
224.705	787
224.772	1063
224.838	1248
224.904	1411
224.970	1193
225.036	949
225.102	1145
225.168	1713
225.234	1217
225.300	1627
225.366	2435
225.432	1494
225.499	1124
225.565	1879
225.631	2013
225.697	2558
225.763	2896
225.829	2503
225.895	3425
225.961	4003
226.027	3922
226.093	4002
226.159	4688
226.225	7929
226.291	17149
226.357	22219
226.423	12822
226.489	7982
226.554	5648
226.620	4819
226.686	6178
226.752	9655
226.818	16162
226.884	25934
226.950	22547
227.016	11595
227.082	6989
227.148	5175
227.214	4685
227.279	3813
227.345	3237
227.411	3626
227.477	4631
227.543	8380
227.609	7709
227.674	5458
227.740	3429
227.806	3676
227.872	2227
227.938	2994
228.003	4319
228.069	2474
228.135	1820
228.201	1402
228.267	2223
228.332	1999
228.398	2892
228.464	2236
228.530	2087
228.595	1699
228.661	1598
228.727	2755
228.792	2564
228.858	1942
228.924	1366
228.990	2734
229.055	2173
229.121	2154
229.187	1347
229.252	1872
229.318	1427
229.384	2010
229.449	1757
229.515	716
229.581	494
229.646	2762
229.712	1319
229.777	3172
229.843	3660
229.909	4188
229.974	4482
230.040	2188
230.105	2320
230.171	2461
230.236	2941
230.302	5307
230.368	3461
230.433	2473
230.499	2541
230.564	3713
230.630	1989
230.695	1946
230.761	2687
230.826	1078
230.892	3801
230.957	1288
231.023	1456
231.088	1214
231.154	1597
231.219	2369
231.284	2628
231.350	3006
231.415	1070
231.481	1753
231.546	1420
231.612	1936
231.677	1703
231.742	1712
231.808	1776
231.873	1509
231.939	894
232.004	3935
232.069	3310
232.135	2114
232.200	1436
232.265	1662
232.331	1967
232.396	1286
232.461	976
232.527	874
232.592	1163
232.657	1118
232.723	1504
232.788	1748
232.853	2151
232.918	616
232.984	1012
233.049	911
233.114	1576
233.179	2347
233.245	2652
233.310	2931
233.375	806
233.440	1084
233.506	1461
233.571	1481
233.636	1479
233.701	1113
233.766	2235
233.832	2819
233.897	1622
233.962	1734
234.027	2211
234.092	2031
234.157	1998
234.222	1938
234.288	3393
234.353	6735
234.418	5406
234.483	4299
234.548	2982
234.613	3470
234.678	2537
234.743	2390
234.808	7645
234.873	5331
234.938	3404
235.004	2792
235.069	2575
235.134	2207
235.199	2846
235.264	2045
235.329	1443
235.394	1996
235.459	2478
235.524	1514
235.589	1746
235.654	2124
235.719	2066
235.784	2082
235.849	3010
235.913	4087
235.978	3947
236.043	4447
236.108	2086
236.173	2433
236.238	3045
236.303	2009
236.368	2646
236.433	3642
236.498	5492
236.563	5886
236.627	13656
236.692	33599
236.757	25962
236.822	11937
236.887	7605
236.952	7588
237.017	5370
237.081	6997
237.146	9202
237.211	19703
237.276	34700
237.341	41706
237.405	24109
237.470	11752
237.535	8151
237.600	5107
237.664	4264
237.729	3374
237.794	6249
237.859	12856
237.923	6421
237.988	3421
238.053	4272
238.118	4622
238.182	9518
238.247	7992
238.312	3560
238.376	3877
238.441	2261
238.506	3967
238.570	1264
238.635	2334
238.700	2131
238.764	2183
238.829	3934
238.893	4713
238.958	3759
239.023	3615
239.087	2230
239.152	2360
239.216	2340
239.281	1917
239.346	2139
239.410	2091
239.475	2584
239.539	9482
239.604	5615
239.668	2863
239.733	2962
239.797	5418
239.862	14217
239.926	11584
239.991	4355
240.055	2860
240.120	2526
240.184	2012
240.249	1778
240.313	2245
240.378	1694
240.442	5790
240.507	8039
240.571	2856
240.635	3957
240.700	5032
240.764	2321
240.829	1706
240.893	841
240.957	2484
241.022	5562
241.086	7284
241.151	2762
241.215	1662
241.279	2826
241.344	4295
241.408	3281
241.472	2558
241.537	3514
241.601	3506
241.665	1446
241.730	2686
241.794	3440
241.858	3217
241.922	2516
241.987	2333
242.051	2023
242.115	2332
242.179	2561
242.244	2364
242.308	2443
242.372	2930
242.436	2854
242.501	3038
242.565	2334
242.629	1427
242.693	2906
242.757	1732
242.822	1979
242.886	2203
242.950	2597
243.014	2442
243.078	3028
243.142	2831
243.206	2200
243.271	3038
243.335	3080
243.399	4514
243.463	16378
243.527	33015
243.591	10168
243.655	5480
243.719	2995
243.783	4282
243.847	5980
243.911	7482
243.975	8570
244.040	5520
244.104	4286
244.168	3159
244.232	5326
244.296	6994
244.360	6171
244.424	2880
244.488	2553
244.552	3171
244.615	1462
244.679	1993
244.743	3463
244.807	2547
244.871	2208
244.935	2712
244.999	1676
245.063	2439
245.127	3030
245.191	4493
245.255	4438
245.319	4044
245.383	2414
245.446	3661
245.510	1434
245.574	2710
245.638	2510
245.702	1627
245.766	6220
245.829	4061
245.893	2457
245.957	2419
246.021	3870
246.085	2903
246.149	3664
246.212	9676
246.276	11749
246.340	5488
246.404	4547
246.467	4832
246.531	6234
246.595	4618
246.659	3803
246.722	3485
246.786	5067
246.850	5578
246.913	6940
246.977	2583
247.041	3413
247.104	3926
247.168	4018
247.232	10734
247.295	15536
247.359	7326
247.423	3987
247.486	7595
247.550	4089
247.614	4431
247.677	5538
247.741	3675
247.804	3247
247.868	4942
247.932	8812
247.995	14918
248.059	5315
248.122	2616
248.186	5017
248.249	8234
248.313	26439
248.376	25293
248.440	16531
248.503	6227
248.567	7303
248.630	9782
248.694	11250
248.757	15707
248.821	25857
248.884	16982
248.948	15975
249.011	21907
249.075	30563
249.138	24391
249.202	11940
249.265	7453
249.328	7225
249.392	6476
249.455	5339
249.519	5477
249.582	5483
249.645	10320
249.709	7293
249.772	6233
249.835	4541
249.899	4637
249.962	5510
250.025	4710
250.089	11513
250.152	14377
250.215	6959
250.279	5661
250.342	5528
250.405	5317
250.468	4601
250.532	7305
250.595	11557
250.658	35573
250.721	47570
250.785	18949
250.848	11112
250.911	6613
250.974	7381
251.038	9690
251.101	16960
251.164	8155
251.227	10175
251.290	9193
251.354	14381
251.417	47438
251.480	41222
251.543	34702
251.606	77241
251.669	54725
251.732	25017
251.795	25689
251.859	25488
251.922	52214
251.985	27686
252.048	14041
252.111	10601
252.174	9613
252.237	18037
252.300	32416
252.363	38222
252.426	60893
252.489	26329
252.552	15089
252.615	10293
252.678	12172
252.741	25636
252.804	34752
252.867	64757
252.930	38768
252.993	21669
253.056	15174
253.119	11313
253.182	7637
253.245	13457
253.308	11300
253.371	9669
253.434	8952
253.497	10483
253.559	16588
253.622	10478
253.685	15820
253.748	14509
253.811	7303
253.874	9605
253.937	8062
254.000	6960
254.062	12474
254.125	16391
254.188	19006
254.251	13769
254.314	6581
254.376	13923
254.439	14300
254.502	11463
254.565	13533
254.628	19613
254.690	12748
254.753	6752
254.816	6480
254.878	6443
254.941	12062
255.004	11176
255.067	6114
255.129	6187
255.192	3608
255.255	3641
255.317	5706
255.380	3173
255.443	2046
255.505	3085
255.568	2371
255.631	3715
255.693	4227
255.756	2221
255.819	3462
255.881	2680
255.944	2079
256.006	2559
256.069	2898
256.132	2491
256.194	4156
256.257	7209
256.319	5145
256.382	5802
256.444	5740
256.507	4601
256.569	3793
256.632	4111
256.694	6652
256.757	24435
256.819	57140
256.882	22243
256.944	9951
257.007	8439
257.069	7233
257.132	5392
257.194	4666
257.257	4791
257.319	4889
257.381	6287
257.444	18445
257.506	66952
257.569	68348
257.631	32965
257.693	17033
257.756	8628
257.818	6230
257.880	5290
257.943	5252
258.005	3111
258.067	4222
258.130	4292
258.192	4742
258.254	8477
258.317	4707
258.379	4603
258.441	11877
258.503	8891
258.566	10694
258.628	10624
258.690	3260
258.753	5049
258.815	8949
258.877	4911
258.939	3362
259.001	4086
259.064	3180
259.126	3946
259.188	4046
259.250	3657
259.312	6035
259.375	14749
259.437	8615
259.499	3842
259.561	3804
259.623	4031
259.685	4194
259.747	3823
259.809	10795
259.872	15204
259.934	27680
259.996	25433
260.058	8394
260.120	3367
260.182	3386
260.244	3483
260.306	2098
260.368	3129
260.430	2762
260.492	10236
260.554	17501
260.616	9225
260.678	16224
260.740	16523
260.802	5147
260.864	5177
260.926	3172
260.988	4226
261.050	4229
261.112	14941
261.174	26083
261.236	12836
261.298	5030
261.359	8378
261.421	10393
261.483	3923
261.545	4568
261.607	1843
261.669	3208
261.731	6289
261.793	13058
261.854	6048
261.916	5579
261.978	5627
262.040	5303
262.102	3762
262.164	4281
262.225	3529
262.287	4248
262.349	9577
262.411	6123
262.472	3757
262.534	5702
262.596	9323
262.658	4262
262.719	2121
262.781	4256
262.843	9249
262.904	4683
262.966	4358
263.028	4900
263.090	24625
263.151	51718
263.213	19358
263.275	12953
263.336	5507
263.398	4416
263.459	2725
263.521	3399
263.583	9806
263.644	4817
263.706	2966
263.767	1901
263.829	2167
263.891	2348
263.952	1896
264.014	2152
264.075	7093
264.137	17456
264.198	6479
264.260	2671
264.321	3512
264.383	11310
264.444	24380
264.506	6405
264.567	4218
264.629	11451
264.690	21297
264.752	7711
264.813	4024
264.875	3017
264.936	3212
264.998	3557
265.059	2419
265.120	3628
265.182	7692
265.243	38067
265.305	32101
265.366	8624
265.427	5839
265.489	4371
265.550	2543
265.611	3029
265.673	3770
265.734	3772
265.795	2897
265.857	2910
265.918	3152
265.979	11114
266.040	57064
266.102	40172
266.163	13101
266.224	10035
266.286	5387
266.347	3844
266.408	3694
266.469	3007
266.530	3087
266.592	2341
266.653	6629
266.714	9365
266.775	3142
266.836	2845
266.898	2455
266.959	6491
267.020	3659
267.081	3546
267.142	1562
267.203	2279
267.264	1184
267.326	3406
267.387	1848
267.448	2059
267.509	2739
267.570	2828
267.631	1227
267.692	1810
267.753	2217
267.814	1913
267.875	6331
267.936	12518
267.997	9170
268.058	7329
268.119	3825
268.180	3455
268.241	1896
268.302	2636
268.363	1716
268.424	2622
268.485	3063
268.546	1689
268.607	2086
268.668	981
268.729	1433
268.790	2416
268.851	3355
268.912	9411
268.972	9194
269.033	4270
269.094	1387
269.155	2253
269.216	1995
269.277	2100
269.338	2545
269.398	2073
269.459	2809
269.520	4476
269.581	5929
269.642	6356
269.702	4169
269.763	3935
269.824	2765
269.885	4166
269.945	6030
270.006	2607
270.067	1142
270.128	2431
270.188	1454
270.249	1863
270.310	1822
270.370	2258
270.431	2020
270.492	1612
270.553	2437
270.613	6726
270.674	12058
270.734	4537
270.795	3091
270.856	5304
270.916	2942
270.977	2416
271.038	3389
271.098	3643
271.159	6915
271.219	4902
271.280	3105
271.340	2677
271.401	2680
271.462	5892
271.522	3693
271.583	2608
271.643	2319
271.704	2523
271.764	4047
271.825	9873
271.885	29529
271.946	31643
272.006	11436
272.066	18449
272.127	24513
272.187	9881
272.248	6103
272.308	6470
272.369	18361
272.429	8686
272.489	9935
272.550	9356
272.610	9956
272.671	5751
272.731	6988
272.791	8090
272.852	5544
272.912	5943
272.972	2655
273.033	2687
273.093	5523
273.153	5685
273.214	3380
273.274	4063
273.334	19199
273.394	27289
273.455	10886
273.515	13306
273.575	26046
273.635	10116
273.696	13310
273.756	22918
273.816	9417
273.876	5534
273.936	11018
273.997	16175
274.057	4742
274.117	3889
274.177	8699
274.237	37052
274.297	25019
274.358	15018
274.418	20340
274.478	16013
274.538	6317
274.598	4975
274.658	14040
274.718	15888
274.778	7165
274.838	4084
274.898	9671
274.958	22681
275.018	23620
275.078	14667
275.138	6639
275.198	4031
275.258	3698
275.318	4447
275.378	9462
275.438	9274
275.498	6066
275.558	12353
275.618	24204
275.678	16290
275.738	13540
275.798	10855
275.858	6257
275.918	3212
275.978	5377
276.038	3844
276.098	3856
276.157	8839
276.217	21383
276.277	9273
276.337	7254
276.397	3603
276.457	4910
276.517	3260
276.576	3373
276.636	2503
276.696	6145
276.756	13115
276.815	8537
276.875	4014
276.935	3770
276.995	4121
277.055	3113
277.114	3140
277.174	5849
277.234	16765
277.293	6102
277.353	4216
277.413	3380
277.472	3631
277.532	3007
277.592	3898
277.651	13339
277.711	20155
277.771	7089
277.830	29527
277.890	19460
277.950	15526
278.009	39561
278.069	13655
278.128	16940
278.188	20174
278.248	9533
278.307	23683
278.367	12029
278.426	4263
278.486	3982
278.545	2569
278.605	2470
278.664	2850
278.724	3245
278.783	11954
278.843	23437
278.902	7375
278.962	5064
279.021	4947
279.081	5133
279.140	4855
279.199	5913
279.259	4884
279.318	4480
279.378	7442
279.437	14516
279.496	44472
279.556	97170
279.615	59860
279.675	18263
279.734	12427
279.793	21847
279.853	33285
279.912	12745
279.971	7247
280.031	7504
280.090	16059
280.149	24197
280.208	18125
280.268	72708
280.327	56035
280.386	14188
280.445	15630
280.505	14528
280.564	6684
280.623	6349
280.682	10108
280.742	13708
280.801	4841
280.860	3830
280.919	3261
280.978	3333
281.037	2890
281.097	2513
281.156	2617
281.215	2446
281.274	4703
281.333	19241
281.392	11257
281.451	3698
281.510	3058
281.569	2915
281.628	2799
281.688	2195
281.747	3433
281.806	3713
281.865	2307
281.924	2385
281.983	3321
282.042	1574
282.101	1963
282.160	2190
282.219	2454
282.278	3318
282.337	12377
282.396	6028
282.454	3259
282.513	5430
282.572	17723
282.631	8796
282.690	2440
282.749	2737
282.808	4180
282.867	3842
282.926	3792
282.985	2223
283.043	1745
283.102	2306
283.161	3031
283.220	9092
283.279	17521
283.338	6293
283.396	3737
283.455	3163
283.514	4511
283.573	6247
283.631	4976
283.690	3532
283.749	3954
283.808	7945
283.866	8226
283.925	2975
283.984	3535
284.043	4726
284.101	5081
284.160	3052
284.219	5244
284.277	3893
284.336	7748
284.395	24478
284.453	16509
284.512	6791
284.570	9560
284.629	7662
284.688	6170
284.746	6014
284.805	6997
284.863	9190
284.922	11710
284.981	13405
285.039	19288
285.098	35859
285.156	82941
285.215	127767
285.273	123607
285.332	77650
285.390	42571
285.449	26055
285.507	19023
285.566	14182
285.624	10429
285.683	8694
285.741	6741
285.799	6759
285.858	5719
285.916	4959
285.975	4238
286.033	3278
286.091	4008
286.150	3292
286.208	3569
286.267	5054
286.325	4225
286.383	7359
286.442	5973
286.500	3109
286.558	2209
286.616	1909
286.675	4373
286.733	3736
286.791	3268
286.850	4353
286.908	6115
286.966	10383
287.024	4650
287.083	2860
287.141	2860
287.199	3702
287.257	5200
287.315	3691
287.374	4612
287.432	11656
287.490	6786
287.548	4356
287.606	3370
287.664	3468
287.723	5036
287.781	6646
287.839	4673
287.897	3600
287.955	5367
288.013	9425
288.071	21958
288.129	80340
288.187	167560
288.245	73859
288.303	26870
288.361	16243
288.419	13016
288.477	8688
288.535	6771
288.593	5429
288.651	4579
288.709	2898
288.767	3840
288.825	3294
288.883	2799
288.941	3298
288.999	3365
289.057	2540
289.115	2814
289.173	3246
289.231	3308
289.289	2624
289.346	3229
289.404	3519
289.462	6650
289.520	6771
289.578	2929
289.636	3053
289.694	3006
289.751	1328
289.809	2775
289.867	2571
289.925	3526
289.983	3291
290.040	2170
290.098	2493
290.156	3540
290.214	3962
290.271	1856
290.329	2945
290.387	1841
290.444	2127
290.502	815
290.560	2794
290.617	3018
290.675	1573
290.733	2243
290.790	2456
290.848	2013
290.906	2985
290.963	2822
291.021	2461
291.078	3231
291.136	4015
291.194	14809
291.251	24142
291.309	6788
291.366	3333
291.424	2932
291.481	4338
291.539	3880
291.596	2361
291.654	2010
291.711	2237
291.769	3499
291.826	5993
291.884	4200
291.941	1850
291.999	2994
292.056	2730
292.114	2643
292.171	2250
292.228	2827
292.286	4912
292.343	7021
292.401	8719
292.458	5219
292.515	3617
292.573	5114
292.630	4460
292.687	3819
292.745	3584
292.802	6770
292.859	17621
292.917	21743
292.974	11559
293.031	4725
293.089	3277
293.146	3338
293.203	2743
293.260	3548
293.318	4716
293.375	8636
293.432	4480
293.489	3372
293.546	2791
293.604	4640
293.661	12868
293.718	29756
293.775	16598
293.832	8822
293.889	6831
293.947	6893
294.004	5340
294.061	5805
294.118	13156
294.175	25982
294.232	34309
294.289	13741
294.346	7136
294.403	6248
294.460	5874
294.517	4346
294.574	3894
294.631	3986
294.688	5438
294.745	13229
294.802	40543
294.859	47863
294.916	18904
294.973	9332
295.030	8032
295.087	7153
295.144	5373
295.201	4458
295.258	4240
295.315	5507
295.372	15085
295.429	22839
295.486	11632
295.542	9906
295.599	27870
295.656	41070
295.713	25579
295.770	25151
295.827	10618
295.883	6875
295.940	6006
295.997	10396
296.054	8761
296.111	5320
296.167	3817
296.224	3240
296.281	2775
296.338	3780
296.394	3571
296.451	4927
296.508	13353
296.564	23757
296.621	17123
296.678	31046
296.734	39755
296.791	16844
296.848	9313
296.904	10811
296.961	21653
297.018	28896
297.074	21438
297.131	9187
297.187	7053
297.244	10069
297.301	27354
297.357	41265
297.414	15017
297.470	7508
297.527	5677
297.583	4996
297.640	5697
297.696	4737
297.753	3221
297.809	2947
297.866	3124
297.922	2820
297.979	3356
298.035	3664
298.092	6921
298.148	17531
298.204	14967
298.261	9132
298.317	16099
298.374	34995
298.430	18415
298.486	9718
298.543	6513
298.599	7125
298.656	9198
298.712	14837
298.768	32070
298.824	19966
298.881	7919
298.937	5599
298.993	6071
299.050	6385
299.106	5829
299.162	5226
299.218	4977
299.275	4635
299.331	5589
299.387	10942
299.443	30289
299.500	34522
299.556	16994
299.612	9173
299.668	9105
299.724	15142
299.780	14678
299.837	8525
299.893	11016
299.949	32321
300.005	35855
300.061	31477
300.117	46426
300.173	22120
300.229	10705
300.285	13369
300.341	15358
300.397	8714
300.453	5418
300.510	6033
300.566	6971
300.622	9844
300.678	28466
300.734	41592
300.790	30482
300.845	30977
300.901	25059
300.957	36305
301.013	23467
301.069	10823
301.125	8424
301.181	7926
301.237	6538
301.293	4062
301.349	4393
301.405	4372
301.461	4934
301.516	6068
301.572	6198
301.628	10652
301.684	10349
301.740	14122
301.796	19829
301.851	15229
301.907	23399
301.963	23354
302.019	34268
302.074	77366
302.130	72415
302.186	34980
302.242	16186
302.297	11513
302.353	10889
302.409	20292
302.464	17587
302.520	15393
302.576	32445
302.631	34473
302.687	20452
302.743	9964
302.798	7354
302.854	6007
302.910	6809
302.965	9097
303.021	13081
303.076	12893
303.132	15557
303.187	17992
303.243	9295
303.299	6568
303.354	4985
303.410	5343
303.465	4562
303.521	4889
303.576	5077
303.632	6063
303.687	11500
303.743	26683
303.798	20683
303.853	10525
303.909	5905
303.964	6208
304.020	9343
304.075	14980
304.130	12653
304.186	22962
304.241	23502
304.297	18907
304.352	10688
304.358	10318
304.407	7314
304.449	7147
304.463	7092
304.518	8226
304.539	7874
304.573	7306
304.629	6521
304.630	6591
304.684	9970
304.720	18100
304.739	22238
304.794	29107
304.811	25282
304.850	15762
304.902	8435
304.905	7983
304.960	7161
304.992	7510
305.015	7779
305.071	6731
305.083	6471
305.126	5413
305.173	4317
305.181	4159
305.236	4244
305.264	4106
305.292	4047
305.347	6154
305.354	6345
305.402	7431
305.445	8288
305.457	8522
305.512	9148
305.535	8912
305.567	8574
305.622	9134
305.626	9430
305.678	16368
305.716	29209
305.733	33851
305.788	34897
305.807	31126
305.843	24061
305.897	27628
305.898	27663
305.953	26847
305.988	19526
306.008	15404
306.063	11206
306.078	10050
306.118	7361
306.168	6273
306.173	6203
306.228	5126
306.259	4781
306.283	4556
306.338	4829
306.349	4927
306.393	5637
306.440	6810
306.448	6958
306.503	7068
306.530	7801
306.558	10346
306.613	22346
306.620	23468
306.668	29532
306.711	35086
306.723	35294
306.778	26009
306.801	20793
306.833	14708
306.888	8298
306.892	8028
306.943	6645
306.982	5861
306.997	5604
307.052	6147
307.072	5982
307.107	6458
307.162	9171
307.163	9207
307.217	13585
307.253	16427
307.272	17081
307.327	18314
307.343	16998
307.381	13527
307.434	11755
307.436	12021
307.491	22494
307.524	31967
307.546	35061
307.600	33747
307.614	30928
307.655	19580
307.704	11357
307.710	11170
307.765	13107
307.795	15722
307.819	19467
307.874	31623
307.885	32122
307.929	26459
307.975	20345
307.984	20662
308.038	28286
308.065	35327
308.093	54398
308.148	106391
308.156	116857
308.202	178635
308.246	214503
308.257	208472
308.312	130207
308.336	99030
308.366	76983
308.421	47812
308.426	45234
308.475	30255
308.517	21490
308.530	20122
308.585	16646
308.607	15535
308.639	14937
308.694	15595
308.697	15749
308.748	26378
308.787	37342
308.803	37718
308.857	31304
308.877	27697
308.912	23896
308.967	22560
308.967	22557
309.021	29113
309.058	35288
309.076	43791
309.130	75830
309.148	89049
309.185	141134
309.238	227435
309.239	228407
309.293	252287
309.328	249293
309.348	221719
309.402	128610
309.418	104219
309.457	75082
309.508	44897
309.511	44072
309.566	34963
309.598	31016
309.620	31853
309.674	35596
309.688	36726
309.729	35698
309.778	31898
309.783	31367
309.837	25181
309.868	22508
309.892	26077
309.946	36725
309.959	40116
310.001	55889
310.049	70311
310.055	68055
310.109	42317
310.139	27555
310.163	22027
310.218	13134
310.229	11572
310.272	9865
310.319	8465
310.326	8385
310.381	7793
310.409	7642
310.435	7332
310.489	6539
310.499	6485
310.543	7310
310.589	7867
310.598	7940
310.652	8846
310.679	9007
310.706	8188
310.760	6556
310.769	6306
310.814	5739
310.859	5164
310.868	5292
310.923	6206
310.948	6595
310.977	6968
311.031	7831
311.038	7939
311.085	7661
311.128	7135
311.139	7164
311.193	7418
311.218	7519
311.247	6958
311.301	5898
311.308	5755
311.356	6183
311.398	6664
311.410	6570
311.464	5945
311.488	5651
311.518	5466
311.572	5236
311.578	5205
311.626	7883
311.668	10297
311.680	10386
311.734	10574
311.758	10648
311.788	10748
311.842	10902
311.847	10901
311.896	12982
311.937	14849
311.950	15011
312.004	15554
312.027	15723
312.058	12870
312.112	7795
312.117	7282
312.165	7202
312.207	7128
312.297	13115
312.386	10926
312.476	8104
312.566	15512
312.656	8745
312.745	6092
312.835	7479
312.925	9946
313.015	7752
313.104	9485
313.194	5946
313.284	7589
313.374	9050
313.463	9996
313.553	6071
313.643	6747
313.732	6436
313.822	6259
313.912	7303
314.001	8237
314.091	9768
314.180	15312
314.270	11032
314.360	11391
314.449	9961
314.539	6988
314.628	7310
314.718	8445
314.808	11046
314.897	7900
314.987	6893
315.076	8555
315.166	11247
315.255	11050
315.345	10364
315.434	10365
315.524	8903
315.613	10178
315.703	12127
315.792	15849
315.881	35523
315.971	18514
316.060	17158
316.150	26296
316.239	26790
316.328	13230
316.418	7256
316.507	6885
316.597	9564
316.686	9089
316.775	12087
316.865	29101
316.954	8981
317.043	7264
317.133	6778
317.222	6586
317.311	6190
317.400	6135
317.490	8836
317.579	10561
317.668	7343
317.757	10363
317.847	20452
317.936	62990
318.025	34576
318.114	19286
318.203	14813
318.293	17173
318.382	35395
318.471	29546
318.560	36549
318.649	75376
318.738	21383
318.828	11866
318.917	13411
319.006	14364
319.095	31806
319.184	84690
319.273	52073
319.362	27038
319.451	9829
319.540	9480
319.629	16879
319.718	32182
319.807	17466
319.896	26574
319.985	100480
320.074	47945
320.163	13596
320.252	19126
320.341	18266
320.430	18870
320.519	18181
320.608	12902
320.697	10634
320.786	11286
320.875	12130
320.964	14840
321.053	21871
321.142	28070
321.230	34886
321.319	26263
321.408	57592
321.497	30314
321.586	22834
321.675	28334
321.764	31125
321.852	20316
321.941	33555
322.030	25132
322.119	26015
322.207	55871
322.296	45816
322.385	27595
322.474	25734
322.562	64011
322.651	44669
322.740	26040
322.829	39479
322.917	38645
323.006	24210
323.095	20953
323.183	15935
323.272	21251
323.361	31403
323.449	89797
323.538	38174
323.626	63635
323.715	50754
323.804	19993
323.892	58810
323.981	41554
324.069	15110
324.158	32149
324.246	38127
324.335	15147
324.424	22842
324.512	10600
324.601	13431
324.689	22559
324.778	48367
324.866	31949
324.954	10821
325.043	9121
325.131	17129
325.220	29174
325.308	35461
325.397	23779
325.485	18236
325.574	7649
325.662	7662
325.750	7380
325.839	7462
325.927	6385
326.015	8268
326.104	11608
326.192	17752
326.280	7708
326.369	7516
326.457	10358
326.545	17455
326.634	9872
326.722	4944
326.810	6679
326.898	7239
326.987	8055
327.075	15495
327.163	18068
327.251	11733
327.340	18221
327.428	31749
327.516	9045
327.604	7150
327.692	8779
327.781	8260
327.869	14694
327.957	9825
328.045	9407
328.133	5330
328.221	8053
328.309	7301
328.397	6757
328.485	8622
328.574	11253
328.662	32431
328.750	23177
328.838	10274
328.926	8190
329.014	7049
329.102	10378
329.190	26459
329.278	19171
329.366	6228
329.454	5933
329.542	6916
329.630	6517
329.718	7902
329.806	9063
329.893	11081
329.981	12810
330.069	19729
330.157	59249
330.245	151247
330.333	101126
330.421	24338
330.509	15611
330.597	40115
330.684	32918
330.772	13838
330.860	19972
330.948	27497
331.036	13597
331.123	5740
331.211	6069
331.299	10481
331.387	19165
331.475	41258
331.562	13554
331.650	6592
331.738	7558
331.825	10707
331.913	6789
332.001	6137
332.089	8715
332.176	17558
332.264	32636
332.352	31732
332.439	11639
332.527	9170
332.614	7031
332.702	9682
332.790	7202
332.877	14860
332.965	33482
333.052	10327
333.140	8495
333.228	16721
333.315	7388
333.403	7750
333.490	20862
333.578	19232
333.665	16231
333.753	11292
333.840	7674
333.928	9910
334.015	23973
334.103	33346
334.190	101662
334.278	37980
334.365	16346
334.452	13643
334.540	10854
334.627	12318
334.715	17829
334.802	26768
334.889	101877
334.977	119058
335.064	23456
335.151	13210
335.239	12602
335.326	16006
335.413	46700
335.501	80741
335.588	16332
335.675	11531
335.762	14931
335.850	28114
335.937	20060
336.024	37381
336.111	125299
336.199	72310
336.286	19019
336.373	11200
336.460	8673
336.547	7807
336.635	9369
336.722	9405
336.809	8898
336.896	11718
336.983	33213
337.070	83826
337.157	111585
337.245	72669
337.332	59719
337.419	11000
337.506	8793
337.593	10196
337.680	26361
337.767	93507
337.854	30358
337.941	32071
338.028	31774
338.115	14793
338.202	16045
338.289	24088
338.376	72044
338.463	31063
338.550	48002
338.637	62751
338.724	17744
338.811	28482
338.898	7989
338.984	6153
339.071	9726
339.158	9773
339.245	22382
339.332	17450
339.419	16717
339.506	20888
339.593	4894
339.679	6569
339.766	6409
339.853	8571
339.940	16068
340.027	7962
340.113	7159
340.200	8267
340.287	8464
340.374	8145
340.460	14781
340.547	8854
340.634	10698
340.720	34793
340.807	26647
340.894	6698
340.980	6489
341.067	6193
341.154	7626
341.240	9727
341.327	21003
341.414	7743
341.500	10091
341.587	7031
341.674	5896
341.760	13638
341.847	17630
341.933	7144
342.020	3653
342.106	4658
342.193	4653
342.279	11577
342.366	8099
342.452	14927
342.539	8674
342.625	15843
342.712	40960
342.798	19635
342.885	9463
342.971	4117
343.058	4101
343.144	4975
343.230	5073
343.317	5404
343.403	5129
343.490	4165
343.576	5184
343.662	5136
343.749	6330
343.835	7721
343.921	11912
344.008	48105
344.094	126228
344.180	36441
344.267	14624
344.353	35555
344.439	48732
344.525	22677
344.612	14266
344.698	14022
344.784	9309
344.870	5330
344.957	5089
345.043	9403
345.129	6639
345.215	13300
345.301	9007
345.387	7117
345.474	3743
345.560	4626
345.646	6666
345.732	6228
345.818	6293
345.904	6770
345.990	7294
346.076	6518
346.162	14606
346.249	7444
346.335	5296
346.421	6022
346.507	14010
346.593	51467
346.679	17669
346.765	7333
346.851	6684
346.937	7117
347.023	5418
347.108	6478
347.194	6359
347.280	6039
347.366	6816
347.452	17068
347.538	61538
347.624	51288
347.710	47668
347.796	11371
347.882	7249
347.967	5642
348.053	10029
348.139	7993
348.225	4223
348.311	5319
348.397	4685
348.482	5734
348.568	8824
348.654	5668
348.740	8702
348.825	11003
348.911	10166
348.997	25829
349.083	60055
349.168	15032
349.254	5707
349.340	7070
349.425	4728
349.511	6383
349.597	9345
349.682	13252
349.768	40632
349.854	24023
349.939	7417
350.025	4651
350.110	7006
350.196	5459
350.282	3881
350.367	4850
350.453	8200
350.538	9712
350.624	7703
350.709	9564
350.795	4727
350.880	5256
350.966	6489
351.051	8605
351.137	7825
351.222	6406
351.308	12507
351.393	40665
351.479	13896
351.564	5805
351.649	5684
351.735	4461
351.820	3916
351.906	5502
351.991	7990
352.076	22049
352.162	40239
352.247	9535
352.332	6988
352.418	11906
352.503	16600
352.588	50959
352.673	52564
352.759	13128
352.844	7430
352.929	7525
353.014	9802
353.100	8030
353.185	16061
353.270	18813
353.355	17167
353.441	6861
353.526	7192
353.611	12910
353.696	17636
353.781	10203
353.866	6080
353.952	6138
354.037	12368
354.122	29360
354.207	27762
354.292	12936
354.377	6100
354.462	5038
354.547	8123
354.632	8629
354.717	14094
354.802	20742
354.887	9507
354.972	4925
355.057	4667
355.142	5046
355.227	6574
355.312	9945
355.397	20340
355.482	46562
355.567	27862
355.652	16638
355.737	18663
355.822	42651
355.907	44954
355.991	9457
356.076	5745
356.161	5385
356.246	5099
356.331	5975
356.416	11868
356.501	59326
356.585	78447
356.670	16268
356.755	11771
356.840	13476
356.924	50180
357.009	166924
357.094	78758
357.179	19031
357.263	14153
357.348	12299
357.433	14318
357.517	11777
357.602	10694
357.687	9002
357.771	14709
357.856	36943
357.941	26947
358.025	33466
358.110	146883
358.195	90801
358.279	18272
358.364	13544
358.448	32739
358.533	92471
358.617	74818
358.702	68474
358.787	30843
358.871	17316
358.956	15593
359.040	6592
359.125	5160
359.209	6442
359.294	15740
359.378	31605
359.462	16268
359.547	9635
359.631	6867
359.716	4908
359.800	5940
359.885	11498
359.969	7753
360.053	6537
360.138	6733
360.222	9112
360.306	15301
360.391	13184
360.475	19797
360.559	48262
360.644	37545
360.728	31047
360.812	33952
360.896	102556
360.981	56481
361.065	37308
361.149	10653
361.233	9528
361.318	8193
361.402	9364
361.486	7749
361.570	6271
361.654	8524
361.739	17464
361.823	59774
361.907	106994
361.991	26998
362.075	15592
362.159	31093
362.243	27510
362.327	30300
362.411	38042
362.495	21426
362.580	12035
362.664	9327
362.748	9670
362.832	13373
362.916	23843
363.000	61926
363.084	121198
363.168	140248
363.252	43408
363.336	18794
363.420	20277
363.503	66901
363.587	96702
363.671	20896
363.755	13501
363.839	19519
363.923	11803
364.007	19522
364.091	23971
364.175	32087
364.258	121646
364.342	118897
364.426	131654
364.510	78634
364.594	35755
364.677	29131
364.761	84475
364.845	73495
364.929	28540
365.013	25560
365.096	18299
365.180	23879
365.264	26428
365.347	111346
365.431	61597
365.515	19760
365.598	8851
365.682	7826
365.766	15826
365.849	25162
365.933	10771
366.017	13401
366.100	14613
366.184	6237
366.267	6726
366.351	6677
366.435	5521
366.518	5066
366.602	4972
366.685	5369
366.769	6670
366.852	13618
366.936	25213
367.019	13520
367.103	11347
367.186	26320
367.270	8271
367.353	4285
367.436	6256
367.520	5714
367.603	6449
367.687	10040
367.770	18206
367.853	12104
367.937	25238
368.020	50173
368.104	15256
368.187	12977
368.270	19931
368.353	18467
368.437	21390
368.520	51457
368.603	36013
368.687	33109
368.770	70341
368.853	20661
368.936	19966
369.020	24220
369.103	9508
369.186	6783
369.269	7215
369.352	12012
369.436	19209
369.519	12675
369.602	7375
369.685	6396
369.768	8475
369.851	7256
369.934	5085
370.018	7082
370.101	15851
370.184	14428
370.267	10480
370.350	16253
370.433	24435
370.516	45532
370.599	66493
370.682	23477
370.765	38230
370.848	44260
370.931	79004
371.014	41400
371.097	10720
371.180	7409
371.263	4821
371.346	4065
371.429	4122
371.511	5844
371.594	10895
371.677	17206
371.760	25354
371.843	16108
371.926	49878
372.009	134382
372.091	53135
372.174	28687
372.257	66822
372.340	32109
372.423	28941
372.505	41463
372.588	17763
372.671	21456
372.754	74362
372.836	45215
372.919	32699
373.002	78398
373.085	26310
373.167	15002
373.250	32220
373.332	68780
373.415	80453
373.498	176311
373.580	79253
373.663	78102
373.746	125475
373.828	35757
373.911	16484
373.993	16408
374.076	65407
374.159	74609
374.241	25205
374.324	65994
374.406	50423
374.489	43290
374.571	140378
374.654	70637
374.736	28520
374.819	82881
374.901	118142
374.983	135616
375.066	31423
375.148	13855
375.231	46144
375.313	112018
375.395	50838
375.478	12914
375.560	8395
375.643	10083
375.725	24573
375.807	102800
375.890	100663
375.972	53414
376.054	26424
376.136	44444
376.219	21619
376.301	27188
376.383	95701
376.465	44119
376.548	26977
376.630	28976
376.712	80862
376.794	45207
376.877	7645
376.959	5176
377.041	7865
377.123	18138
377.205	26594
377.287	6899
377.369	5318
377.452	6666
377.534	5536
377.616	5676
377.698	5155
377.780	4584
377.862	5609
377.944	6354
378.026	5050
378.108	4741
378.190	5628
378.272	4593
378.354	4208
378.436	4508
378.518	9862
378.600	37317
378.682	29586
378.764	45141
378.846	43839
378.928	15324
379.010	18963
379.091	12231
379.173	6405
379.255	5497
379.337	7796
379.419	19665
379.501	66344
379.583	34087
379.664	9534
379.746	17816
379.828	47731
379.910	64921
379.991	61355
380.073	14082
380.155	8890
380.237	6695
380.318	6002
380.400	6366
380.482	11345
380.564	20164
380.645	21181
380.727	21435
380.809	12049
380.890	8631
380.972	6944
381.053	7253
381.135	7920
381.217	15389
381.298	51958
381.380	30166
381.461	19670
381.543	74023
381.624	110055
381.706	25990
381.787	13868
381.869	15024
381.951	30126
382.032	123359
382.113	97395
382.195	26729
382.276	17237
382.358	30285
382.439	73916
382.521	76731
382.602	124832
382.684	61319
382.765	103666
382.846	109685
382.928	111278
383.009	70150
383.090	46402
383.172	144895
383.253	248206
383.334	102474
383.416	114408
383.497	68225
383.578	27816
383.659	45750
383.741	131523
383.822	349374
383.903	207844
383.984	79846
384.066	143915
384.147	106057
384.228	25346
384.309	18537
384.390	15904
384.471	12590
384.553	12768
384.634	17154
384.715	18402
384.796	10227
384.877	11600
384.958	39766
385.039	59483
385.120	26071
385.201	11608
385.282	16674
385.363	19175
385.444	14965
385.525	18769
385.606	56533
385.687	57649
385.768	20002
385.849	22740
385.930	59126
386.011	115575
386.092	41459
386.173	14990
386.254	11539
386.335	11934
386.416	13467
386.496	29079
386.577	56186
386.658	26861
386.739	17117
386.820	17025
386.901	16196
386.981	15225
387.062	12054
387.143	15459
387.224	46478
387.304	53158
387.385	22807
387.466	16145
387.547	21386
387.627	14902
387.708	18230
387.789	72568
387.869	101490
387.950	34349
388.031	11619
388.111	12556
388.192	29288
388.273	45219
388.353	29295
388.434	13765
388.514	15191
388.595	59340
388.676	93284
388.756	52253
388.837	46514
388.917	34136
388.998	9750
389.078	8547
389.159	8437
389.239	5906
389.320	11469
389.400	9844
389.480	18558
389.561	50299
389.641	29217
389.722	11524
389.802	18284
389.883	19947
389.963	53278
390.043	43263
390.124	18532
390.204	16746
390.284	54837
390.365	41666
390.445	46188
390.525	99019
390.605	84063
390.686	34355
390.766	14080
390.846	8644
390.927	6054
391.007	7095
391.087	9335
391.167	10076
391.247	7773
391.328	12229
391.408	20978
391.488	17551
391.568	6854
391.648	8147
391.728	13361
391.808	11718
391.888	13136
391.969	24711
392.049	48937
392.129	28595
392.209	23663
392.289	55503
392.369	37728
392.449	40360
392.529	27406
392.609	18268
392.689	19142
392.769	51670
392.849	53856
392.929	40477
393.009	90279
393.089	78483
393.169	69665
393.248	177443
393.328	542544
393.408	644978
393.488	249299
393.568	80911
393.648	39938
393.728	25393
393.807	19524
393.887	17590
393.967	16399
394.047	18039
394.127	21700
394.206	32266
394.286	85084
394.366	323535
394.446	414127
394.525	139131
394.605	39965
394.685	28062
394.764	51870
394.844	86762
394.924	69557
395.003	23035
395.083	13654
395.163	12832
395.242	12469
395.322	13042
395.402	10079
395.481	12641
395.561	30002
395.640	93855
395.720	81989
395.799	97844
395.879	88493
395.958	52158
396.038	131124
396.117	415870
396.197	526232
396.276	234238
396.356	88179
396.435	61338
396.515	39752
396.594	38384
396.673	62790
396.753	173472
396.832	516419
396.912	461442
396.991	141161
397.070	42915
397.150	23680
397.229	18431
397.308	24039
397.388	47927
397.467	28879
397.546	11659
397.625	8033
397.705	10986
397.784	12101
397.863	8066
397.942	6731
398.022	7383
398.101	21716
398.180	81943
398.259	54415
398.338	14626
398.417	9021
398.497	7185
398.576	7858
398.655	5987
398.734	5928
398.813	7875
398.892	20027
398.971	83499
399.050	49837
399.129	7554
399.208	5083
399.287	4857
399.366	4533
399.445	4624
399.524	5247
399.603	4318
399.682	8668
399.761	22291
399.840	80411
399.919	77221
399.998	13513
400.077	4583
400.156	2935
400.235	6541
400.313	5547
400.392	6021
400.471	23016
400.550	46830
400.629	15229
400.708	7038
400.786	8255
400.865	22490
400.944	28763
401.023	13121
401.102	3170
401.180	2894
401.259	3907
401.338	6204
401.416	7595
401.495	6367
401.574	6980
401.652	4786
401.731	7975
401.810	8925
401.888	5583
401.967	2995
402.046	4837
402.124	6727
402.203	10564
402.281	5474
402.360	8499
402.438	28295
402.517	24882
402.596	7722
402.674	8346
402.753	5293
402.831	4391
402.910	5204
402.988	17713
403.066	69731
403.145	48176
403.223	21651
403.302	62197
403.380	49758
403.459	52095
403.537	24740
403.615	11052
403.694	4103
403.772	3875
403.850	3131
403.929	3968
404.007	3520
404.085	11005
404.164	16312
404.242	6997
404.320	13494
404.398	49006
404.477	58260
404.555	100592
404.633	106213
404.711	45897
404.789	30647
404.868	10845
404.946	6235
405.024	3093
405.102	3081
405.180	2271
405.258	2204
405.336	3101
405.415	3289
405.493	11318
405.571	12434
405.649	3796
405.727	3472
405.805	7669
405.883	7653
405.961	7524
406.039	10350
406.117	4583
406.195	5778
406.273	19527
406.351	88410
406.429	67796
406.507	15744
406.585	6395
406.663	5009
406.740	6035
406.818	6491
406.896	4443
406.974	4972
407.052	7403
407.130	46927
407.208	83531
407.285	19648
407.363	4434
407.441	3879
407.519	3562
407.596	4622
407.674	12535
407.752	49546
407.830	58567
407.907	23389
407.985	8564
408.063	3962
408.141	3105
408.218	8268
408.296	11066
408.373	7668
408.451	6288
408.529	4679
408.606	3585
408.684	2552
408.762	2843
408.839	2789
408.917	2156
408.994	3022
409.072	3170
409.149	3317
409.227	6159
409.304	7751
409.382	7619
409.459	7923
409.537	11116
409.614	10859
409.692	8411
409.769	8344
409.846	10701
409.924	14339
410.001	12561
410.079	10160
410.156	8081
410.233	8434
410.311	5728
410.388	5067
410.465	5285
410.543	5899
410.620	4339
410.697	4238
410.775	5428
410.852	3508
410.929	4958
411.006	7982
411.083	4195
411.161	10611
411.238	13490
411.315	8663
411.392	3853
411.469	5543
411.547	6731
411.624	3317
411.701	3504
411.778	3922
411.855	8813
411.932	6018
412.009	3359
412.086	3761
412.163	4820
412.240	5378
412.317	7635
412.394	6924
412.471	3864
412.548	2204
412.625	3027
412.702	4201
412.779	10326
412.856	9116
412.933	2855
413.010	3179
413.087	4717
413.164	19800
413.241	39431
413.318	10591
413.395	6290
413.471	8522
413.548	5323
413.625	3095
413.702	5654
413.779	4411
413.855	1493
413.932	1354
414.009	1993
414.086	2007
414.162	2523
414.239	5324
414.316	21774
414.393	53554
414.469	23385
414.546	3660
414.623	1725
414.699	2588
414.776	3388
414.853	3104
414.929	3481
415.006	3123
415.082	5065
415.159	4456
415.236	3399
415.312	3542
415.389	5109
415.465	8925
415.542	5509
415.618	2347
415.695	6153
415.771	3593
415.848	3742
415.924	4426
416.000	4058
416.077	2824
416.153	1996
416.230	285
416.306	1354
416.383	2312
416.459	2815
416.535	2002
416.612	2300
416.688	2124
416.764	1866
416.841	2268
416.917	2317
416.993	2436
417.069	3860
417.146	5895
417.222	9364
417.298	6047
417.374	2015
417.451	4143
417.527	4088
417.603	5048
417.679	3932
417.755	3775
417.831	2315
417.908	1480
417.984	1955
418.060	1419
418.136	6281
418.212	9629
418.288	4405
418.364	3210
418.440	2291
418.516	5051
418.592	8334
418.668	13623
418.744	18607
418.820	15185
418.896	4329
418.972	1470
419.048	3273
419.124	7552
419.200	6474
419.276	2718
419.352	892
419.428	2328
419.504	3438
419.579	4863
419.655	3439
419.731	3559
419.807	9410
419.883	20239
419.959	14633
420.034	5616
420.110	7051
420.186	30839
420.262	30197
420.337	7397
420.413	5507
420.489	2524
420.565	3611
420.640	2970
420.716	4501
420.792	2434
420.867	3447
420.943	3226
421.019	6773
421.094	6031
421.170	5119
421.245	3558
421.321	5320
421.397	4750
421.472	9266
421.548	28515
421.623	23497
421.699	9595
421.774	8409
421.850	7087
421.925	12184
422.001	12993
422.076	12091
422.152	15992
422.227	23223
422.302	29268
422.378	42430
422.453	74616
422.529	155032
422.604	316770
422.679	379224
422.755	364177
422.830	215986
422.905	97768
422.981	55570
423.056	35574
423.131	25661
423.207	18694
423.282	15824
423.357	19694
423.432	16075
423.508	13725
423.583	23046
423.658	19439
423.733	9755
423.808	9675
423.883	10043
423.959	8842
424.034	8315
424.109	8184
424.184	5161
424.259	4545
424.334	5447
424.409	3786
424.484	3367
424.559	5403
424.634	3934
424.709	4761
424.784	6476
424.859	4033
424.934	5541
425.009	21272
425.084	40680
425.159	17994
425.234	5131
425.309	2127
425.384	8015
425.459	16372
425.534	7333
425.609	4254
425.683	3217
425.758	3166
425.833	3152
425.908	4961
425.983	10900
426.058	40238
426.132	22465
426.207	5903
426.282	8369
426.357	9875
426.431	3314
426.506	3650
426.581	3413
426.655	2989
426.730	2318
426.805	2576
426.879	4418
426.954	3502
427.029	6128
427.103	27510
427.178	81015
427.253	45200
427.327	6836
427.402	7696
427.476	23009
427.551	13155
427.625	5051
427.700	5603
427.774	3477
427.849	4880
427.923	3234
427.998	2363
428.072	4570
428.147	10680
428.221	32125
428.296	114336
428.370	74409
428.444	12794
428.519	11048
428.593	23163
428.667	21397
428.742	24261
428.816	23500
428.890	68573
428.965	133067
429.039	48280
429.113	30326
429.188	12802
429.262	4718
429.336	5687
429.410	18633
429.485	16104
429.559	19244
429.633	18789
429.707	6481
429.781	13035
429.855	77089
429.930	138949
430.004	70024
430.078	96698
430.152	93117
430.226	129937
430.300	156006
430.374	35044
430.448	10874
430.522	23669
430.596	86149
430.670	59133
430.744	94684
430.818	161328
430.892	40317
430.966	7322
431.040	3932
431.114	2641
431.188	2552
431.262	2975
431.336	3634
431.410	7454
431.484	27253
431.557	19835
431.631	3508
431.705	4892
431.779	17683
431.853	93230
431.927	85335
432.000	11756
432.074	4610
432.148	5386
432.222	5302
432.295	2502
432.369	2026
432.443	4228
432.516	25421
432.590	79863
432.664	36669
432.737	5999
432.811	1783
432.885	234
432.958	1924
433.032	1219
433.106	753
433.179	776
433.253	529
433.326	1110
433.400	477
433.473	1817
433.547	824
433.620	1124
433.694	4035
433.767	5542
433.841	1543
433.914	1653
433.988	1189
434.061	2253
434.134	1476
434.208	1026
434.281	1160
434.355	1035
434.428	1083
434.501	572
434.575	380
434.648	2279
434.721	1128
434.795	1283
434.868	1123
434.941	722
435.014	422
435.088	1281
435.161	1525
435.234	3558
435.307	5741
435.381	3255
435.454	3514
435.527	4153
435.600	5098
435.673	4581
435.746	3868
435.819	3028
435.892	2770
435.966	2434
436.039	1842
436.112	2499
436.185	1342
436.258	1123
436.331	-411
436.404	518
436.477	713
436.550	707
436.623	652
436.696	1375
436.769	1724
436.842	1629
436.915	2097
436.987	3823
437.060	1753
437.133	1919
437.206	1046
437.279	1820
437.352	968
437.425	911
437.498	2474
437.570	5825
437.643	6479
437.716	1582
437.789	1303
437.861	3036
437.934	12709
438.007	7425
438.080	1229
438.152	2141
438.225	4993
438.298	26941
438.370	98272
438.443	51670
438.516	14503
438.588	3504
438.661	1059
438.734	1661
438.806	2114
438.879	3384
438.951	3642
439.024	7542
439.096	3581
439.169	1976
439.241	1175
439.314	1175
439.386	4723
439.459	6010
439.531	8332
439.604	3865
439.676	1770
439.749	1225
439.821	915
439.893	1161
439.966	2052
440.038	1938
440.110	3325
440.183	1331
440.255	1702
440.327	3529
440.400	13719
440.472	64868
440.544	51490
440.617	7493
440.689	5892
440.761	5665
440.833	10700
440.905	7919
440.978	1974
441.050	1202
441.122	1028
441.194	1031
441.266	1945
441.338	1548
441.411	3561
441.483	19702
441.555	37788
441.627	9712
441.699	6263
441.771	7322
441.843	2973
441.915	2443
441.987	2231
442.059	2151
442.131	2814
442.203	6535
442.275	6715
442.347	7240
442.419	10788
442.491	47724
442.563	137056
442.635	71609
442.706	30928
442.778	25204
442.850	6394
442.922	3347
442.994	4719
443.066	7602
443.137	6879
443.209	6214
443.281	8856
443.353	17429
443.425	60806
443.496	216877
443.568	245046
443.640	103505
443.711	23384
443.783	8285
443.855	5941
443.926	3407
443.998	4252
444.070	6036
444.141	4711
444.213	6040
444.285	6895
444.356	6597
444.428	5726
444.499	3260
444.571	2176
444.642	2209
444.714	3265
444.785	5520
444.857	7291
444.928	19377
445.000	13601
445.071	13038
445.143	19106
445.214	12488
445.285	18326
445.357	51626
445.428	133839
445.500	316382
445.571	235860
445.642	133130
445.714	51181
445.785	39971
445.856	14420
445.928	8979
445.999	6605
446.070	6482
446.141	5500
446.213	7966
446.284	4772
446.355	4809
446.426	4789
446.497	3473
446.569	6438
446.640	9242
446.711	6120
446.782	1724
446.853	3743
446.924	4117
446.995	3188
447.066	2851
447.138	8301
447.209	5132
447.280	1740
447.351	2220
447.422	1621
447.493	2999
447.564	3793
447.635	4137
447.706	2882
447.777	1054
447.847	2215
447.918	1248
447.989	3754
448.060	4926
448.131	12290
448.202	11836
448.273	8012
448.344	4629
448.414	1974
448.485	1620
448.556	1187
448.627	993
448.698	1607
448.768	901
448.839	1464
448.910	5550
448.981	6548
449.051	2450
449.122	1472
449.193	1089
449.263	2040
449.334	1022
449.405	2409
449.475	7301
449.546	5161
449.616	7704
449.687	6745
449.758	2955
449.828	1283
449.899	1862
449.969	1251
450.040	1751
450.110	1825
450.181	3320
450.251	2846
450.322	1763
450.392	2642
450.463	1736
450.533	1498
450.604	1661
450.674	2061
450.744	1946
450.815	1387
450.885	2229
450.955	3005
451.026	1830
451.096	1796
451.166	2704
451.237	7091
451.307	22045
451.377	9624
451.447	2120
451.518	1937
451.588	2175
451.658	2096
451.728	4152
451.799	19834
451.869	26725
451.939	5851
452.009	2125
452.079	1484
452.149	2426
452.219	4446
452.289	23895
452.360	19975
452.430	4881
452.500	2958
452.570	3914
452.640	6376
452.710	17902
452.780	32164
452.850	17098
452.920	13747
452.990	6026
453.060	3647
453.129	4934
453.199	6611
453.269	18458
453.339	50292
453.409	82172
453.479	71636
453.549	112866
453.619	129772
453.688	54818
453.758	9774
453.828	4310
453.898	3410
453.968	2580
454.037	3134
454.087	2774
454.107	2604
454.168	1701
454.177	1541
454.247	2364
454.249	2391
454.316	2599
454.330	2810
454.386	3545
454.411	6873
454.456	11497
454.492	16062
454.525	19924
454.574	10975
454.595	7199
454.655	3412
454.665	2848
454.734	4378
454.736	4550
454.804	8670
454.817	11851
454.873	22166
454.898	24725
454.943	28071
454.979	18227
455.013	9890
455.060	6236
455.082	5316
455.141	7199
455.152	7414
455.221	18747
455.222	19229
455.291	37865
455.303	36982
455.360	31386
455.384	41463
455.430	55463
455.465	45162
455.499	35218
455.546	29238
455.569	25822
455.627	17298
455.638	16057
455.707	4650
455.708	4675
455.777	4059
455.789	4088
455.846	4091
455.869	3581
455.916	2610
455.950	3189
455.985	3650
456.031	4007
456.054	4040
456.112	3210
456.124	3096
456.193	2882
456.193	2855
456.262	4354
456.274	4617
456.332	5075
456.355	5353
456.401	5040
456.436	4533
456.470	4204
456.516	3095
456.540	2654
456.597	2684
456.609	2674
456.678	2227
456.678	2204
456.747	2431
456.759	2409
456.817	2204
456.840	2179
456.886	2237
456.920	2612
456.955	3037
457.001	3322
457.024	3610
457.082	4894
457.093	5160
457.162	7080
457.163	7128
457.232	7207
457.243	7075
457.301	5288
457.324	4321
457.370	3516
457.405	3868
457.439	4175
457.485	4151
457.508	4242
457.566	4604
457.577	4701
457.646	6153
457.647	6202
457.715	10375
457.727	11365
457.784	19690
457.808	24049
457.853	30008
457.889	36819
457.922	35808
457.969	26190
457.991	26564
458.050	29736
458.060	31230
458.129	49417
458.130	50128
458.198	56054
458.211	53243
458.267	31054
458.292	21193
458.336	14462
458.372	12239
458.405	14613
458.453	20799
458.474	27884
458.533	50913
458.543	53436
458.611	85174
458.614	86219
458.680	60924
458.694	50952
458.749	25716
458.775	17190
458.818	10868
458.855	8972
458.887	8217
458.936	7261
458.955	6958
459.016	6160
459.024	6049
459.093	6469
459.097	6445
459.162	6336
459.177	6563
459.230	6750
459.257	6906
459.299	7684
459.338	8019
459.368	8161
459.418	9189
459.437	8902
459.499	7175
459.505	7084
459.574	5692
459.579	5654
459.643	5801
459.659	5792
459.711	5552
459.740	5565
459.780	6134
459.820	7289
459.849	7897
459.900	7841
459.917	7717
459.981	8177
459.986	8091
460.054	6982
460.061	6859
460.123	6785
460.141	6665
460.191	7502
460.222	8446
460.260	9342
460.302	10511
460.328	10181
460.382	8764
460.397	8790
460.462	8617
460.465	8761
460.534	13510
460.543	14071
460.602	37071
460.623	45821
460.671	76127
460.703	102975
460.739	100132
460.783	93058
460.808	78446
460.864	19902
460.876	15814
460.944	8885
460.945	8814
461.013	7854
461.024	7700
461.081	7128
461.104	7309
461.150	7550
461.184	7442
461.218	7324
461.264	7003
461.286	7117
461.345	7579
461.355	7555
461.423	7739
461.425	7728
461.491	7890
461.505	8150
461.559	15059
461.585	18110
461.628	32591
461.665	45976
461.696	53198
461.745	69123
461.764	59379
461.825	18030
461.832	17282
461.901	9774
461.905	9568
461.969	8848
461.985	8752
462.037	8570
462.065	8242
462.105	9243
462.145	10614
462.173	16085
462.225	26130
462.241	29553
462.305	45012
462.310	43795
462.378	24876
462.385	22149
462.446	11855
462.465	9261
462.514	8747
462.545	8795
462.582	8722
462.625	8735
462.650	8686
462.705	8422
462.718	8643
462.785	9609
462.786	9710
462.854	16272
462.865	17291
462.922	22504
462.945	24803
462.990	17581
463.025	10969
463.058	9428
463.104	7638
463.126	7562
463.184	7553
463.194	7669
463.262	8680
463.264	8715
463.330	9412
463.344	9557
463.398	10972
463.424	11458
463.466	11132
463.504	11164
463.533	11086
463.583	10571
463.601	10961
463.663	12347
463.669	12736
463.737	17639
463.743	18050
463.805	27394
463.823	30091
463.873	48834
463.903	60577
463.940	68032
463.982	77395
464.008	61905
464.062	25373
464.076	22919
464.142	10576
464.144	10508
464.211	9526
464.221	9426
464.279	9933
464.301	10113
464.347	12550
464.381	14459
464.414	15538
464.461	16934
464.482	17951
464.540	20986
464.550	20099
464.617	13026
464.620	12763
464.685	12846
464.699	12894
464.753	15340
464.779	16615
464.820	18328
464.859	19937
464.888	20300
464.938	20722
464.956	21239
465.018	22964
465.023	22546
465.091	16669
465.098	16019
465.158	15189
465.177	14991
465.226	15347
465.257	15531
465.293	16221
465.336	16927
465.361	17892
465.416	20057
465.428	21503
465.495	29163
465.496	29375
465.563	55452
465.575	59970
465.631	77018
465.654	84484
465.698	54223
465.734	27678
465.765	22669
465.813	15265
465.833	14918
465.893	14522
465.900	14630
465.968	15544
465.972	15580
466.035	15261
466.052	15137
466.102	15256
466.131	15289
466.170	15833
466.210	16324
466.237	16601
466.290	17071
466.304	17269
466.369	17980
466.372	18063
466.439	19715
466.449	19905
466.506	21989
466.528	22750
466.573	29111
466.607	33797
466.641	52847
466.687	79222
466.708	90288
466.766	120777
466.775	111987
466.842	44100
466.845	40782
466.909	25879
466.925	22381
466.977	22113
467.004	22006
467.044	22279
467.083	22460
467.111	23945
467.163	26639
467.178	27670
467.242	31724
467.245	31650
467.312	28906
467.321	28488
467.379	28855
467.400	28909
467.446	32239
467.480	34542
467.559	30915
467.638	23219
467.717	23447
467.796	25798
467.875	27927
467.955	27710
468.034	37283
468.113	92122
468.192	146438
468.271	51495
468.350	26936
468.429	28668
468.508	30687
468.588	27034
468.667	25185
468.746	27440
468.825	25897
468.904	20704
468.983	23580
469.062	40048
469.141	52797
469.220	23459
469.299	19232
469.378	22063
469.456	22502
469.535	22447
469.614	22155
469.693	23037
469.772	30334
469.851	45287
469.930	35247
470.009	19692
470.088	19105
470.166	19228
470.245	21907
470.324	24704
470.403	22912
470.482	19753
470.560	17972
470.639	19405
470.718	22107
470.797	19717
470.875	23498
470.954	37075
471.033	43265
471.111	19372
471.190	16358
471.269	15419
471.347	15931
471.426	17859
471.505	21264
471.583	20936
471.662	19699
471.740	18002
471.819	18063
471.898	16991
471.976	17134
472.055	16937
472.133	19097
472.212	30150
472.290	32671
472.369	21645
472.447	17111
472.526	15809
472.604	17180
472.683	18010
472.761	19383
472.839	16834
472.918	16922
472.996	17396
473.075	21336
473.153	21363
473.231	17966
473.310	20629
473.388	21779
473.466	18594
473.545	20324
473.623	24786
473.701	24659
473.780	17470
473.858	17903
473.936	20284
474.014	18299
474.093	21272
474.171	32170
474.249	50298
474.327	36718
474.405	17089
474.484	15677
474.562	15544
474.640	16155
474.718	17373
474.796	18545
474.874	16761
474.952	15981
475.030	16555
475.108	15877
475.187	18544
475.265	20558
475.343	30641
475.421	37082
475.499	20548
475.577	19716
475.655	25919
475.733	52120
475.811	101325
475.889	95477
475.966	71105
476.044	19501
476.122	23205
476.200	30908
476.278	27244
476.356	15639
476.434	17758
476.512	21558
476.590	29768
476.667	27749
476.745	15746
476.823	15915
476.901	16865
476.979	17868
477.056	16842
477.134	17771
477.212	17810
477.290	16664
477.367	13985
477.445	14267
477.523	13235
477.601	15221
477.678	16151
477.756	20069
477.834	24800
477.911	15356
477.989	15461
478.066	15911
478.144	19844
478.222	22323
478.299	34805
478.377	38926
478.454	17728
478.532	14606
478.609	14708
478.687	16293
478.764	14287
478.842	14687
478.919	16086
478.997	15929
479.074	13926
479.152	18392
479.229	26311
479.307	18635
479.384	12208
479.461	12449
479.539	14367
479.616	19528
479.694	16384
479.771	17684
479.848	19044
479.926	27195
480.003	32630
480.080	15409
480.157	13749
480.235	13662
480.312	14552
480.389	16794
480.467	29167
480.544	41402
480.621	23137
480.698	17173
480.775	20119
480.853	20485
480.930	17056
481.007	17350
481.084	21600
481.161	28157
481.238	25112
481.315	13895
481.392	13919
481.470	15290
481.547	16440
481.624	15352
481.701	14680
481.778	16034
481.855	18378
481.932	28007
482.009	54103
482.086	45848
482.163	18983
482.240	23583
482.317	44445
482.393	42477
482.470	18649
482.547	17587
482.624	16001
482.701	16958
482.778	16697
482.855	13746
482.932	14558
483.009	13970
483.085	16216
483.162	21599
483.239	24197
483.316	15392
483.393	14030
483.469	16001
483.546	19200
483.623	21110
483.699	15709
483.776	17175
483.853	18546
483.930	26805
484.006	71469
484.083	138759
484.160	67216
484.236	65827
484.313	57522
484.389	44860
484.466	38568
484.543	38150
484.619	40092
484.696	40128
484.772	44340
484.849	48034
484.925	36133
485.002	34213
485.078	36957
485.155	38249
485.231	33370
485.308	32199
485.384	34498
485.461	42556
485.537	77470
485.614	107573
485.690	41020
485.766	30912
485.843	31377
485.919	40671
485.995	44247
486.072	29999
486.148	28447
486.224	29823
486.301	31104
486.377	37087
486.453	38188
486.530	33805
486.606	41871
486.682	50344
486.758	64855
486.835	85759
486.911	60723
486.987	97839
487.063	95381
487.139	90781
487.215	74915
487.292	45426
487.368	36862
487.444	41343
487.520	52174
487.596	59456
487.672	76347
487.748	179351
487.824	326310
487.900	174985
487.976	61679
488.052	47621
488.128	50227
488.204	43770
488.280	36540
488.356	40945
488.432	86142
488.508	155483
488.584	58995
488.660	29715
488.736	29524
488.812	29497
488.888	37234
488.964	42004
489.039	75389
489.115	126359
489.191	93942
489.267	34945
489.343	31698
489.418	25860
489.494	24534
489.570	23633
489.646	26912
489.722	27040
489.797	28076
489.873	40474
489.949	106279
490.024	112797
490.100	30390
490.176	24824
490.251	28584
490.327	35468
490.403	27461
490.478	23711
490.554	20377
490.629	22351
490.705	20856
490.781	22986
490.856	24078
490.932	26455
491.007	25475
491.083	26315
491.158	24639
491.234	31892
491.309	76858
491.385	99677
491.460	30423
491.536	26595
491.611	22549
491.686	23416
491.762	29340
491.837	50350
491.913	91507
491.988	120849
492.063	164517
492.139	72726
492.214	46719
492.289	20833
492.365	16875
492.440	23386
492.515	26069
492.590	25562
492.666	20481
492.741	27090
492.816	50250
492.891	30612
492.967	20417
493.042	18319
493.117	22005
493.192	23744
493.267	35862
493.342	122762
493.418	219157
493.493	50850
493.568	18301
493.643	17760
493.718	23709
493.793	35872
493.868	38600
493.943	23415
494.018	19181
494.093	17304
494.168	18160
494.243	15992
494.318	14523
494.393	14268
494.468	15112
494.543	14700
494.618	15901
494.693	16068
494.768	16383
494.842	17700
494.917	14247
494.992	15570
495.067	14391
495.142	14089
495.217	15751
495.292	15548
495.366	19027
495.441	23616
495.516	27730
495.591	34265
495.665	85381
495.740	239039
495.815	146679
495.890	30716
495.964	21743
496.039	22973
496.114	22776
496.188	27490
496.263	28481
496.338	21957
496.412	24393
496.487	30242
496.561	27743
496.636	30380
496.710	24683
496.785	27805
496.860	34221
496.934	25488
497.009	24172
497.083	25328
497.158	25664
497.232	29977
497.307	39711
497.381	32836
497.455	37980
497.530	56474
497.604	40994
497.679	38111
497.753	58740
497.827	80658
497.902	69954
497.976	75654
498.050	126235
498.125	473844
498.199	651694
498.273	126106
498.348	71709
498.422	61003
498.496	57091
498.570	53732
498.645	45455
498.719	46340
498.793	50548
498.867	73244
498.941	98207
499.016	183693
499.090	592463
499.164	317744
499.238	39534
499.312	29960
499.386	32086
499.460	33411
499.534	29709
499.609	35605
499.683	57119
499.757	58527
499.831	83964
499.905	363434
499.979	476859
500.053	87786
500.127	72945
500.201	42950
500.275	28632
500.349	27954
500.422	31438
500.496	41418
500.570	72577
500.644	191226
500.718	469341
500.792	157248
500.866	31749
500.940	40184
501.013	36488
501.087	30040
501.161	47155
501.235	67242
501.309	131984
501.382	388251
501.456	445025
501.530	89860
501.603	151868
501.677	79205
501.751	26249
501.825	29180
501.898	48046
501.972	168482
502.046	148620
502.119	34019
502.193	62645
502.266	192065
502.340	126063
502.413	73274
502.487	176185
502.561	122088
502.634	41028
502.708	20826
502.781	19699
502.855	17487
502.928	15154
503.002	14999
503.075	15705
503.149	19163
503.222	20187
503.295	22955
503.369	28073
503.442	38637
503.516	106063
503.589	345604
503.662	286588
503.736	78098
503.809	152739
503.882	156648
503.956	164172
504.029	205004
504.102	116210
504.175	165916
504.249	91048
504.322	45554
504.395	35601
504.468	23642
504.542	21930
504.615	17195
504.688	14968
504.761	13792
504.834	17750
504.907	18281
504.980	29184
505.053	19845
505.127	19530
505.200	26208
505.273	30627
505.346	20864
505.419	14491
505.492	13225
505.565	11586
505.638	10770
505.711	11784
505.784	12135
505.857	10984
505.930	11849
506.003	12273
506.076	14967
506.149	20896
506.221	31321
506.294	24264
506.367	50931
506.440	211187
506.513	161022
506.586	33588
506.659	19418
506.731	12875
506.804	15763
506.877	22872
506.950	20149
507.022	12859
507.095	17527
507.168	26242
507.241	14290
507.313	10519
507.386	10356
507.459	15550
507.531	12702
507.604	11396
507.677	10614
507.749	9837
507.822	13125
507.894	23193
507.967	33518
508.040	21020
508.112	17711
508.185	17291
508.257	15660
508.330	21723
508.402	17418
508.475	16812
508.547	20037
508.620	16888
508.692	32638
508.765	22659
508.837	12586
508.909	13284
508.982	12895
509.054	15138
509.127	13332
509.199	12676
509.271	11927
509.344	11543
509.416	11938
509.488	12547
509.560	12312
509.633	13575
509.705	15515
509.777	15823
509.849	20161
509.922	18444
509.994	14678
510.066	14380
510.138	14749
510.210	25934
510.283	27247
510.355	22228
510.427	18609
510.499	17936
510.571	18213
510.643	17558
510.715	23387
510.787	23459
510.859	18094
510.931	20739
511.003	24593
511.076	24254
511.148	17596
511.219	17543
511.291	28577
511.363	43103
511.435	18621
511.507	14903
511.579	15660
511.651	14387
511.723	15290
511.795	15182
511.867	15406
511.939	19583
512.010	44734
512.082	44235
512.154	17190
512.226	16867
512.298	20658
512.369	31552
512.441	26149
512.513	23308
512.585	19689
512.656	18104
512.728	21658
512.800	17216
512.871	16098
512.943	16895
513.015	14457
513.086	16940
513.158	17266
513.230	18898
513.301	22736
513.373	26600
513.444	18616
513.516	15521
513.588	15601
513.659	16217
513.731	18258
513.802	17699
513.874	26832
513.945	53818
514.016	28365
514.088	16056
514.159	16632
514.231	20761
514.302	28451
514.374	23689
514.445	22275
514.516	48129
514.588	46150
514.659	22742
514.730	44598
514.802	38019
514.873	24111
514.944	26234
515.016	22517
515.087	24393
515.158	29068
515.229	52057
515.301	28246
515.372	33564
515.443	28526
515.514	22402
515.585	16559
515.656	16778
515.728	14561
515.799	14546
515.870	16552
515.941	16349
516.012	16027
516.083	19768
516.154	21900
516.225	24433
516.296	25116
516.367	23001
516.438	22900
516.509	29042
516.580	35369
516.651	71124
516.722	278379
516.793	213064
516.864	45378
516.935	41794
517.006	43338
517.077	52968
517.148	96756
517.219	245634
517.289	557156
517.360	295507
517.431	135415
517.502	29190
517.573	24834
517.643	22998
517.714	25250
517.785	27226
517.856	24477
517.926	29951
517.997	33916
518.068	40458
518.138	49377
518.209	62900
518.280	154532
518.350	670427
518.421	444561
518.492	67053
518.562	42489
518.633	47304
518.703	51765
518.774	81320
518.845	177027
518.915	212769
518.986	90692
519.056	52630
519.127	59390
519.197	83877
519.268	215179
519.338	208706
519.408	45746
519.479	38285
519.549	31979
519.620	22371
519.690	18953
519.760	17264
519.831	18081
519.901	19836
519.971	16186
520.042	18469
520.112	24025
520.182	23117
520.253	24935
520.323	19649
520.393	23178
520.463	36848
520.534	24669
520.604	52799
520.674	32158
520.744	27943
520.814	53104
520.885	59270
520.955	60084
521.025	260858
521.095	161698
521.165	26483
521.235	21933
521.305	18165
521.375	15039
521.445	16633
521.515	21127
521.585	22834
521.655	24792
521.725	19401
521.795	20565
521.865	15204
521.935	25844
522.005	28031
522.075	16295
522.145	17661
522.215	21071
522.285	32762
522.355	39642
522.424	81238
522.494	85056
522.564	37192
522.634	36447
522.704	109397
522.774	68472
522.843	18935
522.913	17343
522.983	20358
523.053	19005
523.122	17773
523.192	18954
523.262	52836
523.331	78154
523.401	23482
523.471	13470
523.540	14782
523.610	12164
523.680	12755
523.749	13777
523.819	19221
523.888	23042
523.958	14875
524.027	13937
524.097	15144
524.166	14116
524.236	15123
524.305	16449
524.375	13242
524.444	12899
524.514	14672
524.583	16467
524.653	21206
524.722	24237
524.791	16763
524.861	15182
524.930	13622
524.999	13421
525.069	19858
525.138	18983
525.207	23419
525.277	19304
525.346	16603
525.415	16530
525.484	16210
525.554	21163
525.623	24480
525.692	21068
525.761	23180
525.830	25614
525.900	31394
525.969	45503
526.038	74287
526.107	116840
526.176	375199
526.245	410066
526.314	137424
526.383	183131
526.452	316339
526.522	382653
526.591	567472
526.660	152730
526.729	75636
526.797	69117
526.867	101148
526.935	339078
527.004	821888
527.073	713521
527.142	100708
527.211	37553
527.280	25941
527.349	25125
527.418	16762
527.487	15584
527.555	13817
527.624	12705
527.693	12162
527.762	13492
527.831	11808
527.899	11989
527.968	12889
528.037	11466
528.106	14475
528.174	22980
528.243	25921
528.312	29274
528.380	45620
528.449	18927
528.518	12651
528.586	9192
528.655	11120
528.723	10586
528.792	9892
528.861	12440
528.929	12379
528.998	11200
529.066	11992
529.135	16514
529.203	15658
529.272	16932
529.340	22291
529.409	22342
529.477	20479
529.545	24623
529.614	29168
529.682	29726
529.751	40477
529.819	34818
529.887	35752
529.956	27209
530.024	28045
530.092	23393
530.161	25247
530.229	31372
530.297	29920
530.365	27199
530.434	25129
530.502	26689
530.570	25648
530.638	21312
530.707	22118
530.775	23201
530.843	20903
530.911	23779
530.979	23675
531.047	25817
531.115	25680
531.183	23664
531.252	23306
531.320	23233
531.388	21434
531.456	24585
531.524	23573
531.592	24834
531.660	29676
531.728	25838
531.796	25065
531.864	24333
531.932	24853
532.000	25626
532.067	27493
532.135	29988
532.203	31209
532.271	34030
532.339	38217
532.407	66036
532.475	58902
532.542	35095
532.610	35589
532.678	39172
532.746	78077
532.814	233898
532.881	104348
532.949	37004
533.017	31238
533.084	27997
533.152	26373
533.220	26340
533.287	27635
533.355	28524
533.423	27655
533.490	27498
533.558	27256
533.625	27438
533.693	28531
533.761	27320
533.828	27899
533.896	27622
533.963	35136
534.031	43687
534.098	52233
534.166	40995
534.233	27510
534.300	27422
534.368	27952
534.435	27160
534.503	27086
534.570	30414
534.637	31483
534.705	33523
534.772	37192
534.840	47154
534.907	148919
534.974	292054
535.041	62846
535.109	35420
535.176	25183
535.243	22813
535.310	22019
535.378	22698
535.445	20596
535.512	20331
535.579	20739
535.646	19300
535.714	19773
535.781	22350
535.848	23285
535.915	24021
535.982	25392
536.049	24495
536.116	24253
536.183	21942
536.250	20134
536.317	20122
536.384	22466
536.451	25887
536.518	28144
536.585	23848
536.652	26631
536.719	31238
536.786	28983
536.853	23536
536.920	28793
536.987	42351
537.053	35977
537.120	93867
537.187	129046
537.254	26324
537.321	19429
537.388	20609
537.454	17208
537.521	16777
537.588	16942
537.654	17215
537.721	19511
537.788	21024
537.855	17616
537.921	17458
537.988	18628
538.055	17325
538.121	16940
538.188	18447
538.254	21457
538.321	36122
538.388	28895
538.454	18657
538.521	18091
538.587	16909
538.654	16319
538.720	16344
538.787	16470
538.853	16084
538.920	21068
538.986	21655
539.053	18795
539.119	17972
539.185	17066
539.252	18907
539.318	25661
539.385	24214
539.451	21816
539.517	21560
539.583	21618
539.650	32994
539.716	91894
539.782	44407
539.849	17982
539.915	17943
539.981	17509
540.047	19797
540.114	18982
540.180	19610
540.246	18615
540.312	21476
540.378	34888
540.444	40336
540.510	33589
540.576	93501
540.643	52729
540.709	18247
540.775	17737
540.841	17089
540.907	21109
540.973	34572
541.039	27306
541.105	26657
541.171	20134
541.237	16596
541.303	17580
541.369	19068
541.435	21498
541.500	31324
541.566	26231
541.632	16658
541.698	14272
541.764	15395
541.830	15268
541.896	15002
541.961	15669
542.027	15672
542.093	16935
542.159	18343
542.224	18108
542.290	23537
542.356	30802
542.421	38460
542.487	24023
542.553	18017
542.618	20104
542.684	18585
542.750	17203
542.815	19101
542.881	27276
542.947	74281
543.012	82695
543.078	19627
543.143	15256
543.209	17151
543.274	17350
543.340	19327
543.405	28604
543.471	59501
543.536	23917
543.602	17155
543.667	16682
543.732	16807
543.798	14843
543.863	17349
543.928	14754
543.994	14068
544.059	15552
544.124	15497
544.190	14432
544.255	16440
544.320	17551
544.386	16185
544.451	20240
544.516	23934
544.581	22011
544.646	44143
544.712	94949
544.777	32012
544.842	21109
544.907	23710
544.972	20370
545.037	18752
545.102	21003
545.168	20751
545.233	21344
545.298	22482
545.363	25793
545.428	26512
545.493	32929
545.558	68012
545.623	46140
545.688	22499
545.753	22624
545.818	20646
545.883	22316
545.947	21572
546.012	23174
546.077	25738
546.142	23039
546.207	22876
546.272	26058
546.337	28062
546.401	25652
546.466	25786
546.531	24727
546.596	26620
546.661	28140
546.725	26210
546.790	24472
546.855	26135
546.919	27023
546.984	30284
547.049	33112
547.113	39389
547.178	38146
547.243	42183
547.307	47647
547.372	52625
547.436	58898
547.501	51659
547.565	53049
547.630	54701
547.695	53368
547.759	58300
547.823	59354
547.888	50189
547.952	50815
548.017	52979
548.081	59710
548.146	67714
548.210	66842
548.274	56008
548.339	55961
548.403	52305
548.468	48251
548.532	47167
548.596	49600
548.660	49490
548.725	53318
548.789	61154
548.853	65351
548.917	56773
548.982	63522
549.046	67992
549.110	48465
549.174	46640
549.238	49915
549.303	53536
549.367	55763
549.431	54696
549.495	52815
549.559	51522
549.623	57287
549.687	63981
549.751	69973
549.815	74896
549.879	77001
549.943	70271
550.007	73541
550.071	74392
550.135	74151
550.199	67659
550.263	66343
550.327	64600
550.391	76926
550.455	74602
550.519	71880
550.582	74595
550.646	86811
550.710	95018
550.774	85931
550.838	86604
550.901	89735
550.965	96190
551.029	100849
551.093	112183
551.156	127347
551.220	172314
551.284	207840
551.347	136831
551.411	153925
551.475	189366
551.538	104366
551.602	90795
551.666	81795
551.729	78506
551.793	76357
551.856	76782
551.920	75644
551.983	74922
552.047	73483
552.110	73601
552.174	73450
552.237	76218
552.301	70295
552.364	69282
552.428	66087
552.491	67587
552.554	70435
552.618	69536
552.681	71435
552.745	70323
552.808	74493
552.871	85521
552.934	80143
552.998	73297
553.061	73931
553.124	71237
553.187	71492
553.251	74714
553.314	78522
553.377	77974
553.440	89365
553.503	151514
553.567	286720
553.630	120976
553.693	78032
553.756	76483
553.819	73793
553.882	73175
553.945	70893
554.008	71670
554.071	70326
554.134	72733
554.197	69197
554.260	67813
554.323	69016
554.386	70019
554.449	71474
554.512	73363
554.575	68093
554.638	69914
554.701	69135
554.764	67367
554.827	66157
554.889	65083
554.952	61580
555.015	59464
555.078	60362
555.141	61820
555.203	59523
555.266	58610
555.329	59790
555.391	58088
555.454	58783
555.517	55499
555.580	52905
555.642	51954
555.705	52075
555.768	51411
555.830	50117
555.893	46554
555.955	47620
556.018	45409
556.080	46802
556.143	46363
556.206	46515
556.268	47605
556.330	47713
556.393	46130
556.455	43985
556.518	52731
556.580	57675
556.643	42225
556.705	39844
556.767	39280
556.830	39869
556.892	39318
556.955	46547
557.017	43966
557.079	37644
557.142	36049
557.204	37599
557.266	50108
557.328	52447
557.391	35131
557.453	32212
557.515	32882
557.577	35788
557.639	39302
557.701	34574
557.764	33550
557.826	36276
557.888	38549
557.950	40327
558.012	42939
558.074	51055
558.136	91914
558.198	275594
558.260	155991
558.322	48711
558.384	45614
558.446	51312
558.508	57439
558.570	71271
558.632	88123
558.694	123582
558.756	145687
558.818	332610
558.880	1025316
558.942	544175
559.003	300797
559.065	215486
559.127	73835
559.189	66964
559.251	71522
559.312	90157
559.374	177608
559.436	640364
559.498	533664
559.559	97509
559.621	69061
559.683	71965
559.744	101949
559.806	274975
559.868	606123
559.929	184561
559.991	72916
560.052	89177
560.114	242661
560.176	230261
560.237	128553
560.299	276550
560.360	100322
560.422	34470
560.483	28995
560.545	27099
560.606	25127
560.667	23872
560.729	22695
560.790	21986
560.852	23150
560.913	23325
560.974	22182
561.036	21415
561.097	22711
561.158	21952
561.220	22701
561.281	21996
561.342	22082
561.403	24566
561.465	25613
561.526	41251
561.587	66391
561.648	30925
561.709	22662
561.771	21383
561.832	20856
561.893	20547
561.954	19926
562.015	19749
562.076	20723
562.137	19999
562.198	21127
562.259	21048
562.320	20871
562.381	21539
562.442	27389
562.503	26632
562.564	21173
562.625	19485
562.686	18897
562.747	20861
562.808	21324
562.869	20351
562.930	24392
562.991	23394
563.051	22398
563.112	21566
563.173	20062
563.234	19517
563.294	19036
563.355	19083
563.416	19317
563.477	19489
563.537	20565
563.598	20675
563.659	20387
563.720	20196
563.780	20146
563.841	20865
563.901	20591
563.962	19852
564.023	20834
564.083	20502
564.144	20940
564.204	21052
564.265	20342
564.325	24348
564.386	41806
564.446	49154
564.507	21835
564.567	20279
564.628	20235
564.688	19407
564.749	19183
564.809	23057
564.869	27273
564.930	22072
564.990	20779
565.050	20525
565.111	19914
565.171	17988
565.231	19352
565.292	20320
565.352	18744
565.412	20129
565.472	20135
565.532	21106
565.593	20703
565.653	19798
565.713	19835
565.773	22046
565.833	22146
565.893	28001
565.953	23210
566.013	21848
566.074	22445
566.134	26186
566.194	39559
566.254	47459
566.314	31825
566.374	24272
566.434	24527
566.494	23559
566.554	23804
566.614	24032
566.673	25253
566.733	26951
566.793	27716
566.853	28936
566.913	28851
566.973	28987
567.033	30414
567.092	28907
567.152	29845
567.212	28818
567.272	31307
567.331	32032
567.391	32709
567.451	35578
567.511	40726
567.570	46382
567.630	32810
567.690	30193
567.749	29947
567.809	31428
567.868	34925
567.928	38343
567.988	43303
568.047	48535
568.107	55825
568.166	69069
568.226	93909
568.285	133703
568.345	136129
568.404	119000
568.464	104331
568.523	96316
568.582	93751
568.642	99749
568.701	113628
568.761	145671
568.820	205519
568.879	240255
568.939	209775
568.998	167821
569.057	128714
569.116	103758
569.176	85195
569.235	71892
569.294	61114
569.353	53360
569.413	47119
569.472	43906
569.531	38621
569.590	36004
569.649	34437
569.708	31291
569.767	31021
569.827	31519
569.886	30222
569.945	26596
570.004	26011
570.063	25192
570.122	25187
570.181	26273
570.240	27049
570.299	28422
570.358	27290
570.417	23665
570.475	21575
570.534	21822
570.593	21209
570.652	22581
570.711	23854
570.770	21836
570.829	23140
570.887	21915
570.946	22772
571.005	20898
571.064	19320
571.122	20716
571.181	23560
571.240	21857
571.299	19629
571.357	20180
571.416	21670
571.475	22718
571.533	27042
571.592	21177
571.650	21960
571.709	20148
571.768	20630
571.826	19594
571.885	19523
571.943	18026
572.002	17909
572.060	19947
572.119	17840
572.177	17421
572.236	16297
572.294	16878
572.352	16848
572.411	18632
572.469	16529
572.528	17021
572.586	17834
572.644	17562
572.703	21068
572.761	19447
572.819	16739
572.877	16101
572.936	16197
572.994	16892
573.052	15712
573.110	16386
573.169	17172
573.227	15960
573.285	15744
573.343	15596
573.401	16395
573.459	17262
573.517	16767
573.576	16608
573.634	16700
573.692	16739
573.750	16390
573.808	16173
573.866	16961
573.924	21531
573.982	23060
574.040	17389
574.098	18072
574.155	15817
574.213	14465
574.271	15021
574.329	16670
574.387	15061
574.445	15017
574.503	14832
574.560	13547
574.618	14294
574.676	13838
574.734	13948
574.792	14120
574.849	14431
574.907	13935
574.965	13558
575.022	13273
575.080	13647
575.138	13613
575.195	13807
575.253	14452
575.311	15034
575.368	14516
575.426	14125
575.483	13137
575.541	14013
575.598	13766
575.656	15368
575.713	15253
575.771	14110
575.828	14989
575.886	13835
575.943	15003
576.001	15165
576.058	14847
576.115	16139
576.173	18022
576.230	19446
576.287	19373
576.345	17904
576.402	16478
576.459	16194
576.517	16704
576.574	17387
576.631	18198
576.688	17171
576.746	15852
576.803	15729
576.860	14898
576.917	16125
576.974	15049
577.031	14858
577.089	14390
577.146	15594
577.203	15878
577.260	16286
577.317	16845
577.374	17786
577.431	18084
577.488	16299
577.545	15261
577.602	16670
577.659	15523
577.716	17005
577.773	18355
577.830	16917
577.886	16347
577.943	15433
578.000	16460
578.057	16923
578.114	17600
578.171	17159
578.227	20357
578.284	21208
578.341	18660
578.398	17973
578.454	18667
578.511	18814
578.568	20636
578.625	19406
578.681	15835
578.738	15480
578.794	15232
578.851	16718
578.908	15771
578.964	16526
579.021	17388
579.077	16810
579.134	16667
579.190	16028
579.247	14506
579.303	15136
579.360	15136
579.416	14337
579.473	15313
579.529	14626
579.586	15538
579.642	16352
579.698	15732
579.755	16036
579.811	16810
579.867	16731
579.924	16526
579.980	17978
580.036	19911
580.093	20663
580.149	24740
580.205	30048
580.261	26691
580.317	22565
580.374	21904
580.430	22288
580.486	21479
580.542	20571
580.598	19697
580.619	19214
580.654	18387
580.692	18980
580.710	19294
580.765	18414
580.767	18396
580.823	19040
580.838	19005
580.879	18948
580.911	18461
580.935	18114
580.984	18986
580.991	19117
581.047	19393
581.057	19425
581.103	19609
581.130	19633
581.159	19686
581.203	21038
581.215	21386
581.270	21232
581.276	21126
581.326	20167
581.349	20486
581.382	20968
581.422	20489
581.438	20332
581.494	20873
581.494	20865
581.550	19860
581.567	19931
581.606	20099
581.640	20133
581.661	20209
581.713	20571
581.717	20598
581.773	20319
581.786	20273
581.829	20178
581.859	20641
581.885	21005
581.932	21394
581.940	21465
581.996	21616
582.004	21695
582.052	22121
582.077	22152
582.107	22166
582.150	21526
582.163	21328
582.219	22597
582.223	22578
582.274	22477
582.296	22871
582.330	23482
582.368	24563
582.386	25027
582.441	23271
582.441	23266
582.497	23454
582.514	23872
582.552	24897
582.587	25691
582.608	26034
582.659	26106
582.663	26124
582.719	24948
582.732	25064
582.774	25543
582.805	25803
582.830	25960
582.877	27212
582.885	27456
582.941	28183
582.950	28390
582.996	29711
583.023	31442
583.052	33262
583.095	34985
583.107	35433
583.162	35227
583.168	35478
583.218	36971
583.240	36004
583.273	34612
583.313	32258
583.328	31278
583.384	30831
583.385	30807
583.439	30471
583.458	30398
583.494	30406
583.531	29720
583.549	29380
583.603	29094
583.605	29089
583.660	29820
583.676	29741
583.715	29731
583.748	29648
583.770	29494
583.820	31343
583.825	31551
583.881	31633
583.893	31538
583.936	30912
583.965	30939
583.991	31063
584.038	31106
584.046	31143
584.101	31723
584.110	31794
584.156	32323
584.183	32939
584.211	33496
584.255	34062
584.266	34299
584.321	34105
584.328	34195
584.376	34933
584.400	35454
584.431	36171
584.472	35474
584.486	35217
584.541	37581
584.545	37546
584.596	37452
584.617	37692
584.651	38335
584.689	39657
584.706	40186
584.761	41258
584.762	41237
584.816	41804
584.834	42033
584.871	42481
584.906	42527
584.926	42711
584.978	44162
584.980	44238
585.035	45241
585.051	45767
585.090	48058
585.123	49570
585.145	50281
585.195	51458
585.200	51706
585.254	55386
585.267	56362
585.309	59817
585.340	63514
585.364	66274
585.412	68495
585.419	68903
585.473	72402
585.484	73677
585.528	81233
585.556	88673
585.583	101759
585.628	134592
585.637	147716
585.692	260128
585.700	286869
585.747	430681
585.772	421786
585.801	333927
585.845	171501
585.856	142761
585.910	89912
585.917	85057
585.965	76281
585.989	73161
586.019	71497
586.061	70045
586.074	69855
586.128	70044
586.133	69969
586.183	70479
586.205	70521
586.237	71049
586.277	71725
586.292	72215
586.346	73733
586.349	73679
586.401	74503
586.421	75171
586.455	76961
586.493	78395
586.509	80593
586.564	89354
586.565	89580
586.618	110710
586.637	115031
586.672	112338
586.709	100964
586.727	96400
586.781	92717
586.781	92878
586.835	93005
586.853	93034
586.889	93354
586.925	94021
586.944	95424
586.996	98566
586.998	98832
587.052	101907
587.068	102745
587.106	106411
587.140	108944
587.161	110790
587.212	114730
587.215	115254
587.269	121286
587.284	122778
587.323	127082
587.356	130263
587.377	133355
587.427	140359
587.431	141156
587.485	146949
587.499	148413
587.539	155485
587.571	160736
587.593	165192
587.643	174052
587.648	175499
587.702	187476
587.715	190391
587.755	202604
587.786	209819
587.810	216518
587.858	230394
587.864	232935
587.917	253859
587.930	258107
587.971	276002
588.001	288360
588.025	301086
588.073	324386
588.079	328770
588.133	363594
588.145	370835
588.187	404157
588.217	426280
588.241	451059
588.288	499103
588.295	507859
588.348	573432
588.360	586788
588.402	656247
588.431	703162
588.456	753005
588.503	848094
588.510	867891
588.564	1017844
588.575	1048231
588.617	1206547
588.646	1315559
588.671	1432028
588.718	1655266
588.725	1690916
588.778	1951545
588.789	2000049
588.832	2061551
588.861	2073736
588.886	1924805
588.932	1540455
588.939	1500218
588.993	1158635
589.004	1127527
589.047	1571042
589.075	1876100
589.100	2055700
589.147	2266554
589.154	2253841
589.207	2083350
589.218	2047270
589.261	1923596
589.290	1845927
589.314	1845291
589.361	1851393
589.368	1870845
589.421	2016822
589.433	2045071
589.475	2039460
589.504	2006437
589.528	1835258
589.576	1408970
589.582	1426005
589.635	1676438
589.647	1732832
589.689	1982245
589.718	2090762
589.742	1960576
589.790	1678754
589.795	1649180
589.849	1347592
589.861	1276956
589.902	1122842
589.932	1005400
589.955	940013
590.004	796378
590.009	788865
590.062	685898
590.075	659103
590.115	604181
590.146	559136
590.168	538507
590.218	487285
590.222	485585
590.275	444538
590.289	432590
590.328	408589
590.360	386513
590.381	375758
590.431	346928
590.435	346698
590.488	323243
590.503	315733
590.541	304003
590.574	292197
590.594	286976
590.645	269869
590.647	270244
590.700	256420
590.716	251409
590.753	243883
590.787	235207
590.806	232583
590.859	222509
590.859	223107
590.912	212515
590.930	208438
590.965	204936
591.001	199931
591.018	198882
591.071	193655
591.072	192929
591.124	186677
591.143	183413
591.177	179981
591.214	175112
591.230	174654
591.283	171446
591.285	170711
591.336	166860
591.356	164496
591.389	162564
591.427	158958
591.442	158145
591.495	153067
591.498	152171
591.547	150336
591.569	148671
591.600	147150
591.640	143894
591.653	143810
591.706	141388
591.711	140634
591.759	139723
591.782	138533
591.811	140918
591.853	143280
591.864	142724
591.917	137064
591.924	135765
591.969	132915
591.995	130592
592.022	130811
592.066	129919
592.075	130522
592.127	131370
592.137	131101
592.180	134244
592.208	135419
592.233	132801
592.279	126300
592.285	126248
592.338	122135
592.350	120774
592.390	120421
592.421	119389
592.443	119522
592.491	118442
592.495	118783
592.548	117614
592.562	116874
592.600	117087
592.633	116480
592.653	116128
592.704	113472
592.705	114099
592.775	112548
592.846	111493
592.916	111111
592.987	110291
593.058	108833
593.128	107179
593.199	104056
593.270	103273
593.341	101445
593.411	102776
593.482	102411
593.553	101638
593.623	100026
593.694	100810
593.764	104074
593.835	100699
593.906	97838
593.976	98602
594.047	101070
594.117	103998
594.188	107531
594.258	99145
594.329	96955
594.399	97233
594.470	98953
594.540	96693
594.611	98815
594.681	97886
594.751	97684
594.822	99272
594.892	101295
594.963	102466
595.033	104691
595.103	105109
595.174	106889
595.244	117793
595.314	133999
595.384	111911
595.455	105647
595.525	107660
595.595	109442
595.665	112322
595.736	107804
595.806	108789
595.876	110426
595.946	110434
596.016	110609
596.087	110774
596.157	113583
596.227	114193
596.297	117614
596.367	122479
596.437	128336
596.507	136020
596.577	148554
596.647	132550
596.717	130520
596.787	134448
596.857	131957
596.927	132392
596.997	134059
597.067	134669
597.137	141552
597.207	142743
597.277	140461
597.347	137381
597.417	135169
597.487	134984
597.557	136681
597.626	139174
597.696	142052
597.766	146402
597.836	154439
597.906	139570
597.975	131296
598.045	130238
598.115	133768
598.185	139762
598.254	150113
598.324	160954
598.394	162796
598.464	161500
598.533	159886
598.603	152388
598.672	150039
598.742	153338
598.812	155211
598.881	158209
598.951	157233
599.020	157681
599.090	162123
599.159	167173
599.229	164029
599.299	158809
599.368	164802
599.437	165076
599.507	159319
599.576	159453
599.646	160889
599.715	162098
599.785	157292
599.854	158368
599.924	161727
599.993	162493
600.062	162003
600.132	164410
600.201	170258
600.270	186556
600.340	197810
600.409	195970
600.478	195656
600.547	199254
600.617	197601
600.686	180654
600.755	173203
600.824	170258
600.894	171954
600.963	173097
601.032	176299
601.101	174965
601.170	176082
601.239	177205
601.308	180352
601.378	184459
601.447	183702
601.516	189319
601.585	193322
601.654	200835
601.723	202292
601.792	205353
601.861	215335
601.930	227304
601.999	233023
602.068	228434
602.137	231062
602.206	234282
602.275	232568
602.343	238435
602.412	240221
602.481	239792
602.550	239880
602.619	242621
602.688	246172
602.756	250668
602.825	245626
602.894	251471
602.963	251498
603.032	255171
603.100	258158
603.169	249579
603.238	260778
603.307	251943
603.375	246071
603.444	263168
603.513	243731
603.581	247483
603.650	266443
603.719	231311
603.787	210709
603.856	214151
603.924	219104
603.993	226012
604.061	229716
604.130	235044
604.198	243595
604.267	246262
604.335	251036
604.404	250899
604.472	259603
604.541	260139
604.609	265142
604.678	274967
604.746	276216
604.815	290033
604.883	284541
604.951	272424
605.020	282683
605.088	272386
605.156	251206
605.225	247288
605.293	249043
605.361	250026
605.429	247742
605.498	254337
605.566	252832
605.634	260764
605.702	264720
605.771	265962
605.839	279565
605.907	258040
605.975	264270
606.043	261371
606.111	241868
606.180	267206
606.248	258854
606.316	246103
606.384	262549
606.452	232910
606.520	187065
606.588	184571
606.656	183505
606.724	181559
606.792	173568
606.860	160750
606.928	146023
606.996	141824
607.064	137791
607.132	141304
607.200	146734
607.267	151624
607.335	154192
607.403	158400
607.471	155975
607.539	149818
607.607	151721
607.674	136298
607.742	134434
607.810	135333
607.878	134290
607.946	134608
608.013	140119
608.081	141502
608.149	143254
608.216	145378
608.284	150662
608.352	149425
608.419	148329
608.487	153888
608.555	147382
608.622	144029
608.690	148771
608.757	159371
608.825	166133
608.893	163234
608.960	159902
609.028	156642
609.095	158868
609.163	153343
609.230	139877
609.298	125432
609.365	128169
609.432	136876
609.500	146801
609.567	165182
609.635	187523
609.702	203089
609.769	198667
609.837	168213
609.904	140196
609.971	138460
610.039	150828
610.106	181500
610.173	295258
610.241	632625
610.308	626707
610.375	263715
610.442	168600
610.509	144167
610.577	139083
610.644	139747
610.711	143882
610.778	146692
610.845	151599
610.912	160453
610.980	170302
611.047	183497
611.114	176250
611.181	161718
611.248	157094
611.315	163770
611.382	167634
611.449	172997
611.516	177644
611.583	176022
611.650	176953
611.717	177833
611.784	181902
611.851	188679
611.918	199084
611.984	223426
612.051	290887
612.118	498301
612.185	1111686
612.252	1147127
612.319	360137
612.386	245099
612.452	220375
612.519	207654
612.586	209214
612.653	209742
612.719	207748
612.786	202942
612.853	190021
612.919	179923
612.986	186015
613.053	177030
613.120	168775
613.186	159415
613.253	163169
613.319	162370
613.386	160716
613.453	165282
613.519	167555
613.586	168179
613.652	178391
613.719	174646
613.785	172487
613.852	169945
613.918	168691
613.985	169451
614.051	182732
614.118	207753
614.184	220731
614.250	169736
614.317	171070
614.383	166183
614.449	168678
614.516	166699
614.582	171413
614.648	169766
614.715	165904
614.781	164463
614.847	163788
614.914	165957
614.980	162246
615.046	159607
615.112	164264
615.179	167887
615.245	173397
615.311	182884
615.377	213392
615.443	248716
615.509	212090
615.575	190372
615.642	182379
615.708	183586
615.774	193234
615.840	209694
615.906	227971
615.972	280863
616.038	425057
616.104	727956
616.170	1324600
616.236	1614910
616.302	554367
616.368	321007
616.434	254064
616.500	221261
616.565	221644
616.631	254841
616.697	245375
616.763	230918
616.829	280470
616.895	439695
616.961	525721
617.026	319592
617.092	205154
617.158	186608
617.224	180805
617.289	169487
617.355	161674
617.421	161055
617.487	161394
617.552	152987
617.618	151296
617.684	150139
617.749	153402
617.815	146881
617.880	142375
617.946	144622
618.012	147056
618.077	150611
618.143	145985
618.208	146052
618.274	153266
618.339	160236
618.405	140060
618.470	133152
618.536	137326
618.601	139007
618.667	132332
618.732	125227
618.798	122493
618.863	122228
618.928	120020
618.994	123063
619.059	124342
619.124	131535
619.190	128946
619.255	122429
619.320	121265
619.386	121958
619.451	121242
619.516	118772
619.581	119510
619.647	122158
619.712	124414
619.777	119247
619.842	120189
619.907	122006
619.972	124979
620.038	125119
620.103	120789
620.168	118729
620.233	120465
620.298	122556
620.363	122974
620.428	124268
620.493	129185
620.558	129407
620.623	129766
620.688	132021
620.753	128041
620.818	130366
620.883	131098
620.948	132245
621.013	129657
621.078	130610
621.143	130515
621.207	132947
621.272	132966
621.337	132740
621.402	132481
621.467	137336
621.532	140946
621.596	135482
621.661	130195
621.726	127569
621.791	127238
621.855	129965
621.920	132436
621.985	131149
622.049	137421
622.114	136930
622.179	136549
622.243	137274
622.308	141432
622.373	142718
622.437	145534
622.502	137524
622.566	135709
622.631	134416
622.695	137055
622.760	137975
622.824	136147
622.889	136846
622.953	138167
623.018	149777
623.082	156724
623.147	141509
623.211	139713
623.276	139826
623.340	134338
623.404	132741
623.469	133041
623.533	132240
623.597	131685
623.662	128915
623.726	124591
623.790	118569
623.854	117187
623.919	121208
623.983	117776
624.047	119914
624.111	118352
624.176	121792
624.240	124210
624.304	129563
624.368	123089
624.432	119698
624.496	123373
624.560	127322
624.625	130805
624.689	125388
624.753	130660
624.817	127050
624.881	122388
624.945	116052
625.009	112761
625.073	114224
625.137	116306
625.201	122684
625.265	125683
625.329	116775
625.393	116630
625.456	117321
625.520	118383
625.584	121702
625.648	129505
625.712	146107
625.776	201206
625.839	232288
625.903	153753
625.967	106677
626.031	121696
626.095	166109
626.158	127079
626.222	96771
626.286	87639
626.349	86444
626.413	83946
626.477	82484
626.540	81519
626.604	80419
626.668	80292
626.731	78167
626.795	79835
626.858	81264
626.922	77527
626.986	75566
627.049	74587
627.113	78106
627.176	77589
627.240	73959
627.303	73667
627.366	73875
627.430	75111
627.493	73932
627.557	74359
627.620	74847
627.684	74135
627.747	74919
627.810	72336
627.874	66921
627.937	64492
628.000	68029
628.064	67287
628.127	59890
628.190	59087
628.253	58302
628.317	57831
628.380	55325
628.443	53880
628.506	55039
628.569	53860
628.632	51138
628.696	50426
628.759	50798
628.822	49161
628.885	47855
628.948	48415
629.011	49098
629.074	47072
629.137	46086
629.200	44802
629.263	47912
629.326	44246
629.389	45179
629.452	45333
629.515	45528
629.578	45619
629.641	45305
629.704	45354
629.767	46358
629.830	43929
629.892	42298
629.955	42030
630.018	44362
630.081	43984
630.144	46298
630.207	43686
630.269	43935
630.332	44426
630.395	43245
630.458	39760
630.520	40059
630.583	40267
630.646	38670
630.708	38269
630.771	39317
630.834	40318
630.896	39958
630.959	39649
631.021	39610
631.084	40599
631.146	40835
631.209	44409
631.272	40352
631.334	38895
631.397	39131
631.459	38277
631.522	39566
631.584	41217
631.646	40443
631.709	43223
631.771	46255
631.834	42602
631.896	40307
631.958	37739
632.021	39350
632.083	37937
632.145	37928
632.208	37779
632.270	38487
632.332	36373
632.395	36970
632.457	37762
632.519	36264
632.581	37380
632.643	35153
632.706	36693
632.768	34974
632.830	35222
632.892	36263
632.954	36331
633.016	37052
633.078	36124
633.141	36036
633.203	36062
633.265	35662
633.327	34809
633.389	35374
633.451	36941
633.513	38827
633.575	39528
633.637	38908
633.698	38074
633.760	36499
633.822	37616
633.884	37631
633.946	37483
634.008	39307
634.070	39776
634.132	43644
634.193	42774
634.255	40838
634.317	41992
634.379	41858
634.441	40752
634.502	38851
634.564	37423
634.626	35380
634.687	34148
634.749	35132
634.811	34460
634.873	33354
634.934	34033
634.996	33499
635.057	33758
635.119	34329
635.181	35035
635.242	34899
635.304	32489
635.365	36041
635.427	33134
635.488	34317
635.550	34182
635.611	34428
635.673	32859
635.734	37510
635.796	35727
635.857	37111
635.918	37564
635.980	39438
636.041	40124
636.102	41465
636.164	42741
636.225	41176
636.286	38974
636.348	38211
636.409	34971
636.470	33334
636.531	33219
636.593	35321
636.654	35119
636.715	32254
636.776	31116
636.838	30728
636.899	30966
636.960	30304
637.021	29513
637.082	29424
637.143	30286
637.204	27842
637.265	28283
637.326	28593
637.387	28844
637.448	28387
637.509	29324
637.570	29472
637.631	28646
637.692	28510
637.753	27450
637.814	28942
637.875	28729
637.936	28976
637.997	28090
638.058	27423
638.119	29054
638.179	27311
638.240	28085
638.301	27906
638.362	27528
638.423	27020
638.483	27775
638.544	25189
638.605	26982
638.666	26467
638.726	27383
638.787	27204
638.848	27504
638.908	26282
638.969	25690
639.030	24826
639.090	25247
639.151	25460
639.211	26234
639.272	28958
639.332	34245
639.393	31144
639.453	26615
639.514	27107
639.574	25525
639.635	24416
639.695	25432
639.756	23905
639.816	24920
639.877	25435
639.937	30123
639.997	35016
640.058	27023
640.118	24560
640.178	24168
640.239	24041
640.299	23385
640.359	22346
640.420	24620
640.480	25514
640.540	26689
640.600	26905
640.661	26074
640.721	25462
640.781	30620
640.841	29920
640.901	25442
640.961	24807
641.021	24664
641.082	26602
641.142	28947
641.202	26697
641.262	22629
641.322	23550
641.382	22477
641.442	23837
641.502	23277
641.562	23824
641.622	22964
641.682	22642
641.742	24874
641.802	25899
641.861	23372
641.921	23241
641.981	23823
642.041	23885
642.101	24664
642.161	22908
642.221	21905
642.280	21223
642.340	21561
642.400	21910
642.460	22521
642.519	22399
642.579	22336
642.639	23041
642.698	20607
642.758	23876
642.818	22336
642.877	21933
642.937	22710
642.997	24321
643.056	27073
643.116	23521
643.175	24225
643.235	23195
643.294	22805
643.354	24855
643.414	25156
643.473	28129
643.532	31839
643.592	37033
643.651	51508
643.711	80359
643.770	146103
643.830	310990
643.889	775471
643.948	362170
644.008	64981
644.067	37546
644.126	31218
644.186	26614
644.245	24955
644.304	21203
644.363	23727
644.423	21193
644.482	22083
644.541	21766
644.600	22489
644.659	26254
644.719	29466
644.778	37930
644.837	54561
644.896	94767
644.955	233926
645.014	144016
645.073	38505
645.132	26998
645.191	24411
645.250	22979
645.309	23454
645.368	23379
645.427	28179
645.486	34077
645.545	62202
645.604	33987
645.663	22898
645.722	21754
645.781	23157
645.840	25131
645.898	27433
645.957	34867
646.016	46965
646.075	76613
646.134	140326
646.192	313595
646.251	646311
646.310	188241
646.369	43871
646.427	32452
646.486	27658
646.545	23888
646.603	21723
646.662	21454
646.721	20457
646.779	19085
646.838	19640
646.896	22152
646.955	27366
647.014	35640
647.072	57463
647.131	141137
647.189	124502
647.248	26130
647.306	20843
647.365	18966
647.423	16084
647.481	17932
647.540	15735
647.598	16959
647.657	16163
647.715	17155
647.773	15968
647.832	16865
647.890	15170
647.948	15096
648.007	16782
648.065	15528
648.123	15769
648.181	17487
648.240	18600
648.298	19724
648.356	15004
648.414	16045
648.472	15603
648.531	15223
648.589	15497
648.647	15506
648.705	15607
648.763	15067
648.821	15080
648.879	15955
648.937	16712
648.995	18210
649.053	20320
649.111	27586
649.169	40100
649.227	63636
649.285	117530
649.343	329598
649.401	292572
649.459	54719
649.516	36721
649.574	25433
649.632	34852
649.690	48945
649.748	31978
649.806	35815
649.863	62953
649.921	101495
649.979	110193
650.037	25404
650.094	14401
650.152	14964
650.210	13510
650.268	14256
650.325	14976
650.383	16224
650.440	12457
650.498	14030
650.556	12387
650.613	12116
650.671	12183
650.728	13367
650.786	13652
650.843	13655
650.901	13074
650.958	11254
651.016	11386
651.073	11373
651.131	11687
651.188	10883
651.246	11481
651.303	10649
651.360	11859
651.418	10749
651.475	11813
651.532	10031
651.590	11717
651.647	9842
651.704	11392
651.762	10888
651.819	11662
651.876	10751
651.933	10852
651.990	10260
652.048	10649
652.105	10100
652.162	10552
652.219	9746
652.276	10522
652.333	10203
652.390	9494
652.448	10367
652.505	11147
652.562	11260
652.619	12241
652.676	15786
652.733	19829
652.790	12016
652.847	9065
652.904	9929
652.961	8432
653.017	9579
653.074	10853
653.131	9531
653.188	8761
653.245	8874
653.302	10481
653.359	9152
653.415	9661
653.472	9157
653.529	10239
653.586	8655
653.642	9271
653.699	9639
653.756	8837
653.813	9162
653.869	9993
653.926	8013
653.983	8586
654.039	10097
654.096	8556
654.152	10418
654.209	8703
654.266	8574
654.322	9287
654.379	9977
654.435	11085
654.492	10911
654.548	11765
654.605	17249
654.661	13850
654.717	9488
654.774	10064
654.830	10289
654.887	10557
654.943	9998
655.000	10493
655.056	10015
655.112	10275
655.168	9526
655.225	9511
655.281	9968
655.337	11324
655.394	16578
655.450	15303
655.506	12638
655.562	15568
655.618	17690
655.675	9334
655.731	9496
655.787	8487
655.843	9130
655.899	8022
655.955	9843
656.011	8842
656.067	8180
656.123	9192
656.179	9486
656.235	10398
656.291	7530
656.347	9644
656.403	9293
656.459	9569
656.515	10095
656.571	10279
656.627	9917
656.683	10084
656.739	9432
656.795	8671
656.850	9361
656.906	9821
656.962	10094
657.018	9022
657.074	9054
657.129	11169
657.185	12528
657.241	20743
657.297	18672
657.352	10516
657.408	8716
657.464	9607
657.519	8802
657.575	7503
657.630	8039
657.686	8526
657.742	8153
657.797	8721
657.853	8644
657.908	10364
657.964	7753
658.019	8965
658.075	8803
658.130	8606
658.186	7183
658.241	8374
658.297	7799
658.352	7850
658.407	7888
658.463	7496
658.518	7769
658.573	8863
658.629	7965
658.684	8532
658.739	8290
658.795	7836
658.850	8122
658.905	8613
658.960	8864
659.016	7489
659.071	8154
659.126	8654
659.181	8000
659.236	11438
659.291	12865
659.346	9938
659.401	10390
659.457	11652
659.512	14061
659.567	11620
659.622	8182
659.677	8286
659.732	8083
659.787	9190
659.842	8989
659.897	11282
659.952	9449
660.007	8652
660.061	8446
660.116	7110
660.171	7488
660.226	8732
660.281	9379
660.336	7693
660.391	8125
660.445	7207
660.500	8733
660.555	8559
660.610	8866
660.664	8972
660.719	7645
660.774	9631
660.828	8076
660.883	8146
660.938	8703
660.992	7995
661.047	8637
661.101	8476
661.156	7459
661.211	7294
661.265	7206
661.320	7468
661.374	8294
661.429	8217
661.483	7893
661.538	7804
661.592	7379
661.647	8443
661.701	9544
661.755	9129
661.810	8627
661.864	7558
661.919	7168
661.973	8354
662.027	7846
662.081	6898
662.136	7960
662.190	8770
662.244	8837
662.299	8558
662.353	8150
662.407	7950
662.461	7694
662.515	8436
662.569	7506
662.624	9382
662.678	7079
662.732	8045
662.786	7708
662.840	8507
662.894	8680
662.948	7563
663.002	7416
663.056	7287
663.110	7385
663.164	7924
663.218	7996
663.272	7677
663.326	8222
663.380	7809
663.434	8847
663.488	7441
663.542	8562
663.595	8262
663.649	7342
663.703	8375
663.757	7136
663.811	7503
663.864	7313
663.918	7556
663.972	7646
664.026	7231
664.079	7065
664.133	8238
664.187	7505
664.240	6950
664.294	7778
664.348	7801
664.401	6879
664.455	7559
664.508	6116
664.562	8128
664.615	7566
664.669	6880
664.722	7547
664.776	7330
664.829	7415
664.883	7068
664.936	6990
664.990	8244
665.043	8152
665.097	7741
665.150	9169
665.203	8181
665.257	8201
665.310	7963
665.363	7662
665.417	8444
665.470	8546
665.523	8625
665.576	8849
665.630	8116
665.683	7683
665.736	8006
665.789	8415
665.842	7157
665.895	8557
665.949	8601
666.002	7497
666.055	8466
666.108	9022
666.161	7700
666.214	8124
666.267	8486
666.320	8967
666.373	8908
666.426	7902
666.479	8549
666.532	8817
666.585	8758
666.638	9185
666.691	9234
666.744	9673
666.796	8847
666.849	9038
666.902	8990
666.955	8045
667.008	8011
667.060	7397
667.113	6973
667.166	8138
667.219	8000
667.271	7975
667.324	7774
667.377	8328
667.430	8581
667.482	9555
667.535	9901
667.587	8402
667.640	9075
667.693	8859
667.745	11173
667.798	12576
667.850	9192
667.903	7973
667.955	8141
668.008	8336
668.060	8714
668.113	8828
668.165	9448
668.218	8769
668.270	9181
668.322	8611
668.375	8422
668.427	8238
668.479	7575
668.532	8218
668.584	8973
668.636	8321
668.689	8614
668.741	7559
668.793	8219
668.845	8140
668.898	8974
668.950	8749
669.002	9098
669.054	8524
669.106	7748
669.158	9078
669.211	8994
669.263	9109
669.315	9627
669.367	11749
669.419	9808
669.471	10679
669.523	9664
669.575	10667
669.627	10581
669.679	9272
669.731	9046
669.783	9204
669.835	9405
669.886	8298
669.938	9005
669.990	8332
670.042	8796
670.094	9390
670.146	9237
670.197	10318
670.249	11760
670.301	13120
670.353	15879
670.404	19057
670.456	26198
670.508	37585
670.560	61214
670.611	101958
670.663	174488
670.715	354199
670.766	663679
670.818	357992
670.869	72990
670.921	33047
670.972	23104
671.024	18610
671.075	14552
671.127	12715
671.178	11883
671.230	10235
671.281	11076
671.333	11338
671.384	9611
671.436	10897
671.487	13990
671.538	14571
671.590	17649
671.641	25088
671.692	34844
671.744	59464
671.795	66564
671.846	34749
671.897	19026
671.949	14510
672.000	11732
672.051	9790
672.102	9833
672.153	8282
672.204	8232
672.256	9789
672.307	8780
672.358	8825
672.409	8698
672.460	8081
672.511	7793
672.562	7865
672.613	8109
672.664	7956
672.715	7165
672.766	7598
672.817	7138
672.868	7013
672.919	7183
672.970	7099
673.021	6843
673.071	8078
673.122	7194
673.173	7210
673.224	7450
673.275	7514
673.326	6777
673.376	7046
673.427	5851
673.478	6633
673.528	6702
673.579	7163
673.630	6471
673.680	7571
673.731	6529
673.782	6161
673.832	7027
673.883	7781
673.934	5885
673.984	7166
674.035	7172
674.085	6691
674.136	7475
674.186	7453
674.237	7984
674.287	10929
674.338	9095
674.388	6642
674.438	6888
674.489	7010
674.539	7732
674.589	7602
674.640	7073
674.690	7866
674.740	6509
674.791	7559
674.841	7413
674.891	7208
674.942	6547
674.992	6500
675.042	6097
675.092	5699
675.142	6108
675.193	5618
675.243	6470
675.293	6625
675.343	6468
675.393	6882
675.443	6761
675.493	5922
675.543	6488
675.593	7109
675.643	6287
675.693	6372
675.743	6564
675.793	6344
675.843	5338
675.893	6064
675.943	6502
675.993	5885
676.043	5425
676.093	6271
676.142	5538
676.192	5996
676.242	6545
676.292	6633
676.341	5566
676.391	6415
676.441	5713
676.491	5636
676.540	5431
676.590	6258
676.640	5767
676.689	5814
676.739	5402
676.789	5000
676.838	5872
676.888	6303
676.937	5225
676.987	4708
677.037	4925
677.086	4883
677.136	5036
677.185	5967
677.235	5046
677.284	5309
677.333	4711
677.383	4533
677.432	4781
677.482	5334
677.531	5227
677.580	4786
677.630	5079
677.679	4877
677.728	4870
677.778	5423
677.827	4627
677.876	4209
677.925	4861
677.975	4653
678.024	5548
678.073	5408
678.122	5275
678.171	5836
678.220	4999
678.269	6302
678.319	5974
678.368	6005
678.417	6199
678.466	5733
678.515	6445
678.564	6297
678.613	5725
678.662	5109
678.711	5124
678.760	6634
678.809	4769
678.857	5878
678.906	5575
678.955	5635
679.004	5597
679.053	4974
679.102	5042
679.151	5925
679.199	4363
679.248	4870
679.297	5300
679.346	5453
679.394	5521
679.443	4994
679.492	5446
679.540	4833
679.589	5001
679.638	5506
679.686	5437
679.735	4396
679.784	5214
679.832	5765
679.881	5339
679.929	4162
679.978	4478
680.026	4122
680.075	5610
680.123	4861
680.172	5046
680.220	3868
680.268	4178
680.317	4778
680.365	4276
680.414	4856
680.462	4372
680.510	5138
680.559	4232
680.607	5176
680.655	4520
680.703	4520
680.752	4317
680.800	4551
680.848	4377
680.896	4722
680.945	4762
680.993	4066
681.041	5332
681.089	3933
681.137	4045
681.185	3351
681.233	3677
681.258	4080
681.281	4431
681.329	3952
681.377	4762
681.380	4805
681.425	4994
681.473	5297
681.502	5259
681.521	5174
681.569	5133
681.617	4330
681.624	4453
681.665	5006
681.713	4903
681.745	5295
681.761	5427
681.809	5387
681.857	5746
681.867	5724
681.904	5514
681.952	5463
681.989	5098
682.000	4952
682.048	5743
682.096	5520
682.111	5245
682.143	4552
682.191	5706
682.233	6054
682.239	6068
682.286	5647
682.334	5648
682.354	5511
682.382	5293
682.430	5706
682.476	6437
682.477	6421
682.525	6057
682.572	5626
682.598	5467
682.620	5310
682.667	6476
682.715	6485
682.720	6471
682.763	6060
682.810	5431
682.841	5730
682.857	5843
682.905	6649
682.952	6237
682.963	6334
683.000	6533
683.047	6263
683.085	6093
683.095	6006
683.142	6721
683.190	6538
683.206	6430
683.237	6231
683.284	7551
683.328	6934
683.332	6846
683.379	6640
683.426	6891
683.449	6516
683.473	6193
683.521	6856
683.568	6993
683.571	7002
683.615	6628
683.662	6638
683.693	6704
683.709	6738
683.757	6848
683.804	7262
683.814	7345
683.851	7476
683.898	7138
683.936	7522
683.945	7603
683.992	6974
684.039	6942
684.057	7008
684.086	7087
684.133	7373
684.179	7505
684.180	7485
684.227	7972
684.274	8175
684.300	8288
684.321	8315
684.368	7528
684.415	7943
684.422	7905
684.462	7633
684.509	7587
684.543	7742
684.556	7779
684.603	7602
684.649	7755
684.665	7885
684.696	8157
684.743	7953
684.786	8676
684.790	8713
684.837	8542
684.883	8799
684.908	8972
684.930	9175
684.977	9463
685.023	9964
685.029	9927
685.070	9262
685.117	8797
685.150	9087
685.164	9232
685.210	10252
685.257	10229
685.272	10204
685.303	10061
685.350	9770
685.393	9686
685.396	9670
685.443	9447
685.490	10078
685.514	10198
685.536	10273
685.583	10190
685.629	10575
685.636	10488
685.675	9719
685.722	10045
685.757	10156
685.768	10239
685.815	10076
685.861	10280
685.878	10305
685.908	10229
685.954	10860
686.000	10110
686.000	10096
686.047	10910
686.093	11548
686.121	11777
686.139	11771
686.185	11504
686.232	11186
686.242	11217
686.278	11148
686.324	10873
686.363	10478
686.370	10430
686.416	10825
686.463	10538
686.484	10493
686.509	10546
686.555	10533
686.601	11094
686.606	11091
686.647	10760
686.693	11408
686.727	10763
686.739	10576
686.785	11115
686.831	10794
686.848	10717
686.877	10509
686.923	10321
686.969	10876
686.969	10878
687.015	10720
687.061	10867
687.090	11171
687.107	11341
687.153	11429
687.199	11423
687.211	11390
687.245	11259
687.291	10997
687.332	11507
687.336	11581
687.382	12625
687.428	12445
687.453	12369
687.474	12079
687.520	11779
687.565	11590
687.574	11510
687.611	11436
687.657	11815
687.695	11611
687.702	11695
687.748	12776
687.794	14507
687.816	14735
687.839	14267
687.885	12944
687.931	12066
687.937	12017
687.976	12093
688.022	12222
688.058	12358
688.067	12433
688.113	12012
688.158	11854
688.179	11765
688.204	11736
688.249	11906
688.295	12051
688.300	12114
688.340	12839
688.386	13352
688.421	13101
688.431	12936
688.477	12694
688.522	12563
688.542	12628
688.567	12764
688.613	13178
688.658	12396
688.663	12402
688.703	12733
688.749	12610
688.784	13099
688.794	13201
688.839	12823
688.884	13074
688.905	13031
688.930	13041
688.975	12362
689.020	13040
689.026	13028
689.065	13122
689.110	13315
689.146	13102
689.155	13086
689.201	13631
689.246	13642
689.267	13679
689.291	13437
689.336	13369
689.381	13511
689.388	13388
689.426	13382
689.471	13566
689.509	13916
689.516	13903
689.561	13340
689.606	13294
689.630	12887
689.651	12727
689.696	12931
689.741	13364
689.750	13412
689.785	13805
689.830	13829
689.871	14006
689.875	13999
689.920	13623
689.965	13624
689.992	13519
690.010	13630
690.054	13597
690.099	13900
690.112	14108
690.144	14379
690.189	13772
690.233	13585
690.233	13601
690.278	13234
690.323	13314
690.354	13068
690.367	13167
690.412	13907
690.457	14345
690.474	14556
690.501	14735
690.546	14896
690.590	14743
690.595	14765
690.635	15342
690.680	15619
690.716	15977
690.724	16170
690.769	17424
690.813	18515
690.836	18824
690.857	20028
690.902	23027
690.946	26511
690.957	27447
690.991	36028
691.035	47619
691.077	60104
691.080	60449
691.124	60897
691.168	59642
691.198	59719
691.213	55306
691.257	43045
691.301	30476
691.318	25655
691.346	23786
691.390	21165
691.434	17986
691.439	17624
691.478	16878
691.522	16410
691.559	16028
691.567	16092
691.611	16225
691.655	16062
691.680	15867
691.699	15715
691.743	15928
691.787	15649
691.800	15606
691.831	15727
691.875	15783
691.919	15919
691.921	15903
691.964	16337
692.008	16496
692.041	16550
692.052	16526
692.096	16517
692.139	16189
692.162	16120
692.183	16087
692.227	15925
692.271	15738
692.282	15663
692.315	15726
692.359	15704
692.402	15938
692.403	15968
692.447	15827
692.490	16081
692.523	16202
692.534	16241
692.578	16344
692.622	16194
692.643	16256
692.666	16435
692.709	16350
692.753	16415
692.763	16456
692.797	16571
692.840	16209
692.884	16330
692.884	16365
692.928	16825
692.971	17077
693.004	17022
693.015	16955
693.059	17016
693.102	17091
693.124	17058
693.146	17136
693.189	16896
693.233	17175
693.245	17135
693.276	17694
693.320	18668
693.363	19393
693.365	19388
693.407	20145
693.450	21008
693.485	21487
693.493	22082
693.537	24768
693.580	28099
693.605	29790
693.624	32709
693.667	40073
693.710	47257
693.725	49889
693.753	65827
693.797	91634
693.840	119104
693.845	121722
693.883	123632
693.926	123235
693.966	123816
693.970	121103
694.013	91616
694.056	62238
694.086	42083
694.099	40230
694.142	34090
694.185	28283
694.206	25352
694.229	24661
694.272	23128
694.315	21843
694.326	21498
694.358	21038
694.401	19991
694.444	19262
694.446	19187
694.487	19068
694.530	18644
694.566	18235
694.573	18200
694.616	17874
694.659	17650
694.686	17209
694.702	17169
694.745	17462
694.787	17340
694.806	17467
694.830	17537
694.873	17205
694.916	16913
694.926	16790
694.959	16855
695.002	17087
695.044	17191
695.046	17160
695.087	17286
695.130	17343
695.166	17289
695.172	17334
695.215	17386
695.258	17364
695.286	17524
695.301	17666
695.343	17706
695.386	17691
695.406	17682
695.428	17714
695.471	17744
695.514	17854
695.526	17803
695.556	18186
695.599	18713
695.641	19117
695.646	19137
695.684	18880
695.726	18431
695.766	17963
695.769	18001
695.811	18042
695.854	18079
695.886	17945
695.896	18016
695.938	18089
695.981	18386
696.005	18501
696.023	18614
696.065	18749
696.108	18860
696.125	18839
696.150	18956
696.192	19173
696.235	19283
696.245	19272
696.277	19279
696.319	19199
696.361	19195
696.365	19153
696.404	19658
696.446	20107
696.485	20408
696.488	20446
696.530	20277
696.572	20195
696.604	20047
696.614	20103
696.656	20227
696.698	20167
696.724	20129
696.740	19995
696.783	19583
696.825	19179
696.844	18941
696.867	19083
696.909	19130
696.951	19243
696.964	19246
696.992	19070
697.034	18702
697.076	18289
697.083	18206
697.118	18927
697.160	19604
697.202	20235
697.203	20203
697.244	19799
697.286	19338
697.323	18852
697.327	18911
697.369	18968
697.411	19098
697.442	19186
697.453	19281
697.494	19328
697.536	19487
697.562	19532
697.578	19673
697.620	19877
697.661	20044
697.682	20123
697.703	20358
697.744	20684
697.786	21061
697.801	21116
697.828	21100
697.869	20943
697.911	20889
697.921	20797
697.952	20475
697.994	20069
698.035	19627
698.040	19531
698.077	19849
698.118	20051
698.160	20292
698.160	20240
698.201	20332
698.243	20388
698.279	20340
698.284	20383
698.325	20352
698.367	20291
698.399	20152
698.408	20206
698.449	20236
698.491	20273
698.518	20268
698.532	20437
698.573	20755
698.614	21078
698.638	21213
698.656	21204
698.697	21058
698.738	20907
698.757	20778
698.779	20989
698.820	21291
698.862	21599
698.877	21656
698.903	21862
698.944	22099
698.985	22334
698.996	22343
699.026	22435
699.067	22479
699.116	22473
699.235	21572
699.354	20818
699.474	20813
699.593	21267
699.713	21702
699.832	20416
699.951	21383
700.070	21347
700.190	20639
700.309	19572
700.428	20007
700.547	20271
700.667	19487
700.786	21007
700.905	19727
701.024	19089
701.143	20498
701.262	18916
701.381	17772
701.500	19552
701.619	19547
701.738	18320
701.857	19171
701.976	18353
702.095	18282
702.214	19707
702.333	18574
702.452	19547
702.571	18552
702.690	18559
702.809	18487
702.928	17939
703.047	17058
703.165	18702
703.284	18231
703.403	16826
703.522	17600
703.640	19048
703.759	18849
703.878	22755
703.997	18009
704.115	17278
704.234	17165
704.353	16914
704.471	16443
704.590	15842
704.708	15970
704.827	16680
704.946	16501
705.064	18005
705.183	17963
705.301	18279
705.420	23596
705.538	23431
705.656	21187
705.775	21753
705.893	30810
706.012	47956
706.130	22682
706.249	20685
706.367	20083
706.485	20623
706.604	20671
706.722	20375
706.840	21326
706.958	25305
707.077	23313
707.195	19657
707.313	19092
707.431	18049
707.549	18873
707.668	18387
707.786	18201
707.904	18222
708.022	17345
708.140	18516
708.258	17356
708.376	18175
708.494	17405
708.612	18271
708.730	24319
708.848	25871
708.966	21619
709.084	21381
709.202	20996
709.320	21944
709.438	22231
709.556	21418
709.674	21648
709.791	21673
709.909	20229
710.027	20226
710.145	20374
710.263	20793
710.380	20592
710.498	19931
710.616	20530
710.733	19739
710.851	19808
710.969	20532
711.086	19597
711.204	19075
711.322	19266
711.439	19130
711.557	19484
711.674	19450
711.792	19737
711.909	20543
712.027	21866
712.144	18218
712.262	18668
712.379	19662
712.497	24877
712.614	26692
712.732	24225
712.849	22370
712.966	21124
713.084	24541
713.201	22467
713.318	23211
713.436	21861
713.553	23214
713.670	23620
713.787	23715
713.905	24010
714.022	21915
714.139	21425
714.256	23790
714.373	27025
714.490	35205
714.608	60774
714.725	227427
714.842	394319
714.959	48748
715.076	25397
715.193	21832
715.310	21081
715.427	19611
715.544	19668
715.661	19938
715.778	19445
715.895	20933
716.011	20282
716.128	20117
716.245	18799
716.362	19296
716.479	20100
716.596	18461
716.713	19416
716.829	18228
716.946	18252
717.063	17580
717.180	17324
717.296	17074
717.413	17430
717.530	16666
717.646	16854
717.763	17683
717.880	16525
717.996	16402
718.113	17028
718.229	15521
718.346	15802
718.462	16991
718.579	17550
718.695	19886
718.812	20112
718.928	19118
719.045	16805
719.161	15104
719.277	14962
719.394	15950
719.510	15711
719.626	16438
719.743	19528
719.859	21422
719.975	27792
720.092	70290
720.208	211158
720.324	54255
720.440	19043
720.557	17406
720.673	18983
720.789	23046
720.905	38356
721.021	26073
721.137	15577
721.253	14956
721.369	15319
721.486	15822
721.602	19085
721.718	15526
721.834	13164
721.950	14767
722.066	14151
722.181	13046
722.297	13792
722.413	13161
722.529	13006
722.645	14950
722.761	14108
722.877	13243
722.993	12997
723.108	13964
723.224	13590
723.340	13289
723.456	13600
723.571	13048
723.687	11831
723.803	12752
723.918	12544
724.034	12405
724.150	13145
724.265	13291
724.381	18178
724.497	25164
724.612	12613
724.728	12114
724.843	12215
724.959	12756
725.074	16454
725.190	23712
725.305	12357
725.421	12101
725.536	11687
725.651	11810
725.767	10675
725.882	10918
725.997	10746
726.113	11870
726.228	10808
726.343	11520
726.459	11460
726.574	11306
726.689	11303
726.804	11195
726.920	10713
727.035	10893
727.150	10586
727.265	10730
727.380	10301
727.495	11749
727.610	10058
727.725	11699
727.841	12145
727.956	18919
728.071	20579
728.186	10895
728.301	9384
728.416	10827
728.531	10484
728.645	9579
728.760	8956
728.875	9546
728.990	9676
729.105	10006
729.220	10057
729.335	9567
729.449	9435
729.564	10684
729.679	9101
729.794	10209
729.908	10334
730.023	10325
730.138	9248
730.253	9730
730.367	9752
730.482	9167
730.596	9370
730.711	9336
730.826	10525
730.940	10952
731.055	9611
731.169	10953
731.284	10319
731.398	9684
731.513	10603
731.627	11044
731.742	9999
731.856	12451
731.970	11013
732.085	12125
732.199	14050
732.313	18478
732.428	33788
732.542	95088
732.656	87253
732.771	21312
732.885	12593
732.999	13071
733.113	12074
733.227	12236
733.342	11310
733.456	11626
733.570	11493
733.684	11436
733.798	10987
733.912	11023
734.026	10526
734.140	11103
734.254	10445
734.368	13856
734.482	17607
734.596	11048
734.710	9997
734.824	10129
734.938	10461
735.052	10964
735.166	10651
735.280	10484
735.393	9733
735.507	10142
735.621	9958
735.735	15603
735.849	11733
735.962	10180
736.076	10683
736.190	10698
736.303	10507
736.417	13908
736.531	9010
736.644	9906
736.758	9424
736.872	9150
736.985	9302
737.099	9769
737.212	8483
737.326	10204
737.439	10083
737.553	9729
737.666	9524
737.780	8893
737.893	9039
738.007	8817
738.120	8906
738.233	8612
738.347	9037
738.460	8522
738.573	9082
738.687	8543
738.800	9093
738.913	9681
739.026	9526
739.140	9959
739.253	9854
739.366	8688
739.479	8366
739.592	9381
739.705	8473
739.818	8940
739.932	8340
740.045	8594
740.158	8272
740.271	8350
740.384	8416
740.497	7825
740.610	9171
740.723	8319
740.836	7606
740.949	8806
741.062	8696
741.174	9936
741.287	8389
741.400	7679
741.513	7723
741.626	8424
741.739	7959
741.851	8016
741.964	8585
742.077	7171
742.189	7577
742.302	8470
742.415	8115
742.527	8469
742.640	7442
742.753	7612
742.865	7052
742.978	7591
743.090	7577
743.203	7515
743.316	7813
743.428	8341
743.541	7431
743.653	7536
743.766	7883
743.878	8871
743.990	8907
744.103	9811
744.215	7422
744.327	7463
744.440	8377
744.552	8800
744.664	8053
744.777	7983
744.889	7810
745.001	8498
745.113	6972
745.226	7183
745.338	7609
745.450	7853
745.562	6289
745.674	7895
745.786	7284
745.898	7526
746.010	6482
746.122	7773
746.234	7952
746.347	7354
746.459	7631
746.570	7482
746.682	6787
746.794	7816
746.906	6716
747.018	7294
747.130	7810
747.242	7556
747.354	7174
747.466	8029
747.577	8189
747.689	8095
747.801	6583
747.913	7265
748.024	7288
748.136	6256
748.248	6667
748.359	6689
748.471	7507
748.583	6911
748.694	6882
748.806	8448
748.918	8138
749.029	8028
749.141	7619
749.252	8009
749.364	7164
749.475	9205
749.587	8476
749.698	7532
749.809	7862
749.921	7015
750.032	7491
750.144	6975
750.255	7690
750.366	7696
750.478	6611
750.589	7521
750.700	6526
750.811	8263
750.923	7863
751.034	9592
751.145	10361
751.256	7179
751.367	7063
751.479	7596
751.590	6537
751.701	6861
751.812	7214
751.923	7076
752.034	7025
752.145	6518
752.256	6517
752.367	7151
752.478	6217
752.589	7103
752.700	7097
752.811	7597
752.922	6602
753.032	6917
753.143	6884
753.254	7384
753.365	6632
753.476	7650
753.586	6654
753.697	7354
753.808	6605
753.919	7229
754.029	6868
754.140	7178
754.251	7508
754.361	6777
754.472	6970
754.582	7458
754.693	6813
754.804	8130
754.914	7031
755.025	5822
755.135	7556
755.246	7406
755.356	7121
755.466	7370
755.577	6539
755.687	6916
755.798	6783
755.908	7212
756.018	7190
756.129	6828
756.239	6667
756.349	7719
756.460	6982
756.570	8191
756.680	8211
756.790	7931
756.900	8594
757.011	7636
757.121	7890
757.231	8422
757.341	7159
757.451	8057
757.561	7566
757.671	8167
757.781	7389
757.891	9066
758.001	7545
758.111	8795
758.221	8329
758.331	8765
758.441	8258
758.551	8917
758.661	9469
758.771	8703
758.880	9192
758.990	9152
759.100	8672
759.210	9435
759.320	9217
759.429	9923
759.539	9099
759.649	10248
759.758	9755
759.868	10671
759.978	9116
760.087	10932
760.197	10606
760.307	10822
760.416	10280
760.526	10100
760.635	11661
760.745	11556
760.854	11205
760.964	11486
761.073	11852
761.182	11867
761.292	12283
761.401	12917
761.511	12269
761.620	12657
761.729	13397
761.839	12223
761.948	12794
762.057	12809
762.166	13334
762.276	13842
762.385	14826
762.494	14577
762.603	15303
762.712	15874
762.822	16106
762.931	16898
763.040	17035
763.149	18116
763.258	17419
763.367	18911
763.476	20526
763.585	20452
763.694	21719
763.803	23389
763.912	23122
764.021	25072
764.130	25672
764.238	27742
764.347	29211
764.456	31532
764.565	34441
764.674	35284
764.783	39905
764.891	43257
765.000	48107
765.109	55966
765.217	61425
765.326	73889
765.435	86587
765.543	104738
765.652	129205
765.761	166156
765.869	222064
765.978	311637
766.086	461440
766.195	706111
766.303	1022528
766.412	1000235
766.520	842173
766.629	1006492
766.737	755525
766.846	506092
766.954	345991
767.062	249655
767.171	188673
767.279	148780
767.387	117563
767.496	98881
767.604	83802
767.712	73974
767.820	65863
767.928	59725
768.037	56240
768.145	52209
768.253	49670
768.361	47530
768.469	47658
768.577	48003
768.685	49441
768.793	52365
768.901	58064
769.009	64962
769.117	76832
769.225	97215
769.333	130895
769.441	195434
769.549	312059
769.657	549125
769.765	910322
769.873	876018
769.981	861824
770.088	634387
770.196	365964
770.304	233367
770.412	163932
770.519	121934
770.627	96759
770.735	77776
770.842	65105
770.950	56233
771.058	50125
771.165	44495
771.273	39751
771.380	35725
771.488	33405
771.595	32547
771.703	28713
771.810	28624
771.918	25756
772.025	24662
772.133	23696
772.240	23647
772.348	22079
772.455	21819
772.562	20244
772.670	19203
772.777	17893
772.884	19338
772.991	17168
773.099	17408
773.206	16421
773.313	16118
773.420	16155
773.528	15726
773.635	14234
773.742	14666
773.849	14634
773.956	14334
774.063	12834
774.170	13315
774.277	13333
774.384	13347
774.491	12434
774.598	12713
774.705	12399
774.812	12777
774.919	12885
775.026	11622
775.133	11424
775.239	12110
775.346	10871
775.453	11025
775.560	10173
775.667	10954
775.773	10771
775.880	11417
775.987	10488
776.093	10737
776.200	10100
776.307	9778
776.413	9896
776.520	10373
776.627	9605
776.733	8771
776.840	8469
776.946	10394
777.053	9204
777.159	8691
777.266	9050
777.372	9853
777.478	8267
777.585	9359
777.691	8563
777.798	9245
777.904	9335
778.010	10121
778.117	9450
778.223	7678
778.329	7924
778.435	8204
778.542	9277
778.648	7592
778.754	6225
778.860	7679
778.966	7233
779.072	8137
779.178	7950
779.284	7749
779.391	7919
779.497	8772
779.603	11612
779.708	15825
779.815	31780
779.920	99293
780.026	257382
780.132	71532
780.238	13606
780.344	10320
780.450	9631
780.556	7801
780.661	7369
780.767	7298
780.873	7257
780.979	6508
781.085	6543
781.190	6330
781.296	5983
781.402	6452
781.507	5921
781.613	6538
781.719	4952
781.824	7376
781.930	6405
782.035	6780
782.141	6274
782.246	5945
782.352	5833
782.457	5940
782.563	5349
782.668	5006
782.773	6033
782.879	5433
782.984	5629
783.090	5815
783.195	5930
783.300	7067
783.405	5447
783.511	5483
783.616	5225
783.721	5439
783.826	5395
783.932	6129
784.037	5662
784.142	5803
784.247	5221
784.352	5918
784.457	4904
784.562	4598
784.667	5365
784.772	5720
784.877	4848
784.982	5455
785.087	4495
785.192	5172
785.297	3941
785.402	5602
785.507	5387
785.611	5100
785.716	4768
785.821	5421
785.926	4266
786.031	4378
786.135	5096
786.240	4592
786.345	4191
786.450	4596
786.554	4422
786.659	4422
786.763	3411
786.868	5329
786.973	4453
787.077	4556
787.182	3284
787.286	4506
787.391	4777
787.495	4132
787.600	3646
787.704	4001
787.809	4397
787.913	4205
788.017	4338
788.122	4716
788.226	4030
788.330	4352
788.435	3917
788.539	4730
788.643	4041
788.747	3930
788.852	3886
788.956	4497
789.060	4563
789.164	4445
789.268	3473
789.372	4653
789.476	4581
789.580	3813
789.684	2815
789.788	4750
789.892	3090
789.996	4166
790.100	3879
790.204	4179
790.308	3815
790.412	3889
790.516	4183
790.620	4264
790.724	3847
790.828	3104
790.931	3039
791.035	4211
791.139	3594
791.242	3774
791.346	4125
791.450	4035
791.554	3974
791.657	2912
791.761	4350
791.864	4178
791.968	4140
792.072	3563
792.175	3667
792.279	3861
792.382	3513
792.486	3485
792.589	4219
792.693	4032
792.796	3620
792.899	4191
793.003	3108
793.106	2819
793.209	3417
793.313	3802
793.416	2682
793.519	3235
793.623	4230
793.726	4141
793.829	3624
793.932	3671
794.035	2849
794.138	4706
794.242	4842
794.345	5423
794.448	8819
794.551	17211
794.654	57456
794.757	152530
794.860	47506
794.963	7245
795.066	4205
795.169	4584
795.272	3676
795.375	3979
795.477	3586
795.580	4012
795.683	2035
795.786	3314
795.889	2200
795.991	3513
796.094	4199
796.197	2837
796.300	3890
796.402	3154
796.505	2865
796.608	2028
796.710	3177
796.813	3101
796.915	3223
797.018	2961
797.120	3411
797.223	1973
797.326	3159
797.428	3044
797.530	2699
797.633	2478
797.735	3646
797.838	4794
797.940	4416
798.042	3854
798.145	2630
798.247	3796
798.349	2063
798.452	3381
798.554	2177
798.656	1613
798.758	3506
798.860	3426
798.962	3109
799.065	1714
799.167	2009
799.269	3090
799.371	2280
799.473	3694
799.575	2978
799.677	3597
799.779	3950
799.881	2475
799.983	3408
800.085	3467
800.187	2568
800.289	2704
800.390	3256
800.492	2446
800.594	2699
800.696	2299
800.798	2327
800.899	3048
801.001	2285
801.103	3155
801.205	2486
801.306	2706
801.408	1861
801.509	2417
801.611	1886
801.713	2807
801.814	1936
801.916	1801
802.017	2726
802.119	2485
802.220	1653
802.322	1589
802.423	3815
802.525	2554
802.626	2251
802.727	2958
802.829	2107
802.930	1171
803.031	2879
803.133	1983
803.234	1614
803.335	2534
803.436	1502
803.538	2461
803.639	1414
803.740	2229
803.841	1682
803.942	2772
804.043	2379
804.144	1857
804.245	1711
804.346	1567
804.447	2842
804.548	2825
804.649	3370
804.750	2051
804.851	1720
804.952	2417
805.053	1875
805.154	1084
805.255	2591
805.355	2030
805.456	2225
805.557	2401
805.658	1085
805.758	2647
805.859	1362
805.960	2161
806.061	1507
806.161	1596
806.262	2346
806.362	1543
806.463	1461
806.564	2224
806.664	1607
806.765	3328
806.865	2947
806.966	2213
807.066	1501
807.166	2585
807.267	2102
807.367	1662
807.468	1894
807.568	1355
807.668	2615
807.769	2934
807.869	1561
807.969	1706
808.069	1779
808.170	2128
808.270	1560
808.370	2634
808.470	1791
808.570	1662
808.670	1967
808.770	1922
808.870	1166
808.970	2179
809.070	1711
809.170	1498
809.271	1419
809.370	2228
809.470	1511
809.570	1517
809.670	1729
809.770	1527
809.870	2273
809.970	1820
810.070	1730
810.169	2215
810.269	1003
810.369	2615
810.469	1910
810.568	1931
810.668	1839
810.768	2112
810.867	1681
810.967	2111
811.066	2348
811.166	1740
811.265	2419
811.365	2192
811.464	924
811.564	2335
811.663	1891
811.763	904
811.862	1755
811.962	2158
812.061	1626
812.160	2041
812.260	1265
812.359	2230
812.458	2345
812.557	3815
812.657	4813
812.756	3436
812.855	2540
812.954	1292
813.053	2094
813.153	2682
813.252	1652
813.351	2697
813.450	1932
813.549	1468
813.648	2512
813.747	1716
813.846	2429
813.945	2054
814.044	1944
814.143	1557
814.242	2658
814.341	2512
814.439	2045
814.538	1840
814.637	2560
814.736	2052
814.835	2573
814.933	2147
815.032	2447
815.131	3281
815.229	2474
815.328	4986
815.427	4058
815.525	3689
815.624	2880
815.722	3264
815.821	3975
815.919	3592
816.018	3035
816.116	3768
816.215	3856
816.313	4224
816.412	3314
816.510	5158
816.609	6048
816.707	5246
816.805	4424
816.904	5341
817.002	5263
817.100	6173
817.198	7481
817.296	6432
817.395	6897
817.493	9011
817.591	9033
817.689	12347
817.787	14964
817.885	22068
817.983	36810
818.081	68872
818.179	145949
818.277	321155
818.375	370932
818.473	165285
818.571	64986
818.669	37810
818.767	31276
818.865	29922
818.963	32130
819.061	43545
819.158	68341
819.256	126235
819.354	247242
819.452	456871
819.549	409930
819.647	203462
819.745	90579
819.842	51566
819.940	33495
820.038	24873
820.135	18857
820.233	15808
820.330	12741
820.428	10675
820.525	10514
820.623	9546
820.720	6925
820.818	7266
820.915	6709
821.012	6578
821.110	4224
821.207	5863
821.304	4143
821.402	5355
821.499	5273
821.596	4526
821.693	4379
821.791	5250
821.888	4112
821.985	5668
822.082	3961
822.179	4976
822.276	4415
822.373	3909
822.470	2916
822.567	3008
822.664	2758
822.761	3859
822.858	2610
822.955	2942
823.052	3381
823.149	2023
823.246	2402
823.343	2418
823.440	2767
823.536	2801
823.633	2700
823.730	2699
823.827	2932
823.923	3483
824.020	3606
824.117	2517
824.213	2111
824.310	3100
824.407	2465
824.503	3084
824.600	2716
824.696	2145
824.793	3087
824.889	2311
824.986	2482
825.082	2116
825.179	2482
825.275	1953
825.371	2290
825.468	2551
825.564	700
825.660	2283
825.757	2848
825.853	2542
825.949	979
826.045	2497
826.142	2141
826.238	1655
826.334	2430
826.430	1624
826.526	2148
826.622	1529
826.718	1642
826.814	2244
826.910	2611
827.006	1203
827.102	1115
827.198	2689
827.294	2157
827.390	2231
827.486	2274
827.582	1407
827.678	1205
827.774	3063
827.869	665
827.965	2536
828.061	1616
828.157	2155
828.252	2215
828.348	1436
828.444	2123
828.539	975
828.635	1167
828.731	2055
828.826	2236
828.922	2020
829.017	1368
829.113	1797
829.208	1515
829.304	1172
829.399	2160
829.495	2596
829.590	1067
829.685	756
829.781	2018
829.876	1323
829.971	1144
830.066	1617
830.162	921
830.257	1716
830.352	1359
830.447	2556
830.543	1800
830.638	524
830.733	2063
830.828	2120
830.923	1687
831.018	2237
831.113	1401
831.208	1347
831.303	1485
831.398	1692
831.493	1321
831.588	2081
831.683	1399
831.778	1620
831.873	164
831.967	1494
832.062	704
832.157	1495
832.252	2066
832.346	1654
832.441	1124
832.536	1999
832.631	3008
832.725	3199
832.820	1097
832.914	1358
833.009	923
833.104	1464
833.198	1611
833.293	1828
833.387	1406
833.482	1801
833.576	1268
833.670	1288
833.765	1701
833.859	1145
833.954	1595
834.048	1199
834.142	1064
834.237	173
834.331	1140
834.425	1804
834.519	283
834.613	1767
834.708	1088
834.802	1379
834.896	1186
834.990	244
835.084	1076
835.178	703
835.272	671
835.366	1553
835.460	2174
835.554	1334
835.648	1162
835.742	920
835.836	1338
835.930	921
836.024	1485
836.117	2062
836.211	825
836.305	2024
836.399	2049
836.493	1432
836.586	1710
836.680	921
836.774	740
836.867	1590
836.961	25
837.055	952
837.148	211
837.242	1617
837.335	883
837.429	1635
837.522	589
837.616	1751
837.709	2743
837.803	1910
837.896	1700
837.989	1523
838.083	2153
838.176	2632
838.269	2618
838.363	1937
838.456	533
838.549	2089
838.642	1300
838.735	3278
838.829	2104
838.922	1110
839.015	1014
839.108	814
839.201	1095
839.294	2124
839.387	1337
839.480	624
839.573	1082
839.666	1456
839.759	824
839.852	273
839.945	1125
840.038	652
840.131	1637
840.223	756
840.316	639
840.409	1674
840.502	231
840.594	2561
840.687	313
840.780	833
840.873	547
840.965	1326
841.058	1462
841.150	2126
841.243	1855
841.336	1686
841.428	1013
841.521	1003
841.613	176
841.706	1687
841.798	682
841.890	985
841.983	619
842.075	2012
842.167	578
842.260	983
842.352	1877
842.444	1729
842.537	2013
842.629	4436
842.721	2287
842.813	1362
842.905	-62
842.997	1211
843.090	803
843.182	2085
843.274	1949
843.366	4716
843.458	9451
843.550	10292
843.642	1916
843.734	1418
843.826	591
843.918	961
844.009	1428
844.101	634
844.193	237
844.285	832
844.377	1845
844.469	1531
844.560	-254
844.652	421
844.744	978
844.835	665
844.927	896
845.019	696
845.110	1227
845.202	879
845.293	692
845.385	799
845.476	682
845.568	1113
845.659	532
845.751	1059
845.842	1071
845.934	561
846.025	-76
846.116	313
846.208	320
846.299	890
846.390	425
846.482	698
846.573	1658
846.664	2016
846.755	1313
846.846	1767
846.937	339
847.029	644
847.120	378
847.211	833
847.302	1052
847.393	448
847.484	537
847.575	301
847.666	377
847.757	799
847.847	456
847.938	845
848.029	713
848.120	330
848.211	373
848.302	738
848.392	250
848.483	374
848.574	212
848.664	1225
848.755	487
848.846	891
848.936	327
849.027	999
849.118	149
849.208	1598
849.299	830
849.389	1628
849.480	2936
849.570	4609
849.661	6903
849.751	14766
849.841	8253
849.932	1652
850.022	758
850.112	1224
850.203	494
850.293	1149
850.383	1158
850.474	177
850.564	900
850.654	705
850.744	29
850.834	705
850.924	338
851.014	976
851.104	178
851.194	933
851.284	659
851.374	1515
851.464	428
851.554	425
851.644	999
851.734	1986
851.824	2894
851.914	4077
852.004	7274
852.094	10733
852.183	3632
852.273	709
852.363	60
852.452	289
852.542	-93
852.632	-101
852.721	792
852.811	503
852.901	711
852.990	645
853.080	773
853.169	845
853.259	867
853.348	613
853.438	1075
853.527	1718
853.617	1004
853.706	3358
853.795	5257
853.885	11802
853.974	23438
854.063	42157
854.152	78777
854.242	46187
854.331	8731
854.420	3169
854.509	1590
854.598	1709
854.687	1079
854.777	1572
854.866	762
854.955	1143
855.044	740
855.133	1150
855.222	318
855.311	-426
855.400	690
855.488	1121
855.577	133
855.666	823
855.755	1015
855.844	282
855.933	1680
856.021	1464
856.110	711
856.199	-51
856.288	316
856.376	620
856.465	-173
856.554	266
856.642	-302
856.731	1138
856.819	1375
856.908	154
856.996	130
857.085	450
857.173	105
857.262	498
857.350	722
857.438	1345
857.527	183
857.615	291
857.703	648
857.792	957
857.880	-135
857.968	57
858.056	-661
858.145	453
858.233	108
858.321	415
858.409	892
858.497	642
858.585	640
858.673	733
858.761	-285
858.849	334
858.937	-58
859.025	53
859.113	281
859.201	-160
859.289	448
859.377	634
859.465	211
859.552	235
859.640	283
859.728	680
859.816	724
859.903	461
859.991	756
860.079	522
860.166	101
860.254	1708
860.342	1029
860.429	-146
860.517	19
860.604	283
860.692	-33
860.779	734
860.867	41
860.954	476
861.042	247
861.129	1442
861.216	961
861.304	-21
861.391	-353
861.478	617
861.565	-127
861.653	1513
861.740	203
861.827	1028
861.914	124
862.001	36
862.089	-60
862.176	926
862.263	421
862.350	1539
862.437	-143
862.524	534
862.611	109
862.698	851
862.785	414
862.871	1121
862.958	827
863.045	591
863.132	135
863.219	218
863.306	-485
863.392	1306
863.479	-130
863.566	1072
863.652	646
863.739	509
863.826	449
863.912	379
863.999	160
864.086	1052
864.172	241
864.259	1193
864.345	-49
864.432	347
864.518	300
864.604	1150
864.691	-148
864.777	1070
864.863	1362
864.950	1059
865.036	1120
865.122	2213
865.209	2926
865.295	2839
865.381	1574
865.467	2033
865.553	1920
865.639	2935
865.726	3933
865.812	7645
865.898	13271
865.984	20175
866.070	32536
866.156	49177
866.242	19417
866.328	4956
866.414	2321
866.499	2799
866.585	2385
866.671	2038
866.757	2050
866.843	1945
866.928	1734
867.014	1727
867.100	2165
867.186	1819
867.271	1863
867.357	2159
867.442	2057
867.528	2739
867.614	1944
867.699	1273
867.785	1532
867.870	1572
867.956	1623
868.041	1906
868.127	1870
868.212	2004
868.297	1204
868.383	1930
868.468	1639
868.553	2413
868.639	2403
868.724	3122
868.809	4158
868.894	2189
868.979	676
869.065	1623
869.150	1142
869.235	1418
869.320	1436
869.405	1254
869.490	1397
869.575	1916
869.660	1089
869.745	1666
869.830	1588
869.915	968
870.000	1422
870.085	1911
870.169	838
870.254	1534
870.339	999
870.424	323
870.509	1263
870.593	1397
870.678	1131
870.763	1258
870.847	850
870.932	393
871.016	1641
871.101	1286
871.186	1043
871.270	2154
871.355	1499
871.439	990
871.523	565
871.608	1345
871.692	684
871.777	1939
871.861	1174
871.945	1311
872.030	1706
872.114	922
872.198	938
872.282	1063
872.367	451
872.451	38
872.535	438
872.619	1475
872.703	815
872.787	432
872.871	1035
872.955	180
873.039	76
873.123	1405
873.207	1331
873.291	627
873.375	939
873.459	1954
873.543	512
873.627	210
873.711	261
873.794	1207
873.878	601
873.962	440
874.045	687
874.129	795
874.137	701
874.213	-241
874.245	564
874.296	1866
874.352	560
874.380	-74
874.460	474
874.464	495
874.547	361
874.568	539
874.631	1060
874.676	650
874.714	298
874.784	537
874.798	590
874.881	1456
874.892	1322
874.965	388
874.999	313
875.048	196
875.107	1134
875.131	1519
875.215	378
875.215	379
875.298	463
875.323	489
875.381	617
875.430	1279
875.465	1654
875.538	647
875.548	533
875.631	728
875.646	602
875.714	-70
875.753	263
875.798	671
875.861	608
875.881	594
875.964	1141
875.968	1097
876.047	250
876.076	445
876.130	834
876.183	573
876.213	443
876.291	1154
876.296	1198
876.379	148
876.398	314
876.462	888
876.506	783
876.545	688
876.613	332
876.628	266
876.711	835
876.721	904
876.794	1345
876.828	837
876.877	136
876.935	528
876.960	671
877.043	179
877.043	180
877.125	610
877.150	811
877.208	1354
877.258	1258
877.291	1139
877.365	880
877.374	851
877.456	888
877.472	888
877.539	763
877.579	778
877.622	943
877.687	807
877.704	748
877.787	906
877.794	877
877.869	486
877.901	740
877.952	1236
878.008	1190
878.034	1098
878.115	999
878.117	1000
878.199	544
878.222	645
878.282	980
878.329	1081
878.364	1154
878.437	845
878.447	783
878.529	448
878.544	492
878.611	668
878.651	537
878.694	501
878.758	1223
878.776	1390
878.858	762
878.865	788
878.941	1098
878.972	798
879.023	342
879.078	533
879.105	660
879.185	1151
879.187	1160
879.269	1241
879.292	1129
879.351	866
879.399	928
879.433	932
879.506	876
879.516	876
879.598	700
879.613	670
879.680	626
879.720	753
879.762	750
879.827	588
879.844	602
879.926	560
879.933	553
880.007	502
880.040	867
880.089	1264
880.147	841
880.171	767
880.253	1165
880.254	1165
880.335	1343
880.360	1597
880.417	2335
880.467	2483
880.499	2662
880.574	3837
880.580	3842
880.662	2024
880.680	1762
880.744	1270
880.787	937
880.825	603
880.893	354
880.907	378
880.989	723
881.000	760
881.070	804
881.106	853
881.152	961
881.213	544
881.233	319
881.315	25
881.319	49
881.396	1402
881.426	1408
881.478	978
881.532	893
881.559	865
881.639	803
881.641	799
881.722	681
881.745	591
881.803	519
881.852	554
881.885	673
881.958	561
881.966	528
882.047	1097
882.064	1026
882.129	1004
882.171	1232
882.210	1400
882.277	1711
882.291	1779
882.372	1769
882.383	1753
882.454	1186
882.489	977
882.535	907
882.596	844
882.616	838
882.697	975
882.702	950
882.778	772
882.808	825
882.859	862
882.914	767
882.940	533
883.020	450
883.021	455
883.102	475
883.127	540
883.183	878
883.233	1128
883.264	1197
883.339	1317
883.345	1296
883.426	497
883.445	506
883.507	1189
883.551	1350
883.587	1063
883.657	902
883.668	1034
883.749	1619
883.763	1686
883.830	1176
883.869	1204
883.910	1224
883.975	948
883.991	1013
884.072	1086
884.081	1103
884.152	785
884.187	591
884.233	582
884.292	869
884.314	908
884.394	677
884.398	661
884.475	553
884.504	636
884.555	731
884.610	715
884.636	665
884.716	454
884.716	459
884.797	963
884.821	1181
884.877	1316
884.927	1163
884.958	1103
885.033	1260
885.038	1241
885.118	658
885.139	472
885.199	532
885.244	888
885.279	904
885.350	524
885.359	523
885.439	756
885.456	732
885.520	938
885.561	1152
885.600	1180
885.667	1262
885.680	1164
885.760	764
885.773	630
885.840	282
885.878	196
885.920	539
885.984	1036
886.000	1047
886.080	1027
886.089	1037
886.160	984
886.195	900
886.240	1096
886.300	1303
886.320	1243
886.400	966
886.406	962
886.480	1171
886.511	1181
886.560	1093
886.616	824
886.640	885
886.720	1489
886.722	1497
886.800	1231
886.827	1075
886.879	854
886.932	734
886.959	819
887.038	1057
887.039	1064
887.119	1246
887.143	1356
887.198	1635
887.248	1745
887.278	1476
887.354	938
887.358	958
887.437	1139
887.459	1203
887.517	1371
887.564	1485
887.596	1350
887.669	1127
887.676	1135
887.755	1094
887.774	1098
887.835	1009
887.880	921
887.914	1075
887.985	1390
887.994	1351
888.073	914
888.090	826
888.153	864
888.195	838
888.232	962
888.300	1364
888.311	1324
888.391	936
888.405	852
888.470	1029
888.510	1159
888.549	1027
888.615	792
888.628	903
888.708	1528
888.720	1634
888.787	1880
888.825	1966
888.866	1694
888.930	1304
888.945	1290
889.024	1171
889.035	1156
889.103	1396
889.140	1502
889.182	1731
889.245	2059
889.261	1899
889.340	1133
889.349	1042
889.419	1251
889.454	1352
889.498	1398
889.559	1475
889.577	1443
889.656	1292
889.664	1278
889.735	1928
889.768	2232
889.814	2078
889.873	1864
889.978	1082
890.083	1662
890.187	1440
890.292	1435
890.397	1011
890.501	1224
890.606	1020
890.710	1381
890.815	1062
890.919	834
891.024	1264
891.128	930
891.233	1016
891.337	879
891.442	810
891.546	1639
891.650	1516
891.755	1448
891.859	2351
891.963	838
892.068	1378
892.172	1707
892.276	618
892.380	1410
892.484	976
892.589	2013
892.693	1695
892.797	148
892.901	1031
893.005	426
893.109	1128
893.213	992
893.317	1693
893.421	1340
893.525	812
893.629	1027
893.733	1026
893.837	837
893.941	1255
894.045	1680
894.148	1742
894.252	4406
894.356	3910
894.460	1716
894.564	1610
894.667	1538
894.771	1113
894.875	1051
894.978	387
895.082	58
895.186	1238
895.289	989
895.393	868
895.496	1049
895.600	907
895.703	324
895.807	1060
895.910	964
896.014	1098
896.117	815
896.221	1636
896.324	788
896.427	1665
896.531	851
896.634	890
896.737	1042
896.840	1088
896.944	1190
897.047	1297
897.150	833
897.253	1349
897.356	1433
897.460	903
897.563	954
897.666	916
897.769	1937
897.872	1514
897.975	-156
898.078	1011
898.181	697
898.284	-72
898.387	715
898.490	1156
898.593	726
898.695	742
898.798	1491
898.901	1526
899.004	733
899.107	1079
899.209	1020
899.312	759
899.415	873
899.518	867
899.620	1144
899.723	770
899.826	1175
899.928	2605
900.031	1268
900.133	1254
900.236	870
900.338	544
900.441	131
900.543	272
900.646	930
900.748	1007
900.851	988
900.953	1279
901.055	693
901.158	1316
901.260	929
901.362	330
901.465	534
901.567	818
901.669	926
901.771	569
901.873	721
901.976	575
902.078	712
902.180	721
902.282	514
902.384	1347
902.486	1771
902.588	726
902.690	1561
902.792	1074
902.894	936
902.996	452
903.098	892
903.200	977
903.302	896
903.404	1678
903.505	852
903.607	585
903.709	1422
903.811	1263
903.913	768
904.014	69
904.116	359
904.218	1003
904.319	333
904.421	392
904.523	979
904.624	1191
904.726	572
904.827	304
904.929	550
905.030	843
905.132	1606
905.233	841
905.335	128
905.436	577
905.537	182
905.639	1266
905.740	715
905.841	245
905.943	1326
906.044	1235
906.145	875
906.247	403
906.348	166
906.449	1781
906.550	896
906.651	705
906.752	968
906.854	344
906.955	62
907.056	301
907.157	1161
907.258	1301
907.359	1132
907.460	1319
907.561	843
907.662	747
907.762	597
907.863	690
907.964	1542
908.065	1507
908.166	496
908.267	1200
908.367	500
908.468	915
908.569	695
908.670	978
908.770	1199
908.871	1115
908.971	1083
909.072	1460
909.173	499
909.273	1179
909.374	401
909.474	825
909.575	1097
909.675	820
909.776	72
909.876	131
909.977	828
910.077	1497
910.177	453
910.278	390
910.378	142
910.478	518
910.579	149
910.679	105
910.779	827
910.879	718
910.980	218
911.080	-62
911.180	987
911.280	15
911.380	336
911.480	140
911.580	-513
911.680	522
911.780	630
911.880	1239
911.980	571
912.080	570
912.180	1074
912.280	1319
912.380	1466
912.480	150
912.580	327
912.679	1351
912.779	455
912.879	989
912.979	745
913.078	559
913.178	333
913.278	411
913.377	517
913.477	843
913.577	1096
913.676	975
913.776	1152
913.875	104
913.975	1024
914.074	1010
914.174	1317
914.273	118
914.373	579
914.472	1024
914.572	684
914.671	-224
914.770	166
914.870	411
914.969	-175
915.068	880
915.167	246
915.267	272
915.366	-558
915.465	318
915.564	360
915.663	1482
915.763	1553
915.862	926
915.961	1325
916.060	586
916.159	369
916.258	-466
916.357	145
916.456	824
916.555	473
916.654	279
916.752	1308
916.851	1277
916.950	356
917.049	525
917.148	207
917.247	780
917.345	3
917.444	679
917.543	458
917.642	-82
917.740	126
917.839	1010
917.937	1123
918.036	564
918.135	563
918.233	-187
918.332	201
918.430	-191
918.529	799
918.627	-241
918.726	787
918.824	1178
918.923	350
919.021	640
919.119	-145
919.218	355
919.316	470
919.414	1084
919.512	368
919.611	164
919.709	878
919.807	779
919.905	751
920.003	1758
920.102	423
920.200	926
920.298	723
920.396	376
920.494	1651
920.592	172
920.690	1412
920.788	1492
920.886	344
920.984	489
921.082	735
921.180	1055
921.277	1081
921.375	955
921.473	874
921.571	1711
921.669	1151
921.766	960
921.864	1112
921.962	789
922.060	1237
922.157	600
922.255	1256
922.352	1271
922.450	1795
922.548	843
922.645	1235
922.743	1717
922.840	2504
922.938	2635
923.035	2862
923.133	2951
923.230	3155
923.327	3341
923.425	3774
923.522	4100
923.619	2967
923.717	2936
923.814	3196
923.911	2422
924.008	3563
924.106	2130
924.203	2577
924.300	2212
924.397	2817
924.494	2522
924.591	2509
924.688	2089
924.786	2628
924.883	2652
924.979	2729
925.077	2164
925.173	2193
925.270	2215
925.367	2422
925.464	3163
925.561	2387
925.658	3305
925.755	2740
925.852	3562
925.948	2730
926.045	2309
926.142	2803
926.239	2980
926.335	2293
926.432	1991
926.529	2217
926.625	2303
926.722	2413
926.818	2170
926.915	1812
927.011	2857
927.108	2106
927.204	2112
927.301	2285
927.397	2204
927.494	3172
927.590	1694
927.687	1638
927.783	1543
927.879	3007
927.976	1717
928.072	1647
928.168	1343
928.264	2699
928.361	2210
928.457	2728
928.553	2398
928.649	2017
928.745	2346
928.841	2104
928.937	1929
929.033	1663
929.129	2236
929.225	2242
929.321	2484
929.417	1360
929.513	2156
929.609	2020
929.705	1819
929.801	1974
929.897	1653
929.993	1531
930.089	1547
930.184	2028
930.280	2374
930.376	2554
930.471	1915
930.567	1461
930.663	1099
930.758	1083
930.854	238
930.950	1736
931.045	1296
931.141	1873
931.236	1860
931.332	1983
931.427	1413
931.523	1602
931.618	1958
931.714	1950
931.809	995
931.905	1706
932.000	1557
932.095	642
932.191	1763
932.286	2283
932.381	2203
932.476	1273
932.572	857
932.667	1517
932.762	1467
932.857	1762
932.952	1721
933.047	1739
933.142	617
933.237	969
933.332	1222
933.427	1379
933.522	1318
933.617	1186
933.712	993
933.807	1225
933.902	2305
933.997	1636
934.092	1279
934.187	619
934.282	1537
934.376	1668
934.471	1429
934.566	1324
934.661	1426
934.755	1536
934.850	2008
934.945	2315
935.039	572
935.134	864
935.228	1247
935.323	2140
935.417	1675
935.512	1552
935.606	295
935.701	1638
935.795	868
935.890	1761
935.984	1427
936.079	859
936.173	2026
936.267	1326
936.362	1039
936.456	1579
936.550	1506
936.644	1581
936.738	1852
936.833	425
936.927	1372
937.021	957
937.115	1070
937.209	1006
937.303	942
937.397	620
937.491	1101
937.585	961
937.679	757
937.773	1071
937.867	1118
937.961	1174
938.055	863
938.149	1339
938.243	1077
938.337	377
938.430	1146
938.524	1507
938.618	604
938.712	-74
938.805	723
938.899	389
938.993	1433
939.086	879
939.180	393
939.274	718
939.367	683
939.461	1384
939.554	611
939.648	1223
939.741	793
939.835	608
939.928	2049
940.022	1087
940.115	950
940.208	693
940.302	1639
940.395	1356
940.488	1787
940.582	1650
940.675	757
940.768	932
940.861	270
940.954	1873
941.048	813
941.141	568
941.234	66
941.327	891
941.420	2374
941.513	1277
941.606	1543
941.699	1290
941.792	607
941.885	843
941.978	990
942.071	764
942.164	506
942.257	114
942.349	1438
942.442	340
942.535	84
942.628	389
942.721	637
942.813	589
942.906	1326
942.999	-48
943.091	795
943.184	406
943.277	369
943.369	886
943.462	-196
943.554	699
943.647	282
943.739	442
943.832	746
943.924	468
944.017	182
944.109	67
944.201	687
944.294	710
944.386	704
944.478	500
944.571	680
944.663	21
944.755	379
944.847	285
944.940	319
945.032	275
945.124	612
945.216	1064
945.308	903
945.400	553
945.492	-74
945.584	406
945.676	1200
945.768	44
945.860	925
945.952	92
946.044	558
946.136	353
946.228	385
946.320	-632
946.412	659
946.503	145
946.595	734
946.687	441
946.779	731
946.870	-1
946.962	1080
947.054	628
947.145	1029
947.237	407
947.329	460
947.420	1379
947.512	768
947.603	425
947.695	453
947.786	-212
947.878	-83
947.969	754
948.061	-126
948.152	1082
948.243	587
948.335	242
948.426	192
948.517	-128
948.609	406
948.700	336
948.791	750
948.882	245
948.973	-295
949.065	233
949.156	912
949.247	-205
949.338	96
949.429	-158
949.520	-641
949.611	-395
949.702	576
949.793	206
949.884	-50
949.975	427
950.066	-496
950.157	337
950.247	89
950.338	-4
950.429	-1098
950.520	331
950.611	222
950.701	658
950.792	146
950.883	1413
950.973	-353
951.064	607
951.155	489
951.245	1354
951.336	315
951.427	-102
951.517	448
951.608	95
951.698	-580
951.788	39
951.879	-531
951.969	-477
952.060	-288
952.150	479
952.240	430
952.331	258
952.421	1255
952.511	-492
952.602	682
952.692	-452
952.782	-769
952.872	-137
952.962	859
953.052	-435
953.143	-124
953.233	-183
953.323	290
953.413	249
953.503	214
953.593	-546
953.683	360
953.773	-767
953.863	-1144
953.953	-161
954.042	83
954.132	224
954.222	469
954.312	-32
954.402	560
954.492	318
954.581	972
954.671	963
954.761	-475
954.850	323
954.940	577
955.030	-130
955.119	-209
955.209	6
955.298	325
955.388	-77
955.477	517
955.567	290
955.656	-5
955.746	373
955.835	-312
955.925	-153
956.014	-714
956.103	724
956.193	60
956.282	565
956.371	-150
956.461	-169
956.550	-632
956.639	155
956.728	183
956.817	139
956.906	146
956.995	99
957.085	-540
957.174	-281
957.263	-457
957.352	-698
957.441	253
957.530	-337
957.619	150
957.708	434
957.796	-276
957.885	322
957.974	127
958.063	332
958.152	-679
958.241	129
958.329	-782
958.418	-437
958.507	-1439
958.596	369
958.684	-38
958.773	269
958.861	-319
958.950	-40
959.039	33
959.127	43
959.216	286
959.304	1016
959.393	430
959.481	208
959.570	664
959.658	11
959.746	459
959.835	1002
959.923	2373
960.011	1060
960.100	973
960.188	488
960.276	-150
960.365	-1012
960.453	-598
960.541	-225
960.629	-89
960.717	-110
960.805	-546
960.893	-376
960.981	198
961.069	106
961.158	866
961.245	275
961.333	705
961.421	182
961.509	-200
961.597	81
961.685	-9
961.773	-350
961.861	-938
961.949	869
962.036	-329
962.124	1
962.212	-1310
962.299	-303
962.387	-438
962.475	-1149
962.562	-585
962.650	-564
962.738	-525
962.825	-641
962.913	-536
963.000	-278
963.088	-404
963.175	191
963.263	-295
963.350	-120
963.438	-225
963.525	-402
963.612	523
963.700	2782
963.787	7877
963.874	7156
963.962	551
964.049	-1135
964.136	103
964.223	-1050
964.310	-697
964.398	-3
964.485	-192
964.572	-210
964.659	738
964.746	1160
964.833	338
964.920	-267
965.007	-315
965.094	-499
965.181	-1545
965.268	38
965.355	-474
965.441	-801
965.528	-231
965.615	593
965.702	1
965.789	-1215
965.875	283
965.962	-498
966.049	-1279
966.136	-97
966.222	-406
966.309	-386
966.395	-74
966.482	-29
966.569	-135
966.655	-304
966.742	-432
966.828	-71
966.915	-799
967.001	-771
967.087	-776
967.174	-851
967.260	-23
967.347	476
967.433	2379
967.519	5753
967.605	3224
967.692	230
967.778	-666
967.864	-623
967.950	-764
968.036	-830
968.123	-704
968.209	-237
968.295	-897
968.381	233
968.467	-585
968.553	-1080
968.639	-691
968.725	-52
968.811	15
968.897	567
968.983	-257
969.069	-840
969.154	-226
969.240	-84
969.326	-376
969.412	-1102
969.497	-792
969.583	-1577
969.669	-273
969.755	-37
969.840	-734
969.926	114
970.012	-155
970.097	945
970.183	391
970.268	599
970.354	810
970.439	977
970.525	2866
970.610	1233
970.696	205
970.781	-308
970.866	-1195
970.952	-331
971.037	-623
971.122	-639
971.208	-200
971.293	-768
971.378	-1126
971.463	-691
971.549	125
971.634	-319
971.719	-383
971.804	-331
971.889	142
971.974	-693
972.059	-941
972.144	-550
972.229	-497
972.314	-712
972.399	-805
972.484	-891
972.569	-856
972.654	-200
972.739	1320
972.824	1644
972.908	313
972.993	-964
973.078	-1165
973.163	-583
973.247	31
973.332	-1229
973.417	-297
973.501	-979
973.586	-706
973.671	-192
973.755	-1351
973.840	-136
973.924	-574
974.009	-132
974.093	252
974.178	1275
974.262	677
974.346	1366
974.431	-26
974.515	-489
974.600	-773
974.684	-556
974.768	-757
974.852	-748
974.937	-529
975.021	-624
975.105	-383
975.189	-724
975.273	-212
975.358	34
975.442	-1539
975.526	-101
975.610	-1844
975.694	-1632
975.778	-4
975.862	-523
975.946	-2454
976.030	377
976.114	-761
976.198	-324
976.281	-797
976.365	-710
976.449	-459
976.533	-536
976.617	-950
976.700	-159
976.784	-1059
976.868	-977
976.951	197
977.035	145
977.119	-642
977.202	-1093
977.286	-215
977.369	-147
977.453	168
977.536	29
977.620	-1039
977.703	-313
977.787	-1200
977.870	73
977.953	88
978.037	-906
978.120	-96
978.203	105
978.287	1191
978.370	1483
978.453	-640
978.536	-122
978.620	605
978.703	827
978.786	86
978.869	-650
978.952	-579
979.035	-314
979.118	12
979.201	-1297
979.284	-875
979.367	-274
979.450	-578
979.533	-1007
979.616	-687
979.699	-1066
979.782	-333
979.865	-1198
979.948	-703
980.030	-715
980.113	-1625
980.196	-563
980.279	-105
980.361	-781
980.444	-608
980.526	-493
980.609	-376
980.692	-159
980.774	-80
980.857	-962
980.939	-532
981.022	-602
981.104	-1189
981.187	-1510
981.269	-1055
981.352	-1590
981.434	-383
981.516	-950
981.599	188
981.681	-799
981.763	-1453
981.846	-1090
981.928	-1347
982.010	-88
982.092	-1440
982.174	-656
982.256	-387
982.339	-1038
982.421	-829
982.503	-889
982.585	-173
982.667	-302
982.749	-413
982.831	-392
982.913	-733
982.995	-338
983.077	-745
983.158	-191
983.240	-559
983.322	-483
983.404	-460
983.486	136
983.568	-59
983.649	-702
983.731	-694
983.813	-779
983.894	-226
983.976	-1419
984.058	-1031
984.139	-496
984.221	-1353
984.302	-328
984.384	-643
984.465	-507
984.547	-820
984.628	-1075
984.710	-75
984.791	-397
984.872	-895
984.954	-420
985.035	-655
985.116	-1470
985.198	-1573
985.279	-109
985.360	-958
985.441	-1452
985.522	-100
985.604	-1034
985.685	-1734
985.766	-421
985.847	-80
985.928	-1056
986.009	-1300
986.090	-1427
986.171	-429
986.252	-776
986.333	-602
986.414	-680
986.495	-830
986.576	-1177
986.656	-834
986.737	-861
986.818	-914
986.899	-235
986.980	-627
987.060	-226
987.141	-346
987.222	-1209
987.302	613
987.383	404
987.464	-984
987.544	181
987.625	-344
987.705	-134
987.786	431
987.866	-573
987.947	-759
988.027	-788
988.108	-749
988.188	-105
988.268	-528
988.349	-149
988.429	-694
988.509	-1409
988.589	-1423
988.670	-1373
988.750	332
988.830	-442
988.910	-115
988.990	-654
989.070	-797
989.151	-472
989.231	-1713
989.311	-502
989.391	-882
989.471	-616
989.551	-1250
989.631	-925
989.711	-1055
989.791	-1231
989.870	-1076
989.950	384
990.030	-206
990.110	-496
990.190	-1201
990.269	-1665
990.349	-434
990.429	125
990.509	-101
990.588	-1737
990.668	-704
990.747	-1162
990.827	-861
990.907	-957
990.986	-505
991.066	-273
991.145	-1364
991.225	-455
991.304	-812
991.383	-371
991.463	-1177
991.542	-505
991.622	125
991.701	-879
991.780	-1013
991.859	-1044
991.939	-1203
992.018	-1465
992.097	-134
992.176	-1122
992.256	-1054
992.335	-1081
992.414	-1335
992.493	-1153
992.572	-1000
992.651	-965
992.730	-591
992.809	-764
992.888	-1309
992.967	-1536
993.046	-469
993.125	-1199
993.203	-1204
993.282	-969
993.361	-1310
993.440	-286
993.519	-1232
993.597	-829
993.676	-1182
993.755	-404
993.834	-1840
993.912	-1291
993.991	-1287
994.069	-1183
994.148	-477
994.226	-1613
994.305	-1719
994.384	-1122
994.462	-468
994.540	-1806
994.619	-1220
994.697	-501
994.776	-1443
994.854	-646
994.932	-1548
995.011	-1110
995.089	-1029
995.167	-930
995.245	-1341
995.324	-2303
995.402	-684
995.480	-1100
995.558	-1091
995.636	-2121
995.714	-805
995.792	-669
995.870	-1208
995.948	-1638
996.026	-802
996.104	-1599
996.182	-917
996.260	-2083
996.338	-804
996.416	-1977
996.494	-2173
996.572	-518
996.649	-1453
996.727	-1661
996.805	-817
996.883	-1530
996.960	-1177
997.038	-1512
997.116	-470
997.193	-1499
997.271	-1154
997.348	-1083
997.426	-1407
997.504	-1724
997.581	-589
997.658	-659
997.736	-1801
997.813	-1529
997.891	-505
997.968	-1879
998.046	-717
998.123	-894
998.200	-932
998.277	-2978
998.355	-874
998.432	-2308
998.509	-1071
998.586	-1987
998.663	-794
998.741	-1155
998.818	-1520
998.895	-2276
998.972	-1524
999.049	-1179
999.126	-1066
999.203	-1130
999.280	-1616
999.357	-1812
999.434	-1895
999.511	-654
999.587	-748
999.664	-1254
999.741	-514
999.818	-1225
999.895	-1919
999.971	-1195
1000.048	-1304
1000.125	-856
1000.202	-1685
1000.278	-711
1000.355	-1690
1000.431	-2266
1000.508	-2269
1000.584	-1532
1000.661	-2505
1000.738	-1383
1000.814	-1192
1000.890	-878
1000.967	-1633
1001.043	-1744
1001.120	-2179
1001.196	-1650
1001.272	-1472
1001.349	-1081
1001.425	-1346
1001.501	-1067
1001.577	-1911
1001.654	-1043
1001.730	-1999
1001.806	-1895
1001.882	-1824
1001.958	-1561
1002.034	-1260
1002.110	-1573
1002.186	-2352
1002.262	-1528
1002.338	-1651
1002.414	-1998
1002.490	-1864
1002.566	-2513
1002.642	-1686
1002.718	-820
1002.794	-1325
1002.870	-989
1002.945	-1684
1003.021	-1774
1003.097	-1902
1003.173	-1227
1003.248	-1936
1003.324	-1093
1003.400	-1258
1003.475	-1414
1003.551	-1769
1003.626	-1550
1003.702	-1385
1003.777	-1901
1003.853	-1831
1003.928	-1576
1004.004	-1698
1004.079	-1008
1004.155	-1926
1004.230	-2744
1004.305	-888
1004.381	-2334
1004.456	-912
1004.531	-1951
1004.607	-1648
1004.682	-2155
1004.757	-1411
1004.832	-1947
1004.907	-2380
1004.982	-1987
1005.057	-1565
1005.133	-2042
1005.208	-2010
1005.283	-1388
1005.358	-1361
1005.433	-2070
1005.508	-1263
1005.583	-1379
1005.657	-2009
1005.732	-603
1005.807	-2000
1005.882	-1116
1005.957	-1930
1006.032	-1698
1006.106	-1682
1006.181	-2625
1006.256	-1832
1006.331	-2033
1006.405	-1234
1006.480	-1889
1006.554	-1761
1006.629	-1286
1006.704	-1220
1006.778	-1426
1006.853	-1023
1006.927	-2049
1007.002	-1617
1007.076	-942
1007.150	-2085
1007.225	-1394
1007.299	-1115
1007.373	-1750
1007.448	-1497
1007.522	-1367
1007.596	-1583
1007.671	-1734
1007.745	-1586
1007.819	-1909
1007.893	-2026
1007.967	-857
1008.041	-2747
1008.115	-745
1008.190	-1972
1008.264	-782
1008.338	-2391
1008.412	-1751
1008.486	-1783
1008.560	-1033
1008.633	-2309
1008.707	-1771
1008.781	-1028
1008.855	-2041
1008.929	-1321
1009.003	-2697
1009.076	-2137
1009.150	-2150
1009.224	-1901
1009.298	-1893
1009.371	-1981
1009.445	-1816
1009.519	-2232
1009.592	-2329
1009.666	-1858
1009.739	-1655
1009.813	-769
1009.886	-1727
1009.960	-2722
1010.033	-1531
1010.107	-1495
1010.180	-2292
1010.253	-1134
1010.327	-1834
1010.400	-1847
1010.473	-1946
1010.547	-838
1010.620	-2069
1010.693	-1762
1010.766	-2225
1010.840	-1008
1010.913	-2250
1010.986	-1851
1011.059	-1539
1011.132	-2501
1011.205	-1764
1011.278	-1790
1011.351	-1619
1011.424	-1988
1011.497	-2197
1011.570	-1753
1011.643	-2240
1011.716	-2028
1011.789	-2162
1011.862	-2035
1011.934	-797
1012.007	-1871
1012.080	-816
1012.153	-1890
1012.225	-864
1012.298	-1792
1012.371	-1697
1012.443	-1239
1012.516	-1436
1012.588	-1466
1012.661	-1005
1012.733	-2181
1012.806	-1551
1012.879	-1323
1012.951	-1830
1013.023	-2026
1013.096	-1423
1013.168	-2132
1013.241	-1176
1013.313	-1691
1013.385	-1809
1013.458	-2325
1013.530	-1381
1013.602	-1991
1013.674	-1061
1013.746	-2577
1013.819	-1975
1013.891	-1742
1013.963	-2023
1014.035	-1847
1014.107	-1366
1014.179	-1905
1014.251	-2044
1014.323	-1707
1014.395	-2283
1014.467	-1604
1014.539	-1219
1014.611	-1751
1014.683	-1008
1014.754	-772
1014.826	-2554
1014.898	-2064
1014.970	-2097
1015.042	-1027
1015.113	-1492
1015.185	-1726
1015.257	-2136
1015.328	-2010
1015.400	-1988
1015.471	-1863
1015.543	-2260
1015.615	-1930
1015.686	-2314
1015.757	-2674
1015.829	-1555
1015.901	-2167
1015.972	-1980
1016.043	-1316
1016.115	-2130
1016.186	-2208
1016.257	-2608
1016.328	-1935
1016.400	-1617
1016.471	-2736
1016.542	-2199
1016.613	-1811
1016.685	-2106
1016.756	-1591
1016.827	-2599
1016.898	-1992
1016.969	-322
1017.040	-1773
1017.111	-1832
1017.182	-2182
1017.253	-1671
1017.324	-2144
1017.395	-2717
1017.466	-1007
1017.537	-1662
1017.608	-2795
1017.678	-1469
1017.749	-1942
1017.820	-1488
1017.891	-2143
1017.961	-1991
1018.032	-1486
1018.103	-1690
1018.173	-2910
1018.244	-1780
1018.315	-2662
1018.385	-2324
1018.456	-1954
1018.526	-2787
1018.597	-2290
1018.667	-1602
1018.738	-2316
1018.808	-1820
1018.878	-1992
1018.949	-2191
1019.019	-2416
1019.089	-1756
1019.160	-2460
1019.230	-2388
1019.300	-2096
1019.371	-2441
1019.441	-1468
1019.511	-1999
1019.581	-2070
1019.651	-2047
1019.721	-1685
1019.791	-2168
1019.861	-1930
1019.931	-2044
1020.001	-1920
1020.071	-1823
1020.141	-1394
1020.211	-1832
1020.281	-1541
1020.351	-1636
1020.421	-2036
1020.491	-1291
1020.560	-2394
1020.630	-2182
1020.700	-2311
1020.770	-2392
1020.839	-3462
1020.909	-2755
1020.979	-2266
1021.048	-1725
1021.118	-2873
1021.187	-1993
1021.257	-2818
1021.326	-2234
1021.396	-2687
1021.465	-1115
1021.535	-2370
1021.604	-1891
1021.674	-2192
1021.743	-1494
1021.812	-1924
1021.882	-2176
1021.951	-2340
1022.020	-2150
1022.089	-1278
1022.159	-2730
1022.228	-1866
1022.297	-1508
1022.366	-3162
1022.435	-2462
1022.504	-1752
1022.573	-2489
1022.642	-1500
1022.711	-2621
1022.781	-2619
1022.849	-1879
1022.918	-1686
1022.987	-2015
1023.056	-1858
1023.125	-2292
1023.194	-1909
1023.263	-1728
1023.331	-2031
1023.400	-2050
1023.469	-2256
1023.538	-1512
1023.606	-2852
1023.675	-2304
1023.744	-2648
1023.812	-2078
1023.881	-1976
1023.949	-2486
1024.018	-2804
1024.086	-2039
1024.155	-1874
1024.223	-2571
1024.292	-2164
1024.360	-2021
1024.429	-1719
1024.497	-2768
1024.565	-1263
1024.634	-2348
1024.702	-2284
1024.770	-1986
1024.838	-2449
1024.907	-1683
1024.975	-2266
1025.043	-1721
1025.111	-3104
1025.179	-2034
1025.247	-2492
1025.315	-2390
1025.383	-2302
1025.451	-1268
1025.519	-1922
1025.587	-1889
1025.655	-2580
1025.723	-2101
1025.791	-2497
1025.859	-1983
1025.927	-2138
1025.995	-2318
1026.062	-2402
1026.130	-2607
1026.198	-1942
1026.266	-2405
1026.333	-2385
1026.401	-1493
1026.469	-1996
1026.536	-1700
1026.604	-2435
1026.671	-2488
1026.739	-2519
1026.806	-2582
1026.874	-2394
1026.941	-1744
1027.009	-1894
1027.076	-2139
1027.144	-1024
1027.211	-1779
1027.278	-2244
1027.345	-1341
1027.413	-2733
1027.480	-2749
1027.547	-1705
1027.614	-2651
1027.682	-1326
1027.749	-2175
1027.816	-2186
1027.883	-2983
1027.950	-2483
1028.017	-3377
1028.084	-1186
1028.151	-2420
1028.218	-2547
1028.285	-2605
1028.352	-2190
1028.419	-2927
1028.486	-2124
1028.553	-2001
1028.619	-2724
1028.686	-2731
1028.753	-2535
1028.820	-1999
1028.886	-2204
1028.953	-2427
1029.020	-2654
1029.086	-3060
1029.153	-2727
1029.220	-2210
1029.286	-2029
1029.353	-2429
1029.419	-2004
1029.486	-1991
1029.552	-3317
1029.619	-1717
1029.685	-2020
1029.751	-2381
1029.818	-1478
1029.884	-1762
1029.951	-1769
1030.017	-2165
1030.083	-2099
1030.149	-1569
1030.216	-3076
1030.282	-2229
1030.348	-2997
1030.414	-2516
1030.480	-2495
1030.546	-2622
1030.612	-2208
1030.678	-2486
1030.744	-2555
1030.810	-1520
1030.876	-2320
1030.942	-2274
1031.008	-2630
1031.074	-2389
1031.140	-2029
1031.206	-2278
1031.272	-2815
1031.337	-2136
1031.403	-2068
1031.469	-2553
1031.534	-2409
1031.600	-2108
1031.666	-2133
1031.731	-2720
1031.797	-1806
1031.863	-2856
1031.928	-2214
1031.994	-2789
1032.059	-2440
1032.125	-2597
1032.190	-2821
1032.256	-2748
1032.321	-2408
1032.386	-2339
1032.452	-1476
1032.517	-2239
1032.582	-2227
1032.647	-2098
1032.713	-2036
1032.778	-2229
1032.843	-1976
1032.908	-2270
1032.974	-2367
1033.039	-2012
1033.104	-2220
1033.169	-2507
1033.234	-2380
1033.299	-1823
1033.364	-2434
1033.429	-2399
1033.494	-1800
1033.559	-2551
1033.624	-2244
1033.688	-1878
1033.753	-2445
1033.818	-1690
1033.883	-2186
1033.948	-2467
1034.013	-2482
1034.077	-2210
1034.142	-2137
1034.207	-1692
1034.271	-1152
1034.336	-122
1034.400	-288
1034.465	-1824
1034.530	-738
1034.594	-1588
1034.658	-1722
1034.723	-2145
1034.787	-2597
1034.852	-2041
1034.916	-2729
1034.981	-2419
1035.045	-1715
1035.109	-2524
1035.173	-1954
1035.238	-2290
1035.302	-2498
1035.366	-1720
1035.430	-2574
1035.495	-2318
1035.559	-2250
1035.623	-2188
1035.687	-3182
1035.751	-2305
1035.815	-1872
1035.879	-2222
1035.943	-2640
1036.007	-2402
1036.071	-1978
1036.135	-2355
1036.198	-2147
1036.262	-2387
1036.326	-1546
1036.390	-1770
1036.454	-1832
1036.517	-2101
1036.581	-3031
1036.645	-2539
1036.709	-2152
1036.772	-1974
1036.836	-1954
1036.900	-2032
1036.963	-2662
1037.026	-2184
1037.090	-1482
1037.154	-2135
1037.217	-2450
1037.280	-2476
1037.344	-2909
1037.407	-2250
1037.471	-2440
1037.534	-2087
1037.597	-2103
1037.661	-1989
1037.724	-2461
1037.787	-2223
1037.850	-2095
1037.913	-2197
1037.977	-1687
1038.040	-2933
1038.103	-2771
1038.166	-1911
1038.229	-2339
1038.292	-1828
1038.355	-2130
1038.418	-2428
1038.481	-1842
1038.544	-2441
1038.607	-2112
1038.670	-2108
1038.732	-2332
1038.795	-1888
1038.858	-2662
1038.921	-2042
1038.984	-1327
1039.046	-2341
1039.109	-2790
1039.172	-1662
1039.234	-2514
1039.297	-2130
1039.360	-1670
1039.422	-2408
1039.485	-2320
1039.547	-2444
1039.610	-2568
1039.672	-2603
1039.734	-2497
1039.797	-2155
1039.859	-2150
1039.922	-2297
1039.984	-2196
1040.046	-2666
1040.109	-2271
1040.171	-3030
1040.233	-2890
1040.295	-2522
1040.358	-3295
1040.420	-2333
1040.482	-2720
1040.544	-2821
1040.606	-2071
1040.668	-2558
1040.730	-2422
1040.792	-2300
1040.854	-2568
1040.916	-2088
1040.978	-1950
1041.040	-2285
1041.102	-2209
1041.164	-2463
1041.225	-2269
1041.287	-2894
1041.349	-2531
1041.411	-2668
1041.472	-2534
1041.534	-1864
1041.596	-2814
1041.657	-2655
1041.719	-2167
1041.781	-2355
1041.842	-2540
1041.904	-2536
1041.965	-1954
1042.027	-2938
1042.088	-1811
1042.150	-2445
1042.211	-2388
1042.272	-1882
1042.334	-2552
1042.395	-2109
1042.456	-2017
1042.518	-2633
1042.579	-1898
1042.640	-1777
1042.701	-1550
1042.763	-1981
1042.824	-2354
1042.885	-2859
1042.946	-2186
1043.007	-1645
1043.068	-2885
1043.129	-2735
1043.190	-2823
1043.251	-2023
1043.312	-1781
1043.373	-1862
1043.434	-2361
1043.495	-2593
1043.556	-2314
1043.616	-2365
1043.677	-2997
1043.738	-1913
1043.799	-2457
1043.859	-2053
1043.920	-2179
1043.981	-2688
1044.041	-1753
1044.102	-2543
1044.162	-2045
1044.223	-2329
1044.284	-1387
1044.344	-2313
1044.405	-2222
1044.465	-2163
1044.525	-1818
1044.586	-1616
1044.646	-3016
1044.707	-1251
1044.767	-2364
1044.827	-2360
1044.887	-1430
1044.948	-2040
1045.008	-2336
1045.068	-1939
1045.128	-2338
1045.188	-2404
1045.249	-1614
1045.309	-1377
1045.369	-1672
1045.429	-1384
1045.489	-2535
1045.549	-1952
1045.609	-1542
1045.669	-2772
1045.729	-2623
1045.789	-1418
1045.848	-2095
1045.908	-1612
1045.968	-1775
1046.028	-1701
1046.088	-1486
1046.147	-1820
1046.207	-1825
1046.267	-1520
1046.326	-1528
1046.386	-1485
1046.446	-1146
1046.505	-1350
1046.565	-1153
1046.624	-1589
1046.684	-1562
1046.743	-534
1046.803	-342
1046.862	-596
1046.922	0
