'Start Wavelength	183.907
'End Wavelength	1046.922
'Gate Delay	5.000
'Gate Width (ms)	1.050
'Laser Output Level	0.000
'X Position	0.000
'Y Position	0.000
'Z Position	0.000
'Grid Point Number	1.000
'Shot Number	100.000
183.907	129.000
183.977	278.000
184.047	165
184.116	298
184.186	-132
184.256	752
184.325	-160
184.395	890
184.465	578
184.534	596
184.604	-502
184.674	474
184.743	373
184.813	259
184.883	-509
184.952	431
185.022	567
185.092	485
185.161	854
185.231	207
185.301	-127
185.370	1113
185.440	-361
185.509	527
185.579	-304
185.649	249
185.718	752
185.788	445
185.857	104
185.927	278
185.996	526
186.066	-488
186.136	1080
186.205	726
186.275	109
186.344	-119
186.414	75
186.483	270
186.553	750
186.622	1124
186.692	531
186.761	828
186.831	488
186.900	179
186.970	-94
187.039	1156
187.109	1111
187.178	558
187.248	93
187.317	699
187.387	163
187.456	-42
187.526	663
187.595	1194
187.664	362
187.734	838
187.803	575
187.873	757
187.942	927
188.012	1009
188.081	451
188.150	841
188.220	621
188.289	784
188.358	506
188.428	202
188.497	162
188.567	576
188.636	-154
188.705	630
188.775	369
188.844	514
188.913	209
188.983	313
189.052	462
189.121	405
189.191	140
189.260	1325
189.329	675
189.399	637
189.468	411
189.537	1426
189.606	424
189.676	902
189.745	522
189.814	705
189.883	653
189.953	911
190.022	1018
190.091	3528
190.161	2828
190.230	1236
190.299	279
190.368	544
190.437	729
190.507	594
190.576	312
190.645	818
190.714	59
190.783	-709
190.853	488
190.922	1119
190.991	504
191.060	741
191.129	467
191.198	825
191.268	-578
191.337	307
191.406	761
191.475	1025
191.544	583
191.613	1019
191.682	207
191.752	102
191.821	1721
191.890	936
191.959	233
192.028	991
192.097	686
192.166	437
192.235	-537
192.304	881
192.373	444
192.442	868
192.511	695
192.580	793
192.650	258
192.719	579
192.788	997
192.857	1042
192.926	1094
192.995	329
193.064	1170
193.133	1306
193.202	956
193.271	1481
193.340	1056
193.409	1161
193.478	1575
193.547	1710
193.615	1694
193.684	2300
193.753	1446
193.822	1361
193.891	787
193.960	499
194.029	734
194.098	1303
194.167	-68
194.236	1126
194.305	932
194.374	758
194.443	1295
194.512	776
194.580	912
194.649	1292
194.718	555
194.787	1387
194.856	900
194.925	893
194.994	26
195.062	1528
195.131	1065
195.200	1385
195.269	1104
195.338	865
195.407	769
195.475	763
195.544	933
195.613	546
195.682	1405
195.751	1030
195.819	1279
195.888	720
195.957	1783
196.026	914
196.094	1588
196.163	1371
196.232	1531
196.301	1189
196.369	1578
196.438	1376
196.507	807
196.576	1070
196.644	1326
196.713	1203
196.782	626
196.850	750
196.919	938
196.988	695
197.056	796
197.125	829
197.194	520
197.262	789
197.331	527
197.400	797
197.468	335
197.537	1311
197.606	896
197.674	2568
197.743	3267
197.812	1845
197.880	2407
197.949	2143
198.017	3158
198.086	2524
198.155	1380
198.223	2206
198.292	4234
198.360	2640
198.429	1167
198.497	1857
198.566	2004
198.635	3781
198.703	1911
198.772	2255
198.840	5404
198.909	5025
198.977	1400
199.046	1786
199.114	1657
199.183	1121
199.251	1692
199.320	1997
199.388	843
199.457	1010
199.525	611
199.594	1355
199.662	665
199.731	828
199.799	910
199.867	1168
199.936	1133
200.004	1733
200.073	454
200.141	1168
200.210	830
200.278	1033
200.346	2025
200.415	1470
200.483	1381
200.552	1522
200.620	194
200.688	257
200.757	774
200.825	1586
200.893	1308
200.962	1364
201.030	534
201.098	1446
201.167	1329
201.235	1489
201.303	1227
201.372	907
201.440	1867
201.508	1497
201.577	1222
201.645	939
201.713	853
201.781	1565
201.850	1411
201.918	818
201.986	1724
202.055	1931
202.123	528
202.191	844
202.259	1134
202.327	1670
202.396	1317
202.464	1288
202.532	1794
202.600	4176
202.669	1715
202.737	1669
202.805	1485
202.873	1286
202.941	1058
203.009	1526
203.078	1371
203.146	1626
203.214	1454
203.282	343
203.350	566
203.418	1211
203.487	679
203.555	1340
203.623	1498
203.691	1164
203.759	831
203.827	1014
203.895	675
203.963	1162
204.031	1118
204.099	1165
204.168	1119
204.236	1723
204.304	1425
204.372	1563
204.440	1165
204.508	863
204.576	875
204.644	1476
204.712	1040
204.780	1610
204.848	956
204.916	509
204.984	1124
205.052	1300
205.120	1509
205.188	1713
205.256	1135
205.324	1156
205.392	1539
205.460	2807
205.528	1170
205.596	1430
205.664	995
205.732	1875
205.799	4702
205.867	6854
205.935	2680
206.003	3008
206.071	2188
206.139	1825
206.207	1693
206.275	2077
206.343	1664
206.411	1105
206.478	2252
206.546	1300
206.614	1212
206.682	1721
206.750	1071
206.818	1873
206.885	1878
206.953	1002
207.021	1914
207.089	1993
207.157	1034
207.225	1585
207.292	1360
207.360	1523
207.428	1033
207.496	522
207.563	888
207.631	1497
207.699	1907
207.767	1113
207.834	1085
207.902	1812
207.970	1807
208.038	1444
208.105	1663
208.173	1913
208.241	2285
208.309	3251
208.376	2319
208.444	4111
208.512	2043
208.579	1607
208.647	2126
208.715	2261
208.782	2161
208.850	1529
208.918	1854
208.985	2392
209.053	1803
209.120	2118
209.188	1301
209.256	1721
209.323	1642
209.391	2453
209.459	2522
209.526	1699
209.594	989
209.661	1522
209.729	2519
209.796	1846
209.864	1280
209.932	1370
209.999	2396
210.067	2424
210.134	1511
210.202	3120
210.269	2812
210.337	3021
210.404	1413
210.472	2469
210.539	2198
210.607	2342
210.674	2775
210.742	2062
210.809	2580
210.877	2692
210.944	2929
211.012	2007
211.079	2650
211.146	1980
211.214	2076
211.281	2659
211.349	2908
211.416	2829
211.484	2084
211.551	1962
211.618	2139
211.686	2716
211.753	1616
211.821	2214
211.888	1837
211.955	2737
212.023	2407
212.090	2419
212.157	2688
212.225	3628
212.292	5174
212.359	10875
212.427	24343
212.494	10717
212.561	4470
212.629	4227
212.696	2779
212.763	2783
212.831	2518
212.898	2781
212.965	2493
213.032	2306
213.100	2470
213.167	3312
213.234	2914
213.301	2439
213.369	2613
213.436	1873
213.503	2479
213.570	2930
213.638	2913
213.705	2989
213.772	1913
213.839	3143
213.906	3371
213.973	3315
214.041	2901
214.108	2954
214.175	2222
214.242	2281
214.309	2893
214.376	3130
214.444	1864
214.511	2876
214.578	2495
214.645	3709
214.712	2610
214.779	3153
214.846	2507
214.913	3777
214.980	2948
215.048	3507
215.115	3712
215.182	2872
215.249	2415
215.316	2278
215.383	2162
215.450	3232
215.517	2552
215.584	2869
215.651	1935
215.718	2616
215.785	2817
215.852	2648
215.919	3173
215.986	2727
216.053	2377
216.120	2189
216.187	3028
216.254	3402
216.321	3316
216.388	2095
216.455	3199
216.522	3686
216.589	3361
216.656	6006
216.722	5442
216.789	4318
216.856	4038
216.923	3721
216.990	3612
217.057	4123
217.124	4557
217.191	3860
217.258	4916
217.324	4477
217.391	3933
217.458	4552
217.525	3839
217.592	3488
217.659	3253
217.725	4179
217.792	4405
217.859	4665
217.926	2431
217.993	3236
218.059	2674
218.126	2729
218.193	2644
218.260	2885
218.327	1974
218.393	3373
218.460	2948
218.527	2891
218.594	2858
218.660	4088
218.727	4671
218.794	2676
218.860	2749
218.927	2152
218.994	2730
219.061	2585
219.127	3351
219.194	4372
219.261	2487
219.327	2168
219.394	2552
219.461	1847
219.527	3037
219.594	3184
219.661	3236
219.727	1325
219.794	2831
219.860	2461
219.927	3233
219.994	3753
220.060	5249
220.127	4578
220.193	3676
220.260	4456
220.326	4805
220.393	7111
220.460	8572
220.526	6252
220.593	5257
220.659	5456
220.726	6656
220.792	13127
220.859	9908
220.925	11790
220.992	12809
221.058	16810
221.125	17063
221.191	11648
221.258	5667
221.324	4471
221.391	4736
221.457	3394
221.524	4060
221.590	5943
221.657	16473
221.723	10317
221.789	9871
221.856	7899
221.922	5480
221.989	4305
222.055	3682
222.121	3600
222.188	4554
222.254	2998
222.321	3362
222.387	2574
222.453	2342
222.520	2522
222.586	2403
222.652	2627
222.719	2999
222.785	2758
222.851	2234
222.918	2195
222.984	2779
223.050	2727
223.116	2093
223.183	3515
223.249	1832
223.315	2186
223.382	1869
223.448	2370
223.514	1685
223.580	2786
223.647	2015
223.713	2390
223.779	2160
223.845	2690
223.911	2342
223.978	2680
224.044	2491
224.110	2247
224.176	2343
224.242	2751
224.309	1517
224.375	2568
224.441	1273
224.507	2267
224.573	2610
224.639	2158
224.705	1645
224.772	1819
224.838	1894
224.904	2848
224.970	2121
225.036	1973
225.102	1901
225.168	2579
225.234	2408
225.300	2505
225.366	2596
225.432	2988
225.499	2291
225.565	2665
225.631	2567
225.697	3232
225.763	3260
225.829	3777
225.895	4250
225.961	5710
226.027	5030
226.093	4623
226.159	6728
226.225	9277
226.291	16590
226.357	20723
226.423	12572
226.489	8359
226.554	6181
226.620	6900
226.686	8039
226.752	11644
226.818	17393
226.884	29052
226.950	22358
227.016	11795
227.082	7711
227.148	6471
227.214	5767
227.279	5132
227.345	4460
227.411	3956
227.477	3699
227.543	4451
227.609	5138
227.674	4565
227.740	3615
227.806	3249
227.872	3453
227.938	3451
228.003	4730
228.069	3858
228.135	1842
228.201	2505
228.267	3383
228.332	3637
228.398	3536
228.464	3010
228.530	2683
228.595	2301
228.661	2214
228.727	4183
228.792	3497
228.858	2757
228.924	2489
228.990	4347
229.055	3518
229.121	3506
229.187	2622
229.252	3319
229.318	2952
229.384	2582
229.449	2605
229.515	2043
229.581	1239
229.646	3527
229.712	2765
229.777	6105
229.843	6117
229.909	4839
229.974	4722
230.040	4893
230.105	3218
230.171	4444
230.236	5844
230.302	6795
230.368	5128
230.433	5178
230.499	3813
230.564	4757
230.630	3469
230.695	3543
230.761	3906
230.826	3000
230.892	4632
230.957	3187
231.023	3837
231.088	3424
231.154	3394
231.219	3132
231.284	3604
231.350	4362
231.415	2689
231.481	2834
231.546	2593
231.612	3456
231.677	2081
231.742	2235
231.808	3152
231.873	2262
231.939	1644
232.004	4649
232.069	4625
232.135	3524
232.200	3051
232.265	2675
232.331	2567
232.396	2497
232.461	2481
232.527	2860
232.592	1611
232.657	2391
232.723	4400
232.788	3704
232.853	2703
232.918	2446
232.984	1869
233.049	2165
233.114	4115
233.179	3710
233.245	5936
233.310	6471
233.375	1871
233.440	3039
233.506	2263
233.571	2838
233.636	2190
233.701	3148
233.766	4563
233.832	4224
233.897	2782
233.962	2239
234.027	2804
234.092	2686
234.157	2954
234.222	2891
234.288	5294
234.353	13570
234.418	9835
234.483	6442
234.548	4881
234.613	4227
234.678	4661
234.743	5156
234.808	12689
234.873	7077
234.938	3946
235.004	3945
235.069	4095
235.134	3491
235.199	3885
235.264	3708
235.329	3800
235.394	3838
235.459	4428
235.524	4726
235.589	4051
235.654	4135
235.719	2728
235.784	3730
235.849	4564
235.913	6760
235.978	7727
236.043	7326
236.108	4027
236.173	4735
236.238	4506
236.303	4204
236.368	3714
236.433	6344
236.498	9658
236.563	8883
236.627	17246
236.692	43079
236.757	31805
236.822	16783
236.887	11192
236.952	10014
237.017	7825
237.081	9129
237.146	11298
237.211	24019
237.276	47509
237.341	60992
237.405	30991
237.470	16046
237.535	11415
237.600	8408
237.664	7096
237.729	5949
237.794	7011
237.859	12992
237.923	9068
237.988	6265
238.053	8022
238.118	8565
238.182	21730
238.247	15051
238.312	7423
238.376	5929
238.441	4994
238.506	5873
238.570	3706
238.635	4342
238.700	4024
238.764	3520
238.829	9490
238.893	9593
238.958	5425
239.023	5715
239.087	3482
239.152	4912
239.216	3181
239.281	3748
239.346	3245
239.410	3844
239.475	5276
239.539	19519
239.604	11613
239.668	5343
239.733	3038
239.797	3531
239.862	7413
239.926	11814
239.991	6079
240.055	4438
240.120	3357
240.184	3274
240.249	2886
240.313	3121
240.378	3729
240.442	11531
240.507	14561
240.571	5457
240.635	8316
240.700	8654
240.764	3331
240.829	3155
240.893	1902
240.957	3470
241.022	10333
241.086	14387
241.151	6591
241.215	3262
241.279	5720
241.344	8774
241.408	6106
241.472	4563
241.537	4717
241.601	4911
241.665	4472
241.730	5572
241.794	5155
241.858	4425
241.922	4598
241.987	4454
242.051	3987
242.115	4273
242.179	5022
242.244	3887
242.308	4448
242.372	5611
242.436	4730
242.501	4715
242.565	4577
242.629	3851
242.693	4191
242.757	3739
242.822	4304
242.886	4235
242.950	4593
243.014	4717
243.078	4869
243.142	4911
243.206	4296
243.271	5963
243.335	5838
243.399	10277
243.463	34722
243.527	62697
243.591	17990
243.655	8296
243.719	6337
243.783	6733
243.847	10325
243.911	10889
243.975	11970
244.040	7315
244.104	5976
244.168	4616
244.232	6785
244.296	9356
244.360	10172
244.424	5685
244.488	4606
244.552	4864
244.615	3825
244.679	3998
244.743	5365
244.807	4715
244.871	3987
244.935	4219
244.999	3453
245.063	3882
245.127	4804
245.191	7829
245.255	6943
245.319	6268
245.383	3889
245.446	4836
245.510	2849
245.574	4200
245.638	4304
245.702	4340
245.766	8750
245.829	7140
245.893	5662
245.957	4404
246.021	5056
246.085	4704
246.149	6545
246.212	14504
246.276	17347
246.340	8812
246.404	6382
246.467	7877
246.531	8379
246.595	6516
246.659	5497
246.722	4902
246.786	6246
246.850	6947
246.913	7343
246.977	4443
247.041	5340
247.104	5161
247.168	6148
247.232	13358
247.295	26384
247.359	11160
247.423	6384
247.486	10480
247.550	6147
247.614	5410
247.677	6827
247.741	5009
247.804	4836
247.868	6176
247.932	13367
247.995	23346
248.059	9264
248.122	5887
248.186	8626
248.249	14370
248.313	46149
248.376	38283
248.440	24091
248.503	10570
248.567	9963
248.630	12394
248.694	14981
248.757	23316
248.821	45646
248.884	23538
248.948	24907
249.011	34410
249.075	51739
249.138	37212
249.202	15626
249.265	12405
249.328	14338
249.392	10242
249.455	8430
249.519	8070
249.582	9612
249.645	13754
249.709	10120
249.772	9793
249.835	8531
249.899	8621
249.962	7830
250.025	7767
250.089	19717
250.152	19573
250.215	10346
250.279	9429
250.342	9317
250.405	9304
250.468	9447
250.532	11823
250.595	20962
250.658	81518
250.721	98390
250.785	34628
250.848	19345
250.911	13056
250.974	13106
251.038	18292
251.101	27602
251.164	15923
251.227	16065
251.290	16397
251.354	29397
251.417	105634
251.480	82728
251.543	75463
251.606	175261
251.669	108912
251.732	48380
251.795	45926
251.859	50578
251.922	110396
251.985	53144
252.048	24635
252.111	18117
252.174	17752
252.237	29993
252.300	55360
252.363	72444
252.426	125007
252.489	47216
252.552	26009
252.615	19247
252.678	22485
252.741	47210
252.804	72783
252.867	132809
252.930	65894
252.993	34735
253.056	21092
253.119	16643
253.182	14609
253.245	21680
253.308	16186
253.371	14630
253.434	11457
253.497	13179
253.559	23668
253.622	14428
253.685	18643
253.748	14996
253.811	9522
253.874	13278
253.937	11077
254.000	9726
254.062	18629
254.125	23543
254.188	22988
254.251	15594
254.314	9930
254.376	16742
254.439	15689
254.502	12561
254.565	19026
254.628	26104
254.690	13521
254.753	8119
254.816	7545
254.878	8569
254.941	19596
255.004	15363
255.067	8208
255.129	7732
255.192	4722
255.255	4265
255.317	5645
255.380	4046
255.443	3599
255.505	2720
255.568	3652
255.631	3583
255.693	4587
255.756	2744
255.819	4997
255.881	3869
255.944	3948
256.006	3589
256.069	3246
256.132	3685
256.194	6833
256.257	13070
256.319	10251
256.382	7878
256.444	7209
256.507	5784
256.569	7137
256.632	6681
256.694	10827
256.757	31182
256.819	66280
256.882	26319
256.944	12838
257.007	10296
257.069	9851
257.132	6956
257.194	6982
257.257	6378
257.319	6662
257.381	9426
257.444	25295
257.506	85611
257.569	72724
257.631	31852
257.693	19304
257.756	10601
257.818	9215
257.880	6929
257.943	7331
258.005	5806
258.067	4643
258.130	5503
258.192	6401
258.254	10406
258.317	6060
258.379	5642
258.441	14312
258.503	10972
258.566	19806
258.628	17921
258.690	6318
258.753	7404
258.815	9737
258.877	6615
258.939	5650
259.001	6027
259.064	5863
259.126	6683
259.188	8699
259.250	6081
259.312	8252
259.375	12931
259.437	8218
259.499	5534
259.561	5053
259.623	5397
259.685	5735
259.747	6293
259.809	19892
259.872	27162
259.934	50020
259.996	33123
260.058	11794
260.120	6264
260.182	6096
260.244	5301
260.306	4416
260.368	5124
260.430	5132
260.492	10935
260.554	15288
260.616	10476
260.678	24793
260.740	23838
260.802	8267
260.864	7122
260.926	4534
260.988	6115
261.050	6865
261.112	16246
261.174	36151
261.236	19957
261.298	8713
261.359	14215
261.421	15774
261.483	6134
261.545	5667
261.607	3739
261.669	5358
261.731	9988
261.793	17073
261.854	7371
261.916	5626
261.978	5910
262.040	6512
262.102	5446
262.164	8099
262.225	5287
262.287	4958
262.349	10502
262.411	7889
262.472	5546
262.534	10238
262.596	13854
262.658	5361
262.719	4664
262.781	8109
262.843	14915
262.904	7238
262.966	6635
263.028	9716
263.090	49523
263.151	85964
263.213	26139
263.275	14016
263.336	7357
263.398	5897
263.459	4606
263.521	5015
263.583	10767
263.644	6410
263.706	3521
263.767	3392
263.829	2790
263.891	2492
263.952	2305
264.014	2707
264.075	9310
264.137	15257
264.198	6504
264.260	2826
264.321	3834
264.383	12465
264.444	22321
264.506	7269
264.567	5019
264.629	12663
264.690	18803
264.752	8252
264.813	5650
264.875	3602
264.936	4966
264.998	3396
265.059	3338
265.120	4935
265.182	9566
265.243	38697
265.305	31051
265.366	9475
265.427	5564
265.489	5408
265.550	2949
265.611	4712
265.673	3719
265.734	4265
265.795	3475
265.857	3725
265.918	4838
265.979	15034
266.040	62534
266.102	42069
266.163	14577
266.224	10047
266.286	6842
266.347	4818
266.408	4708
266.469	5509
266.530	3016
266.592	3297
266.653	7024
266.714	10191
266.775	3683
266.836	3019
266.898	3124
266.959	6580
267.020	4139
267.081	4444
267.142	3471
267.203	3674
267.264	1965
267.326	4275
267.387	3563
267.448	2211
267.509	3933
267.570	4249
267.631	3437
267.692	2227
267.753	3911
267.814	3049
267.875	9234
267.936	14451
267.997	10679
268.058	8619
268.119	5308
268.180	4823
268.241	3183
268.302	3147
268.363	2808
268.424	3204
268.485	4065
268.546	2621
268.607	2793
268.668	2300
268.729	2171
268.790	2606
268.851	4274
268.912	9540
268.972	8586
269.033	5998
269.094	2846
269.155	3544
269.216	2611
269.277	3246
269.338	2904
269.398	4253
269.459	3059
269.520	6298
269.581	5998
269.642	6729
269.702	4429
269.763	5141
269.824	4530
269.885	5343
269.945	7029
270.006	3421
270.067	3108
270.128	3639
270.188	3130
270.249	3963
270.310	2346
270.370	3454
270.431	3076
270.492	2878
270.553	4233
270.613	7190
270.674	12644
270.734	4954
270.795	3987
270.856	5508
270.916	3933
270.977	4226
271.038	4309
271.098	5021
271.159	7479
271.219	5654
271.280	3182
271.340	3393
271.401	5197
271.462	9368
271.522	4729
271.583	4139
271.643	3681
271.704	3462
271.764	4687
271.825	12382
271.885	42863
271.946	44030
272.006	15854
272.066	27995
272.127	34817
272.187	10720
272.248	7277
272.308	9407
272.369	25713
272.429	11742
272.489	10943
272.550	9063
272.610	10591
272.671	6600
272.731	9385
272.791	11788
272.852	5996
272.912	5884
272.972	4275
273.033	4733
273.093	6006
273.153	6569
273.214	5271
273.274	6483
273.334	23970
273.394	31214
273.455	11215
273.515	15258
273.575	26614
273.635	10604
273.696	18381
273.756	30651
273.816	11084
273.876	8290
273.936	20407
273.997	25477
274.057	7452
274.117	7005
274.177	12440
274.237	45681
274.297	30751
274.358	21789
274.418	26022
274.478	17036
274.538	7524
274.598	8051
274.658	24093
274.718	25277
274.778	9300
274.838	6858
274.898	17286
274.958	37679
275.018	36159
275.078	19593
275.138	9320
275.198	6071
275.258	4252
275.318	6427
275.378	10322
275.438	11014
275.498	7323
275.558	23619
275.618	36808
275.678	19583
275.738	14001
275.798	11365
275.858	7661
275.918	5243
275.978	5867
276.038	4999
276.098	4583
276.157	10253
276.217	19451
276.277	9595
276.337	7407
276.397	4765
276.457	5421
276.517	4726
276.576	3671
276.636	2583
276.696	6437
276.756	15194
276.815	8716
276.875	4835
276.935	5924
276.995	6350
277.055	3858
277.114	4217
277.174	7444
277.234	16598
277.293	6388
277.353	5668
277.413	3728
277.472	5022
277.532	4212
277.592	5102
277.651	14592
277.711	19104
277.771	8880
277.830	29683
277.890	19190
277.950	21586
278.009	45721
278.069	15641
278.128	18755
278.188	20386
278.248	11606
278.307	24438
278.367	12193
278.426	6277
278.486	4830
278.545	4400
278.605	4855
278.664	4230
278.724	6124
278.783	17792
278.843	30892
278.902	9630
278.962	6952
279.021	8246
279.081	10464
279.140	9625
279.199	8420
279.259	7328
279.318	6378
279.378	10507
279.437	21133
279.496	65941
279.556	171629
279.615	99955
279.675	29685
279.734	19737
279.793	33218
279.853	41633
279.912	15726
279.971	10992
280.031	9452
280.090	19461
280.149	26248
280.208	28770
280.268	125902
280.327	89444
280.386	23384
280.445	19665
280.505	14934
280.564	10654
280.623	8803
280.682	12307
280.742	14801
280.801	6397
280.860	4880
280.919	5406
280.978	4640
281.037	3940
281.097	3955
281.156	3374
281.215	4083
281.274	6730
281.333	22937
281.392	12717
281.451	4422
281.510	4326
281.569	3795
281.628	4242
281.688	3306
281.747	4609
281.806	4634
281.865	3118
281.924	2822
281.983	3227
282.042	2555
282.101	2700
282.160	3457
282.219	3025
282.278	3755
282.337	11622
282.396	6433
282.454	4944
282.513	5417
282.572	18129
282.631	8551
282.690	4108
282.749	3146
282.808	5763
282.867	4432
282.926	4168
282.985	2640
283.043	2368
283.102	3706
283.161	4818
283.220	11769
283.279	17333
283.338	5865
283.396	4112
283.455	3614
283.514	4244
283.573	7323
283.631	5905
283.690	4036
283.749	4247
283.808	8597
283.866	8872
283.925	3285
283.984	4145
284.043	5775
284.101	5998
284.160	3042
284.219	6274
284.277	5809
284.336	9092
284.395	24598
284.453	16790
284.512	7691
284.570	10435
284.629	7741
284.688	7435
284.746	6635
284.805	8543
284.863	10615
284.922	12997
284.981	15854
285.039	23910
285.098	45796
285.156	108784
285.215	218550
285.273	182706
285.332	94459
285.390	52297
285.449	34251
285.507	23667
285.566	17629
285.624	14262
285.683	10904
285.741	9437
285.799	8401
285.858	6915
285.916	6095
285.975	5646
286.033	4792
286.091	4944
286.150	3650
286.208	4414
286.267	5571
286.325	5409
286.383	7959
286.442	5686
286.500	4438
286.558	4032
286.616	3975
286.675	5789
286.733	4223
286.791	4662
286.850	5336
286.908	7943
286.966	9613
287.024	4862
287.083	4463
287.141	3759
287.199	4870
287.257	6933
287.315	4777
287.374	5983
287.432	13260
287.490	7702
287.548	5171
287.606	5185
287.664	5217
287.723	6507
287.781	8003
287.839	6373
287.897	7311
287.955	10131
288.013	18821
288.071	47063
288.129	161125
288.187	306514
288.245	137619
288.303	52174
288.361	29480
288.419	21392
288.477	16628
288.535	11852
288.593	9278
288.651	6907
288.709	5453
288.767	5349
288.825	4582
288.883	4493
288.941	4297
288.999	4360
289.057	4094
289.115	3968
289.173	4160
289.231	4478
289.289	3284
289.346	4056
289.404	4396
289.462	6731
289.520	6576
289.578	4021
289.636	2576
289.694	3343
289.751	3752
289.809	3014
289.867	3340
289.925	4751
289.983	3705
290.040	3415
290.098	2599
290.156	4198
290.214	4098
290.271	3374
290.329	2351
290.387	3077
290.444	2776
290.502	2728
290.560	3048
290.617	3550
290.675	2598
290.733	2511
290.790	2770
290.848	2551
290.906	2667
290.963	3755
291.021	3039
291.078	3900
291.136	3963
291.194	13937
291.251	19821
291.309	6407
291.366	3476
291.424	3121
291.481	3059
291.539	3275
291.596	3001
291.654	2491
291.711	2464
291.769	3275
291.826	6191
291.884	4550
291.941	2342
291.999	3065
292.056	3208
292.114	3667
292.171	3046
292.228	3199
292.286	3550
292.343	6757
292.401	7502
292.458	4546
292.515	3837
292.573	4308
292.630	3847
292.687	3964
292.745	4114
292.802	6959
292.859	14804
292.917	22414
292.974	10669
293.031	4980
293.089	3484
293.146	4054
293.203	3669
293.260	2890
293.318	3934
293.375	6653
293.432	4409
293.489	3609
293.546	2999
293.604	6757
293.661	19015
293.718	38474
293.775	17302
293.832	8756
293.889	6153
293.947	6027
294.004	4978
294.061	6404
294.118	12382
294.175	25084
294.232	30070
294.289	12376
294.346	7796
294.403	9123
294.460	5705
294.517	4604
294.574	4542
294.631	4802
294.688	6337
294.745	16591
294.802	48216
294.859	46518
294.916	18308
294.973	9913
295.030	7407
295.087	6975
295.144	5339
295.201	5345
295.258	5074
295.315	6959
295.372	19495
295.429	28982
295.486	13118
295.542	10348
295.599	27364
295.656	38127
295.713	25631
295.770	28028
295.827	11197
295.883	7465
295.940	6581
295.997	10311
296.054	8234
296.111	4959
296.167	4903
296.224	3683
296.281	4063
296.338	3409
296.394	4174
296.451	5954
296.508	15527
296.564	23344
296.621	19996
296.678	43140
296.734	49225
296.791	19207
296.848	10978
296.904	12491
296.961	22533
297.018	33942
297.074	21822
297.131	10846
297.187	8591
297.244	13458
297.301	39587
297.357	55008
297.414	20076
297.470	10005
297.527	7416
297.583	5688
297.640	6313
297.696	5349
297.753	4012
297.809	4076
297.866	2550
297.922	4367
297.979	3193
298.035	5067
298.092	8164
298.148	19688
298.204	16510
298.261	11316
298.317	21513
298.374	46469
298.430	23567
298.486	12482
298.543	9445
298.599	9217
298.656	11200
298.712	18534
298.768	39852
298.824	26944
298.881	10212
298.937	6859
298.993	5720
299.050	7153
299.106	5885
299.162	5343
299.218	5573
299.275	5463
299.331	6761
299.387	14299
299.443	40177
299.500	33196
299.556	12841
299.612	7429
299.668	7013
299.724	6055
299.780	6048
299.837	5428
299.893	10442
299.949	29305
300.005	30991
300.061	32224
300.117	49104
300.173	23151
300.229	12068
300.285	13501
300.341	13926
300.397	8173
300.453	5692
300.510	6344
300.566	5342
300.622	5920
300.678	11298
300.734	22733
300.790	27630
300.845	33688
300.901	20391
300.957	26748
301.013	19559
301.069	8911
301.125	7453
301.181	7779
301.237	5715
301.293	4276
301.349	4187
301.405	4414
301.461	5390
301.516	6947
301.572	6737
301.628	9985
301.684	9335
301.740	14228
301.796	19899
301.851	15390
301.907	24636
301.963	26995
302.019	49268
302.074	111856
302.130	99876
302.186	47340
302.242	20511
302.297	14690
302.353	14623
302.409	23274
302.464	19450
302.520	19201
302.576	37964
302.631	40401
302.687	22830
302.743	10628
302.798	6887
302.854	6739
302.910	6954
302.965	9181
303.021	13732
303.076	12275
303.132	14828
303.187	15856
303.243	8820
303.299	6236
303.354	5399
303.410	6236
303.465	4769
303.521	5392
303.576	5433
303.632	8129
303.687	15584
303.743	35390
303.798	26844
303.853	12061
303.909	7409
303.964	7282
304.020	10676
304.075	14997
304.130	13438
304.186	21204
304.241	20105
304.297	16697
304.352	9835
304.358	9482
304.407	6613
304.449	6477
304.463	6436
304.518	6282
304.539	6300
304.573	6334
304.629	7529
304.630	7641
304.684	13046
304.720	23919
304.739	29453
304.794	38603
304.811	33474
304.850	20439
304.902	10312
304.905	9701
304.960	8077
304.992	7934
305.015	7848
305.071	8302
305.083	7840
305.126	6101
305.173	5142
305.181	4998
305.236	4454
305.264	4727
305.292	5059
305.347	5807
305.354	5959
305.402	6983
305.445	7984
305.457	8257
305.512	9590
305.535	9394
305.567	9016
305.622	10176
305.626	10541
305.678	19693
305.716	35103
305.733	40537
305.788	42308
305.807	38029
305.843	30162
305.897	38223
305.898	38310
305.953	35937
305.988	25692
306.008	19794
306.063	12660
306.078	11102
306.118	8202
306.168	6097
306.173	5932
306.228	4989
306.259	4819
306.283	4795
306.338	5147
306.349	5321
306.393	6413
306.440	7672
306.448	7796
306.503	7649
306.530	8134
306.558	10839
306.613	21914
306.620	23387
306.668	31615
306.711	38388
306.723	38635
306.778	28604
306.801	22889
306.833	16066
306.888	8822
306.892	8452
306.943	6473
306.982	6094
306.997	6113
307.052	5858
307.072	5925
307.107	6878
307.162	9956
307.163	9994
307.217	15534
307.253	18442
307.272	18717
307.327	19105
307.343	18276
307.381	15580
307.434	13093
307.436	13486
307.491	26461
307.524	37039
307.546	39151
307.600	36374
307.614	33392
307.655	21904
307.704	12580
307.710	12515
307.765	15350
307.795	18359
307.819	23500
307.874	38667
307.885	39784
307.929	31448
307.975	24091
307.984	24891
308.038	35479
308.065	44971
308.093	74690
308.148	150360
308.156	165181
308.202	265180
308.246	331063
308.257	316889
308.312	179614
308.336	123523
308.366	93811
308.421	54187
308.426	50848
308.475	34282
308.517	24178
308.530	22515
308.585	19282
308.607	18253
308.639	18621
308.694	19863
308.697	20081
308.748	36469
308.787	51159
308.803	50546
308.857	40609
308.877	36481
308.912	31473
308.967	26553
308.967	26490
309.021	34938
309.058	43239
309.076	54544
309.130	96175
309.148	112999
309.185	209398
309.238	367780
309.239	369709
309.293	422063
309.328	419384
309.348	360052
309.402	178778
309.418	130371
309.457	91277
309.508	51285
309.511	50291
309.566	39627
309.598	34303
309.620	34616
309.674	37561
309.688	38550
309.729	37296
309.778	33999
309.783	33417
309.837	26997
309.868	23909
309.892	27840
309.946	38621
309.959	42022
310.001	56747
310.049	70421
310.055	68134
310.109	41744
310.139	27265
310.163	22286
310.218	14040
310.229	12479
310.272	10483
310.319	9131
310.326	9103
310.381	9033
310.409	9015
310.435	8627
310.489	7772
310.499	7667
310.543	8498
310.589	9312
310.598	9370
310.652	9802
310.679	9843
310.706	8523
310.760	5969
310.769	5536
310.814	4659
310.859	4122
310.868	4226
310.923	4621
310.948	4966
310.977	5721
311.031	7107
311.038	7280
311.085	6768
311.128	6212
311.139	6124
311.193	5710
311.218	5516
311.247	5242
311.301	4649
311.308	4583
311.356	5114
311.398	5606
311.410	5498
311.464	4935
311.488	4704
311.518	4887
311.572	5096
311.578	5133
311.626	6476
311.668	7668
311.680	7925
311.734	8906
311.758	9347
311.788	9282
311.842	9147
311.847	9118
311.896	11316
311.937	13275
311.950	13411
312.004	13860
312.027	14003
312.058	11462
312.112	6914
312.117	6458
312.165	5649
312.207	4963
312.297	8416
312.386	7894
312.476	6726
312.566	12713
312.656	6985
312.745	4553
312.835	6316
312.925	6604
313.015	6218
313.104	8641
313.194	5471
313.284	5291
313.374	6351
313.463	6311
313.553	5513
313.643	4631
313.732	3795
313.822	3701
313.912	4950
314.001	5584
314.091	6309
314.180	9339
314.270	7689
314.360	9082
314.449	8558
314.539	5135
314.628	4822
314.718	5329
314.808	8884
314.897	5185
314.987	4802
315.076	5625
315.166	8760
315.255	9335
315.345	8159
315.434	9690
315.524	7349
315.613	8052
315.703	9203
315.792	9370
315.881	13206
315.971	9751
316.060	15543
316.150	30305
316.239	33444
316.328	14653
316.418	6114
316.507	5240
316.597	6797
316.686	7025
316.775	11934
316.865	36271
316.954	9078
317.043	3793
317.133	5396
317.222	4109
317.311	3519
317.400	4096
317.490	6585
317.579	7691
317.668	4888
317.757	6497
317.847	11809
317.936	24000
318.025	21838
318.114	11097
318.203	9960
318.293	14028
318.382	26158
318.471	20454
318.560	29979
318.649	66093
318.738	19559
318.828	9276
318.917	12436
319.006	14667
319.095	40566
319.184	81165
319.273	50671
319.362	23262
319.451	9599
319.540	8134
319.629	15751
319.718	28502
319.807	15287
319.896	26336
319.985	98294
320.074	45476
320.163	12153
320.252	21764
320.341	15884
320.430	13192
320.519	13580
320.608	10265
320.697	7630
320.786	6843
320.875	9042
320.964	11908
321.053	18577
321.142	26157
321.230	29943
321.319	21386
321.408	47535
321.497	24765
321.586	19366
321.675	28871
321.764	31374
321.852	20037
321.941	26585
322.030	20863
322.119	21614
322.207	51122
322.296	48979
322.385	23311
322.474	23261
322.562	56267
322.651	37217
322.740	22567
322.829	35874
322.917	45228
323.006	26233
323.095	17081
323.183	16170
323.272	25073
323.361	42105
323.449	145424
323.538	61149
323.626	90344
323.715	76058
323.804	24403
323.892	83295
323.981	55579
324.069	15954
324.158	42487
324.246	53589
324.335	13417
324.424	18792
324.512	8540
324.601	10385
324.689	19614
324.778	42150
324.866	36835
324.954	12149
325.043	8823
325.131	17757
325.220	35352
325.308	44391
325.397	27220
325.485	19971
325.574	5433
325.662	5019
325.750	6576
325.839	5086
325.927	4755
326.015	8178
326.104	14636
326.192	28559
326.280	7157
326.369	5886
326.457	7845
326.545	13315
326.634	7192
326.722	4139
326.810	4526
326.898	4928
326.987	5857
327.075	12987
327.163	19957
327.251	12197
327.340	13317
327.428	20116
327.516	5834
327.604	5094
327.692	7465
327.781	8556
327.869	17108
327.957	11557
328.045	8100
328.133	4961
328.221	8131
328.309	7157
328.397	5502
328.485	6527
328.574	9600
328.662	29327
328.750	25713
328.838	12071
328.926	6550
329.014	5636
329.102	7681
329.190	19849
329.278	14344
329.366	5156
329.454	4835
329.542	5082
329.630	5007
329.718	6237
329.806	7786
329.893	9383
329.981	13156
330.069	26550
330.157	86610
330.245	212628
330.333	129491
330.421	27485
330.509	16057
330.597	37630
330.684	30968
330.772	11010
330.860	16019
330.948	19366
331.036	10042
331.123	4082
331.211	4256
331.299	7352
331.387	14874
331.475	29275
331.562	11457
331.650	5195
331.738	5724
331.825	10005
331.913	4589
332.001	4951
332.089	7331
332.176	18697
332.264	41743
332.352	41108
332.439	10045
332.527	6266
332.614	5229
332.702	9362
332.790	6345
332.877	17145
332.965	42704
333.052	12204
333.140	7540
333.228	20077
333.315	7750
333.403	7192
333.490	23275
333.578	22390
333.665	15471
333.753	10937
333.840	5656
333.928	8846
334.015	25488
334.103	40221
334.190	121856
334.278	39140
334.365	10674
334.452	7492
334.540	6387
334.627	7840
334.715	15197
334.802	29021
334.889	151168
334.977	194756
335.064	20211
335.151	7854
335.239	7926
335.326	12997
335.413	45102
335.501	75993
335.588	11119
335.675	6975
335.762	7940
335.850	15214
335.937	11619
336.024	31452
336.111	154626
336.199	74901
336.286	9401
336.373	5163
336.460	4581
336.547	4505
336.635	6821
336.722	6147
336.809	5876
336.896	9696
336.983	30000
337.070	75569
337.157	115684
337.245	101851
337.332	93576
337.419	11964
337.506	6882
337.593	7900
337.680	23215
337.767	73110
337.854	24006
337.941	23623
338.028	34532
338.115	14637
338.202	11939
338.289	26270
338.376	106060
338.463	41881
338.550	40560
338.637	51949
338.724	16939
338.811	34674
338.898	8657
338.984	4666
339.071	7130
339.158	8120
339.245	19131
339.332	14563
339.419	17669
339.506	22423
339.593	4861
339.679	4589
339.766	3266
339.853	5999
339.940	13344
340.027	5740
340.113	4172
340.200	7505
340.287	6249
340.374	6249
340.460	12508
340.547	5492
340.634	9248
340.720	34481
340.807	25164
340.894	4892
340.980	4448
341.067	4766
341.154	4821
341.240	7404
341.327	17591
341.414	6817
341.500	6178
341.587	5219
341.674	3965
341.760	11101
341.847	13905
341.933	5501
342.020	2537
342.106	1904
342.193	4423
342.279	9624
342.366	6035
342.452	12218
342.539	7689
342.625	13976
342.712	39138
342.798	18109
342.885	8605
342.971	3269
343.058	2667
343.144	3181
343.230	3703
343.317	4199
343.403	4120
343.490	2639
343.576	2824
343.662	4218
343.749	5418
343.835	8313
343.921	14784
344.008	72174
344.094	187080
344.180	48940
344.267	14645
344.353	39550
344.439	55657
344.525	22134
344.612	11172
344.698	10043
344.784	6847
344.870	3998
344.957	3810
345.043	7633
345.129	5838
345.215	10677
345.301	6635
345.387	3985
345.474	2707
345.560	3355
345.646	6095
345.732	6564
345.818	5462
345.904	4767
345.990	5103
346.076	6875
346.162	14187
346.249	6299
346.335	3793
346.421	4226
346.507	17776
346.593	64057
346.679	19975
346.765	5217
346.851	3735
346.937	3931
347.023	3298
347.108	5138
347.194	4114
347.280	4026
347.366	5366
347.452	16719
347.538	75810
347.624	58940
347.710	48669
347.796	10527
347.882	5309
347.967	4442
348.053	6816
348.139	5273
348.225	3024
348.311	3796
348.397	3101
348.482	3937
348.568	6019
348.654	2388
348.740	2000
348.825	3447
348.911	8303
348.997	32300
349.083	77871
349.168	17397
349.254	4664
349.340	4910
349.425	2998
349.511	4975
349.597	7418
349.682	12030
349.768	39753
349.854	23442
349.939	5023
350.025	3091
350.110	3830
350.196	2533
350.282	2378
350.367	3294
350.453	8849
350.538	12972
350.624	5709
350.709	5431
350.795	3027
350.880	4243
350.966	5116
351.051	9665
351.137	8966
351.222	4098
351.308	11379
351.393	35806
351.479	11318
351.564	3537
351.649	3678
351.735	3313
351.820	2275
351.906	3289
351.991	6932
352.076	21797
352.162	36625
352.247	8363
352.332	4684
352.418	10037
352.503	12655
352.588	45879
352.673	45509
352.759	10985
352.844	5475
352.929	5029
353.014	7763
353.100	5077
353.185	7096
353.270	13671
353.355	14882
353.441	5257
353.526	7268
353.611	12460
353.696	15650
353.781	8056
353.866	4771
353.952	4175
354.037	10906
354.122	27308
354.207	25841
354.292	12119
354.377	3998
354.462	4348
354.547	5332
354.632	6043
354.717	7486
354.802	8471
354.887	3642
354.972	2965
355.057	3137
355.142	2959
355.227	5073
355.312	7648
355.397	17497
355.482	41893
355.567	25489
355.652	15467
355.737	17159
355.822	47428
355.907	47166
355.991	8242
356.076	3908
356.161	3802
356.246	3450
356.331	5334
356.416	12883
356.501	80682
356.585	106108
356.670	16234
356.755	8885
356.840	12730
356.924	53748
357.009	218564
357.094	100628
357.179	18712
357.263	12268
357.348	10663
357.433	12011
357.517	10733
357.602	8484
357.687	6884
357.771	10917
357.856	35064
357.941	25852
358.025	44667
358.110	215240
358.195	124263
358.279	17781
358.364	11509
358.448	32786
358.533	91218
358.617	71061
358.702	67911
358.787	28016
358.871	13906
358.956	12212
359.040	4027
359.125	3170
359.209	4608
359.294	16043
359.378	29132
359.462	11453
359.547	7210
359.631	6238
359.716	4071
359.800	3818
359.885	6941
359.969	5548
360.053	5048
360.138	5246
360.222	6718
360.306	12441
360.391	11684
360.475	18984
360.559	45352
360.644	37310
360.728	31534
360.812	42963
360.896	137960
360.981	61562
361.065	30245
361.149	8402
361.233	8035
361.318	6247
361.402	7140
361.486	6436
361.570	4265
361.654	6874
361.739	18234
361.823	76437
361.907	147259
361.991	29485
362.075	11763
362.159	25209
362.243	18849
362.327	10762
362.411	9828
362.495	9204
362.580	6053
362.664	3157
362.748	3711
362.832	4392
362.916	5129
363.000	14300
363.084	67132
363.168	161252
363.252	44551
363.336	12571
363.420	16959
363.503	65056
363.587	91679
363.671	16458
363.755	9476
363.839	13457
363.923	6707
364.007	13030
364.091	17963
364.175	24817
364.258	105676
364.342	61601
364.426	18306
364.510	11565
364.594	14344
364.677	21891
364.761	109461
364.845	95821
364.929	24225
365.013	19795
365.096	15172
365.180	21879
365.264	28748
365.347	113809
365.431	57359
365.515	13675
365.598	5883
365.682	5340
365.766	11136
365.849	15426
365.933	7341
366.017	9784
366.100	8981
366.184	3496
366.267	4230
366.351	3573
366.435	3874
366.518	2645
366.602	2229
366.685	3903
366.769	4147
366.852	9214
366.936	17502
367.019	9526
367.103	7332
367.186	16067
367.270	6129
367.353	3137
367.436	3315
367.520	2297
367.603	4642
367.687	7003
367.770	15696
367.853	10342
367.937	26598
368.020	53063
368.104	14049
368.187	10626
368.270	17407
368.353	14093
368.437	22815
368.520	69909
368.603	42763
368.687	34573
368.770	73094
368.853	20111
368.936	16001
369.020	17135
369.103	6534
369.186	4001
369.269	4731
369.352	8410
369.436	15856
369.519	9348
369.602	4318
369.685	4670
369.768	6336
369.851	4573
369.934	3314
370.018	4818
370.101	12425
370.184	10690
370.267	7916
370.350	11988
370.433	20249
370.516	49610
370.599	68128
370.682	18482
370.765	33277
370.848	42155
370.931	88598
371.014	39158
371.097	7297
371.180	5020
371.263	3720
371.346	2037
371.429	3047
371.511	3282
371.594	8147
371.677	14231
371.760	18299
371.843	15318
371.926	65851
372.009	184604
372.091	61763
372.174	31049
372.257	82000
372.340	36174
372.423	22411
372.505	29963
372.588	12768
372.671	22879
372.754	82801
372.836	47483
372.919	30989
373.002	67296
373.085	22053
373.167	12194
373.250	32968
373.332	78368
373.415	104153
373.498	251310
373.580	101474
373.663	91413
373.746	155957
373.828	37933
373.911	14078
373.993	15368
374.076	59501
374.159	68147
374.241	26359
374.324	66925
374.406	51559
374.489	57630
374.571	188125
374.654	86609
374.736	33803
374.819	110245
374.901	159767
374.983	192961
375.066	37635
375.148	13059
375.231	47696
375.313	103850
375.395	40781
375.478	8924
375.560	5762
375.643	8405
375.725	30382
375.807	144903
375.890	139213
375.972	70717
376.054	30488
376.136	56938
376.219	28337
376.301	34669
376.383	127417
376.465	55606
376.548	27738
376.630	33118
376.712	101251
376.794	55342
376.877	7013
376.959	3250
377.041	5940
377.123	11941
377.205	16341
377.287	3996
377.369	3451
377.452	3854
377.534	3529
377.616	3279
377.698	2977
377.780	1703
377.862	3872
377.944	4091
378.026	1789
378.108	2321
378.190	2484
378.272	2439
378.354	2578
378.436	1915
378.518	7572
378.600	27668
378.682	22828
378.764	44247
378.846	40803
378.928	11694
379.010	13658
379.091	8488
379.173	4349
379.255	3547
379.337	5328
379.419	18926
379.501	67796
379.583	31836
379.664	7456
379.746	15800
379.828	43203
379.910	62685
379.991	59604
380.073	11298
380.155	6302
380.237	4949
380.318	3324
380.400	4298
380.482	9186
380.564	17689
380.645	15390
380.727	14682
380.809	8802
380.890	6283
380.972	4552
381.053	4007
381.135	5473
381.217	13859
381.298	46918
381.380	26564
381.461	20181
381.543	93764
381.624	142830
381.706	29093
381.787	11675
381.869	12691
381.951	39392
382.032	176641
382.113	126933
382.195	25728
382.276	13774
382.358	25763
382.439	85779
382.521	97636
382.602	172838
382.684	78279
382.765	120437
382.846	125449
382.928	118163
383.009	73099
383.090	51964
383.172	163769
383.253	277611
383.334	114264
383.416	139985
383.497	80982
383.578	29470
383.659	49211
383.741	155434
383.822	411004
383.903	241753
383.984	91100
384.066	164016
384.147	116290
384.228	24636
384.309	14592
384.390	11304
384.471	7208
384.553	8234
384.634	12383
384.715	14689
384.796	6908
384.877	9198
384.958	37868
385.039	54555
385.120	19218
385.201	8221
385.282	10605
385.363	11825
385.444	9648
385.525	17383
385.606	64866
385.687	65963
385.768	15130
385.849	17677
385.930	71241
386.011	150329
386.092	46588
386.173	10475
386.254	8094
386.335	7201
386.416	8321
386.496	25362
386.577	48142
386.658	19994
386.739	12611
386.820	10334
386.901	8300
386.981	8030
387.062	5224
387.143	10258
387.224	40603
387.304	44777
387.385	15433
387.466	8828
387.547	11345
387.627	7038
387.708	13892
387.789	72664
387.869	106267
387.950	30721
388.031	5305
388.111	5198
388.192	17356
388.273	26461
388.353	15661
388.434	8156
388.514	15053
388.595	76177
388.676	109396
388.756	50148
388.837	40624
388.917	29569
388.998	6637
389.078	6142
389.159	5007
389.239	4746
389.320	7440
389.400	7608
389.480	16018
389.561	47616
389.641	25823
389.722	7902
389.802	13721
389.883	18854
389.963	56893
390.043	43975
390.124	16943
390.204	15529
390.284	52164
390.365	41687
390.445	49368
390.525	167904
390.605	176705
390.686	43524
390.766	11701
390.846	6533
390.927	4248
391.007	3852
391.087	5640
391.167	6058
391.247	3990
391.328	10493
391.408	16107
391.488	10549
391.568	3449
391.648	5398
391.728	8541
391.808	8163
391.888	10127
391.969	22595
392.049	41745
392.129	20469
392.209	18363
392.289	52537
392.369	31870
392.449	26505
392.529	16345
392.609	11539
392.689	13380
392.769	47988
392.849	47017
392.929	27649
393.009	70720
393.089	52736
393.169	21181
393.248	57426
393.328	333606
393.408	448048
393.488	91928
393.568	19155
393.648	10731
393.728	8481
393.807	7102
393.887	8985
393.967	8604
394.047	11549
394.127	15857
394.206	30529
394.286	103750
394.366	461010
394.446	598737
394.525	165330
394.605	38874
394.685	23870
394.764	40890
394.844	68788
394.924	51944
395.003	15501
395.083	10838
395.163	10028
395.242	8668
395.322	9582
395.402	7097
395.481	10744
395.561	25799
395.640	74243
395.720	53915
395.799	82088
395.879	80390
395.958	52100
396.038	159247
396.117	602764
396.197	786160
396.276	265875
396.356	78078
396.435	45590
396.515	26492
396.594	20825
396.673	26642
396.753	76524
396.832	330716
396.912	295595
396.991	72173
397.070	16703
397.150	9705
397.229	7131
397.308	6597
397.388	7967
397.467	5663
397.546	4318
397.625	3633
397.705	7180
397.784	7441
397.863	3865
397.942	2672
398.022	4131
398.101	19314
398.180	72739
398.259	41055
398.338	9906
398.417	5768
398.497	4889
398.576	4059
398.655	2748
398.734	2855
398.813	4068
398.892	19422
398.971	77495
399.050	43084
399.129	5389
399.208	2262
399.287	2790
399.366	1664
399.445	2874
399.524	2899
399.603	2233
399.682	6478
399.761	20939
399.840	78895
399.919	71236
399.998	10282
400.077	2055
400.156	1073
400.235	4005
400.313	2717
400.392	4207
400.471	19520
400.550	40508
400.629	12568
400.708	4637
400.786	5306
400.865	15198
400.944	18073
401.023	8133
401.102	987
401.180	1567
401.259	2715
401.338	3352
401.416	4774
401.495	5149
401.574	3820
401.652	3017
401.731	4217
401.810	4741
401.888	1993
401.967	1398
402.046	1754
402.124	4035
402.203	6357
402.281	4488
402.360	5547
402.438	20240
402.517	16430
402.596	5277
402.674	4818
402.753	2578
402.831	2101
402.910	3669
402.988	12440
403.066	43440
403.145	29297
403.223	14477
403.302	36262
403.380	26510
403.459	24470
403.537	11142
403.615	4572
403.694	582
403.772	1583
403.850	1395
403.929	1597
404.007	1575
404.085	5360
404.164	5996
404.242	4502
404.320	13447
404.398	42232
404.477	47359
404.555	124826
404.633	137270
404.711	43190
404.789	18244
404.868	6052
404.946	2834
405.024	1790
405.102	2266
405.180	755
405.258	1553
405.336	2190
405.415	2337
405.493	6455
405.571	6150
405.649	1233
405.727	1221
405.805	4033
405.883	4358
405.961	3637
406.039	6450
406.117	2480
406.195	4870
406.273	22595
406.351	107077
406.429	73731
406.507	12939
406.585	4062
406.663	2989
406.740	5010
406.818	4327
406.896	2313
406.974	2564
407.052	7148
407.130	54895
407.208	94940
407.285	21373
407.363	2768
407.441	2645
407.519	2031
407.596	3084
407.674	7738
407.752	19966
407.830	25228
407.907	13192
407.985	3889
408.063	2714
408.141	1375
408.218	5027
408.296	4515
408.373	2863
408.451	3339
408.529	2492
408.606	1300
408.684	857
408.762	191
408.839	267
408.917	472
408.994	1514
409.072	459
409.149	1150
409.227	1262
409.304	1529
409.382	1173
409.459	194
409.537	2286
409.614	1463
409.692	1387
409.769	1467
409.846	1823
409.924	3649
410.001	2187
410.079	1481
410.156	2266
410.233	2318
410.311	3375
410.388	1795
410.465	2517
410.543	2278
410.620	1437
410.697	1886
410.775	3080
410.852	411
410.929	3026
411.006	4749
411.083	973
411.161	6399
411.238	7833
411.315	4429
411.392	1403
411.469	3100
411.547	3748
411.624	1541
411.701	1806
411.778	1793
411.855	6863
411.932	5454
412.009	1818
412.086	1702
412.163	2691
412.240	3828
412.317	4274
412.394	4156
412.471	2302
412.548	565
412.625	880
412.702	2872
412.779	7394
412.856	5484
412.933	702
413.010	1593
413.087	4516
413.164	19318
413.241	33731
413.318	8485
413.395	4444
413.471	6670
413.548	3112
413.625	1977
413.702	2805
413.779	2880
413.855	435
413.932	669
414.009	124
414.086	880
414.162	1436
414.239	3188
414.316	18214
414.393	49701
414.469	20321
414.546	2843
414.623	1244
414.699	1276
414.776	2064
414.853	1777
414.929	2006
415.006	2026
415.082	2730
415.159	2860
415.236	1869
415.312	442
415.389	4133
415.465	6519
415.542	3970
415.618	1407
415.695	4096
415.771	3164
415.848	2169
415.924	1633
416.000	2222
416.077	1106
416.153	17
416.230	-294
416.306	831
416.383	1120
416.459	1683
416.535	810
416.612	-6
416.688	813
416.764	677
416.841	-105
416.917	887
416.993	1129
417.069	2133
417.146	4737
417.222	7566
417.298	4523
417.374	997
417.451	2279
417.527	2382
417.603	2856
417.679	2090
417.755	2942
417.831	616
417.908	1131
417.984	275
418.060	406
418.136	4799
418.212	7928
418.288	2808
418.364	1581
418.440	717
418.516	3850
418.592	5764
418.668	9789
418.744	13832
418.820	11365
418.896	2489
418.972	551
419.048	678
419.124	5544
419.200	4447
419.276	768
419.352	-135
419.428	861
419.504	334
419.579	3154
419.655	1755
419.731	2201
419.807	7084
419.883	17368
419.959	14502
420.034	3465
420.110	5715
420.186	28609
420.262	25821
420.337	4221
420.413	3008
420.489	1386
420.565	724
420.640	-258
420.716	1083
420.792	100
420.867	1730
420.943	735
421.019	2905
421.094	2457
421.170	1050
421.245	182
421.321	256
421.397	992
421.472	2458
421.548	8028
421.623	7639
421.699	2630
421.774	1513
421.850	1618
421.925	3700
422.001	4937
422.076	1429
422.152	1558
422.227	4345
422.302	5231
422.378	3723
422.453	8951
422.529	21478
422.604	93457
422.679	246753
422.755	137090
422.830	28469
422.905	8242
422.981	3839
423.056	2785
423.131	1826
423.207	1689
423.282	1707
423.357	7815
423.432	5815
423.508	4600
423.583	12036
423.658	12467
423.733	3053
423.808	3331
423.883	3970
423.959	2931
424.034	1099
424.109	2111
424.184	167
424.259	647
424.334	812
424.409	23
424.484	224
424.559	1864
424.634	1477
424.709	2589
424.784	3798
424.859	2805
424.934	4272
425.009	17222
425.084	34512
425.159	14782
425.234	2495
425.309	1117
425.384	7041
425.459	14568
425.534	4709
425.609	2115
425.683	762
425.758	1042
425.833	1026
425.908	2845
425.983	8547
426.058	34039
426.132	19439
426.207	4145
426.282	5906
426.357	4760
426.431	1222
426.506	1249
426.581	965
426.655	1493
426.730	1441
426.805	927
426.879	1959
426.954	1254
427.029	5103
427.103	27610
427.178	88156
427.253	49423
427.327	5884
427.402	5846
427.476	18667
427.551	10538
427.625	2605
427.700	3350
427.774	546
427.849	2127
427.923	327
427.998	702
428.072	1489
428.147	4862
428.221	12571
428.296	26156
428.370	12924
428.444	3043
428.519	6516
428.593	15194
428.667	14050
428.742	15654
428.816	12812
428.890	23487
428.965	35964
429.039	18645
429.113	18296
429.188	7763
429.262	1415
429.336	3938
429.410	14872
429.485	11789
429.559	11969
429.633	11881
429.707	2644
429.781	6360
429.855	31729
429.930	49350
430.004	40462
430.078	73143
430.152	60218
430.226	39355
430.300	37671
430.374	7065
430.448	3444
430.522	19486
430.596	71346
430.670	45696
430.744	48723
430.818	99160
430.892	29002
430.966	4249
431.040	2811
431.114	873
431.188	781
431.262	272
431.336	1727
431.410	5686
431.484	18814
431.557	14303
431.631	1596
431.705	957
431.779	2338
431.853	16802
431.927	13394
432.000	2076
432.074	1037
432.148	2402
432.222	2761
432.295	1479
432.369	817
432.443	4347
432.516	27096
432.590	91659
432.664	43635
432.737	5772
432.811	1336
432.885	160
432.958	1380
433.032	348
433.106	-410
433.179	-309
433.253	274
433.326	466
433.400	-525
433.473	97
433.547	-321
433.620	-71
433.694	1573
433.767	4081
433.841	1669
433.914	371
433.988	323
434.061	45
434.134	837
434.208	-63
434.281	2
434.355	-151
434.428	1267
434.501	706
434.575	-380
434.648	607
434.721	304
434.795	354
434.868	-142
434.941	-705
435.014	-822
435.088	78
435.161	1111
435.234	1543
435.307	3628
435.381	1875
435.454	-262
435.527	841
435.600	402
435.673	485
435.746	454
435.819	673
435.892	-243
435.966	199
436.039	-48
436.112	903
436.185	31
436.258	-543
436.331	-598
436.404	-347
436.477	-525
436.550	-400
436.623	368
436.696	-139
436.769	276
436.842	42
436.915	610
436.987	2157
437.060	973
437.133	-166
437.206	295
437.279	736
437.352	495
437.425	402
437.498	1026
437.570	3820
437.643	3175
437.716	855
437.789	-528
437.861	2134
437.934	8323
438.007	5967
438.080	1296
438.152	1805
438.225	3785
438.298	34163
438.370	130740
438.443	69223
438.516	13501
438.588	2630
438.661	763
438.734	901
438.806	706
438.879	2080
438.951	2317
439.024	4648
439.096	1588
439.169	1286
439.241	-219
439.314	-4
439.386	2630
439.459	3990
439.531	7022
439.604	3450
439.676	560
439.749	631
439.821	296
439.893	398
439.966	923
440.038	1951
440.110	1962
440.183	1401
440.255	28
440.327	2711
440.400	13266
440.472	69912
440.544	61526
440.617	8583
440.689	3832
440.761	4274
440.833	8357
440.905	6555
440.978	1678
441.050	706
441.122	538
441.194	217
441.266	770
441.338	374
441.411	2208
441.483	17787
441.555	35970
441.627	9698
441.699	4228
441.771	4965
441.843	1483
441.915	566
441.987	197
442.059	-157
442.131	1659
442.203	3166
442.275	3546
442.347	3523
442.419	1344
442.491	4858
442.563	12570
442.635	10396
442.706	17153
442.778	15924
442.850	2506
442.922	673
442.994	1239
443.066	3392
443.137	1952
443.209	1279
443.281	1297
443.353	3390
443.425	9367
443.496	25881
443.568	24996
443.640	10105
443.711	3411
443.783	1562
443.855	447
443.926	725
443.998	506
444.070	2121
444.141	1983
444.213	2445
444.285	4353
444.356	4073
444.428	4396
444.499	809
444.571	-595
444.642	-99
444.714	719
444.785	2395
444.857	4249
444.928	12477
445.000	9162
445.071	7029
445.143	10448
445.214	4657
445.285	5914
445.357	18679
445.428	28208
445.500	52351
445.571	42324
445.642	17631
445.714	12668
445.785	23052
445.856	6804
445.928	4345
445.999	3405
446.070	2233
446.141	2300
446.213	3876
446.284	1810
446.355	2801
446.426	1984
446.497	1443
446.569	3291
446.640	6601
446.711	3867
446.782	1374
446.853	3135
446.924	3666
446.995	2025
447.066	2148
447.138	5011
447.209	3306
447.280	299
447.351	987
447.422	287
447.493	1372
447.564	2303
447.635	4498
447.706	1527
447.777	650
447.847	257
447.918	482
447.989	2080
448.060	3316
448.131	8974
448.202	8894
448.273	5090
448.344	2570
448.414	648
448.485	1114
448.556	1575
448.627	430
448.698	331
448.768	604
448.839	1041
448.910	3739
448.981	4419
449.051	2334
449.122	1260
449.193	378
449.263	851
449.334	1108
449.405	1365
449.475	6276
449.546	4890
449.616	5430
449.687	5298
449.758	2569
449.828	1208
449.899	1001
449.969	1360
450.040	1359
450.110	2587
450.181	3111
450.251	1175
450.322	1454
450.392	919
450.463	1279
450.533	1263
450.604	1728
450.674	829
450.744	794
450.815	1167
450.885	767
450.955	553
451.026	674
451.096	1108
451.166	2052
451.237	4212
451.307	14774
451.377	7408
451.447	1742
451.518	393
451.588	1626
451.658	908
451.728	2890
451.799	13244
451.869	20080
451.939	5578
452.009	1481
452.079	231
452.149	1646
452.219	3414
452.289	16852
452.360	15465
452.430	3753
452.500	1789
452.570	3272
452.640	2609
452.710	7648
452.780	15468
452.850	10525
452.920	10088
452.990	3481
453.060	2315
453.129	3457
453.199	4046
453.269	15866
453.339	47774
453.409	79725
453.479	64766
453.549	96004
453.619	106745
453.688	52217
453.758	9555
453.828	2842
453.898	1633
453.968	1986
454.037	1431
454.087	1531
454.107	1547
454.168	1239
454.177	1163
454.247	2225
454.249	2213
454.316	1322
454.330	1550
454.386	2401
454.411	4592
454.456	7536
454.492	11249
454.525	14373
454.574	8242
454.595	5660
454.655	2745
454.665	2301
454.734	3008
454.736	3127
454.804	5600
454.817	7843
454.873	15018
454.898	17903
454.943	21979
454.979	15864
455.013	10747
455.060	6177
455.082	4652
455.141	4797
455.152	4791
455.221	13749
455.222	14123
455.291	28628
455.303	28670
455.360	27457
455.384	35619
455.430	46486
455.465	38671
455.499	31189
455.546	23109
455.569	18968
455.627	13599
455.638	12828
455.707	3256
455.708	3274
455.777	1852
455.789	2019
455.846	2451
455.869	2211
455.916	1897
455.950	1980
455.985	1950
456.031	2001
456.054	1923
456.112	1793
456.124	1800
456.193	1925
456.193	1900
456.262	2746
456.274	2963
456.332	3700
456.355	4089
456.401	4308
456.436	3743
456.470	2974
456.516	1928
456.540	1614
456.597	1341
456.609	1265
456.678	1144
456.678	1124
456.747	1718
456.759	1643
456.817	1218
456.840	1340
456.886	1480
456.920	1777
456.955	2093
457.001	1913
457.024	2097
457.082	3399
457.093	3557
457.162	5250
457.163	5289
457.232	6313
457.243	6277
457.301	4547
457.324	3219
457.370	1778
457.405	2182
457.439	2547
457.485	2080
457.508	1961
457.566	3150
457.577	3309
457.646	3087
457.647	3110
457.715	3697
457.727	3836
457.784	4261
457.808	4324
457.853	4664
457.889	5476
457.922	5699
457.969	5466
457.991	5554
458.050	5973
458.060	6030
458.129	7107
458.130	7152
458.198	6642
458.211	6559
458.267	5099
458.292	4121
458.336	3402
458.372	3270
458.405	3488
458.453	4136
458.474	4881
458.533	7263
458.543	7604
458.611	11161
458.614	11305
458.680	9064
458.694	8213
458.749	5421
458.775	4543
458.818	4320
458.855	3819
458.887	3342
458.936	3154
458.955	3169
459.016	3527
459.024	3556
459.093	4286
459.097	4291
459.162	4525
459.177	4628
459.230	4949
459.257	5194
459.299	5441
459.338	5872
459.368	6261
459.418	6909
459.437	6500
459.499	4972
459.505	4962
459.574	4561
459.579	4577
459.643	4638
459.659	4490
459.711	4377
459.740	4616
459.780	5137
459.820	5938
459.849	6187
459.900	6181
459.917	6115
459.981	6119
459.986	6089
460.054	5567
460.061	5573
460.123	5852
460.141	5806
460.191	6679
460.222	7376
460.260	8013
460.302	8907
460.328	8324
460.382	6972
460.397	6836
460.462	5774
460.465	5816
460.534	7360
460.543	7554
460.602	17050
460.623	20608
460.671	32718
460.703	43127
460.739	41918
460.783	38251
460.808	31292
460.864	9752
460.876	8683
460.944	5995
460.945	5969
461.013	5947
461.024	5972
461.081	6133
461.104	6309
461.150	6094
461.184	5758
461.218	5708
461.264	5644
461.286	5728
461.345	5741
461.355	5722
461.423	6261
461.425	6267
461.491	6664
461.505	6804
461.559	11650
461.585	13872
461.628	24707
461.665	34975
461.696	41064
461.745	53303
461.764	45861
461.825	16358
461.832	15920
461.901	9156
461.905	8974
461.969	8153
461.985	7896
462.037	7041
462.065	6725
462.105	7622
462.145	8520
462.173	12423
462.225	20071
462.241	22618
462.305	33140
462.310	32290
462.378	20071
462.385	18219
462.446	10262
462.465	8116
462.514	7989
462.545	8356
462.582	7953
462.625	7481
462.650	7452
462.705	7370
462.718	7494
462.785	8131
462.786	8202
462.854	11990
462.865	12713
462.922	17059
462.945	18788
462.990	14094
463.025	10051
463.058	9149
463.104	7723
463.126	7514
463.184	7170
463.194	7250
463.262	7920
463.264	7943
463.330	8449
463.344	8500
463.398	9599
463.424	10128
463.466	10120
463.504	10271
463.533	10016
463.583	9451
463.601	9740
463.663	10702
463.669	11027
463.737	14683
463.743	15010
463.805	21108
463.823	22915
463.873	36092
463.903	44186
463.940	50144
463.982	57747
464.008	46859
464.062	21351
464.076	19509
464.142	9619
464.144	9582
464.211	9161
464.221	9179
464.279	9203
464.301	9140
464.347	10285
464.381	11328
464.414	12958
464.461	15064
464.482	16036
464.540	18582
464.550	17931
464.617	13085
464.620	12898
464.685	13354
464.699	13439
464.753	15697
464.779	16917
464.820	18292
464.859	19377
464.888	19283
464.938	19031
464.956	19455
465.018	20947
465.023	20647
465.091	16421
465.098	15938
465.158	16062
465.177	16091
465.226	16614
465.257	16945
465.293	17243
465.336	17516
465.361	18465
465.416	20508
465.428	21513
465.495	26933
465.496	27091
465.563	45046
465.575	48136
465.631	62301
465.654	68532
465.698	46523
465.734	27342
465.765	23514
465.813	17423
465.833	17302
465.893	17584
465.900	17635
465.968	17904
465.972	17887
466.035	18990
466.052	19269
466.102	20069
466.131	20431
466.170	20380
466.210	20259
466.237	20842
466.290	21933
466.304	22386
466.369	24081
466.372	24127
466.439	24333
466.449	24287
466.506	26323
466.528	27078
466.573	31816
466.607	35243
466.641	50516
466.687	71661
466.708	80560
466.766	104863
466.775	98509
466.842	49315
466.845	46874
466.909	33831
466.925	30685
466.977	30286
467.004	30087
467.044	29947
467.083	29700
467.111	31163
467.163	33708
467.178	34509
467.242	37555
467.245	37494
467.312	34684
467.321	34243
467.379	34535
467.400	34538
467.446	34931
467.480	35088
467.559	33276
467.638	27325
467.717	26642
467.796	28939
467.875	30663
467.955	30021
468.034	34410
468.113	76869
468.192	119047
468.271	45196
468.350	22729
468.429	21363
468.508	21565
468.588	19514
468.667	20803
468.746	25038
468.825	24025
468.904	19998
468.983	22282
469.062	33015
469.141	42880
469.220	21053
469.299	17846
469.378	21014
469.456	22903
469.535	22667
469.614	20789
469.693	21131
469.772	27200
469.851	36592
469.930	29507
470.009	18262
470.088	17745
470.166	18974
470.245	20150
470.324	24791
470.403	22843
470.482	20197
470.560	18708
470.639	19497
470.718	21247
470.797	19302
470.875	20809
470.954	30359
471.033	35404
471.111	17180
471.190	14635
471.269	14075
471.347	14910
471.426	15884
471.505	16950
471.583	19627
471.662	18833
471.740	15318
471.819	16696
471.898	15619
471.976	16103
472.055	15212
472.133	17430
472.212	23283
472.290	25466
472.369	17486
472.447	14049
472.526	14354
472.604	15173
472.683	15402
472.761	16739
472.839	14921
472.918	15411
472.996	15689
473.075	16707
473.153	18617
473.231	15010
473.310	17467
473.388	18044
473.466	16888
473.545	16958
473.623	22428
473.701	22778
473.780	17550
473.858	14918
473.936	18896
474.014	14907
474.093	16762
474.171	24595
474.249	37254
474.327	29810
474.405	15317
474.484	14282
474.562	15486
474.640	15372
474.718	16716
474.796	19875
474.874	18006
474.952	16840
475.030	17938
475.108	18080
475.187	22160
475.265	24086
475.343	28004
475.421	30507
475.499	20544
475.577	19513
475.655	21652
475.733	41346
475.811	74604
475.889	73868
475.966	57129
476.044	16541
476.122	18172
476.200	21239
476.278	19738
476.356	14174
476.434	14910
476.512	16868
476.590	21958
476.667	20635
476.745	13331
476.823	14191
476.901	15154
476.979	15151
477.056	14498
477.134	14972
477.212	15602
477.290	14672
477.367	12423
477.445	12961
477.523	12827
477.601	12603
477.678	12869
477.756	16008
477.834	20342
477.911	13311
477.989	13359
478.066	12351
478.144	15473
478.222	16733
478.299	21292
478.377	24566
478.454	13959
478.532	12386
478.609	13481
478.687	14753
478.764	12437
478.842	13143
478.919	14807
478.997	14657
479.074	11731
479.152	13676
479.229	20089
479.307	15661
479.384	11000
479.461	10994
479.539	12205
479.616	15663
479.694	13963
479.771	13750
479.848	15274
479.926	21163
480.003	25613
480.080	13478
480.157	11424
480.235	11747
480.312	12495
480.389	14419
480.467	22409
480.544	31537
480.621	18088
480.698	13261
480.775	16120
480.853	17020
480.930	14236
481.007	13379
481.084	16106
481.161	16970
481.238	16582
481.315	12010
481.392	10535
481.470	12592
481.547	13233
481.624	12955
481.701	12353
481.778	13397
481.855	14433
481.932	19911
482.009	38919
482.086	35014
482.163	13178
482.240	14725
482.317	26631
482.393	25261
482.470	13721
482.547	12743
482.624	12037
482.701	12458
482.778	12882
482.855	10211
482.932	11339
483.009	9655
483.085	11305
483.162	14901
483.239	15289
483.316	10941
483.393	10373
483.469	11493
483.546	13566
483.623	15851
483.699	12938
483.776	12996
483.853	15425
483.930	20381
484.006	51217
484.083	105614
484.160	56454
484.236	61673
484.313	52470
484.389	39486
484.466	33421
484.543	31439
484.619	32641
484.696	32366
484.772	34314
484.849	39363
484.925	32262
485.002	28959
485.078	32686
485.155	33679
485.231	29307
485.308	29089
485.384	30823
485.461	35333
485.537	59738
485.614	86858
485.690	36365
485.766	29226
485.843	28743
485.919	37783
485.995	44508
486.072	27395
486.148	25826
486.224	26034
486.301	27251
486.377	31334
486.453	33933
486.530	30949
486.606	37242
486.682	43688
486.758	53219
486.835	68118
486.911	49354
486.987	78800
487.063	83712
487.139	90797
487.215	72339
487.292	37954
487.368	29492
487.444	30305
487.520	35815
487.596	33991
487.672	32268
487.748	42967
487.824	62985
487.900	43551
487.976	29094
488.052	31809
488.128	40075
488.204	34801
488.280	29840
488.356	32458
488.432	64214
488.508	121127
488.584	51222
488.660	26530
488.736	27092
488.812	27700
488.888	34531
488.964	40371
489.039	73007
489.115	131473
489.191	98785
489.267	32480
489.343	28475
489.418	23537
489.494	22474
489.570	20716
489.646	24145
489.722	22635
489.797	24536
489.873	33000
489.949	80125
490.024	88710
490.100	26287
490.176	22634
490.251	26420
490.327	33843
490.403	25835
490.478	22147
490.554	18411
490.629	18962
490.705	18987
490.781	21137
490.856	20636
490.932	24992
491.007	24800
491.083	24567
491.158	22964
491.234	26912
491.309	60360
491.385	78412
491.460	27934
491.536	23874
491.611	22452
491.686	22527
491.762	29453
491.837	49754
491.913	93096
491.988	118063
492.063	177473
492.139	70088
492.214	40996
492.289	19854
492.365	17464
492.440	22623
492.515	23306
492.590	22840
492.666	18785
492.741	22918
492.816	40278
492.891	27877
492.967	18813
493.042	17495
493.117	19506
493.192	22747
493.267	30492
493.342	99624
493.418	179633
493.493	45501
493.568	17959
493.643	16533
493.718	20975
493.793	30471
493.868	36335
493.943	22988
494.018	17856
494.093	16966
494.168	17060
494.243	15807
494.318	15710
494.393	14691
494.468	15206
494.543	14705
494.618	18493
494.693	16890
494.768	16227
494.842	17153
494.917	14565
494.992	16073
495.067	16380
495.142	15444
495.217	17611
495.292	16411
495.366	20352
495.441	24269
495.516	30450
495.591	37282
495.665	87919
495.740	258732
495.815	171704
495.890	35752
495.964	23530
496.039	25284
496.114	23909
496.188	24146
496.263	26610
496.338	25233
496.412	28236
496.487	33839
496.561	33437
496.636	35987
496.710	31223
496.785	31760
496.860	38364
496.934	34336
497.009	32538
497.083	35527
497.158	36737
497.232	42023
497.307	51178
497.381	48283
497.455	53282
497.530	69784
497.604	61850
497.679	61059
497.753	79647
497.827	106027
497.902	107736
497.976	116537
498.050	160354
498.125	489528
498.199	707314
498.273	173568
498.348	121186
498.422	108930
498.496	99157
498.570	94056
498.645	81952
498.719	77598
498.793	79713
498.867	92962
498.941	109603
499.016	187123
499.090	581089
499.164	340819
499.238	55527
499.312	43128
499.386	44471
499.460	44468
499.534	39261
499.609	41799
499.683	58621
499.757	60529
499.831	80445
499.905	327019
499.979	464080
500.053	84337
500.127	66107
500.201	47961
500.275	32984
500.349	30516
500.422	32595
500.496	42203
500.570	73397
500.644	170389
500.718	422639
500.792	153883
500.866	31018
500.940	35878
501.013	33076
501.087	28552
501.161	42599
501.235	58891
501.309	102909
501.382	307667
501.456	389036
501.530	79757
501.603	118661
501.677	67869
501.751	23972
501.825	25754
501.898	39871
501.972	128288
502.046	121952
502.119	29204
502.193	48801
502.266	148105
502.340	104396
502.413	55111
502.487	134049
502.561	92678
502.634	34987
502.708	20419
502.781	19365
502.855	15686
502.928	14625
503.002	13659
503.075	14163
503.149	15703
503.222	16954
503.295	18600
503.369	23395
503.442	29436
503.516	77906
503.589	255749
503.662	225088
503.736	61088
503.809	108651
503.882	118140
503.956	116576
504.029	146467
504.102	45168
504.175	38845
504.249	22446
504.322	20023
504.395	21309
504.468	15194
504.542	14952
504.615	13257
504.688	11907
504.761	10869
504.834	14741
504.907	16348
504.980	27706
505.053	17317
505.127	16662
505.200	22581
505.273	24260
505.346	17683
505.419	12948
505.492	11305
505.565	8814
505.638	9845
505.711	9612
505.784	10548
505.857	9481
505.930	11146
506.003	10548
506.076	12005
506.149	15037
506.221	23525
506.294	19995
506.367	37916
506.440	164794
506.513	137268
506.586	26879
506.659	15877
506.731	12634
506.804	12506
506.877	20455
506.950	18080
507.022	10913
507.095	14272
507.168	21283
507.241	11882
507.313	9911
507.386	10493
507.459	14876
507.531	12127
507.604	10112
507.677	10437
507.749	9059
507.822	11596
507.894	23152
507.967	32364
508.040	18735
508.112	15220
508.185	14901
508.257	13522
508.330	19626
508.402	16008
508.475	15120
508.547	16377
508.620	15227
508.692	25498
508.765	19359
508.837	11734
508.909	11563
508.982	12165
509.054	13770
509.127	11639
509.199	10985
509.271	10666
509.344	11060
509.416	10179
509.488	11645
509.560	11134
509.633	12011
509.705	15009
509.777	14783
509.849	19534
509.922	17618
509.994	12704
510.066	13556
510.138	13048
510.210	23699
510.283	24809
510.355	20312
510.427	17350
510.499	17155
510.571	17615
510.643	16286
510.715	21781
510.787	23886
510.859	16007
510.931	19647
511.003	22791
511.076	24123
511.148	14897
511.219	14964
511.291	23925
511.363	34173
511.435	17216
511.507	13519
511.579	14950
511.651	14142
511.723	13293
511.795	13707
511.867	13638
511.939	16150
512.010	33678
512.082	37020
512.154	15248
512.226	16096
512.298	18531
512.369	29637
512.441	24254
512.513	21888
512.585	18654
512.656	18698
512.728	20373
512.800	17129
512.871	14861
512.943	15562
513.015	13717
513.086	15280
513.158	16544
513.230	16816
513.301	22925
513.373	25953
513.444	17663
513.516	13343
513.588	14014
513.659	16092
513.731	18787
513.802	17920
513.874	25886
513.945	56353
514.016	29387
514.088	15359
514.159	16592
514.231	20212
514.302	27706
514.374	22687
514.445	19198
514.516	39459
514.588	39873
514.659	21149
514.730	37705
514.802	37297
514.873	30952
514.944	39583
515.016	33496
515.087	30522
515.158	33178
515.229	49321
515.301	37993
515.372	55464
515.443	50025
515.514	36664
515.585	26112
515.656	21925
515.728	18776
515.799	17177
515.870	17290
515.941	15947
516.012	17213
516.083	20389
516.154	22577
516.225	25525
516.296	25453
516.367	23540
516.438	23952
516.509	29410
516.580	36018
516.651	72624
516.722	291478
516.793	242935
516.864	48008
516.935	41780
517.006	42247
517.077	52259
517.148	95637
517.219	251946
517.289	627359
517.360	284985
517.431	120856
517.502	29045
517.573	22553
517.643	21457
517.714	23211
517.785	23918
517.856	23733
517.926	29431
517.997	32376
518.068	39227
518.138	51927
518.209	66022
518.280	163031
518.350	747503
518.421	561877
518.492	73196
518.562	33493
518.633	27985
518.703	22888
518.774	26085
518.845	34233
518.915	38336
518.986	27673
519.056	28480
519.127	45151
519.197	70621
519.268	170863
519.338	173331
519.408	34887
519.479	33296
519.549	29077
519.620	18584
519.690	15401
519.760	13936
519.831	14771
519.901	17126
519.971	13638
520.042	15813
520.112	18815
520.182	19622
520.253	23043
520.323	16720
520.393	21517
520.463	40036
520.534	25439
520.604	58009
520.674	33824
520.744	24728
520.814	55366
520.885	65598
520.955	48329
521.025	205291
521.095	139563
521.165	21909
521.235	17396
521.305	15285
521.375	13356
521.445	14067
521.515	17299
521.585	20400
521.655	21800
521.725	17498
521.795	17707
521.865	13241
521.935	18390
522.005	22179
522.075	13308
522.145	13804
522.215	15271
522.285	24237
522.355	29576
522.424	56700
522.494	64400
522.564	31505
522.634	32936
522.704	110368
522.774	72348
522.843	16554
522.913	13674
522.983	18899
523.053	16213
523.122	15048
523.192	16636
523.262	48723
523.331	82834
523.401	22187
523.471	11733
523.540	12224
523.610	9960
523.680	9440
523.749	9967
523.819	12781
523.888	16601
523.958	10051
524.027	10810
524.097	11477
524.166	9825
524.236	11762
524.305	12676
524.375	10340
524.444	9439
524.514	11875
524.583	12036
524.653	15412
524.722	17206
524.791	13934
524.861	11065
524.930	10643
524.999	9743
525.069	15096
525.138	13398
525.207	16637
525.277	13128
525.346	11527
525.415	11386
525.484	10668
525.554	13972
525.623	14686
525.692	10549
525.761	11146
525.830	10150
525.900	10481
525.969	14386
526.038	17967
526.107	17587
526.176	42685
526.245	47926
526.314	29180
526.383	35754
526.452	42883
526.522	53496
526.591	90445
526.660	68744
526.729	40666
526.797	30999
526.867	51511
526.935	238558
527.004	305978
527.073	154782
527.142	26786
527.211	14796
527.280	13384
527.349	16167
527.418	9918
527.487	10091
527.555	9545
527.624	7945
527.693	8049
527.762	10068
527.831	7767
527.899	9598
527.968	9325
528.037	8865
528.106	11175
528.174	19312
528.243	20436
528.312	20951
528.380	40465
528.449	15959
528.518	9599
528.586	6754
528.655	8654
528.723	7885
528.792	7850
528.861	8206
528.929	8754
528.998	7504
529.066	8030
529.135	7548
529.203	7422
529.272	6178
529.340	7928
529.409	9404
529.477	7381
529.545	10945
529.614	15747
529.682	12918
529.751	19585
529.819	17195
529.887	14519
529.956	8286
530.024	9312
530.092	7480
530.161	9963
530.229	14025
530.297	11302
530.365	8177
530.434	7253
530.502	6483
530.570	7864
530.638	6477
530.707	8424
530.775	10361
530.843	7316
530.911	6775
530.979	7555
531.047	8026
531.115	7389
531.183	7342
531.252	7988
531.320	7985
531.388	8197
531.456	7786
531.524	6711
531.592	8554
531.660	8955
531.728	7684
531.796	7956
531.864	7489
531.932	8322
532.000	7558
532.067	8495
532.135	9607
532.203	12223
532.271	12116
532.339	18137
532.407	46146
532.475	44346
532.542	18877
532.610	18500
532.678	20602
532.746	55754
532.814	226549
532.881	91081
532.949	15923
533.017	11518
533.084	9718
533.152	9115
533.220	8098
533.287	10384
533.355	9097
533.423	8116
533.490	8069
533.558	7736
533.625	9368
533.693	10887
533.761	11096
533.828	12038
533.896	10390
533.963	18614
534.031	26915
534.098	32950
534.166	21697
534.233	11099
534.300	11010
534.368	13331
534.435	10534
534.503	11259
534.570	12198
534.637	10404
534.705	9231
534.772	10412
534.840	11337
534.907	21176
534.974	35434
535.041	13499
535.109	13323
535.176	10784
535.243	8481
535.310	8930
535.378	9196
535.445	8392
535.512	7442
535.579	8400
535.646	7556
535.714	8520
535.781	10363
535.848	11634
535.915	12056
535.982	12535
536.049	12996
536.116	12292
536.183	12125
536.250	11610
536.317	11496
536.384	12603
536.451	17027
536.518	19694
536.585	13714
536.652	17258
536.719	21637
536.786	21331
536.853	16545
536.920	21061
536.987	32681
537.053	29312
537.120	84495
537.187	126528
537.254	17832
537.321	9672
537.388	10635
537.454	8844
537.521	7535
537.588	8436
537.654	9563
537.721	11202
537.788	12809
537.855	10208
537.921	9800
537.988	10440
538.055	9872
538.121	10089
538.188	11530
538.254	16123
538.321	29194
538.388	23464
538.454	11709
538.521	10239
538.587	8601
538.654	8515
538.720	8857
538.787	8697
538.853	9690
538.920	12508
538.986	13118
539.053	12011
539.119	11492
539.185	11335
539.252	11376
539.318	19195
539.385	16599
539.451	13801
539.517	14295
539.583	13851
539.650	23943
539.716	83137
539.782	38408
539.849	12560
539.915	11433
539.981	11335
540.047	13758
540.114	13328
540.180	12725
540.246	12276
540.312	16168
540.378	28921
540.444	35114
540.510	27309
540.576	86685
540.643	48847
540.709	12240
540.775	9985
540.841	10597
540.907	15035
540.973	26247
541.039	23196
541.105	20757
541.171	14928
541.237	10956
541.303	12063
541.369	14105
541.435	16547
541.500	25519
541.566	20211
541.632	11239
541.698	9520
541.764	9361
541.830	9312
541.896	8573
541.961	10657
542.027	11019
542.093	10837
542.159	11418
542.224	12946
542.290	17603
542.356	25659
542.421	32711
542.487	18665
542.553	12673
542.618	13993
542.684	12821
542.750	12062
542.815	13726
542.881	19879
542.947	62895
543.012	78954
543.078	14173
543.143	11279
543.209	11967
543.274	11171
543.340	13432
543.405	22638
543.471	53578
543.536	18386
543.602	10948
543.667	9955
543.732	10135
543.798	9055
543.863	11174
543.928	9136
543.994	8415
544.059	9296
544.124	9559
544.190	9435
544.255	10572
544.320	10794
544.386	11292
544.451	14850
544.516	18081
544.581	16806
544.646	35992
544.712	88502
544.777	25534
544.842	15181
544.907	14852
544.972	13046
545.037	12019
545.102	13181
545.168	12308
545.233	14681
545.298	15552
545.363	17245
545.428	18879
545.493	25620
545.558	60528
545.623	39208
545.688	15307
545.753	13297
545.818	11764
545.883	12556
545.947	12704
546.012	15070
546.077	15895
546.142	14025
546.207	13553
546.272	17045
546.337	18935
546.401	15966
546.466	12813
546.531	12881
546.596	13757
546.661	13486
546.725	13506
546.790	11805
546.855	11675
546.919	11210
546.984	12018
547.049	12807
547.113	16192
547.178	13495
547.243	13663
547.307	16411
547.372	16916
547.436	22404
547.501	15228
547.565	13487
547.630	17642
547.695	19446
547.759	19971
547.823	21025
547.888	14659
547.952	14372
548.017	14052
548.081	16823
548.146	23304
548.210	24784
548.274	14644
548.339	14430
548.403	12838
548.468	11708
548.532	12773
548.596	13181
548.660	12673
548.725	14517
548.789	16432
548.853	21841
548.917	16294
548.982	19455
549.046	26129
549.110	15106
549.174	14031
549.238	12187
549.303	12192
549.367	13487
549.431	13380
549.495	13180
549.559	13277
549.623	13582
549.687	14412
549.751	22574
549.815	17645
549.879	15446
549.943	12312
550.007	15979
550.071	15910
550.135	20334
550.199	17144
550.263	15122
550.327	16248
550.391	24367
550.455	20247
550.519	15526
550.582	16041
550.646	19494
550.710	24505
550.774	17734
550.838	15424
550.901	15712
550.965	18043
551.029	18208
551.093	20145
551.156	25461
551.220	45908
551.284	68442
551.347	30039
551.411	53150
551.475	91239
551.538	27954
551.602	16350
551.666	15952
551.729	13347
551.793	15185
551.856	14804
551.920	15834
551.983	14809
552.047	14365
552.110	13542
552.174	13989
552.237	13975
552.301	14471
552.364	14432
552.428	13444
552.491	13752
552.554	15366
552.618	15271
552.681	16511
552.745	16711
552.808	21494
552.871	29776
552.934	26193
552.998	18877
553.061	19287
553.124	18420
553.187	17199
553.251	18503
553.314	20981
553.377	21581
553.440	26893
553.503	65385
553.567	168672
553.630	51427
553.693	17851
553.756	15874
553.819	15453
553.882	13532
553.945	13942
554.008	13060
554.071	12493
554.134	12462
554.197	13045
554.260	12072
554.323	14980
554.386	14408
554.449	13619
554.512	13920
554.575	12718
554.638	13127
554.701	13561
554.764	12255
554.827	12612
554.889	11611
554.952	11091
555.015	10753
555.078	11260
555.141	11411
555.203	10806
555.266	11458
555.329	12526
555.391	12030
555.454	12927
555.517	12857
555.580	11943
555.642	11340
555.705	10900
555.768	11568
555.830	13149
555.893	10903
555.955	11458
556.018	12705
556.080	11545
556.143	11436
556.206	11211
556.268	12483
556.330	13544
556.393	13090
556.455	12779
556.518	17291
556.580	25105
556.643	13121
556.705	12055
556.767	10483
556.830	12295
556.892	12960
556.955	20057
557.017	19726
557.079	12757
557.142	11868
557.204	13115
557.266	25090
557.328	30592
557.391	13241
557.453	10328
557.515	11925
557.577	13358
557.639	15781
557.701	11538
557.764	9614
557.826	10676
557.888	11512
557.950	11589
558.012	11029
558.074	11708
558.136	15969
558.198	33172
558.260	24568
558.322	13666
558.384	13262
558.446	15427
558.508	16236
558.570	20169
558.632	29208
558.694	52198
558.756	36939
558.818	53152
558.880	170410
558.942	92147
559.003	37076
559.065	29385
559.127	15057
559.189	14311
559.251	16645
559.312	17047
559.374	27248
559.436	86606
559.498	79253
559.559	19695
559.621	15785
559.683	15825
559.744	20429
559.806	42453
559.868	81913
559.929	32359
559.991	18618
560.052	18548
560.114	31755
560.176	32844
560.237	22481
560.299	39074
560.360	21345
560.422	13133
560.483	11921
560.545	12115
560.606	10907
560.667	12394
560.729	11824
560.790	12505
560.852	11875
560.913	12081
560.974	11092
561.036	11458
561.097	11589
561.158	12660
561.220	13185
561.281	12880
561.342	12866
561.403	15945
561.465	16969
561.526	32232
561.587	60158
561.648	25881
561.709	14214
561.771	12912
561.832	12684
561.893	12464
561.954	13015
562.015	11833
562.076	12554
562.137	11750
562.198	12178
562.259	12501
562.320	13210
562.381	13385
562.442	18089
562.503	19450
562.564	12952
562.625	13119
562.686	12735
562.747	12954
562.808	14116
562.869	12974
562.930	15332
562.991	15718
563.051	14569
563.112	13572
563.173	12908
563.234	12692
563.294	13676
563.355	12773
563.416	13523
563.477	13823
563.537	13314
563.598	15037
563.659	13829
563.720	13269
563.780	14567
563.841	15938
563.901	14952
563.962	14816
564.023	13892
564.083	15904
564.144	14628
564.204	15053
564.265	15821
564.325	18046
564.386	29214
564.446	36860
564.507	17385
564.567	14853
564.628	14883
564.688	15315
564.749	16136
564.809	17381
564.869	20372
564.930	18886
564.990	16159
565.050	16039
565.111	16009
565.171	16289
565.231	15758
565.292	17423
565.352	15897
565.412	17394
565.472	19003
565.532	18761
565.593	17782
565.653	17672
565.713	17522
565.773	20693
565.833	20900
565.893	26831
565.953	23158
566.013	21836
566.074	22610
566.134	26418
566.194	35614
566.254	44878
566.314	35263
566.374	30105
566.434	28482
566.494	29574
566.554	30908
566.614	32632
566.673	34039
566.733	36644
566.793	38713
566.853	41326
566.913	42141
566.973	42137
567.033	43892
567.092	41839
567.152	41545
567.212	43841
567.272	44750
567.331	48206
567.391	49104
567.451	50552
567.511	56489
567.570	59562
567.630	49020
567.690	45125
567.749	47049
567.809	49167
567.868	54390
567.928	62796
567.988	72586
568.047	86022
568.107	104322
568.166	131533
568.226	179948
568.285	251328
568.345	268451
568.404	245956
568.464	223587
568.523	207467
568.582	206716
568.642	215361
568.701	242872
568.761	300246
568.820	407108
568.879	473882
568.939	432923
568.998	359280
569.057	297846
569.116	247999
569.176	203644
569.235	173251
569.294	147296
569.353	126732
569.413	110357
569.472	97501
569.531	85201
569.590	75680
569.649	68443
569.708	62106
569.767	57584
569.827	54378
569.886	51317
569.945	45166
570.004	40812
570.063	39088
570.122	37172
570.181	36384
570.240	35918
570.299	35434
570.358	34279
570.417	28910
570.475	26155
570.534	26323
570.593	26768
570.652	25262
570.711	25381
570.770	22953
570.829	24718
570.887	24955
570.946	24623
571.005	21065
571.064	20701
571.122	20059
571.181	21690
571.240	20634
571.299	17961
571.357	18391
571.416	19809
571.475	20066
571.533	22107
571.592	18256
571.650	18798
571.709	17944
571.768	14910
571.826	15868
571.885	15005
571.943	15281
572.002	14423
572.060	15477
572.119	15335
572.177	14116
572.236	13605
572.294	13509
572.352	13183
572.411	13760
572.469	13304
572.528	13035
572.586	13117
572.644	14605
572.703	18270
572.761	15201
572.819	14035
572.877	13049
572.936	11775
572.994	12529
573.052	12077
573.110	12544
573.169	12790
573.227	13027
573.285	12300
573.343	12906
573.401	12775
573.459	12745
573.517	11593
573.576	12406
573.634	11612
573.692	13677
573.750	11694
573.808	12000
573.866	13228
573.924	15891
573.982	17050
574.040	12708
574.098	11983
574.155	11879
574.213	11557
574.271	11524
574.329	11511
574.387	11173
574.445	11112
574.503	10224
574.560	10873
574.618	10158
574.676	10571
574.734	11211
574.792	10694
574.849	10891
574.907	10984
574.965	11124
575.022	11257
575.080	10308
575.138	11438
575.195	11435
575.253	11279
575.311	11550
575.368	11157
575.426	11343
575.483	11074
575.541	11327
575.598	10693
575.656	11196
575.713	11889
575.771	11119
575.828	10067
575.886	10970
575.943	12432
576.001	11638
576.058	11615
576.115	12924
576.173	13790
576.230	13668
576.287	15535
576.345	15596
576.402	12435
576.459	12680
576.517	11988
576.574	13618
576.631	13707
576.688	13204
576.746	11937
576.803	11818
576.860	11465
576.917	12134
576.974	12529
577.031	11786
577.089	11996
577.146	13429
577.203	12444
577.260	13985
577.317	13160
577.374	14540
577.431	14089
577.488	13155
577.545	12442
577.602	12728
577.659	12632
577.716	12567
577.773	14577
577.830	13795
577.886	12542
577.943	12590
578.000	13202
578.057	14101
578.114	14422
578.171	14881
578.227	17872
578.284	18741
578.341	17257
578.398	16002
578.454	17211
578.511	16447
578.568	16624
578.625	15774
578.681	13673
578.738	12575
578.794	13375
578.851	13521
578.908	13208
578.964	13399
579.021	13956
579.077	12877
579.134	13554
579.190	13323
579.247	13304
579.303	12409
579.360	11991
579.416	12747
579.473	13338
579.529	13309
579.586	12539
579.642	13046
579.698	13349
579.755	14380
579.811	13513
579.867	14621
579.924	13957
579.980	15395
580.036	16982
580.093	19212
580.149	21810
580.205	27740
580.261	24270
580.317	20585
580.374	19116
580.430	19547
580.486	18680
580.542	17329
580.598	16077
580.619	16141
580.654	16275
580.692	15822
580.710	15627
580.765	15602
580.767	15623
580.823	15038
580.838	15180
580.879	15617
580.911	15056
580.935	14690
580.984	14322
580.991	14288
581.047	15203
581.057	15338
581.103	16049
581.130	15885
581.159	15749
581.203	17013
581.215	17382
581.270	17235
581.276	17132
581.326	16251
581.349	16187
581.382	16122
581.422	15634
581.438	15467
581.494	16587
581.494	16563
581.550	15580
581.567	15635
581.606	15798
581.640	15839
581.661	15890
581.713	15976
581.717	15994
581.773	15618
581.786	15406
581.829	14831
581.859	15362
581.885	15786
581.932	15751
581.940	15769
581.996	15640
582.004	15702
582.052	15999
582.077	15819
582.107	15757
582.150	15844
582.163	15848
582.219	15720
582.223	15751
582.274	16346
582.296	16216
582.330	15960
582.368	17080
582.386	17631
582.441	16202
582.441	16208
582.497	15975
582.514	16425
582.552	17492
582.587	17586
582.608	17646
582.659	18254
582.663	18305
582.719	16439
582.732	16534
582.774	16844
582.805	17079
582.830	17353
582.877	17794
582.885	17833
582.941	17066
582.950	17168
582.996	18046
583.023	18596
583.052	19081
583.095	19258
583.107	19350
583.162	20396
583.168	20719
583.218	23493
583.240	22834
583.273	21915
583.313	21184
583.328	20825
583.384	19931
583.385	19919
583.439	19838
583.458	19894
583.494	19900
583.531	19357
583.549	19075
583.603	18692
583.605	18682
583.660	18956
583.676	19121
583.715	19717
583.748	20072
583.770	20104
583.820	19811
583.825	19802
583.881	20382
583.893	20287
583.936	19761
583.965	19473
583.991	19283
584.038	19813
584.046	19905
584.101	19660
584.110	19695
584.156	19947
584.183	20749
584.211	21457
584.255	20862
584.266	20735
584.321	20970
584.328	21022
584.376	21132
584.400	21171
584.431	21375
584.472	21406
584.486	21334
584.541	21702
584.545	21715
584.596	21936
584.617	22299
584.651	22883
584.689	23365
584.706	23481
584.761	23620
584.762	23639
584.816	23994
584.834	24018
584.871	23952
584.906	24226
584.926	24462
584.978	25191
584.980	25184
585.035	24516
585.051	24862
585.090	25872
585.123	26060
585.145	26169
585.195	27075
585.200	27139
585.254	28183
585.267	28599
585.309	30485
585.340	31979
585.364	32552
585.412	32151
585.419	32000
585.473	30872
585.484	30803
585.528	31036
585.556	32102
585.583	33269
585.628	35275
585.637	35912
585.692	43041
585.700	45173
585.747	57192
585.772	56908
585.801	52158
585.845	40371
585.856	38073
585.910	34406
585.917	34395
585.965	34949
585.989	34951
586.019	34984
586.061	36039
586.074	36305
586.128	36943
586.133	37051
586.183	38296
586.205	39264
586.237	39945
586.277	40413
586.292	40625
586.346	41076
586.349	41199
586.401	41702
586.421	42100
586.455	43349
586.493	45355
586.509	46367
586.564	50341
586.565	50613
586.618	61593
586.637	64299
586.672	64787
586.709	57438
586.727	53367
586.781	50864
586.781	50775
586.835	51974
586.853	52472
586.889	53370
586.925	54784
586.944	55346
586.996	56668
586.998	56606
587.052	59791
587.068	60805
587.106	62575
587.140	63805
587.161	64388
587.212	66902
587.215	66870
587.269	69858
587.284	70767
587.323	73336
587.356	75799
587.377	76813
587.427	80366
587.431	80482
587.485	84882
587.499	86309
587.539	89210
587.571	91980
587.593	94240
587.643	100683
587.648	101020
587.702	107604
587.715	109785
587.755	115505
587.786	120496
587.810	123863
587.858	132932
587.864	133712
587.917	145150
587.930	148298
587.971	157613
588.001	166130
588.025	172974
588.073	188933
588.079	190380
588.133	209264
588.145	214350
588.187	231952
588.217	247300
588.241	259550
588.288	287095
588.295	290539
588.348	329236
588.360	339018
588.402	373433
588.431	401461
588.456	426317
588.503	481510
588.510	489112
588.564	565140
588.575	583901
588.617	661067
588.646	718053
588.671	778952
588.718	905631
588.725	929776
588.778	1125934
588.789	1163284
588.832	1361524
588.861	1481397
588.886	1547264
588.932	1630435
588.939	1614676
588.993	1471729
589.004	1465025
589.047	1573274
589.075	1652552
589.100	1586035
589.147	1399416
589.154	1372796
589.207	1139734
589.218	1092106
589.261	995777
589.290	941632
589.314	937085
589.361	949176
589.368	962128
589.421	1099600
589.433	1129507
589.475	1335366
589.504	1464643
589.528	1509195
589.576	1554860
589.582	1546077
589.635	1529499
589.647	1530247
589.689	1348355
589.718	1177211
589.742	1045998
589.790	766414
589.795	746178
589.849	578866
589.861	543983
589.902	467167
589.932	416737
589.955	383500
590.004	322068
590.009	315983
590.062	270354
590.075	261317
590.115	236034
590.146	219371
590.168	207424
590.218	185989
590.222	183578
590.275	165111
590.289	161576
590.328	150429
590.360	142411
590.381	136226
590.431	125424
590.435	124163
590.488	113496
590.503	111298
590.541	105303
590.574	101605
590.594	98431
590.645	92014
590.647	91302
590.700	85040
590.716	83706
590.753	78980
590.787	75695
590.806	73652
590.859	69330
590.859	68897
590.912	65656
590.930	64947
590.965	62484
591.001	61067
591.018	59768
591.071	56290
591.072	56564
591.124	53898
591.143	53448
591.177	52005
591.214	51036
591.230	50109
591.283	47857
591.285	48037
591.336	47108
591.356	47082
591.389	45192
591.427	43446
591.442	42693
591.495	40789
591.498	40885
591.547	38844
591.569	38333
591.600	37947
591.640	37723
591.653	37044
591.706	35150
591.711	35172
591.759	34225
591.782	34002
591.811	34304
591.853	35322
591.864	34648
591.917	31943
591.924	31747
591.969	30647
591.995	30340
592.022	29956
592.066	29776
592.075	29594
592.127	29525
592.137	29692
592.180	30956
592.208	32043
592.233	30547
592.279	27982
592.285	27587
592.338	25691
592.350	25422
592.390	23586
592.421	22483
592.443	22657
592.491	23547
592.495	23336
592.548	22483
592.562	22400
592.600	22036
592.633	21996
592.653	21683
592.704	21141
592.705	21261
592.775	21487
592.846	20558
592.916	20593
592.987	21311
593.058	20954
593.128	19075
593.199	18852
593.270	19263
593.341	17958
593.411	17335
593.482	17809
593.553	17243
593.623	16082
593.694	16505
593.764	17813
593.835	16531
593.906	15707
593.976	15604
594.047	16166
594.117	16313
594.188	19026
594.258	15291
594.329	14578
594.399	14948
594.470	14745
594.540	13275
594.611	13301
594.681	13787
594.751	13958
594.822	15092
594.892	15956
594.963	15754
595.033	14447
595.103	13876
595.174	15298
595.244	19033
595.314	26617
595.384	16852
595.455	12651
595.525	11928
595.595	11722
595.665	12937
595.736	12793
595.806	13128
595.876	12132
595.946	11519
596.016	11005
596.087	11632
596.157	12084
596.227	11467
596.297	12274
596.367	11362
596.437	13248
596.507	15983
596.577	23138
596.647	15565
596.717	11131
596.787	11467
596.857	10946
596.927	11249
596.997	11235
597.067	11082
597.137	13039
597.207	12349
597.277	10966
597.347	10529
597.417	11068
597.487	10693
597.557	11150
597.626	11287
597.696	12090
597.766	13695
597.836	19681
597.906	15165
597.975	11798
598.045	10056
598.115	10443
598.185	10226
598.254	11419
598.324	11174
598.394	11858
598.464	11591
598.533	10829
598.603	10805
598.672	10347
598.742	10287
598.812	10561
598.881	9001
598.951	10334
599.020	9074
599.090	9986
599.159	9126
599.229	10214
599.299	8656
599.368	9595
599.437	9070
599.507	9640
599.576	9956
599.646	10529
599.715	10295
599.785	9824
599.854	9702
599.924	11805
599.993	10993
600.062	9542
600.132	9570
600.201	9337
600.270	10611
600.340	10199
600.409	9269
600.478	9602
600.547	8230
600.617	9828
600.686	8309
600.755	10285
600.824	9645
600.894	9926
600.963	8999
601.032	8955
601.101	8058
601.170	9176
601.239	8844
601.308	9193
601.378	9360
601.447	9225
601.516	8040
601.585	8897
601.654	10210
601.723	9107
601.792	9318
601.861	9796
601.930	11013
601.999	10860
602.068	9146
602.137	8798
602.206	10020
602.275	9228
602.343	10466
602.412	12366
602.481	9223
602.550	8179
602.619	7769
602.688	9006
602.756	8242
602.825	7714
602.894	7317
602.963	7748
603.032	7950
603.100	7746
603.169	8054
603.238	8288
603.307	7656
603.375	8267
603.444	7923
603.513	8071
603.581	8113
603.650	9142
603.719	6805
603.787	7431
603.856	8593
603.924	7875
603.993	8538
604.061	8112
604.130	8818
604.198	8378
604.267	8274
604.335	7524
604.404	7438
604.472	7815
604.541	8009
604.609	8638
604.678	7803
604.746	7595
604.815	7789
604.883	8044
604.951	7642
605.020	7840
605.088	7121
605.156	8194
605.225	7539
605.293	7213
605.361	8202
605.429	8469
605.498	8322
605.566	8758
605.634	7842
605.702	8757
605.771	7851
605.839	8755
605.907	8115
605.975	8252
606.043	7604
606.111	7779
606.180	8121
606.248	9295
606.316	11206
606.384	8652
606.452	11464
606.520	11714
606.588	10772
606.656	6939
606.724	7858
606.792	7269
606.860	6511
606.928	7117
606.996	6034
607.064	6961
607.132	6536
607.200	6724
607.267	7132
607.335	7352
607.403	6987
607.471	6776
607.539	6122
607.607	7305
607.674	6666
607.742	7578
607.810	8258
607.878	7514
607.946	6628
608.013	7247
608.081	6393
608.149	7572
608.216	6993
608.284	7306
608.352	6265
608.419	7564
608.487	10384
608.555	10491
608.622	6886
608.690	6369
608.757	6860
608.825	6853
608.893	6732
608.960	8139
609.028	10293
609.095	12781
609.163	10471
609.230	7427
609.298	7036
609.365	7137
609.432	6081
609.500	7320
609.567	7254
609.635	7733
609.702	7903
609.769	8112
609.837	8760
609.904	8830
609.971	7171
610.039	9027
610.106	10935
610.173	18392
610.241	39414
610.308	58444
610.375	43626
610.442	14902
610.509	8041
610.577	8770
610.644	7069
610.711	6839
610.778	6004
610.845	6833
610.912	6643
610.980	7933
611.047	10458
611.114	10343
611.181	7010
611.248	6563
611.315	7116
611.382	6832
611.449	6172
611.516	7138
611.583	6376
611.650	7070
611.717	6544
611.784	7402
611.851	7369
611.918	8683
611.984	9252
612.051	12843
612.118	23994
612.185	57213
612.252	65633
612.319	15977
612.386	8223
612.452	8518
612.519	8452
612.586	11821
612.653	10604
612.719	8050
612.786	7216
612.853	6787
612.919	6084
612.986	6699
613.053	5719
613.120	5997
613.186	5387
613.253	7253
613.319	6028
613.386	7036
613.453	6399
613.519	7983
613.586	8856
613.652	15574
613.719	12845
613.785	11796
613.852	7805
613.918	7272
613.985	9346
614.051	13373
614.118	31585
614.184	51391
614.250	13784
614.317	8218
614.383	5911
614.449	6550
614.516	6119
614.582	7692
614.648	6755
614.715	7125
614.781	6500
614.847	6588
614.914	7231
614.980	8502
615.046	7227
615.112	8420
615.179	7549
615.245	12243
615.311	16118
615.377	31210
615.443	51479
615.509	30639
615.575	16576
615.642	13022
615.708	11416
615.774	13326
615.840	14723
615.906	21485
615.972	34674
616.038	72318
616.104	115870
616.170	116491
616.236	127571
616.302	35440
616.368	16981
616.434	13941
616.500	11492
616.565	11132
616.631	11260
616.697	9831
616.763	9837
616.829	11718
616.895	17811
616.961	22182
617.026	13853
617.092	9078
617.158	7220
617.224	7607
617.289	7298
617.355	7114
617.421	7917
617.487	7860
617.552	6440
617.618	6242
617.684	5656
617.749	8083
617.815	5479
617.880	6577
617.946	6273
618.012	6714
618.077	5882
618.143	6104
618.208	6148
618.274	6693
618.339	7257
618.405	5956
618.470	6530
618.536	6558
618.601	7545
618.667	6727
618.732	7825
618.798	6377
618.863	6453
618.928	6523
618.994	7329
619.059	8098
619.124	11359
619.190	10504
619.255	6344
619.320	6778
619.386	6143
619.451	5764
619.516	5862
619.581	6428
619.647	6501
619.712	6456
619.777	5980
619.842	6537
619.907	6182
619.972	7184
620.038	6262
620.103	6728
620.168	5600
620.233	5829
620.298	5963
620.363	5941
620.428	5369
620.493	6490
620.558	5405
620.623	6198
620.688	5687
620.753	6912
620.818	4482
620.883	6621
620.948	5339
621.013	6326
621.078	5092
621.143	5387
621.207	7253
621.272	6959
621.337	7599
621.402	8487
621.467	9656
621.532	13687
621.596	9907
621.661	8262
621.726	6734
621.791	7508
621.855	7121
621.920	7936
621.985	8237
622.049	11436
622.114	10452
622.179	9422
622.243	8725
622.308	7781
622.373	8112
622.437	8149
622.502	7134
622.566	7875
622.631	6596
622.695	8190
622.760	7587
622.824	7489
622.889	7950
622.953	8973
623.018	12009
623.082	16395
623.147	8652
623.211	7068
623.276	8250
623.340	6721
623.404	7402
623.469	7102
623.533	6085
623.597	6852
623.662	7572
623.726	6832
623.790	6295
623.854	6413
623.919	6934
623.983	7166
624.047	8044
624.111	7401
624.176	7517
624.240	7540
624.304	9173
624.368	7365
624.432	7181
624.496	6834
624.560	8214
624.625	9956
624.689	7928
624.753	7206
624.817	6921
624.881	6977
624.945	6945
625.009	6915
625.073	6235
625.137	7256
625.201	8336
625.265	10828
625.329	7055
625.393	7370
625.456	7584
625.520	7532
625.584	8660
625.648	10327
625.712	16767
625.776	39439
625.839	59464
625.903	34168
625.967	9316
626.031	14986
626.095	30241
626.158	16153
626.222	5630
626.286	6446
626.349	5168
626.413	5967
626.477	6715
626.540	5810
626.604	5522
626.668	5502
626.731	5338
626.795	5661
626.858	4829
626.922	4842
626.986	5243
627.049	5056
627.113	5752
627.176	5312
627.240	4912
627.303	5512
627.366	5100
627.430	5369
627.493	5330
627.557	5948
627.620	5667
627.684	5032
627.747	4242
627.810	4758
627.874	5020
627.937	4623
628.000	6164
628.064	5468
628.127	4045
628.190	5536
628.253	5164
628.317	4709
628.380	5003
628.443	4584
628.506	4995
628.569	4944
628.632	4051
628.696	4573
628.759	4291
628.822	3864
628.885	4309
628.948	4141
629.011	3945
629.074	4307
629.137	4185
629.200	3856
629.263	4819
629.326	4294
629.389	4499
629.452	4433
629.515	4423
629.578	4353
629.641	5075
629.704	4415
629.767	4418
629.830	3767
629.892	3515
629.955	3174
630.018	4650
630.081	4893
630.144	7130
630.207	5724
630.269	5883
630.332	4805
630.395	5154
630.458	3551
630.520	3351
630.583	4254
630.646	3631
630.708	5264
630.771	3202
630.834	3853
630.896	2946
630.959	3281
631.021	3207
631.084	3549
631.146	3758
631.209	5869
631.272	3857
631.334	3487
631.397	3270
631.459	3653
631.522	3513
631.584	4345
631.646	3783
631.709	4180
631.771	5217
631.834	4991
631.896	3713
631.958	3467
632.021	2997
632.083	3040
632.145	4147
632.208	3221
632.270	4143
632.332	2472
632.395	2541
632.457	4258
632.519	3154
632.581	3821
632.643	1731
632.706	3462
632.768	2914
632.830	2747
632.892	3075
632.954	3004
633.016	3055
633.078	2812
633.141	2501
633.203	3219
633.265	3344
633.327	2775
633.389	2531
633.451	4156
633.513	5143
633.575	5063
633.637	4066
633.698	4958
633.760	4331
633.822	3476
633.884	2679
633.946	3251
634.008	3110
634.070	3931
634.132	3404
634.193	3689
634.255	3794
634.317	3235
634.379	3627
634.441	2326
634.502	3622
634.564	4843
634.626	5571
634.687	10167
634.749	6289
634.811	3841
634.873	2673
634.934	3151
634.996	2515
635.057	3690
635.119	2681
635.181	2965
635.242	3100
635.304	1911
635.365	3803
635.427	2387
635.488	3042
635.550	2906
635.611	3094
635.673	1752
635.734	2905
635.796	3089
635.857	3686
635.918	2709
635.980	3818
636.041	3022
636.102	2959
636.164	3795
636.225	3511
636.286	2665
636.348	3447
636.409	3216
636.470	2537
636.531	2993
636.593	3733
636.654	4093
636.715	2125
636.776	3028
636.838	1742
636.899	3474
636.960	2726
637.021	4101
637.082	4024
637.143	5564
637.204	2251
637.265	2065
637.326	2018
637.387	2087
637.448	1759
637.509	2980
637.570	1684
637.631	2777
637.692	1771
637.753	1716
637.814	1845
637.875	1833
637.936	2020
637.997	2461
638.058	2997
638.119	2648
638.179	2540
638.240	2214
638.301	2463
638.362	2186
638.423	2291
638.483	2889
638.544	1015
638.605	2144
638.666	1543
638.726	2405
638.787	2247
638.848	2247
638.908	2276
638.969	2499
639.030	2134
639.090	2109
639.151	1611
639.211	3101
639.272	3071
639.332	6521
639.393	4997
639.453	2133
639.514	2476
639.574	2672
639.635	1702
639.695	2473
639.756	1848
639.816	2923
639.877	3232
639.937	5450
639.997	9779
640.058	5311
640.118	1950
640.178	2337
640.239	1578
640.299	2075
640.359	2096
640.420	1778
640.480	2199
640.540	2520
640.600	1989
640.661	2389
640.721	1575
640.781	4701
640.841	2238
640.901	3538
640.961	1854
641.021	1906
641.082	2273
641.142	5660
641.202	5030
641.262	1039
641.322	2365
641.382	1570
641.442	2457
641.502	1685
641.562	1124
641.622	1638
641.682	1790
641.742	1359
641.802	2147
641.861	1953
641.921	2774
641.981	3297
642.041	2466
642.101	3291
642.161	2766
642.221	2212
642.280	1344
642.340	2811
642.400	1064
642.460	2161
642.519	1343
642.579	1679
642.639	1860
642.698	709
642.758	2157
642.818	1635
642.877	1175
642.937	1886
642.997	1806
643.056	3878
643.116	2550
643.175	3256
643.235	1586
643.294	2149
643.354	1536
643.414	1726
643.473	2238
643.532	2421
643.592	2776
643.651	3836
643.711	6385
643.770	11460
643.830	21619
643.889	68120
643.948	39512
644.008	5111
644.067	2493
644.126	2534
644.186	1845
644.245	1794
644.304	1114
644.363	2116
644.423	1393
644.482	1153
644.541	957
644.600	632
644.659	1809
644.719	2107
644.778	2144
644.837	2938
644.896	4967
644.955	10155
645.014	7597
645.073	3583
645.132	1446
645.191	2526
645.250	1633
645.309	2717
645.368	1148
645.427	2471
645.486	971
645.545	3284
645.604	2195
645.663	2112
645.722	1278
645.781	2170
645.840	1980
645.898	1302
645.957	3331
646.016	2715
646.075	5281
646.134	8644
646.192	20077
646.251	51086
646.310	17220
646.369	2533
646.427	1542
646.486	1048
646.545	2001
646.603	1468
646.662	1453
646.721	2053
646.779	461
646.838	905
646.896	2367
646.955	1074
647.014	2021
647.072	2498
647.131	6671
647.189	5921
647.248	1086
647.306	2690
647.365	800
647.423	246
647.481	1787
647.540	642
647.598	985
647.657	1189
647.715	1303
647.773	1229
647.832	661
647.890	443
647.948	790
648.007	1975
648.065	756
648.123	795
648.181	2291
648.240	2116
648.298	1743
648.356	882
648.414	1624
648.472	1605
648.531	1765
648.589	1972
648.647	556
648.705	853
648.763	1408
648.821	1403
648.879	930
648.937	1729
648.995	1266
649.053	1333
649.111	1809
649.169	3641
649.227	4820
649.285	5733
649.343	18404
649.401	22194
649.459	9883
649.516	11445
649.574	5179
649.632	10550
649.690	21957
649.748	8573
649.806	2966
649.863	7673
649.921	5542
649.979	5131
650.037	2347
650.094	-228
650.152	840
650.210	288
650.268	1460
650.325	1596
650.383	777
650.440	262
650.498	2064
650.556	1263
650.613	-174
650.671	1221
650.728	323
650.786	2000
650.843	866
650.901	620
650.958	1319
651.016	961
651.073	1113
651.131	887
651.188	-944
651.246	1202
651.303	-249
651.360	1383
651.418	480
651.475	1320
651.532	211
651.590	1247
651.647	-112
651.704	917
651.762	1089
651.819	1337
651.876	311
651.933	1006
651.990	969
652.048	87
652.105	530
652.162	1654
652.219	372
652.276	1048
652.333	708
652.390	-225
652.448	146
652.505	372
652.562	1071
652.619	454
652.676	1841
652.733	3690
652.790	743
652.847	212
652.904	871
652.961	479
653.017	535
653.074	988
653.131	1143
653.188	-168
653.245	-267
653.302	917
653.359	-217
653.415	996
653.472	-100
653.529	789
653.586	379
653.642	566
653.699	101
653.756	231
653.813	43
653.869	423
653.926	406
653.983	490
654.039	888
654.096	296
654.152	1236
654.209	255
654.266	836
654.322	-526
654.379	723
654.435	1338
654.492	1158
654.548	2345
654.605	3250
654.661	3874
654.717	604
654.774	1611
654.830	1038
654.887	465
654.943	199
655.000	1323
655.056	1340
655.112	1173
655.168	840
655.225	1208
655.281	1628
655.337	1369
655.394	4009
655.450	4304
655.506	2511
655.562	3151
655.618	4847
655.675	1451
655.731	2081
655.787	1259
655.843	1743
655.899	1141
655.955	2340
656.011	2546
656.067	1459
656.123	3882
656.179	3299
656.235	4488
656.291	3678
656.347	4249
656.403	2944
656.459	2781
656.515	3694
656.571	3286
656.627	2228
656.683	1807
656.739	1521
656.795	1517
656.850	1706
656.906	1819
656.962	1665
657.018	1249
657.074	533
657.129	1595
657.185	1074
657.241	1052
657.297	79
657.352	681
657.408	216
657.464	1956
657.519	737
657.575	265
657.630	309
657.686	682
657.742	-548
657.797	907
657.853	-84
657.908	1842
657.964	-472
658.019	692
658.075	112
658.130	1261
658.186	463
658.241	512
658.297	385
658.352	21
658.407	632
658.463	144
658.518	1021
658.573	1176
658.629	-307
658.684	858
658.739	811
658.795	-546
658.850	410
658.905	162
658.960	434
659.016	-63
659.071	775
659.126	681
659.181	526
659.236	1951
659.291	3343
659.346	1448
659.401	1240
659.457	2023
659.512	1917
659.567	1775
659.622	433
659.677	956
659.732	-431
659.787	615
659.842	800
659.897	1286
659.952	734
660.007	422
660.061	-151
660.116	276
660.171	-435
660.226	1062
660.281	1204
660.336	-630
660.391	956
660.445	331
660.500	-61
660.555	-69
660.610	-1230
660.664	947
660.719	-112
660.774	954
660.828	697
660.883	668
660.938	-267
660.992	-437
661.047	993
661.101	820
661.156	-782
661.211	163
661.265	-12
661.320	-627
661.374	428
661.429	308
661.483	-155
661.538	-542
661.592	-683
661.647	716
661.701	-82
661.755	-176
661.810	126
661.864	-823
661.919	-56
661.973	633
662.027	-421
662.081	-393
662.136	-954
662.190	593
662.244	1180
662.299	244
662.353	730
662.407	-595
662.461	65
662.515	1176
662.569	102
662.624	1619
662.678	-465
662.732	1187
662.786	-920
662.840	824
662.894	211
662.948	348
663.002	-531
663.056	-56
663.110	-1209
663.164	-196
663.218	447
663.272	128
663.326	-114
663.380	415
663.434	340
663.488	-43
663.542	66
663.595	294
663.649	-414
663.703	247
663.757	396
663.811	-843
663.864	-396
663.918	552
663.972	-316
664.026	264
664.079	-31
664.133	259
664.187	-100
664.240	356
664.294	-282
664.348	664
664.401	404
664.455	996
664.508	-667
664.562	417
664.615	493
664.669	-724
664.722	468
664.776	-575
664.829	-710
664.883	430
664.936	-389
664.990	412
665.043	-294
665.097	-287
665.150	316
665.203	-379
665.257	-294
665.310	302
665.363	-171
665.417	338
665.470	222
665.523	-115
665.576	575
665.630	-41
665.683	376
665.736	124
665.789	576
665.842	-72
665.895	-728
665.949	811
666.002	167
666.055	473
666.108	17
666.161	157
666.214	209
666.267	927
666.320	645
666.373	796
666.426	174
666.479	199
666.532	247
666.585	-99
666.638	879
666.691	841
666.744	680
666.796	358
666.849	510
666.902	1132
666.955	84
667.008	101
667.060	-565
667.113	-346
667.166	-356
667.219	240
667.271	-219
667.324	271
667.377	-451
667.430	27
667.482	73
667.535	-8
667.587	656
667.640	1165
667.693	48
667.745	1568
667.798	2629
667.850	1387
667.903	460
667.955	270
668.008	156
668.060	745
668.113	743
668.165	774
668.218	-98
668.270	557
668.322	-384
668.375	212
668.427	958
668.479	-198
668.532	-210
668.584	397
668.636	-171
668.689	380
668.741	-470
668.793	707
668.845	213
668.898	559
668.950	-399
669.002	650
669.054	-457
669.106	244
669.158	652
669.211	848
669.263	820
669.315	279
669.367	1210
669.419	99
669.471	1271
669.523	1603
669.575	2616
669.627	2851
669.679	1341
669.731	1756
669.783	1026
669.835	1849
669.886	1090
669.938	1561
669.990	478
670.042	-68
670.094	777
670.146	834
670.197	1405
670.249	2296
670.301	2503
670.353	4838
670.404	6869
670.456	10016
670.508	16127
670.560	26702
670.611	42319
670.663	73058
670.715	144734
670.766	349759
670.818	253295
670.869	44777
670.921	12632
670.972	7989
671.024	4913
671.075	3308
671.127	2196
671.178	2037
671.230	2029
671.281	2149
671.333	948
671.384	1068
671.436	1374
671.487	1706
671.538	1382
671.590	1312
671.641	1358
671.692	2504
671.744	3452
671.795	4190
671.846	1841
671.897	1087
671.949	290
672.000	788
672.051	1474
672.102	1753
672.153	-175
672.204	755
672.256	580
672.307	765
672.358	750
672.409	544
672.460	314
672.511	428
672.562	334
672.613	485
672.664	419
672.715	519
672.766	783
672.817	607
672.868	599
672.919	1075
672.970	260
673.021	132
673.071	89
673.122	1202
673.173	1042
673.224	474
673.275	308
673.326	-320
673.376	858
673.427	139
673.478	94
673.528	1055
673.579	354
673.630	299
673.680	-115
673.731	158
673.782	-116
673.832	284
673.883	1145
673.934	-19
673.984	559
674.035	-217
674.085	-278
674.136	642
674.186	533
674.237	541
674.287	2057
674.338	2348
674.388	-31
674.438	129
674.489	-301
674.539	760
674.589	493
674.640	762
674.690	-46
674.740	224
674.791	-143
674.841	451
674.891	1112
674.942	-164
674.992	266
675.042	732
675.092	-404
675.142	331
675.193	-154
675.243	118
675.293	-235
675.343	542
675.393	10
675.443	1258
675.493	-65
675.543	117
675.593	-266
675.643	-98
675.693	-111
675.743	-68
675.793	-411
675.843	-554
675.893	582
675.943	218
675.993	581
676.043	114
676.093	812
676.142	53
676.192	481
676.242	102
676.292	-339
676.341	-551
676.391	335
676.441	-183
676.491	147
676.540	-176
676.590	-94
676.640	344
676.689	-219
676.739	-558
676.789	-497
676.838	-195
676.888	138
676.937	-210
676.987	-449
677.037	-892
677.086	-146
677.136	-217
677.185	-691
677.235	-181
677.284	-542
677.333	-503
677.383	-465
677.432	-407
677.482	-806
677.531	55
677.580	-743
677.630	-192
677.679	-396
677.728	34
677.778	-460
677.827	527
677.876	-418
677.925	-5
677.975	-589
678.024	-24
678.073	-1013
678.122	-663
678.171	-139
678.220	57
678.269	606
678.319	424
678.368	24
678.417	-21
678.466	-625
678.515	272
678.564	-550
678.613	613
678.662	-303
678.711	-667
678.760	-232
678.809	404
678.857	-93
678.906	-480
678.955	-393
679.004	148
679.053	-761
679.102	-1373
679.151	-659
679.199	-515
679.248	-190
679.297	-387
679.346	-316
679.394	-302
679.443	-628
679.492	-254
679.540	8
679.589	-49
679.638	-116
679.686	117
679.735	-142
679.784	-386
679.832	-1130
679.881	-590
679.929	-619
679.978	-285
680.026	-1122
680.075	624
680.123	-200
680.172	319
680.220	-1086
680.268	-493
680.317	-1084
680.365	123
680.414	-474
680.462	-221
680.510	-406
680.559	-165
680.607	-717
680.655	-308
680.703	-775
680.752	82
680.800	-164
680.848	-441
680.896	-748
680.945	-899
680.993	-980
681.041	-388
681.089	-1017
681.137	-6
681.185	-994
681.233	-776
681.258	-731
681.281	-700
681.329	-786
681.377	-723
681.380	-680
681.425	-113
681.473	-269
681.502	-107
681.521	-21
681.569	74
681.617	-398
681.624	-347
681.665	-108
681.713	-29
681.745	-169
681.761	-255
681.809	532
681.857	-503
681.867	-331
681.904	218
681.952	786
681.989	-221
682.000	-535
682.048	-675
682.096	378
682.111	242
682.143	-86
682.191	-86
682.233	172
682.239	192
682.286	74
682.334	-161
682.354	-70
682.382	49
682.430	-258
682.476	55
682.477	50
682.525	475
682.572	-37
682.598	150
682.620	277
682.667	-355
682.715	88
682.720	128
682.763	466
682.810	-352
682.841	151
682.857	372
682.905	370
682.952	409
682.963	380
683.000	279
683.047	86
683.085	693
683.095	838
683.142	978
683.190	298
683.206	500
683.237	850
683.284	471
683.328	627
683.332	625
683.379	164
683.426	-225
683.449	28
683.473	306
683.521	741
683.568	91
683.571	144
683.615	727
683.662	67
683.693	253
683.709	345
683.757	614
683.804	1161
683.814	1084
683.851	747
683.898	859
683.936	831
683.945	818
683.992	513
684.039	1047
684.057	1037
684.086	1010
684.133	774
684.179	571
684.180	555
684.227	817
684.274	707
684.300	953
684.321	1110
684.368	1040
684.415	594
684.422	735
684.462	1586
684.509	863
684.543	1219
684.556	1326
684.603	1420
684.649	1105
684.665	1028
684.696	869
684.743	1153
684.786	755
684.790	722
684.837	898
684.883	1454
684.908	1673
684.930	1857
684.977	1816
685.023	1523
685.029	1546
685.070	1497
685.117	1587
685.150	1315
685.164	1278
685.210	1817
685.257	1738
685.272	1891
685.303	2031
685.350	978
685.393	1172
685.396	1198
685.443	1862
685.490	3089
685.514	2560
685.536	2065
685.583	2152
685.629	2034
685.636	2068
685.675	2113
685.722	1994
685.757	1963
685.768	1978
685.815	2221
685.861	2439
685.878	2040
685.908	1336
685.954	2474
686.000	1887
686.000	1877
686.047	2409
686.093	3343
686.121	3302
686.139	3183
686.185	2764
686.232	2509
686.242	2519
686.278	2406
686.324	1944
686.363	1670
686.370	1663
686.416	1909
686.463	1938
686.484	2273
686.509	2555
686.555	2318
686.601	2321
686.606	2327
686.647	2418
686.693	2638
686.727	2063
686.739	1867
686.785	2156
686.831	2295
686.848	2451
686.877	2699
686.923	2068
686.969	2092
686.969	2092
687.015	2077
687.061	2399
687.090	2255
687.107	2192
687.153	2646
687.199	2419
687.211	2531
687.245	2824
687.291	2546
687.332	2379
687.336	2373
687.382	2768
687.428	3075
687.453	2941
687.474	2725
687.520	2648
687.565	2513
687.574	2409
687.611	2046
687.657	2391
687.695	2698
687.702	2787
687.748	2127
687.794	2698
687.816	2779
687.839	2751
687.885	2892
687.931	2199
687.937	2291
687.976	2879
688.022	1865
688.058	2653
688.067	2830
688.113	2261
688.158	2572
688.179	2472
688.204	2487
688.249	3066
688.295	2781
688.300	2855
688.340	3305
688.386	3062
688.421	3088
688.431	3100
688.477	2562
688.522	3597
688.542	3311
688.567	2987
688.613	3324
688.658	3062
688.663	3065
688.703	2959
688.749	3204
688.784	3023
688.794	2995
688.839	2966
688.884	3414
688.905	3175
688.930	2911
688.975	3098
689.020	3291
689.026	3297
689.065	3363
689.110	2708
689.146	3106
689.155	3196
689.201	3155
689.246	3105
689.267	2769
689.291	2532
689.336	3509
689.381	2850
689.388	2941
689.426	3285
689.471	3245
689.509	3443
689.516	3480
689.561	2913
689.606	3204
689.630	3061
689.651	3071
689.696	3538
689.741	3313
689.750	3387
689.785	3458
689.830	3204
689.871	3391
689.875	3406
689.920	2766
689.965	3180
689.992	2890
690.010	2891
690.054	2788
690.099	3552
690.112	3740
690.144	3891
690.189	3091
690.233	3223
690.233	3232
690.278	3271
690.323	3642
690.354	3814
690.367	3803
690.412	3834
690.457	3506
690.474	3744
690.501	4154
690.546	3887
690.590	3555
690.595	3522
690.635	3444
690.680	4349
690.716	4025
690.724	3970
690.769	4387
690.813	4641
690.836	4826
690.857	5242
690.902	5942
690.946	6902
690.957	7107
690.991	9315
691.035	12406
691.077	15558
691.080	15693
691.124	17903
691.168	18507
691.198	19036
691.213	17810
691.257	14534
691.301	11297
691.318	10026
691.346	9170
691.390	8091
691.434	6256
691.439	6135
691.478	6133
691.522	5429
691.559	5250
691.567	5278
691.611	5001
691.655	5054
691.680	4851
691.699	4655
691.743	4915
691.787	4631
691.800	4571
691.831	4559
691.875	4518
691.919	4540
691.921	4515
691.964	4227
692.008	4938
692.041	4907
692.052	4857
692.096	4939
692.139	4435
692.162	4555
692.183	4698
692.227	4426
692.271	4635
692.282	4484
692.315	4213
692.359	4529
692.402	4909
692.403	4923
692.447	5101
692.490	4909
692.523	4919
692.534	4903
692.578	4814
692.622	4859
692.643	4835
692.666	4790
692.709	4687
692.753	4615
692.763	4563
692.797	4579
692.840	4385
692.884	4755
692.884	4772
692.928	4742
692.971	5263
693.004	5467
693.015	5400
693.059	5359
693.102	4767
693.124	4771
693.146	4975
693.189	4906
693.233	5219
693.245	5144
693.276	5122
693.320	5728
693.363	5969
693.365	5960
693.407	6106
693.450	6102
693.485	6638
693.493	6886
693.537	7706
693.580	8421
693.605	8998
693.624	9902
693.667	11672
693.710	13746
693.725	14471
693.753	18477
693.797	24662
693.840	32042
693.845	32753
693.883	36437
693.926	39570
693.966	42085
693.970	41253
694.013	32736
694.056	23799
694.086	17739
694.099	16856
694.142	14039
694.185	11276
694.206	9866
694.229	9420
694.272	8630
694.315	7911
694.326	7728
694.358	7741
694.401	7527
694.444	7607
694.446	7584
694.487	7269
694.530	6840
694.566	6472
694.573	6455
694.616	5986
694.659	5893
694.686	5775
694.702	5735
694.745	5727
694.787	5617
694.806	5525
694.830	5590
694.873	5720
694.916	5587
694.926	5619
694.959	5426
695.002	5000
695.044	4539
695.046	4506
695.087	4720
695.130	5065
695.166	5419
695.172	5423
695.215	5051
695.258	4815
695.286	4706
695.301	4828
695.343	4767
695.386	5218
695.406	5237
695.428	5203
695.471	5375
695.514	5305
695.526	5302
695.556	5315
695.599	5560
695.641	5436
695.646	5422
695.684	5483
695.726	5409
695.766	5483
695.769	5489
695.811	5266
695.854	5025
695.886	4784
695.896	4854
695.938	5329
695.981	5699
696.005	5791
696.023	5784
696.065	5712
696.108	5842
696.125	5866
696.150	5828
696.192	5551
696.235	5559
696.245	5480
696.277	5381
696.319	5367
696.361	5368
696.365	5353
696.404	5374
696.446	5302
696.485	5203
696.488	5227
696.530	5258
696.572	5427
696.604	5573
696.614	5602
696.656	5566
696.698	5526
696.724	5501
696.740	5396
696.783	4988
696.825	4695
696.844	4551
696.867	4668
696.909	4833
696.951	4872
696.964	4947
696.992	5256
697.034	5422
697.076	5758
697.083	5767
697.118	5763
697.160	5990
697.202	6093
697.203	6077
697.244	5955
697.286	5761
697.323	5652
697.327	5697
697.369	5851
697.411	6081
697.442	6192
697.453	6149
697.494	6001
697.536	5676
697.562	5559
697.578	5623
697.620	5655
697.661	5709
697.682	5703
697.703	5842
697.744	6143
697.786	6407
697.801	6491
697.828	6720
697.869	7046
697.911	7344
697.921	7384
697.952	6858
697.994	6226
698.035	5514
698.040	5418
698.077	5610
698.118	5788
698.160	5966
698.160	5950
698.201	5871
698.243	5850
698.279	5779
698.284	5823
698.325	6110
698.367	6332
698.399	6511
698.408	6522
698.449	6452
698.491	6412
698.518	6369
698.532	6332
698.573	6154
698.614	5942
698.638	5832
698.656	5914
698.697	6035
698.738	6150
698.757	6196
698.779	6148
698.820	5999
698.862	5859
698.877	5793
698.903	6053
698.944	6428
698.985	6805
698.996	6892
699.026	6802
699.067	6650
699.116	6451
699.235	5373
699.354	5936
699.474	5675
699.593	6620
699.713	7839
699.832	6535
699.951	6925
700.070	5768
700.190	6817
700.309	6210
700.428	7182
700.547	6248
700.667	6566
700.786	6174
700.905	7119
701.024	5445
701.143	6425
701.262	4913
701.381	5817
701.500	5554
701.619	6841
701.738	5619
701.857	5583
701.976	5061
702.095	5426
702.214	6340
702.333	6201
702.452	5753
702.571	5379
702.690	5464
702.809	4650
702.928	4692
703.047	5636
703.165	5852
703.284	4690
703.403	4815
703.522	5673
703.640	6544
703.759	6937
703.878	8893
703.997	6674
704.115	4636
704.234	6276
704.353	5271
704.471	4621
704.590	5207
704.708	4859
704.827	5784
704.946	6134
705.064	5518
705.183	4921
705.301	5642
705.420	7251
705.538	7360
705.656	6782
705.775	6117
705.893	9846
706.012	16734
706.130	7419
706.249	7337
706.367	6828
706.485	7001
706.604	6866
706.722	6854
706.840	6653
706.958	7448
707.077	6723
707.195	6044
707.313	6230
707.431	6196
707.549	6109
707.668	5928
707.786	4661
707.904	5719
708.022	5871
708.140	4886
708.258	5732
708.376	5395
708.494	5772
708.612	6069
708.730	7100
708.848	8462
708.966	7476
709.084	7173
709.202	6233
709.320	6727
709.438	6458
709.556	6597
709.674	6553
709.791	8036
709.909	6260
710.027	6080
710.145	6815
710.263	6917
710.380	6267
710.498	5723
710.616	5697
710.733	5612
710.851	7013
710.969	6865
711.086	6324
711.204	6608
711.322	6153
711.439	6597
711.557	7087
711.674	6168
711.792	5897
711.909	6182
712.027	7371
712.144	6495
712.262	6060
712.379	5457
712.497	8083
712.614	9662
712.732	7391
712.849	7026
712.966	7609
713.084	9411
713.201	8088
713.318	7228
713.436	7544
713.553	8077
713.670	7472
713.787	7518
713.905	8102
714.022	7412
714.139	6213
714.256	6952
714.373	6666
714.490	7428
714.608	9677
714.725	22511
714.842	44928
714.959	9675
715.076	6210
715.193	6965
715.310	6212
715.427	6816
715.544	5823
715.661	6367
715.778	6472
715.895	6494
716.011	6909
716.128	6500
716.245	6504
716.362	6817
716.479	7621
716.596	6081
716.713	6177
716.829	6095
716.946	6786
717.063	5546
717.180	6303
717.296	6116
717.413	5926
717.530	5599
717.646	5833
717.763	5656
717.880	5973
717.996	5571
718.113	5208
718.229	4946
718.346	5518
718.462	5240
718.579	6166
718.695	9399
718.812	9424
718.928	8075
719.045	7321
719.161	5648
719.277	5524
719.394	5047
719.510	5341
719.626	5556
719.743	5854
719.859	5239
719.975	5390
720.092	8021
720.208	17705
720.324	9119
720.440	4980
720.557	6091
720.673	7432
720.789	10572
720.905	21561
721.021	15485
721.137	5594
721.253	5046
721.369	5308
721.486	5380
721.602	7964
721.718	5259
721.834	4697
721.950	4797
722.066	4279
722.181	5085
722.297	5381
722.413	4451
722.529	4880
722.645	4990
722.761	3736
722.877	4460
722.993	4103
723.108	4111
723.224	4909
723.340	4591
723.456	4298
723.571	4254
723.687	4262
723.803	4940
723.918	4373
724.034	4527
724.150	4110
724.265	4572
724.381	7835
724.497	13982
724.612	5394
724.728	4047
724.843	3822
724.959	4993
725.074	7377
725.190	13106
725.305	4863
725.421	3765
725.536	3435
725.651	4102
725.767	3951
725.882	4279
725.997	3403
726.113	3436
726.228	2777
726.343	3481
726.459	3571
726.574	3476
726.689	4244
726.804	3784
726.920	3104
727.035	3937
727.150	4372
727.265	3753
727.380	4728
727.495	3684
727.610	3282
727.725	2611
727.841	4384
727.956	5473
728.071	8091
728.186	4246
728.301	2822
728.416	3439
728.531	3515
728.645	3240
728.760	3950
728.875	3721
728.990	5261
729.105	3822
729.220	3195
729.335	3606
729.449	3430
729.564	3188
729.679	2234
729.794	2410
729.908	3755
730.023	2901
730.138	2703
730.253	3086
730.367	2806
730.482	2756
730.596	2982
730.711	3623
730.826	2999
730.940	2793
731.055	3341
731.169	2291
731.284	1923
731.398	2469
731.513	3061
731.627	3285
731.742	3402
731.856	3982
731.970	2678
732.085	3116
732.199	3104
732.313	3131
732.428	4305
732.542	7310
732.656	8189
732.771	3244
732.885	2491
732.999	2104
733.113	2664
733.227	2868
733.342	3439
733.456	2214
733.570	2598
733.684	1733
733.798	2840
733.912	2487
734.026	1994
734.140	1965
734.254	2567
734.368	4174
734.482	7695
734.596	2941
734.710	3442
734.824	2898
734.938	2079
735.052	1925
735.166	2242
735.280	2756
735.393	2871
735.507	2456
735.621	3388
735.735	5268
735.849	4165
735.962	2053
736.076	2186
736.190	2595
736.303	3404
736.417	5444
736.531	2843
736.644	2112
736.758	1562
736.872	1691
736.985	2378
737.099	1711
737.212	1904
737.326	2378
737.439	2266
737.553	2258
737.666	2076
737.780	1672
737.893	1620
738.007	2013
738.120	2166
738.233	1836
738.347	2177
738.460	1676
738.573	2378
738.687	1811
738.800	2717
738.913	2653
739.026	1902
739.140	1079
739.253	1660
739.366	2213
739.479	2300
739.592	1072
739.705	1755
739.818	1779
739.932	2129
740.045	1557
740.158	1932
740.271	2733
740.384	2068
740.497	2416
740.610	2944
740.723	3365
740.836	2754
740.949	3493
741.062	3302
741.174	4181
741.287	1843
741.400	1926
741.513	2607
741.626	3707
741.739	3129
741.851	2356
741.964	2547
742.077	2129
742.189	2862
742.302	4734
742.415	5565
742.527	3355
742.640	2605
742.753	2187
742.865	1747
742.978	2567
743.090	1011
743.203	1906
743.316	1488
743.428	1182
743.541	1091
743.653	1434
743.766	1896
743.878	1517
743.990	2504
744.103	4087
744.215	6259
744.327	4798
744.440	3114
744.552	2919
744.664	2862
744.777	978
744.889	1702
745.001	2184
745.113	1631
745.226	1439
745.338	2174
745.450	1123
745.562	1564
745.674	1716
745.786	1409
745.898	1914
746.010	1937
746.122	1899
746.234	1392
746.347	1481
746.459	2530
746.570	1666
746.682	3988
746.794	7005
746.906	7533
747.018	2031
747.130	2382
747.242	2021
747.354	1091
747.466	2597
747.577	1751
747.689	1776
747.801	1220
747.913	1285
748.024	1753
748.136	1403
748.248	1150
748.359	677
748.471	1287
748.583	1527
748.694	1402
748.806	2051
748.918	2115
749.029	1979
749.141	1793
749.252	752
749.364	1495
749.475	3094
749.587	3651
749.698	2095
749.809	920
749.921	1144
750.032	1390
750.144	744
750.255	929
750.366	763
750.478	1329
750.589	1270
750.700	1069
750.811	1889
750.923	1622
751.034	3444
751.145	5459
751.256	1865
751.367	2080
751.479	740
751.590	984
751.701	862
751.812	1316
751.923	894
752.034	1131
752.145	1371
752.256	1248
752.367	1494
752.478	1313
752.589	1393
752.700	1007
752.811	1324
752.922	1315
753.032	1062
753.143	1998
753.254	1063
753.365	1894
753.476	334
753.586	1394
753.697	728
753.808	1210
753.919	576
754.029	1175
754.140	769
754.251	938
754.361	1139
754.472	1253
754.582	1066
754.693	992
754.804	1204
754.914	1442
755.025	1676
755.135	763
755.246	1764
755.356	1226
755.466	1058
755.577	988
755.687	1269
755.798	984
755.908	635
756.018	675
756.129	1253
756.239	686
756.349	1835
756.460	1085
756.570	1338
756.680	1228
756.790	1023
756.900	1454
757.011	1307
757.121	1507
757.231	1004
757.341	1082
757.451	913
757.561	1661
757.671	959
757.781	1268
757.891	1764
758.001	1294
758.111	946
758.221	2592
758.331	1006
758.441	1884
758.551	1792
758.661	2461
758.771	1813
758.880	2106
758.990	2273
759.100	1387
759.210	1017
759.320	1770
759.429	1894
759.539	2036
759.649	1943
759.758	2401
759.868	1505
759.978	1445
760.087	2048
760.197	2347
760.307	2194
760.416	2529
760.526	1957
760.635	2136
760.745	1745
760.854	2016
760.964	2315
761.073	2817
761.182	2056
761.292	1902
761.401	2717
761.511	1820
761.620	1568
761.729	1441
761.839	2634
761.948	2713
762.057	2302
762.166	2461
762.276	2790
762.385	3608
762.494	2712
762.603	3008
762.712	2856
762.822	2939
762.931	3235
763.040	3232
763.149	3477
763.258	3657
763.367	4304
763.476	3838
763.585	3725
763.694	5067
763.803	4659
763.912	4814
764.021	4785
764.130	5348
764.238	5607
764.347	6125
764.456	5732
764.565	6723
764.674	7544
764.783	8628
764.891	8194
765.000	9704
765.109	10473
765.217	12807
765.326	14916
765.435	18030
765.543	21591
765.652	25328
765.761	33419
765.869	46065
765.978	66931
766.086	104457
766.195	173306
766.303	318461
766.412	532461
766.520	529959
766.629	392868
766.737	211928
766.846	119813
766.954	76674
767.062	54302
767.171	40616
767.279	31810
767.387	23542
767.496	20298
767.604	17489
767.712	14645
767.820	13677
767.928	12409
768.037	11354
768.145	10420
768.253	10648
768.361	9840
768.469	10002
768.577	9948
768.685	10082
768.793	11001
768.901	11739
769.009	12840
769.117	16193
769.225	19711
769.333	27208
769.441	41175
769.549	69209
769.657	133765
769.765	285272
769.873	477061
769.981	375765
770.088	177168
770.196	85035
770.304	49835
770.412	34741
770.519	25300
770.627	19653
770.735	15219
770.842	12798
770.950	10303
771.058	10292
771.165	8596
771.273	8445
771.380	7659
771.488	6766
771.595	4955
771.703	5200
771.810	4947
771.918	4646
772.025	4538
772.133	3655
772.240	4571
772.348	4422
772.455	3687
772.562	4258
772.670	2995
772.777	3843
772.884	3642
772.991	2994
773.099	2903
773.206	1732
773.313	2801
773.420	2347
773.528	2135
773.635	1882
773.742	2686
773.849	2574
773.956	2149
774.063	1949
774.170	1972
774.277	2501
774.384	2083
774.491	2414
774.598	2190
774.705	2380
774.812	1645
774.919	3049
775.026	1916
775.133	1858
775.239	1837
775.346	1799
775.453	2119
775.560	1628
775.667	1956
775.773	752
775.880	2150
775.987	1679
776.093	1608
776.200	1531
776.307	1776
776.413	1477
776.520	925
776.627	1722
776.733	1477
776.840	1866
776.946	2438
777.053	4177
777.159	13588
777.266	14525
777.372	10309
777.478	14481
777.585	8637
777.691	3063
777.798	1468
777.904	2049
778.010	2676
778.117	2447
778.223	1643
778.329	1289
778.435	1405
778.542	1335
778.648	938
778.754	277
778.860	951
778.966	1202
779.072	701
779.178	1001
779.284	785
779.391	376
779.497	667
779.603	2127
779.708	2005
779.815	5827
779.920	16689
780.026	54922
780.132	19236
780.238	1794
780.344	972
780.450	1491
780.556	1543
780.661	661
780.767	591
780.873	722
780.979	460
781.085	1406
781.190	987
781.296	204
781.402	429
781.507	1122
781.613	864
781.719	775
781.824	1041
781.930	848
782.035	810
782.141	936
782.246	805
782.352	1071
782.457	256
782.563	283
782.668	1033
782.773	611
782.879	594
782.984	683
783.090	1495
783.195	1525
783.300	1546
783.405	569
783.511	876
783.616	774
783.721	1522
783.826	635
783.932	681
784.037	1222
784.142	464
784.247	310
784.352	1214
784.457	1643
784.562	490
784.667	1061
784.772	975
784.877	524
784.982	587
785.087	1021
785.192	698
785.297	854
785.402	-295
785.507	845
785.611	442
785.716	978
785.821	970
785.926	328
786.031	718
786.135	541
786.240	206
786.345	84
786.450	514
786.554	-177
786.659	-321
786.763	219
786.868	-285
786.973	75
787.077	167
787.182	594
787.286	-799
787.391	300
787.495	191
787.600	553
787.704	-245
787.809	133
787.913	877
788.017	947
788.122	-252
788.226	856
788.330	-289
788.435	9
788.539	505
788.643	112
788.747	314
788.852	163
788.956	184
789.060	655
789.164	-123
789.268	-260
789.372	53
789.476	571
789.580	-221
789.684	971
789.788	-406
789.892	582
789.996	62
790.100	2
790.204	-185
790.308	746
790.412	716
790.516	885
790.620	609
790.724	771
790.828	-260
790.931	-635
791.035	206
791.139	374
791.242	-615
791.346	1025
791.450	321
791.554	440
791.657	-125
791.761	1000
791.864	194
791.968	228
792.072	806
792.175	143
792.279	-124
792.382	478
792.486	-68
792.589	776
792.693	333
792.796	-6
792.899	252
793.003	459
793.106	-374
793.209	326
793.313	878
793.416	202
793.519	627
793.623	1063
793.726	2130
793.829	679
793.932	803
794.035	363
794.138	415
794.242	771
794.345	1717
794.448	1777
794.551	3873
794.654	10316
794.757	28586
794.860	12440
794.963	1582
795.066	422
795.169	731
795.272	802
795.375	429
795.477	956
795.580	172
795.683	-14
795.786	318
795.889	-741
795.991	1147
796.094	-248
796.197	-159
796.300	-231
796.402	-623
796.505	-948
796.608	-403
796.710	-100
796.813	-117
796.915	-567
797.018	46
797.120	47
797.223	-415
797.326	202
797.428	220
797.530	-190
797.633	-212
797.735	463
797.838	761
797.940	2281
798.042	-417
798.145	417
798.247	424
798.349	-982
798.452	-41
798.554	-160
798.656	-574
798.758	-233
798.860	-271
798.962	-727
799.065	-568
799.167	-234
799.269	679
799.371	72
799.473	-1027
799.575	-688
799.677	552
799.779	545
799.881	-77
799.983	377
800.085	50
800.187	-75
800.289	-805
800.390	-198
800.492	-368
800.594	-329
800.696	-905
800.798	-418
800.899	-919
801.001	-1048
801.103	-266
801.205	-685
801.306	96
801.408	-297
801.509	-389
801.611	-246
801.713	-674
801.814	-541
801.916	247
802.017	-216
802.119	-502
802.220	-517
802.322	-1580
802.423	1302
802.525	267
802.626	-64
802.727	-686
802.829	-354
802.930	-1454
803.031	312
803.133	-511
803.234	-355
803.335	-189
803.436	216
803.538	-237
803.639	-761
803.740	-429
803.841	-792
803.942	-478
804.043	-206
804.144	-348
804.245	94
804.346	-974
804.447	154
804.548	-651
804.649	814
804.750	387
804.851	-750
804.952	-1203
805.053	35
805.154	-641
805.255	-64
805.355	-224
805.456	-669
805.557	-590
805.658	-765
805.758	-257
805.859	-378
805.960	-930
806.061	-91
806.161	-12
806.262	-71
806.362	-525
806.463	340
806.564	-401
806.664	-184
806.765	334
806.865	-354
806.966	-54
807.066	-597
807.166	-462
807.267	-306
807.367	-296
807.468	-437
807.568	-436
807.668	-238
807.769	695
807.869	-53
807.969	-847
808.069	-330
808.170	-160
808.270	-32
808.370	-29
808.470	119
808.570	183
808.670	502
808.770	-301
808.870	-713
808.970	15
809.070	-857
809.170	-977
809.271	-525
809.370	-117
809.470	46
809.570	-836
809.670	-935
809.770	-259
809.870	-450
809.970	-319
810.070	545
810.169	-392
810.269	-1273
810.369	394
810.469	-407
810.568	-1646
810.668	-305
810.768	-40
810.867	-109
810.967	-457
811.066	-184
811.166	-362
811.265	360
811.365	-925
811.464	-566
811.564	67
811.663	-99
811.763	-628
811.862	154
811.962	314
812.061	-402
812.160	127
812.260	-228
812.359	207
812.458	960
812.557	1406
812.657	2735
812.756	1468
812.855	305
812.954	22
813.053	201
813.153	-233
813.252	-568
813.351	-786
813.450	603
813.549	-532
813.648	-138
813.747	30
813.846	254
813.945	-531
814.044	-309
814.143	176
814.242	344
814.341	-428
814.439	994
814.538	432
814.637	567
814.736	-135
814.835	692
814.933	721
815.032	421
815.131	-58
815.229	107
815.328	591
815.427	492
815.525	212
815.624	594
815.722	373
815.821	788
815.919	1096
816.018	670
816.116	446
816.215	1793
816.313	1367
816.412	1337
816.510	1442
816.609	2816
816.707	1661
816.805	2065
816.904	2098
817.002	3002
817.100	3179
817.198	3558
817.296	3647
817.395	4686
817.493	6059
817.591	7456
817.689	9970
817.787	14835
817.885	21828
817.983	37814
818.081	70881
818.179	152251
818.277	332213
818.375	428845
818.473	212256
818.571	86073
818.669	47928
818.767	36503
818.865	34187
818.963	36609
819.061	47125
819.158	73459
819.256	133957
819.354	261892
819.452	505134
819.549	510727
819.647	258492
819.745	117623
819.842	64431
819.940	42014
820.038	29069
820.135	22554
820.233	17801
820.330	12805
820.428	10886
820.525	10138
820.623	7886
820.720	5366
820.818	5794
820.915	5377
821.012	4983
821.110	4249
821.207	4201
821.304	3222
821.402	3141
821.499	3575
821.596	5970
821.693	6574
821.791	3225
821.888	2789
821.985	2683
822.082	3794
822.179	3051
822.276	3141
822.373	2264
822.470	1700
822.567	1029
822.664	-57
822.761	2012
822.858	438
822.955	849
823.052	1187
823.149	296
823.246	343
823.343	217
823.440	1181
823.536	3
823.633	-610
823.730	173
823.827	1295
823.923	817
824.020	1613
824.117	354
824.213	1803
824.310	1699
824.407	430
824.503	437
824.600	-549
824.696	53
824.793	359
824.889	-69
824.986	257
825.082	-289
825.179	273
825.275	-339
825.371	-228
825.468	429
825.564	-245
825.660	143
825.757	107
825.853	465
825.949	-580
826.045	-54
826.142	-292
826.238	-728
826.334	-110
826.430	-789
826.526	-416
826.622	-411
826.718	102
826.814	-1378
826.910	156
827.006	-141
827.102	-580
827.198	-285
827.294	-1038
827.390	-283
827.486	167
827.582	-1325
827.678	-1204
827.774	14
827.869	-850
827.965	-95
828.061	-481
828.157	-328
828.252	-1175
828.348	-1261
828.444	84
828.539	-388
828.635	-754
828.731	-172
828.826	-377
828.922	-469
829.017	-549
829.113	156
829.208	-646
829.304	-1318
829.399	-519
829.495	-286
829.590	-400
829.685	-968
829.781	-815
829.876	-662
829.971	-329
830.066	-526
830.162	-747
830.257	-1171
830.352	-604
830.447	67
830.543	-866
830.638	-990
830.733	579
830.828	-731
830.923	17
831.018	-704
831.113	473
831.208	-324
831.303	-787
831.398	-22
831.493	-1119
831.588	-139
831.683	-1228
831.778	-132
831.873	-123
831.967	-371
832.062	-1131
832.157	-1090
832.252	381
832.346	-943
832.441	150
832.536	-1053
832.631	1031
832.725	413
832.820	-378
832.914	-886
833.009	-1437
833.104	-786
833.198	-78
833.293	-730
833.387	-781
833.482	208
833.576	-639
833.670	-79
833.765	-880
833.859	-824
833.954	-304
834.048	-632
834.142	-531
834.237	-1098
834.331	-576
834.425	-1107
834.519	-968
834.613	81
834.708	-720
834.802	-988
834.896	-601
834.990	-2006
835.084	-430
835.178	-971
835.272	-350
835.366	-1930
835.460	-737
835.554	-935
835.648	-1195
835.742	-1325
835.836	-1050
835.930	-1414
836.024	-67
836.117	-995
836.211	-397
836.305	-261
836.399	54
836.493	-971
836.586	-956
836.680	-1028
836.774	-1085
836.867	-329
836.961	-1102
837.055	-681
837.148	-736
837.242	-845
837.335	-364
837.429	-757
837.522	-444
837.616	-622
837.709	-167
837.803	209
837.896	-745
837.989	-862
838.083	-470
838.176	406
838.269	485
838.363	-771
838.456	-845
838.549	189
838.642	-433
838.735	1127
838.829	1218
838.922	-1066
839.015	-244
839.108	-1485
839.201	-231
839.294	-436
839.387	-403
839.480	-1386
839.573	-781
839.666	-345
839.759	-636
839.852	-1314
839.945	69
840.038	-906
840.131	-543
840.223	-1144
840.316	79
840.409	-1412
840.502	-1029
840.594	-601
840.687	-1136
840.780	-1111
840.873	-953
840.965	-1922
841.058	23
841.150	-278
841.243	521
841.336	-825
841.428	-518
841.521	-812
841.613	-517
841.706	-1097
841.798	-1314
841.890	-1116
841.983	-1070
842.075	-491
842.167	-927
842.260	-1094
842.352	-119
842.444	-310
842.537	-239
842.629	1805
842.721	662
842.813	-573
842.905	-1950
842.997	-509
843.090	-718
843.182	-586
843.274	639
843.366	3293
843.458	6506
843.550	6758
843.642	816
843.734	46
843.826	-436
843.918	254
844.009	235
844.101	-352
844.193	-765
844.285	-669
844.377	338
844.469	1250
844.560	2521
844.652	4003
844.744	1522
844.835	-589
844.927	-653
845.019	-1102
845.110	-661
845.202	-1203
845.293	-936
845.385	-1260
845.476	-900
845.568	-178
845.659	-745
845.751	-567
845.842	-952
845.934	-1407
846.025	-889
846.116	-1035
846.208	-1157
846.299	-1523
846.390	526
846.482	-352
846.573	-106
846.664	-716
846.755	-132
846.846	121
846.937	-860
847.029	-937
847.120	-1782
847.211	-1379
847.302	-140
847.393	-1388
847.484	-377
847.575	-999
847.666	-765
847.757	-738
847.847	-878
847.938	-113
848.029	-1096
848.120	-1302
848.211	-1136
848.302	-1493
848.392	-1141
848.483	-1016
848.574	-1387
848.664	-1497
848.755	-402
848.846	-860
848.936	-682
849.027	-924
849.118	-777
849.208	-364
849.299	-387
849.389	-363
849.480	204
849.570	130
849.661	487
849.751	1396
849.841	407
849.932	-713
850.022	-1224
850.112	-771
850.203	-1505
850.293	-786
850.383	-529
850.474	-1381
850.564	-190
850.654	-343
850.744	-322
850.834	-528
850.924	-1231
851.014	-841
851.104	-365
851.194	-551
851.284	-1319
851.374	-735
851.464	-1018
851.554	272
851.644	-596
851.734	357
851.824	363
851.914	-221
852.004	980
852.094	1303
852.183	-128
852.273	-427
852.363	-794
852.452	-307
852.542	-254
852.632	-767
852.721	-589
852.811	-1507
852.901	-408
852.990	-808
853.080	-439
853.169	-1091
853.259	-1242
853.348	-1541
853.438	-1025
853.527	-460
853.617	-1667
853.706	-296
853.795	-403
853.885	2250
853.974	4813
854.063	8935
854.152	16327
854.242	10770
854.331	775
854.420	-1554
854.509	-811
854.598	-446
854.687	-354
854.777	-684
854.866	-441
854.955	-1084
855.044	-900
855.133	-688
855.222	-628
855.311	-1051
855.400	-408
855.488	-1647
855.577	-928
855.666	-326
855.755	-803
855.844	-942
855.933	-337
856.021	-641
856.110	-795
856.199	-1416
856.288	-1594
856.376	-1346
856.465	-985
856.554	-102
856.642	-1108
856.731	-182
856.819	-243
856.908	-1565
856.996	-580
857.085	-1112
857.173	-732
857.262	-1288
857.350	-606
857.438	-940
857.527	-387
857.615	-1051
857.703	-532
857.792	-1531
857.880	-537
857.968	-1135
858.056	-717
858.145	-676
858.233	-487
858.321	-310
858.409	-783
858.497	-363
858.585	-328
858.673	482
858.761	-853
858.849	-960
858.937	-736
859.025	-988
859.113	-769
859.201	-1109
859.289	90
859.377	-489
859.465	29
859.552	-812
859.640	-580
859.728	-967
859.816	-562
859.903	-600
859.991	-1958
860.079	-1402
860.166	-532
860.254	-1154
860.342	-965
860.429	-1157
860.517	-584
860.604	-1420
860.692	-1248
860.779	-937
860.867	-532
860.954	-1966
861.042	-527
861.129	-182
861.216	-590
861.304	-1267
861.391	-506
861.478	-1265
861.565	-1193
861.653	-363
861.740	-1366
861.827	-457
861.914	-767
862.001	-1819
862.089	-552
862.176	-779
862.263	-505
862.350	-964
862.437	-1628
862.524	-1332
862.611	-291
862.698	-274
862.785	-164
862.871	615
862.958	110
863.045	369
863.132	-646
863.219	-1333
863.306	-906
863.392	-870
863.479	-916
863.566	-232
863.652	-1035
863.739	-1239
863.826	-1022
863.912	-1070
863.999	-1149
864.086	-503
864.172	-1004
864.259	-1461
864.345	-843
864.432	-408
864.518	-1125
864.604	-1295
864.691	-1190
864.777	-285
864.863	-456
864.950	-1202
865.036	-941
865.122	-1132
865.209	-107
865.295	-865
865.381	-983
865.467	-1009
865.553	-235
865.639	-582
865.726	102
865.812	-86
865.898	948
865.984	2784
866.070	4950
866.156	10153
866.242	3252
866.328	843
866.414	-1050
866.499	-909
866.585	-1294
866.671	-1619
866.757	-575
866.843	-1111
866.928	-722
867.014	-1811
867.100	-967
867.186	-771
867.271	-1023
867.357	-559
867.442	-582
867.528	76
867.614	-397
867.699	-628
867.785	392
867.870	877
867.956	3242
868.041	3336
868.127	1030
868.212	1074
868.297	2181
868.383	552
868.468	743
868.553	1134
868.639	792
868.724	888
868.809	2995
868.894	-449
868.979	-1014
869.065	-550
869.150	-1190
869.235	-745
869.320	-591
869.405	22
869.490	-638
869.575	-671
869.660	-1044
869.745	-649
869.830	-1150
869.915	-925
870.000	-525
870.085	45
870.169	-463
870.254	-341
870.339	-1017
870.424	-1362
870.509	-712
870.593	-1370
870.678	-667
870.763	-1102
870.847	-368
870.932	-580
871.016	-371
871.101	-510
871.186	-639
871.270	-621
871.355	-1073
871.439	-359
871.523	-1214
871.608	270
871.692	-615
871.777	-90
871.861	82
871.945	-308
872.030	-1184
872.114	-1685
872.198	-1262
872.282	-772
872.367	-1125
872.451	-1674
872.535	-887
872.619	-1077
872.703	-344
872.787	-1428
872.871	-1265
872.955	-831
873.039	-671
873.123	-1449
873.207	-687
873.291	-961
873.375	-877
873.459	-986
873.543	-818
873.627	-1089
873.711	-946
873.794	-880
873.878	-714
873.962	-932
874.045	-806
874.129	-931
874.137	-954
874.213	-1187
874.245	-1334
874.296	-1578
874.352	-1243
874.380	-1079
874.460	-990
874.464	-988
874.547	-1026
874.568	-908
874.631	-546
874.676	-877
874.714	-1158
874.784	-616
874.798	-512
874.881	-521
874.892	-594
874.965	-1083
874.999	-624
875.048	-35
875.107	-503
875.131	-652
875.215	-503
875.215	-503
875.298	-1013
875.323	-944
875.381	-743
875.430	-633
875.465	-534
875.538	-759
875.548	-794
875.631	-761
875.646	-822
875.714	-1089
875.753	-886
875.798	-655
875.861	-258
875.881	-157
875.964	-1011
875.968	-1010
876.047	-952
876.076	-811
876.130	-509
876.183	-539
876.213	-532
876.291	-9
876.296	19
876.379	-371
876.398	-365
876.462	-355
876.506	-328
876.545	-258
876.613	-37
876.628	-5
876.711	-329
876.721	-331
876.794	-290
876.828	-277
876.877	-293
876.935	-367
876.960	-356
877.043	-20
877.043	-20
877.125	219
877.150	113
877.208	-120
877.258	-58
877.291	35
877.365	-380
877.374	-445
877.456	366
877.472	301
877.539	207
877.579	352
877.622	377
877.687	463
877.704	522
877.787	334
877.794	285
877.869	-368
877.901	-143
877.952	380
878.008	317
878.034	232
878.115	288
878.117	292
878.199	381
878.222	347
878.282	196
878.329	392
878.364	634
878.437	24
878.447	-77
878.529	-294
878.544	-252
878.611	-23
878.651	150
878.694	313
878.758	41
878.776	-18
878.858	455
878.865	451
878.941	574
878.972	503
879.023	150
879.078	-264
879.105	-264
879.185	546
879.187	554
879.269	506
879.292	374
879.351	265
879.399	44
879.433	-111
879.506	635
879.516	748
879.598	329
879.613	271
879.680	-8
879.720	264
879.762	394
879.827	359
879.844	350
879.926	-87
879.933	-72
880.007	757
880.040	750
880.089	524
880.147	821
880.171	812
880.253	884
880.254	880
880.335	1271
880.360	1367
880.417	1775
880.467	2437
880.499	2992
880.574	4861
880.580	4893
880.662	2773
880.680	2336
880.744	1113
880.787	1013
880.825	1166
880.893	530
880.907	406
880.989	635
881.000	610
881.070	329
881.106	230
881.152	301
881.213	527
881.233	527
881.315	141
881.319	125
881.396	301
881.426	405
881.478	516
881.532	812
881.559	1011
881.639	352
881.641	341
881.722	1061
881.745	960
881.803	808
881.852	921
881.885	894
881.958	1056
881.966	1100
882.047	1226
882.064	1273
882.129	1508
882.171	1365
882.210	1186
882.277	1655
882.291	1829
882.372	1769
882.383	1820
882.454	1203
882.489	787
882.535	669
882.596	519
882.616	542
882.697	544
882.702	571
882.778	1290
882.808	1308
882.859	983
882.914	1187
882.940	1290
883.020	576
883.021	579
883.102	727
883.127	781
883.183	770
883.233	773
883.264	1101
883.339	1383
883.345	1334
883.426	793
883.445	710
883.507	964
883.551	1005
883.587	1032
883.657	1195
883.668	1214
883.749	1527
883.763	1461
883.830	1250
883.869	1222
883.910	1097
883.975	1044
883.991	1035
884.072	1130
884.081	1075
884.152	1037
884.187	1130
884.233	1140
884.292	1259
884.314	1339
884.394	1558
884.398	1540
884.475	1317
884.504	1367
884.555	1378
884.610	1183
884.636	1258
884.716	1863
884.716	1874
884.797	1956
884.821	1858
884.877	1592
884.927	1536
884.958	1613
885.033	1545
885.038	1536
885.118	1346
885.139	1342
885.199	1525
885.244	1562
885.279	1591
885.350	1549
885.359	1586
885.439	1940
885.456	1931
885.520	1894
885.561	2057
885.600	1783
885.667	1291
885.680	1386
885.760	1693
885.773	1743
885.840	1761
885.878	1814
885.920	1998
885.984	2166
886.000	2079
886.080	1471
886.089	1421
886.160	1720
886.195	1780
886.240	1642
886.300	1583
886.320	1706
886.400	1889
886.406	1903
886.480	2096
886.511	2153
886.560	2518
886.616	2861
886.640	2843
886.720	2655
886.722	2638
886.800	2573
886.827	2578
886.879	2503
886.932	2341
886.959	2139
887.038	1574
887.039	1590
887.119	2152
887.143	2270
887.198	1829
887.248	1542
887.278	1807
887.354	2143
887.358	2159
887.437	2445
887.459	2516
887.517	2396
887.564	2252
887.596	2254
887.669	2211
887.676	2233
887.755	2401
887.774	2387
887.835	2388
887.880	2507
887.914	2434
887.985	2081
887.994	2128
888.073	2599
888.090	2645
888.153	2319
888.195	2163
888.232	2385
888.300	2675
888.311	2674
888.391	2677
888.405	2660
888.470	2415
888.510	2184
888.549	2265
888.615	2462
888.628	2545
888.708	2963
888.720	3019
888.787	2294
888.825	1831
888.866	2269
888.930	2964
888.945	2870
889.024	2324
889.035	2236
889.103	2368
889.140	2440
889.182	2572
889.245	2733
889.261	2767
889.340	2887
889.349	2890
889.419	2939
889.454	2951
889.498	3071
889.559	3202
889.577	3276
889.656	3561
889.664	3577
889.735	3333
889.768	3200
889.814	3050
889.873	2825
889.978	3025
890.083	2834
890.187	2818
890.292	2885
890.397	3523
890.501	2827
890.606	2365
890.710	3061
890.815	2815
890.919	3172
891.024	2814
891.128	3490
891.233	3548
891.337	2825
891.442	3376
891.546	2842
891.650	2588
891.755	3083
891.859	3686
891.963	3024
892.068	2591
892.172	3246
892.276	2716
892.380	2663
892.484	2901
892.589	2425
892.693	2865
892.797	2916
892.901	2650
893.005	2877
893.109	3614
893.213	2952
893.317	2127
893.421	3458
893.525	2500
893.629	2828
893.733	2896
893.837	2249
893.941	2225
894.045	3336
894.148	3686
894.252	7513
894.356	7362
894.460	3325
894.564	2848
894.667	1935
894.771	2387
894.875	2334
894.978	1810
895.082	2722
895.186	3091
895.289	2747
895.393	2838
895.496	2559
895.600	2240
895.703	2461
895.807	2682
895.910	2212
896.014	2036
896.117	2442
896.221	2789
896.324	3175
896.427	2573
896.531	2299
896.634	1656
896.737	1938
896.840	2683
896.944	2106
897.047	1758
897.150	2091
897.253	2009
897.356	2406
897.460	2161
897.563	2464
897.666	2678
897.769	1927
897.872	2361
897.975	2682
898.078	2201
898.181	2383
898.284	1905
898.387	2475
898.490	2251
898.593	2770
898.695	1771
898.798	2457
898.901	2263
899.004	2274
899.107	2272
899.209	1665
899.312	2132
899.415	2583
899.518	2185
899.620	2375
899.723	1582
899.826	3474
899.928	3450
900.031	2923
900.133	1443
900.236	2133
900.338	1726
900.441	2559
900.543	2427
900.646	1665
900.748	1900
900.851	2140
900.953	2450
901.055	1509
901.158	2225
901.260	2986
901.362	2139
901.465	1535
901.567	2902
901.669	2954
901.771	1752
901.873	2284
901.976	2145
902.078	1852
902.180	2513
902.282	2332
902.384	2037
902.486	1910
902.588	2257
902.690	2359
902.792	2664
902.894	2158
902.996	1753
903.098	2120
903.200	2295
903.302	2198
903.404	1919
903.505	2607
903.607	2210
903.709	2135
903.811	2298
903.913	1970
904.014	2481
904.116	1783
904.218	1659
904.319	1855
904.421	2395
904.523	2282
904.624	2241
904.726	2384
904.827	981
904.929	2179
905.030	1724
905.132	2328
905.233	2640
905.335	2301
905.436	2239
905.537	2254
905.639	2185
905.740	2529
905.841	1694
905.943	2819
906.044	2301
906.145	2555
906.247	1806
906.348	2116
906.449	2839
906.550	2023
906.651	2094
906.752	1200
906.854	2574
906.955	1496
907.056	1387
907.157	1899
907.258	3008
907.359	2198
907.460	1949
907.561	2130
907.662	2147
907.762	1965
907.863	2340
907.964	2309
908.065	1940
908.166	2453
908.267	2080
908.367	2590
908.468	2639
908.569	1338
908.670	2528
908.770	3180
908.871	3026
908.971	3150
909.072	2813
909.173	2805
909.273	2539
909.374	2712
909.474	2894
909.575	2326
909.675	2038
909.776	2225
909.876	2091
909.977	2519
910.077	2412
910.177	1855
910.278	1443
910.378	1278
910.478	2281
910.579	2627
910.679	2166
910.779	2165
910.879	2214
910.980	2618
911.080	1808
911.180	1351
911.280	1259
911.380	2838
911.480	1751
911.580	2352
911.680	2081
911.780	1208
911.880	1754
911.980	1822
912.080	1897
912.180	2490
912.280	1805
912.380	2243
912.480	1416
912.580	2223
912.679	1728
912.779	2543
912.879	1666
912.979	1865
913.078	1661
913.178	1527
913.278	1601
913.377	2752
913.477	1695
913.577	2179
913.676	1648
913.776	2566
913.875	1935
913.975	2330
914.074	1928
914.174	2340
914.273	2129
914.373	2703
914.472	2435
914.572	2249
914.671	2286
914.770	2113
914.870	1721
914.969	1826
915.068	1715
915.167	2896
915.267	2250
915.366	2392
915.465	2684
915.564	1870
915.663	2466
915.763	2023
915.862	2702
915.961	2546
916.060	2162
916.159	2183
916.258	1574
916.357	2238
916.456	2759
916.555	2658
916.654	2595
916.752	2235
916.851	2847
916.950	2525
917.049	2474
917.148	1599
917.247	1596
917.345	2418
917.444	1434
917.543	2184
917.642	1238
917.740	2011
917.839	1550
917.937	2166
918.036	2542
918.135	1943
918.233	2089
918.332	2030
918.430	1684
918.529	2131
918.627	1380
918.726	2961
918.824	1993
918.923	2047
919.021	2559
919.119	1629
919.218	1561
919.316	2613
919.414	2099
919.512	2315
919.611	2015
919.709	2827
919.807	1742
919.905	2058
920.003	2192
920.102	1939
920.200	1897
920.298	1526
920.396	1755
920.494	2299
920.592	1989
920.690	1629
920.788	2396
920.886	2278
920.984	2416
921.082	2594
921.180	2052
921.277	2569
921.375	1544
921.473	2287
921.571	1880
921.669	2873
921.766	2084
921.864	2183
921.962	2505
922.060	2280
922.157	2641
922.255	2534
922.352	2455
922.450	3171
922.548	2380
922.645	2277
922.743	2811
922.840	2369
922.938	2025
923.035	2820
923.133	1895
923.230	2823
923.327	1930
923.425	2868
923.522	2816
923.619	2974
923.717	1481
923.814	2816
923.911	2133
924.008	3216
924.106	2088
924.203	1959
924.300	2492
924.397	2450
924.494	2157
924.591	2181
924.688	2520
924.786	3081
924.883	3036
924.979	2478
925.077	2108
925.173	3366
925.270	2310
925.367	2823
925.464	3024
925.561	2568
925.658	2995
925.755	2451
925.852	2627
925.948	2831
926.045	2577
926.142	2470
926.239	3434
926.335	2341
926.432	2376
926.529	2501
926.625	3334
926.722	2540
926.818	2848
926.915	2741
927.011	2263
927.108	1771
927.204	1925
927.301	2267
927.397	1794
927.494	1988
927.590	2578
927.687	2395
927.783	2070
927.879	1684
927.976	2645
928.072	2717
928.168	1862
928.264	1970
928.361	2311
928.457	2251
928.553	2842
928.649	2064
928.745	2405
928.841	2527
928.937	2291
929.033	2238
929.129	2189
929.225	2532
929.321	2994
929.417	2967
929.513	1845
929.609	2566
929.705	1303
929.801	2208
929.897	1690
929.993	2821
930.089	1808
930.184	2372
930.280	1808
930.376	1998
930.471	1772
930.567	1958
930.663	1546
930.758	1876
930.854	1484
930.950	1728
931.045	1529
931.141	2436
931.236	1892
931.332	2466
931.427	1582
931.523	2225
931.618	1227
931.714	2109
931.809	1918
931.905	2446
932.000	1052
932.095	2521
932.191	2976
932.286	1707
932.381	1649
932.476	1995
932.572	2432
932.667	1953
932.762	2470
932.857	2447
932.952	1670
933.047	1879
933.142	1581
933.237	2571
933.332	2510
933.427	2818
933.522	1920
933.617	1644
933.712	1941
933.807	2118
933.902	2091
933.997	2236
934.092	1869
934.187	2304
934.282	2210
934.376	1888
934.471	1842
934.566	1662
934.661	1811
934.755	1995
934.850	1311
934.945	2360
935.039	1851
935.134	1942
935.228	2162
935.323	1708
935.417	1719
935.512	2028
935.606	1013
935.701	1353
935.795	1937
935.890	1803
935.984	2287
936.079	1136
936.173	1913
936.267	1886
936.362	2072
936.456	1796
936.550	1258
936.644	1995
936.738	1815
936.833	1586
936.927	2385
937.021	2346
937.115	868
937.209	1454
937.303	3272
937.397	1250
937.491	1501
937.585	2213
937.679	1579
937.773	1461
937.867	1265
937.961	1299
938.055	1456
938.149	2316
938.243	1806
938.337	1938
938.430	1228
938.524	1684
938.618	1808
938.712	2260
938.805	1349
938.899	1909
938.993	1372
939.086	2020
939.180	2146
939.274	2234
939.367	2052
939.461	1847
939.554	1579
939.648	1752
939.741	1149
939.835	2011
939.928	2420
940.022	1759
940.115	937
940.208	1746
940.302	1883
940.395	2045
940.488	1654
940.582	1511
940.675	854
940.768	1297
940.861	1167
940.954	1330
941.048	1258
941.141	1270
941.234	1051
941.327	2529
941.420	3022
941.513	1740
941.606	2071
941.699	1747
941.792	960
941.885	1689
941.978	1962
942.071	1577
942.164	1108
942.257	1535
942.349	2230
942.442	2011
942.535	1286
942.628	1963
942.721	1355
942.813	2250
942.906	2378
942.999	895
943.091	1485
943.184	1398
943.277	1625
943.369	1956
943.462	1734
943.554	1572
943.647	1390
943.739	1362
943.832	908
943.924	1173
944.017	1325
944.109	764
944.201	1155
944.294	1212
944.386	965
944.478	1300
944.571	1293
944.663	1824
944.755	1000
944.847	1649
944.940	1629
945.032	1529
945.124	1225
945.216	2685
945.308	1648
945.400	1126
945.492	608
945.584	1106
945.676	1266
945.768	1553
945.860	2288
945.952	1100
946.044	1753
946.136	1951
946.228	582
946.320	1452
946.412	1129
946.503	1874
946.595	1595
946.687	1354
946.779	1456
946.870	725
946.962	2045
947.054	888
947.145	1634
947.237	1839
947.329	1243
947.420	1114
947.512	563
947.603	1727
947.695	1200
947.786	912
947.878	720
947.969	1439
948.061	1122
948.152	898
948.243	674
948.335	1982
948.426	1072
948.517	1543
948.609	1121
948.700	1038
948.791	998
948.882	601
948.973	1603
949.065	1211
949.156	1163
949.247	1099
949.338	1443
949.429	991
949.520	994
949.611	507
949.702	1076
949.793	652
949.884	823
949.975	1948
950.066	1580
950.157	1333
950.247	1439
950.338	907
950.429	1404
950.520	2140
950.611	1517
950.701	1465
950.792	2143
950.883	1341
950.973	933
951.064	656
951.155	1020
951.245	2401
951.336	1838
951.427	971
951.517	1973
951.608	1283
951.698	1085
951.788	903
951.879	1238
951.969	365
952.060	1204
952.150	1575
952.240	587
952.331	724
952.421	1213
952.511	1258
952.602	1506
952.692	596
952.782	1081
952.872	1247
952.962	1210
953.052	1000
953.143	765
953.233	1323
953.323	1274
953.413	1034
953.503	1106
953.593	1194
953.683	1320
953.773	1019
953.863	2217
953.953	1409
954.042	1225
954.132	1500
954.222	660
954.312	881
954.402	1386
954.492	1720
954.581	2180
954.671	1390
954.761	1375
954.850	1478
954.940	452
955.030	1598
955.119	498
955.209	748
955.298	1360
955.388	1592
955.477	1855
955.567	1071
955.656	1688
955.746	1706
955.835	1007
955.925	1346
956.014	1834
956.103	1358
956.193	779
956.282	1161
956.371	1026
956.461	1617
956.550	1813
956.639	1965
956.728	1107
956.817	1585
956.906	1678
956.995	2276
957.085	1640
957.174	1745
957.263	1244
957.352	1417
957.441	1753
957.530	1716
957.619	1320
957.708	1528
957.796	1588
957.885	1377
957.974	1510
958.063	1950
958.152	883
958.241	2020
958.329	1594
958.418	2217
958.507	2148
958.596	2126
958.684	2346
958.773	2443
958.861	2003
958.950	2354
959.039	2733
959.127	2754
959.216	2898
959.304	2860
959.393	2694
959.481	2411
959.570	2019
959.658	2720
959.746	2690
959.835	4066
959.923	4078
960.011	3727
960.100	1460
960.188	2369
960.276	2068
960.365	1253
960.453	1346
960.541	2463
960.629	1781
960.717	1852
960.805	1909
960.893	1755
960.981	1414
961.069	2006
961.158	1442
961.245	2540
961.333	1728
961.421	1664
961.509	1719
961.597	1529
961.685	2213
961.773	1688
961.861	892
961.949	1810
962.036	1486
962.124	1490
962.212	2071
962.299	1000
962.387	1487
962.475	190
962.562	530
962.650	2273
962.738	818
962.825	1135
962.913	938
963.000	1624
963.088	1013
963.175	1711
963.263	1516
963.350	1715
963.438	1651
963.525	1276
963.612	2709
963.700	3850
963.787	10241
963.874	8004
963.962	2554
964.049	847
964.136	1085
964.223	1115
964.310	1633
964.398	960
964.485	1134
964.572	1381
964.659	2330
964.746	2598
964.833	1541
964.920	977
965.007	1276
965.094	1302
965.181	522
965.268	673
965.355	1490
965.441	987
965.528	326
965.615	1842
965.702	1185
965.789	632
965.875	756
965.962	769
966.049	377
966.136	638
966.222	904
966.309	822
966.395	849
966.482	85
966.569	-86
966.655	1311
966.742	1228
966.828	644
966.915	1014
967.001	960
967.087	1347
967.174	1246
967.260	1930
967.347	2114
967.433	3625
967.519	6753
967.605	4206
967.692	1081
967.778	776
967.864	215
967.950	1199
968.036	1007
968.123	847
968.209	1052
968.295	491
968.381	1146
968.467	730
968.553	375
968.639	1149
968.725	943
968.811	2163
968.897	1421
968.983	1407
969.069	941
969.154	914
969.240	2020
969.326	53
969.412	522
969.497	-122
969.583	-321
969.669	707
969.755	1408
969.840	898
969.926	786
970.012	-36
970.097	670
970.183	488
970.268	1496
970.354	1632
970.439	1353
970.525	4873
970.610	3142
970.696	1406
970.781	993
970.866	-338
970.952	607
971.037	111
971.122	502
971.208	864
971.293	1267
971.378	20
971.463	325
971.549	-287
971.634	749
971.719	1079
971.804	1080
971.889	786
971.974	407
972.059	104
972.144	717
972.229	1082
972.314	288
972.399	647
972.484	743
972.569	983
972.654	873
972.739	2154
972.824	3144
972.908	1280
972.993	1069
973.078	457
973.163	463
973.247	-172
973.332	-82
973.417	1178
973.501	380
973.586	716
973.671	182
973.755	507
973.840	531
973.924	1038
974.009	1240
974.093	439
974.178	1321
974.262	1726
974.346	1794
974.431	863
974.515	575
974.600	3
974.684	404
974.768	253
974.852	982
974.937	-149
975.021	1270
975.105	349
975.189	856
975.273	-37
975.358	733
975.442	560
975.526	611
975.610	-409
975.694	180
975.778	880
975.862	370
975.946	-362
976.030	340
976.114	-224
976.198	700
976.281	384
976.365	892
976.449	-159
976.533	48
976.617	68
976.700	1030
976.784	-479
976.868	358
976.951	723
977.035	956
977.119	519
977.202	821
977.286	-84
977.369	755
977.453	872
977.536	25
977.620	511
977.703	364
977.787	-520
977.870	441
977.953	990
978.037	-161
978.120	798
978.203	1121
978.287	1989
978.370	1239
978.453	272
978.536	488
978.620	1213
978.703	1939
978.786	977
978.869	-270
978.952	35
979.035	1211
979.118	-446
979.201	519
979.284	583
979.367	108
979.450	352
979.533	247
979.616	-407
979.699	909
979.782	-860
979.865	206
979.948	307
980.030	-274
980.113	-350
980.196	198
980.279	681
980.361	342
980.444	286
980.526	-172
980.609	291
980.692	-8
980.774	634
980.857	-765
980.939	608
981.022	151
981.104	404
981.187	407
981.269	339
981.352	457
981.434	-911
981.516	-502
981.599	363
981.681	170
981.763	252
981.846	-299
981.928	240
982.010	550
982.092	13
982.174	-61
982.256	102
982.339	-508
982.421	-39
982.503	411
982.585	18
982.667	-109
982.749	152
982.831	448
982.913	-171
982.995	918
983.077	76
983.158	460
983.240	40
983.322	62
983.404	910
983.486	-162
983.568	-2
983.649	325
983.731	504
983.813	-763
983.894	516
983.976	334
984.058	152
984.139	908
984.221	-686
984.302	352
984.384	250
984.465	-315
984.547	165
984.628	-51
984.710	-192
984.791	289
984.872	10
984.954	-466
985.035	-146
985.116	745
985.198	-228
985.279	983
985.360	-488
985.441	256
985.522	-294
985.604	440
985.685	-735
985.766	529
985.847	747
985.928	-137
986.009	-438
986.090	263
986.171	468
986.252	268
986.333	649
986.414	-76
986.495	379
986.576	179
986.656	51
986.737	259
986.818	-253
986.899	-498
986.980	-512
987.060	1324
987.141	217
987.222	487
987.302	45
987.383	707
987.464	-85
987.544	-102
987.625	-245
987.705	825
987.786	573
987.866	-887
987.947	-509
988.027	-117
988.108	-454
988.188	177
988.268	595
988.349	83
988.429	-499
988.509	713
988.589	-454
988.670	-1576
988.750	907
988.830	-138
988.910	103
988.990	232
989.070	-57
989.151	-69
989.231	-128
989.311	-64
989.391	834
989.471	371
989.551	-427
989.631	55
989.711	582
989.791	-415
989.870	-131
989.950	689
990.030	-754
990.110	-12
990.190	64
990.269	-831
990.349	-737
990.429	206
990.509	704
990.588	-537
990.668	277
990.747	508
990.827	-477
990.907	173
990.986	86
991.066	34
991.145	-349
991.225	-304
991.304	193
991.383	-152
991.463	-383
991.542	637
991.622	-250
991.701	146
991.780	-239
991.859	-922
991.939	247
992.018	-466
992.097	199
992.176	373
992.256	205
992.335	-411
992.414	529
992.493	605
992.572	-284
992.651	399
992.730	-264
992.809	758
992.888	-122
992.967	-27
993.046	-427
993.125	-370
993.203	265
993.282	-261
993.361	-516
993.440	172
993.519	-72
993.597	259
993.676	-731
993.755	670
993.834	171
993.912	-909
993.991	471
994.069	-1053
994.148	-228
994.226	57
994.305	99
994.384	-213
994.462	115
994.540	309
994.619	319
994.697	-26
994.776	469
994.854	401
994.932	-600
995.011	-211
995.089	168
995.167	-190
995.245	227
995.324	-344
995.402	-75
995.480	-889
995.558	-118
995.636	-1069
995.714	-109
995.792	481
995.870	-509
995.948	579
996.026	558
996.104	-184
996.182	-496
996.260	-119
996.338	122
996.416	222
996.494	-498
996.572	-199
996.649	180
996.727	-433
996.805	-39
996.883	-273
996.960	-306
997.038	241
997.116	333
997.193	-529
997.271	410
997.348	-163
997.426	-1180
997.504	-976
997.581	-782
997.658	-317
997.736	-107
997.813	-798
997.891	-877
997.968	-264
998.046	56
998.123	7
998.200	-515
998.277	-1088
998.355	-286
998.432	-1006
998.509	-772
998.586	-258
998.663	-313
998.741	-729
998.818	-866
998.895	-116
998.972	-429
999.049	115
999.126	-403
999.203	617
999.280	-403
999.357	-418
999.434	-377
999.511	-441
999.587	108
999.664	-392
999.741	-588
999.818	-671
999.895	-337
999.971	-709
1000.048	-405
1000.125	42
1000.202	-840
1000.278	-849
1000.355	-517
1000.431	-96
1000.508	-1374
1000.584	-610
1000.661	466
1000.738	-504
1000.814	-919
1000.890	-741
1000.967	-810
1001.043	-214
1001.120	-1244
1001.196	-413
1001.272	-624
1001.349	-810
1001.425	-305
1001.501	40
1001.577	-275
1001.654	-626
1001.730	-608
1001.806	-570
1001.882	-1215
1001.958	207
1002.034	-827
1002.110	-417
1002.186	-1311
1002.262	-690
1002.338	-820
1002.414	-769
1002.490	-841
1002.566	18
1002.642	-736
1002.718	-548
1002.794	-365
1002.870	-46
1002.945	-650
1003.021	-639
1003.097	-740
1003.173	-781
1003.248	-491
1003.324	-1050
1003.400	-800
1003.475	-1426
1003.551	-545
1003.626	-764
1003.702	-1153
1003.777	-201
1003.853	-956
1003.928	-832
1004.004	-1167
1004.079	-663
1004.155	-145
1004.230	-1171
1004.305	-1061
1004.381	-380
1004.456	-565
1004.531	-933
1004.607	-340
1004.682	-715
1004.757	-1134
1004.832	-1004
1004.907	-1264
1004.982	-887
1005.057	-937
1005.133	-508
1005.208	-977
1005.283	-839
1005.358	-767
1005.433	-1615
1005.508	-1140
1005.583	-966
1005.657	-1356
1005.732	-768
1005.807	-1955
1005.882	-1289
1005.957	-620
1006.032	-320
1006.106	-638
1006.181	-1265
1006.256	-956
1006.331	-377
1006.405	-1395
1006.480	-661
1006.554	-527
1006.629	-858
1006.704	-1471
1006.778	-601
1006.853	-1252
1006.927	-811
1007.002	-1075
1007.076	-1263
1007.150	-1459
1007.225	-108
1007.299	-405
1007.373	-1179
1007.448	-1163
1007.522	-352
1007.596	-1556
1007.671	-2058
1007.745	-1223
1007.819	-1358
1007.893	-1518
1007.967	-542
1008.041	-1168
1008.115	-1258
1008.190	-914
1008.264	-1114
1008.338	-2408
1008.412	-1679
1008.486	-878
1008.560	-803
1008.633	-2156
1008.707	-638
1008.781	-860
1008.855	-1694
1008.929	-938
1009.003	-1819
1009.076	-1275
1009.150	-1174
1009.224	-1555
1009.298	-1284
1009.371	-2009
1009.445	-1425
1009.519	-1430
1009.592	-1314
1009.666	-1076
1009.739	-1529
1009.813	-1916
1009.886	-1111
1009.960	-2006
1010.033	-1158
1010.107	-1068
1010.180	-1318
1010.253	-1219
1010.327	-1309
1010.400	-913
1010.473	-1801
1010.547	-852
1010.620	-76
1010.693	-1191
1010.766	-1607
1010.840	-464
1010.913	-1580
1010.986	-1439
1011.059	-749
1011.132	-1696
1011.205	-1238
1011.278	-1679
1011.351	-1290
1011.424	-1436
1011.497	-1574
1011.570	-549
1011.643	-1095
1011.716	-1453
1011.789	-2201
1011.862	-1475
1011.934	-796
1012.007	-1833
1012.080	-1481
1012.153	-2125
1012.225	-1324
1012.298	-1928
1012.371	-1282
1012.443	-1828
1012.516	-1642
1012.588	-992
1012.661	-1312
1012.733	-1398
1012.806	-1588
1012.879	-2010
1012.951	-1143
1013.023	-2024
1013.096	-1006
1013.168	-1507
1013.241	-576
1013.313	-1267
1013.385	-1541
1013.458	-1188
1013.530	-1414
1013.602	-1878
1013.674	-911
1013.746	-2271
1013.819	-1826
1013.891	-1169
1013.963	-1380
1014.035	-1148
1014.107	-1233
1014.179	-632
1014.251	-1331
1014.323	-1168
1014.395	-683
1014.467	-1314
1014.539	-918
1014.611	-2192
1014.683	-1359
1014.754	-922
1014.826	-907
1014.898	-1349
1014.970	-1781
1015.042	-482
1015.113	-1174
1015.185	-1533
1015.257	-1718
1015.328	-2129
1015.400	-1071
1015.471	-1300
1015.543	-2188
1015.615	-1228
1015.686	-1145
1015.757	-938
1015.829	-690
1015.901	-969
1015.972	-754
1016.043	-1387
1016.115	-1391
1016.186	-1661
1016.257	-2162
1016.328	-1280
1016.400	-980
1016.471	-1764
1016.542	-1412
1016.613	-1807
1016.685	-1114
1016.756	-512
1016.827	-799
1016.898	-1807
1016.969	-743
1017.040	-2396
1017.111	-1418
1017.182	-1723
1017.253	-888
1017.324	-844
1017.395	-1379
1017.466	-1554
1017.537	-1745
1017.608	-1579
1017.678	-1131
1017.749	-1757
1017.820	-1312
1017.891	-1837
1017.961	-1148
1018.032	-1492
1018.103	-959
1018.173	-1375
1018.244	-1373
1018.315	-1878
1018.385	-1039
1018.456	-1605
1018.526	-1302
1018.597	-1495
1018.667	-1110
1018.738	-2036
1018.808	-575
1018.878	-1544
1018.949	-973
1019.019	-1456
1019.089	-992
1019.160	-1524
1019.230	-1418
1019.300	-1304
1019.371	-1688
1019.441	-1604
1019.511	-1008
1019.581	-1428
1019.651	-1985
1019.721	-1541
1019.791	-1854
1019.861	-1619
1019.931	-2131
1020.001	-660
1020.071	-1117
1020.141	-1632
1020.211	-1296
1020.281	-2192
1020.351	-1811
1020.421	-1398
1020.491	-838
1020.560	-1709
1020.630	-773
1020.700	-1537
1020.770	-1265
1020.839	-2530
1020.909	-1919
1020.979	-1696
1021.048	-1617
1021.118	-1392
1021.187	-1654
1021.257	-1989
1021.326	-1665
1021.396	-1548
1021.465	-1303
1021.535	-2452
1021.604	-1715
1021.674	-1381
1021.743	-1101
1021.812	-2099
1021.882	-1082
1021.951	-1330
1022.020	-1235
1022.089	-1490
1022.159	-1770
1022.228	-507
1022.297	-1799
1022.366	-1441
1022.435	-2283
1022.504	-621
1022.573	-1824
1022.642	-1009
1022.711	-1369
1022.781	-1472
1022.849	-1010
1022.918	-2184
1022.987	-1385
1023.056	-1293
1023.125	-1694
1023.194	-1782
1023.263	-1434
1023.331	-1498
1023.400	-1960
1023.469	-1939
1023.538	-1275
1023.606	-1234
1023.675	-1263
1023.744	-2048
1023.812	-974
1023.881	-1649
1023.949	-847
1024.018	-1696
1024.086	-1076
1024.155	-938
1024.223	-1813
1024.292	-1250
1024.360	-334
1024.429	-1693
1024.497	-1548
1024.565	-1567
1024.634	-2267
1024.702	-1877
1024.770	-2160
1024.838	-1212
1024.907	-1405
1024.975	-1545
1025.043	-1386
1025.111	-2070
1025.179	-705
1025.247	-2055
1025.315	-1333
1025.383	-1392
1025.451	-1906
1025.519	-2214
1025.587	-1384
1025.655	-1521
1025.723	-1212
1025.791	-1556
1025.859	-1337
1025.927	-1398
1025.995	-1343
1026.062	-781
1026.130	-927
1026.198	-1605
1026.266	-1592
1026.333	-1407
1026.401	-1391
1026.469	-1413
1026.536	-1263
1026.604	-1297
1026.671	-1723
1026.739	-2003
1026.806	-1758
1026.874	-1661
1026.941	-1334
1027.009	-1729
1027.076	-1895
1027.144	-1115
1027.211	-1373
1027.278	-1308
1027.345	-1277
1027.413	-1902
1027.480	-1908
1027.547	-1120
1027.614	-1292
1027.682	-916
1027.749	-692
1027.816	-2154
1027.883	-1219
1027.950	-1077
1028.017	-1155
1028.084	-1416
1028.151	-1895
1028.218	-1890
1028.285	-850
1028.352	-2032
1028.419	-1800
1028.486	-1739
1028.553	-1351
1028.619	-2055
1028.686	-1125
1028.753	-1623
1028.820	-979
1028.886	-2497
1028.953	-1203
1029.020	-1287
1029.086	-1611
1029.153	-1438
1029.220	-1335
1029.286	-1648
1029.353	-1082
1029.419	-1263
1029.486	-1696
1029.552	-851
1029.619	-1049
1029.685	-1697
1029.751	-2313
1029.818	-1947
1029.884	-1607
1029.951	-1697
1030.017	-1818
1030.083	-1223
1030.149	-1701
1030.216	-1620
1030.282	-1665
1030.348	-1944
1030.414	-1253
1030.480	-1958
1030.546	-1503
1030.612	-1651
1030.678	-1763
1030.744	-1423
1030.810	-1527
1030.876	-1612
1030.942	-1469
1031.008	-1627
1031.074	-1651
1031.140	-1769
1031.206	-1145
1031.272	-1920
1031.337	-1475
1031.403	-1158
1031.469	-1708
1031.534	-1484
1031.600	-1703
1031.666	-1870
1031.731	-2005
1031.797	-1699
1031.863	-1320
1031.928	-1877
1031.994	-1752
1032.059	-2152
1032.125	-1644
1032.190	-2134
1032.256	-899
1032.321	-2031
1032.386	-1721
1032.452	-1076
1032.517	-1440
1032.582	-1532
1032.647	-1343
1032.713	-1165
1032.778	-1621
1032.843	-1649
1032.908	-1429
1032.974	-1291
1033.039	-1916
1033.104	-1848
1033.169	-1672
1033.234	-1324
1033.299	-675
1033.364	-1560
1033.429	-1740
1033.494	-1494
1033.559	-1842
1033.624	-2066
1033.688	-1352
1033.753	-2109
1033.818	-1738
1033.883	-1269
1033.948	-2020
1034.013	-1543
1034.077	-1728
1034.142	-2157
1034.207	-1278
1034.271	-1418
1034.336	-907
1034.400	-1782
1034.465	-1598
1034.530	-993
1034.594	-1380
1034.658	-804
1034.723	-1266
1034.787	-1782
1034.852	-867
1034.916	-487
1034.981	-2219
1035.045	-1454
1035.109	-1919
1035.173	-1467
1035.238	-1569
1035.302	-1119
1035.366	-1420
1035.430	-2133
1035.495	-1990
1035.559	-1393
1035.623	-736
1035.687	-1158
1035.751	-1589
1035.815	-1108
1035.879	-1237
1035.943	-2168
1036.007	-1341
1036.071	-1492
1036.135	-710
1036.198	-2200
1036.262	-2372
1036.326	-1545
1036.390	-1840
1036.454	-1589
1036.517	-1793
1036.581	-776
1036.645	-1536
1036.709	-1178
1036.772	-792
1036.836	-2170
1036.900	-1942
1036.963	-1909
1037.026	-1628
1037.090	-1790
1037.154	-1081
1037.217	-1854
1037.280	-1904
1037.344	-809
1037.407	-1916
1037.471	-1573
1037.534	-1939
1037.597	-1567
1037.661	-1573
1037.724	-2473
1037.787	-1377
1037.850	-1617
1037.913	-1641
1037.977	-1514
1038.040	-2102
1038.103	-1527
1038.166	-1191
1038.229	-1214
1038.292	-2317
1038.355	-2071
1038.418	-2483
1038.481	-1298
1038.544	-2123
1038.607	-2010
1038.670	-1645
1038.732	-2218
1038.795	-1581
1038.858	-2061
1038.921	-1521
1038.984	-1265
1039.046	-2253
1039.109	-2152
1039.172	-979
1039.234	-1660
1039.297	-1411
1039.360	-2411
1039.422	-2406
1039.485	-1834
1039.547	-2368
1039.610	-1902
1039.672	-2245
1039.734	-2104
1039.797	-2272
1039.859	-1951
1039.922	-1553
1039.984	-1547
1040.046	-1816
1040.109	-2303
1040.171	-2172
1040.233	-2006
1040.295	-1698
1040.358	-1818
1040.420	-1913
1040.482	-1823
1040.544	-2335
1040.606	-1649
1040.668	-1486
1040.730	-1714
1040.792	-1351
1040.854	-2199
1040.916	-1892
1040.978	-1304
1041.040	-1216
1041.102	-2106
1041.164	-1147
1041.225	-1856
1041.287	-1668
1041.349	-1775
1041.411	-1434
1041.472	-1578
1041.534	-1966
1041.596	-2380
1041.657	-1892
1041.719	-1458
1041.781	-1808
1041.842	-1525
1041.904	-2322
1041.965	-1604
1042.027	-1586
1042.088	-1361
1042.150	-1275
1042.211	-1633
1042.272	-987
1042.334	-1735
1042.395	-954
1042.456	-1434
1042.518	-1886
1042.579	-1550
1042.640	-2241
1042.701	-1176
1042.763	-1323
1042.824	-2054
1042.885	-958
1042.946	-1900
1043.007	-1779
1043.068	-2398
1043.129	-2207
1043.190	-2043
1043.251	-1145
1043.312	-2048
1043.373	-1504
1043.434	-2137
1043.495	-1124
1043.556	-1453
1043.616	-1379
1043.677	-1974
1043.738	-1476
1043.799	-1501
1043.859	-1520
1043.920	-1906
1043.981	-1272
1044.041	-944
1044.102	-1318
1044.162	-1933
1044.223	-1625
1044.284	-1483
1044.344	-1864
1044.405	-1798
1044.465	-1532
1044.525	-1954
1044.586	-708
1044.646	-1383
1044.707	-816
1044.767	-1876
1044.827	-999
1044.887	-1721
1044.948	-921
1045.008	-922
1045.068	-830
1045.128	-2090
1045.188	-1437
1045.249	-988
1045.309	-1636
1045.369	-1742
1045.429	-1231
1045.489	-1603
1045.549	-1370
1045.609	-2083
1045.669	-1738
1045.729	-2081
1045.789	-2400
1045.848	-1628
1045.908	-1355
1045.968	-1239
1046.028	-1213
1046.088	-1034
1046.147	-1047
1046.207	-923
1046.267	-746
1046.326	-905
1046.386	-2258
1046.446	-923
1046.505	-1136
1046.565	-604
1046.624	-339
1046.684	-1481
1046.743	-498
1046.803	-565
1046.862	165
1046.922	0
