'Start Wavelength	183.907
'End Wavelength	1046.922
'Gate Delay	5.000
'Gate Width (ms)	1.050
'Laser Output Level	0.000
'X Position	0.000
'Y Position	0.000
'Z Position	0.000
'Grid Point Number	1.000
'Shot Number	100.000
183.907	641.000
183.977	-326.000
184.047	124
184.116	257
184.186	-304
184.256	206
184.325	6
184.395	-371
184.465	186
184.534	413
184.604	-163
184.674	352
184.743	-456
184.813	229
184.883	257
184.952	255
185.022	-342
185.092	468
185.161	306
185.231	926
185.301	329
185.370	-242
185.440	-495
185.509	791
185.579	-7
185.649	316
185.718	-156
185.788	-176
185.857	1
185.927	355
185.996	-16
186.066	-335
186.136	-554
186.205	-98
186.275	441
186.344	216
186.414	119
186.483	-299
186.553	697
186.622	303
186.692	117
186.761	-392
186.831	-449
186.900	226
186.970	-19
187.039	384
187.109	133
187.178	-243
187.248	-165
187.317	-15
187.387	137
187.456	-211
187.526	-134
187.595	-50
187.664	623
187.734	66
187.803	-188
187.873	426
187.942	259
188.012	576
188.081	245
188.150	344
188.220	562
188.289	99
188.358	132
188.428	-235
188.497	-261
188.567	391
188.636	-69
188.705	26
188.775	-201
188.844	-70
188.913	92
188.983	-10
189.052	475
189.121	305
189.191	136
189.260	290
189.329	546
189.399	57
189.468	69
189.537	822
189.606	41
189.676	173
189.745	410
189.814	80
189.883	362
189.953	91
190.022	588
190.091	1501
190.161	824
190.230	741
190.299	-230
190.368	465
190.437	454
190.507	149
190.576	-25
190.645	-321
190.714	244
190.783	429
190.853	205
190.922	249
190.991	-97
191.060	78
191.129	528
191.198	376
191.268	76
191.337	297
191.406	777
191.475	641
191.544	170
191.613	467
191.682	65
191.752	-127
191.821	-197
191.890	-381
191.959	-187
192.028	925
192.097	492
192.166	-217
192.235	-179
192.304	448
192.373	250
192.442	-199
192.511	514
192.580	371
192.650	-401
192.719	421
192.788	562
192.857	545
192.926	671
192.995	633
193.064	915
193.133	804
193.202	1054
193.271	937
193.340	920
193.409	834
193.478	834
193.547	976
193.615	653
193.684	642
193.753	866
193.822	236
193.891	-387
193.960	452
194.029	854
194.098	-37
194.167	578
194.236	213
194.305	135
194.374	-174
194.443	352
194.512	997
194.580	74
194.649	345
194.718	451
194.787	438
194.856	32
194.925	-14
194.994	293
195.062	-308
195.131	407
195.200	472
195.269	100
195.338	481
195.407	-333
195.475	-62
195.544	312
195.613	508
195.682	722
195.751	845
195.819	620
195.888	-386
195.957	497
196.026	624
196.094	848
196.163	825
196.232	768
196.301	656
196.369	449
196.438	125
196.507	421
196.576	-322
196.644	205
196.713	647
196.782	52
196.850	976
196.919	451
196.988	154
197.056	49
197.125	-219
197.194	-18
197.262	831
197.331	460
197.400	-156
197.468	550
197.537	296
197.606	324
197.674	682
197.743	226
197.812	558
197.880	1154
197.949	471
198.017	741
198.086	479
198.155	576
198.223	680
198.292	902
198.360	959
198.429	534
198.497	632
198.566	363
198.635	484
198.703	834
198.772	772
198.840	1205
198.909	1458
198.977	429
199.046	1208
199.114	-34
199.183	300
199.251	712
199.320	-218
199.388	550
199.457	-117
199.525	1127
199.594	-217
199.662	597
199.731	857
199.799	307
199.867	99
199.936	496
200.004	462
200.073	278
200.141	390
200.210	444
200.278	445
200.346	365
200.415	140
200.483	121
200.552	953
200.620	30
200.688	505
200.757	220
200.825	104
200.893	188
200.962	899
201.030	-49
201.098	327
201.167	756
201.235	-32
201.303	454
201.372	860
201.440	-295
201.508	353
201.577	325
201.645	372
201.713	42
201.781	189
201.850	345
201.918	1202
201.986	458
202.055	968
202.123	48
202.191	-52
202.259	141
202.327	470
202.396	383
202.464	-729
202.532	317
202.600	1485
202.669	509
202.737	245
202.805	257
202.873	356
202.941	897
203.009	573
203.078	353
203.146	991
203.214	835
203.282	874
203.350	655
203.418	886
203.487	485
203.555	-155
203.623	418
203.691	1062
203.759	141
203.827	-180
203.895	563
203.963	1110
204.031	185
204.099	-250
204.168	-120
204.236	518
204.304	514
204.372	9
204.440	334
204.508	148
204.576	569
204.644	586
204.712	420
204.780	879
204.848	32
204.916	849
204.984	601
205.052	702
205.120	694
205.188	621
205.256	1334
205.324	338
205.392	-177
205.460	853
205.528	149
205.596	429
205.664	1074
205.732	603
205.799	1478
205.867	1241
205.935	-198
206.003	1146
206.071	560
206.139	598
206.207	772
206.275	-150
206.343	596
206.411	237
206.478	1126
206.546	1058
206.614	1287
206.682	794
206.750	724
206.818	688
206.885	876
206.953	81
207.021	1479
207.089	758
207.157	141
207.225	888
207.292	37
207.360	733
207.428	595
207.496	132
207.563	211
207.631	542
207.699	316
207.767	324
207.834	378
207.902	1049
207.970	450
208.038	552
208.105	566
208.173	904
208.241	668
208.309	919
208.376	890
208.444	805
208.512	283
208.579	976
208.647	644
208.715	489
208.782	1071
208.850	1104
208.918	485
208.985	737
209.053	926
209.120	1019
209.188	454
209.256	621
209.323	496
209.391	1007
209.459	1472
209.526	996
209.594	361
209.661	766
209.729	464
209.796	671
209.864	72
209.932	219
209.999	1344
210.067	1150
210.134	1139
210.202	1040
210.269	1523
210.337	1114
210.404	698
210.472	902
210.539	1240
210.607	-106
210.674	1151
210.742	801
210.809	1055
210.877	547
210.944	1191
211.012	1180
211.079	1454
211.146	974
211.214	550
211.281	544
211.349	388
211.416	1397
211.484	1245
211.551	700
211.618	1292
211.686	674
211.753	1035
211.821	631
211.888	1444
211.955	1047
212.023	966
212.090	382
212.157	1407
212.225	1363
212.292	1907
212.359	3082
212.427	4856
212.494	2925
212.561	1261
212.629	421
212.696	536
212.763	740
212.831	1554
212.898	729
212.965	879
213.032	1278
213.100	1399
213.167	893
213.234	1179
213.301	1103
213.369	1576
213.436	778
213.503	1161
213.570	992
213.638	1518
213.705	525
213.772	1051
213.839	665
213.906	241
213.973	734
214.041	1287
214.108	1565
214.175	745
214.242	1027
214.309	1321
214.376	1629
214.444	1271
214.511	982
214.578	1294
214.645	908
214.712	1197
214.779	1678
214.846	1263
214.913	1333
214.980	1026
215.048	1958
215.115	1286
215.182	1202
215.249	1511
215.316	761
215.383	904
215.450	1555
215.517	680
215.584	826
215.651	945
215.718	854
215.785	1434
215.852	1196
215.919	1018
215.986	827
216.053	1187
216.120	1283
216.187	1503
216.254	1474
216.321	969
216.388	1398
216.455	1506
216.522	825
216.589	1651
216.656	2164
216.722	2021
216.789	1299
216.856	1896
216.923	1266
216.990	1909
217.057	2110
217.124	1436
217.191	1668
217.258	2214
217.324	2021
217.391	2168
217.458	2343
217.525	2009
217.592	1313
217.659	998
217.725	1741
217.792	2088
217.859	1465
217.926	762
217.993	942
218.059	1275
218.126	666
218.193	880
218.260	990
218.327	944
218.393	1057
218.460	1260
218.527	886
218.594	1460
218.660	823
218.727	1526
218.794	359
218.860	512
218.927	1007
218.994	852
219.061	779
219.127	971
219.194	1494
219.261	1495
219.327	-3
219.394	599
219.461	346
219.527	866
219.594	1336
219.661	442
219.727	-61
219.794	1722
219.860	617
219.927	1064
219.994	1080
220.060	1209
220.127	665
220.193	1200
220.260	2027
220.326	2003
220.393	3953
220.460	3977
220.526	2141
220.593	2038
220.659	2912
220.726	1934
220.792	4000
220.859	4787
220.925	6267
220.992	5753
221.058	5601
221.125	4922
221.191	3321
221.258	1558
221.324	1655
221.391	1487
221.457	468
221.524	1428
221.590	2283
221.657	4152
221.723	2274
221.789	2562
221.856	2483
221.922	1992
221.989	1516
222.055	733
222.121	285
222.188	1569
222.254	2076
222.321	1379
222.387	587
222.453	847
222.520	332
222.586	475
222.652	722
222.719	915
222.785	715
222.851	372
222.918	602
222.984	339
223.050	1144
223.116	536
223.183	808
223.249	857
223.315	741
223.382	526
223.448	898
223.514	140
223.580	475
223.647	743
223.713	511
223.779	878
223.845	1090
223.911	305
223.978	853
224.044	484
224.110	509
224.176	475
224.242	860
224.309	1476
224.375	239
224.441	644
224.507	50
224.573	764
224.639	857
224.705	9
224.772	699
224.838	282
224.904	665
224.970	717
225.036	-283
225.102	201
225.168	693
225.234	787
225.300	625
225.366	792
225.432	311
225.499	348
225.565	286
225.631	798
225.697	1250
225.763	1553
225.829	1314
225.895	1696
225.961	1756
226.027	2135
226.093	1977
226.159	2423
226.225	4121
226.291	6933
226.357	8776
226.423	4850
226.489	4531
226.554	2312
226.620	3182
226.686	2780
226.752	5054
226.818	7613
226.884	10726
226.950	8975
227.016	5048
227.082	2871
227.148	2858
227.214	2159
227.279	2360
227.345	1920
227.411	1759
227.477	627
227.543	1607
227.609	1985
227.674	1518
227.740	840
227.806	777
227.872	1381
227.938	1856
228.003	2012
228.069	848
228.135	809
228.201	900
228.267	1003
228.332	1056
228.398	1309
228.464	635
228.530	429
228.595	961
228.661	735
228.727	775
228.792	1132
228.858	554
228.924	467
228.990	1275
229.055	992
229.121	1461
229.187	1009
229.252	760
229.318	357
229.384	908
229.449	851
229.515	-437
229.581	-431
229.646	2128
229.712	1129
229.777	1959
229.843	1267
229.909	2528
229.974	1843
230.040	1542
230.105	738
230.171	1124
230.236	2157
230.302	2557
230.368	1744
230.433	881
230.499	570
230.564	2508
230.630	896
230.695	852
230.761	1286
230.826	499
230.892	1689
230.957	810
231.023	1207
231.088	1165
231.154	732
231.219	1082
231.284	1303
231.350	1147
231.415	1396
231.481	569
231.546	680
231.612	761
231.677	539
231.742	383
231.808	1820
231.873	474
231.939	377
232.004	2020
232.069	871
232.135	1580
232.200	1156
232.265	637
232.331	973
232.396	640
232.461	204
232.527	570
232.592	670
232.657	1397
232.723	794
232.788	359
232.853	374
232.918	1170
232.984	627
233.049	773
233.114	946
233.179	749
233.245	1623
233.310	1707
233.375	916
233.440	796
233.506	163
233.571	1303
233.636	350
233.701	472
233.766	1019
233.832	1142
233.897	887
233.962	311
234.027	1192
234.092	1113
234.157	810
234.222	683
234.288	2055
234.353	3774
234.418	3442
234.483	2071
234.548	1696
234.613	1494
234.678	1100
234.743	1791
234.808	4829
234.873	2879
234.938	1228
235.004	1583
235.069	1474
235.134	1273
235.199	1822
235.264	1072
235.329	1197
235.394	1418
235.459	1798
235.524	1136
235.589	1113
235.654	1407
235.719	1216
235.784	918
235.849	1849
235.913	1954
235.978	2572
236.043	2926
236.108	1351
236.173	1961
236.238	1557
236.303	1489
236.368	1875
236.433	2198
236.498	2785
236.563	3249
236.627	7399
236.692	15050
236.757	11260
236.822	6108
236.887	4380
236.952	4039
237.017	2515
237.081	3657
237.146	5976
237.211	10069
237.276	15872
237.341	17728
237.405	11758
237.470	6203
237.535	4447
237.600	3401
237.664	2675
237.729	2408
237.794	3290
237.859	5377
237.923	3456
237.988	2166
238.053	2833
238.118	2211
238.182	6295
238.247	3977
238.312	2242
238.376	1687
238.441	1343
238.506	2121
238.570	715
238.635	1604
238.700	2287
238.764	1424
238.829	3077
238.893	2881
238.958	2293
239.023	1775
239.087	1582
239.152	1579
239.216	1059
239.281	2320
239.346	1684
239.410	716
239.475	1016
239.539	5565
239.604	2467
239.668	1576
239.733	869
239.797	1352
239.862	1864
239.926	3591
239.991	986
240.055	1761
240.120	1856
240.184	1063
240.249	1061
240.313	640
240.378	779
240.442	3930
240.507	3815
240.571	2140
240.635	1890
240.700	2398
240.764	1679
240.829	1135
240.893	824
240.957	1365
241.022	4223
241.086	4064
241.151	1128
241.215	1257
241.279	2316
241.344	2488
241.408	1500
241.472	1401
241.537	2361
241.601	2283
241.665	1668
241.730	438
241.794	1866
241.858	1205
241.922	1769
241.987	1405
242.051	1578
242.115	1851
242.179	2235
242.244	1509
242.308	2200
242.372	2464
242.436	2590
242.501	2296
242.565	1507
242.629	1238
242.693	1700
242.757	1040
242.822	1321
242.886	1081
242.950	1733
243.014	1283
243.078	1839
243.142	2259
243.206	1343
243.271	1473
243.335	1809
243.399	4463
243.463	10085
243.527	15852
243.591	5038
243.655	3715
243.719	2089
243.783	3175
243.847	3533
243.911	3814
243.975	4757
244.040	2120
244.104	2940
244.168	1625
244.232	3075
244.296	3589
244.360	3433
244.424	1832
244.488	1304
244.552	1476
244.615	1328
244.679	1050
244.743	1582
244.807	1410
244.871	1230
244.935	1799
244.999	427
245.063	1328
245.127	1757
245.191	3495
245.255	1812
245.319	2989
245.383	1002
245.446	2267
245.510	1564
245.574	1700
245.638	1313
245.702	1195
245.766	2680
245.829	2297
245.893	2611
245.957	1529
246.021	1262
246.085	2278
246.149	2514
246.212	5690
246.276	5810
246.340	2927
246.404	2363
246.467	2844
246.531	1806
246.595	2444
246.659	1944
246.722	2476
246.786	2487
246.850	2251
246.913	2945
246.977	1610
247.041	1634
247.104	2081
247.168	2304
247.232	5038
247.295	7818
247.359	3761
247.423	2903
247.486	3245
247.550	2607
247.614	1898
247.677	3610
247.741	2307
247.804	2327
247.868	2702
247.932	5233
247.995	8101
248.059	3688
248.122	1866
248.186	2879
248.249	6159
248.313	12915
248.376	11441
248.440	7811
248.503	2234
248.567	4606
248.630	4244
248.694	6227
248.757	8367
248.821	12911
248.884	9787
248.948	9936
249.011	11557
249.075	15311
249.138	11174
249.202	6453
249.265	4578
249.328	5760
249.392	3518
249.455	3586
249.519	2927
249.582	4254
249.645	6347
249.709	3615
249.772	4320
249.835	3572
249.899	2825
249.962	3137
250.025	2663
250.089	6907
250.152	6987
250.215	4747
250.279	3456
250.342	3639
250.405	4082
250.468	3176
250.532	5980
250.595	8014
250.658	22701
250.721	24856
250.785	10851
250.848	6724
250.911	3609
250.974	5090
251.038	6199
251.101	8622
251.164	5296
251.227	6105
251.290	5686
251.354	9495
251.417	28571
251.480	22022
251.543	22478
251.606	46138
251.669	27781
251.732	14584
251.795	14033
251.859	16164
251.922	29291
251.985	14546
252.048	7959
252.111	6374
252.174	6297
252.237	11113
252.300	16053
252.363	23231
252.426	30909
252.489	13817
252.552	8740
252.615	6410
252.678	7366
252.741	14127
252.804	21672
252.867	33948
252.930	19593
252.993	10277
253.056	8205
253.119	5530
253.182	5085
253.245	7825
253.308	6067
253.371	4827
253.434	5615
253.497	4867
253.559	8313
253.622	5848
253.685	8215
253.748	7350
253.811	3260
253.874	5806
253.937	4495
254.000	4215
254.062	6627
254.125	8217
254.188	9612
254.251	5898
254.314	3942
254.376	6929
254.439	7195
254.502	5479
254.565	6694
254.628	9692
254.690	5345
254.753	3168
254.816	3338
254.878	3918
254.941	6842
255.004	5367
255.067	3064
255.129	3009
255.192	2404
255.255	1751
255.317	2285
255.380	1639
255.443	1585
255.505	1624
255.568	1603
255.631	1525
255.693	1943
255.756	785
255.819	1981
255.881	1219
255.944	1491
256.006	1575
256.069	1836
256.132	1590
256.194	2082
256.257	4299
256.319	3122
256.382	2863
256.444	3032
256.507	2425
256.569	2485
256.632	2847
256.694	4268
256.757	13911
256.819	26276
256.882	10687
256.944	5926
257.007	3976
257.069	4079
257.132	3118
257.194	3260
257.257	3310
257.319	2384
257.381	3952
257.444	11143
257.506	32277
257.569	27435
257.631	11955
257.693	7148
257.756	3959
257.818	3325
257.880	3409
257.943	2704
258.005	2585
258.067	3013
258.130	2090
258.192	2447
258.254	4241
258.317	2945
258.379	2836
258.441	4784
258.503	4564
258.566	6432
258.628	5657
258.690	1830
258.753	3762
258.815	4671
258.877	3235
258.939	2203
259.001	2732
259.064	2235
259.126	2044
259.188	2738
259.250	2491
259.312	2959
259.375	3926
259.437	3166
259.499	2544
259.561	1770
259.623	2282
259.685	2275
259.747	2057
259.809	6555
259.872	8985
259.934	15846
259.996	12051
260.058	4254
260.120	2164
260.182	2394
260.244	1499
260.306	2435
260.368	1377
260.430	2022
260.492	5317
260.554	6366
260.616	3442
260.678	8701
260.740	6998
260.802	1923
260.864	3159
260.926	1542
260.988	2614
261.050	3101
261.112	8497
261.174	13309
261.236	6362
261.298	2999
261.359	5220
261.421	5299
261.483	1780
261.545	2573
261.607	1187
261.669	2205
261.731	3141
261.793	6927
261.854	3214
261.916	2703
261.978	2934
262.040	2046
262.102	2314
262.164	2349
262.225	2006
262.287	1932
262.349	4509
262.411	2652
262.472	2439
262.534	3821
262.596	4971
262.658	2494
262.719	1603
262.781	2703
262.843	4185
262.904	2911
262.966	2348
263.028	2991
263.090	15830
263.151	26860
263.213	9201
263.275	6260
263.336	2123
263.398	2224
263.459	1251
263.521	2273
263.583	4288
263.644	3030
263.706	1966
263.767	1332
263.829	1033
263.891	1054
263.952	403
264.014	1059
264.075	4690
264.137	7828
264.198	2459
264.260	1194
264.321	1301
264.383	5974
264.444	11337
264.506	2412
264.567	3354
264.629	6138
264.690	9591
264.752	3365
264.813	2013
264.875	692
264.936	1708
264.998	717
265.059	975
265.120	1868
265.182	4045
265.243	19864
265.305	13811
265.366	3972
265.427	2834
265.489	2223
265.550	1882
265.611	2014
265.673	1103
265.734	1497
265.795	1861
265.857	1409
265.918	2792
265.979	6721
266.040	27545
266.102	17321
266.163	6021
266.224	4969
266.286	3321
266.347	1710
266.408	1439
266.469	1754
266.530	1630
266.592	1479
266.653	3823
266.714	3885
266.775	1250
266.836	1358
266.898	1448
266.959	3344
267.020	1874
267.081	1855
267.142	713
267.203	718
267.264	751
267.326	2230
267.387	1682
267.448	735
267.509	1580
267.570	846
267.631	1292
267.692	649
267.753	1698
267.814	809
267.875	4054
267.936	4538
267.997	4731
268.058	3371
268.119	1865
268.180	1839
268.241	559
268.302	1274
268.363	690
268.424	941
268.485	1971
268.546	820
268.607	1516
268.668	793
268.729	606
268.790	940
268.851	1986
268.912	3876
268.972	4047
269.033	2297
269.094	258
269.155	2221
269.216	647
269.277	760
269.338	1072
269.398	935
269.459	827
269.520	2870
269.581	3268
269.642	3265
269.702	2087
269.763	1790
269.824	807
269.885	1802
269.945	3413
270.006	1360
270.067	1460
270.128	480
270.188	151
270.249	1328
270.310	487
270.370	1871
270.431	1044
270.492	586
270.553	976
270.613	3816
270.674	5945
270.734	1840
270.795	1833
270.856	2244
270.916	961
270.977	1678
271.038	2315
271.098	2142
271.159	2764
271.219	2489
271.280	1033
271.340	955
271.401	1474
271.462	2475
271.522	2869
271.583	852
271.643	1827
271.704	1410
271.764	2146
271.825	6279
271.885	15319
271.946	14240
272.006	5495
272.066	10956
272.127	11291
272.187	3607
272.248	2251
272.308	3153
272.369	9947
272.429	4063
272.489	5442
272.550	4302
272.610	4819
272.671	2965
272.731	4049
272.791	4318
272.852	2350
272.912	2502
272.972	1164
273.033	1817
273.093	2528
273.153	3362
273.214	2425
273.274	2626
273.334	9984
273.394	12779
273.455	4661
273.515	6328
273.575	11193
273.635	4694
273.696	8442
273.756	11614
273.816	4609
273.876	2947
273.936	7470
273.997	9313
274.057	2893
274.117	3109
274.177	5603
274.237	17653
274.297	12398
274.358	10189
274.418	10398
274.478	7318
274.538	3732
274.598	2598
274.658	10090
274.718	8772
274.778	3865
274.838	2798
274.898	6064
274.958	12967
275.018	12944
275.078	7571
275.138	2943
275.198	2335
275.258	1796
275.318	2682
275.378	4848
275.438	4925
275.498	3554
275.558	8300
275.618	13081
275.678	7710
275.738	7267
275.798	6154
275.858	3151
275.918	1186
275.978	2452
276.038	1702
276.098	1497
276.157	4754
276.217	10074
276.277	3854
276.337	3398
276.397	1255
276.457	2518
276.517	1637
276.576	1563
276.636	521
276.696	3181
276.756	6983
276.815	3464
276.875	1714
276.935	2430
276.995	2272
277.055	1349
277.114	1715
277.174	2667
277.234	7121
277.293	3188
277.353	1791
277.413	1361
277.472	1590
277.532	1674
277.592	2925
277.651	7436
277.711	10211
277.771	4090
277.830	15099
277.890	10110
277.950	9597
278.009	19380
278.069	7526
278.128	9775
278.188	9729
278.248	5689
278.307	12318
278.367	6821
278.426	2605
278.486	1875
278.545	2260
278.605	1657
278.664	1504
278.724	3128
278.783	7402
278.843	12513
278.902	3134
278.962	2380
279.021	3631
279.081	4281
279.140	4655
279.199	3167
279.259	3735
279.318	2865
279.378	4656
279.437	7336
279.496	22643
279.556	63221
279.615	35845
279.675	11596
279.734	7448
279.793	11657
279.853	12771
279.912	5412
279.971	3261
280.031	2946
280.090	6245
280.149	8473
280.208	10702
280.268	48134
280.327	32516
280.386	8025
280.445	8677
280.505	6264
280.564	4658
280.623	3464
280.682	6397
280.742	7607
280.801	2678
280.860	1677
280.919	2239
280.978	2145
281.037	1905
281.097	1314
281.156	1801
281.215	1570
281.274	3048
281.333	9805
281.392	5871
281.451	1814
281.510	1454
281.569	1357
281.628	597
281.688	1317
281.747	1655
281.806	1794
281.865	1457
281.924	1233
281.983	1121
282.042	665
282.101	1190
282.160	1924
282.219	606
282.278	1869
282.337	5532
282.396	2597
282.454	2454
282.513	2747
282.572	8852
282.631	4356
282.690	1241
282.749	916
282.808	1975
282.867	2368
282.926	1265
282.985	1203
283.043	750
283.102	1113
283.161	2086
283.220	5146
283.279	8585
283.338	3214
283.396	1759
283.455	2203
283.514	1601
283.573	3315
283.631	2376
283.690	1063
283.749	1387
283.808	5377
283.866	4797
283.925	1450
283.984	2096
284.043	3270
284.101	3555
284.160	1549
284.219	3651
284.277	2550
284.336	4608
284.395	12702
284.453	8125
284.512	4338
284.570	5646
284.629	4394
284.688	4127
284.746	3630
284.805	5569
284.863	6662
284.922	7439
284.981	9310
285.039	15092
285.098	25851
285.156	52004
285.215	67153
285.273	66071
285.332	45685
285.390	27081
285.449	17083
285.507	12393
285.566	8137
285.624	6943
285.683	5279
285.741	4183
285.799	4190
285.858	2976
285.916	3521
285.975	2427
286.033	2110
286.091	2209
286.150	1101
286.208	2115
286.267	2601
286.325	2812
286.383	5084
286.442	3364
286.500	1643
286.558	2528
286.616	1145
286.675	3078
286.733	1840
286.791	1550
286.850	2680
286.908	3336
286.966	5154
287.024	2436
287.083	1473
287.141	1203
287.199	2044
287.257	2831
287.315	1742
287.374	2900
287.432	7144
287.490	3561
287.548	2398
287.606	2231
287.664	2017
287.723	3225
287.781	3575
287.839	2306
287.897	3293
287.955	3833
288.013	7352
288.071	16893
288.129	59160
288.187	105542
288.245	48644
288.303	18502
288.361	10827
288.419	8531
288.477	6368
288.535	3588
288.593	4297
288.651	2976
288.709	1579
288.767	2395
288.825	2034
288.883	2365
288.941	2034
288.999	1429
289.057	2208
289.115	1507
289.173	1368
289.231	2208
289.289	1254
289.346	1264
289.404	2131
289.462	4098
289.520	3173
289.578	2338
289.636	753
289.694	759
289.751	1012
289.809	895
289.867	1656
289.925	2340
289.983	1985
290.040	1680
290.098	2118
290.156	1814
290.214	2203
290.271	1769
290.329	1213
290.387	1135
290.444	1171
290.502	608
290.560	1249
290.617	762
290.675	1403
290.733	924
290.790	1039
290.848	1519
290.906	1623
290.963	1480
291.021	1324
291.078	1540
291.136	1981
291.194	7930
291.251	12260
291.309	3974
291.366	1988
291.424	1255
291.481	943
291.539	1279
291.596	1575
291.654	526
291.711	486
291.769	1643
291.826	3200
291.884	2431
291.941	1189
291.999	679
292.056	1407
292.114	2480
292.171	1231
292.228	1887
292.286	1651
292.343	3757
292.401	4659
292.458	3134
292.515	1788
292.573	2017
292.630	1860
292.687	2359
292.745	1679
292.802	3797
292.859	9310
292.917	12351
292.974	6077
293.031	2162
293.089	2280
293.146	1367
293.203	1260
293.260	941
293.318	2428
293.375	3725
293.432	2532
293.489	1412
293.546	2333
293.604	3224
293.661	8866
293.718	18049
293.775	9855
293.832	4652
293.889	2772
293.947	2533
294.004	2510
294.061	2985
294.118	6495
294.175	14210
294.232	18548
294.289	7078
294.346	4367
294.403	4174
294.460	3098
294.517	1921
294.574	2011
294.631	1865
294.688	3465
294.745	8136
294.802	26128
294.859	26696
294.916	9050
294.973	5200
295.030	3677
295.087	3744
295.144	2927
295.201	2614
295.258	2088
295.315	3529
295.372	9692
295.429	13756
295.486	6551
295.542	6497
295.599	16647
295.656	22428
295.713	14674
295.770	13644
295.827	6763
295.883	3731
295.940	3708
295.997	6169
296.054	6007
296.111	3055
296.167	2812
296.224	2528
296.281	2563
296.338	1648
296.394	2311
296.451	2685
296.508	8564
296.564	12566
296.621	11046
296.678	20342
296.734	23396
296.791	10375
296.848	7199
296.904	7447
296.961	12355
297.018	17105
297.074	11351
297.131	6415
297.187	4584
297.244	6444
297.301	18176
297.357	22919
297.414	9697
297.470	5241
297.527	3230
297.583	3314
297.640	2913
297.696	2368
297.753	2354
297.809	1363
297.866	2083
297.922	2532
297.979	1218
298.035	2369
298.092	4125
298.148	10319
298.204	8954
298.261	5698
298.317	11316
298.374	21580
298.430	11413
298.486	5881
298.543	5195
298.599	5545
298.656	7459
298.712	11377
298.768	20743
298.824	14037
298.881	6228
298.937	3908
298.993	2964
299.050	4258
299.106	3269
299.162	3324
299.218	3357
299.275	3102
299.331	3479
299.387	7961
299.443	18537
299.500	16125
299.556	6711
299.612	4010
299.668	3031
299.724	2799
299.780	3085
299.837	4084
299.893	5992
299.949	15966
300.005	16796
300.061	17074
300.117	24165
300.173	11967
300.229	7155
300.285	7774
300.341	8761
300.397	4462
300.453	3427
300.510	3301
300.566	3157
300.622	3058
300.678	6669
300.734	12996
300.790	14112
300.845	16005
300.901	10540
300.957	14256
301.013	11315
301.069	5303
301.125	4399
301.181	4361
301.237	4244
301.293	2552
301.349	2835
301.405	3053
301.461	3029
301.516	4361
301.572	4462
301.628	5905
301.684	5855
301.740	9410
301.796	11871
301.851	9679
301.907	14662
301.963	15177
302.019	22526
302.074	49344
302.130	46164
302.186	23790
302.242	10674
302.297	7673
302.353	7355
302.409	11916
302.464	11337
302.520	10655
302.576	20230
302.631	21707
302.687	13145
302.743	6992
302.798	4829
302.854	3888
302.910	4630
302.965	6124
303.021	9054
303.076	8712
303.132	10434
303.187	11680
303.243	6315
303.299	4536
303.354	4447
303.410	3760
303.465	3262
303.521	4023
303.576	3257
303.632	4066
303.687	8370
303.743	17046
303.798	14192
303.853	7198
303.909	5146
303.964	4922
304.020	6508
304.075	8919
304.130	8440
304.186	14381
304.241	14400
304.297	11802
304.352	6822
304.358	6594
304.407	4741
304.449	4090
304.463	3874
304.518	4859
304.539	4448
304.573	3792
304.629	4906
304.630	4944
304.684	6822
304.720	11643
304.739	14109
304.794	18617
304.811	16083
304.850	9767
304.902	5831
304.905	5596
304.960	4027
304.992	4636
305.015	5056
305.071	5157
305.083	4944
305.126	4145
305.173	3174
305.181	3020
305.236	2529
305.264	2918
305.292	3356
305.347	3470
305.354	3609
305.402	4471
305.445	5044
305.457	5208
305.512	6235
305.535	6277
305.567	6271
305.622	5966
305.626	6181
305.678	10866
305.716	18727
305.733	21656
305.788	22285
305.807	20151
305.843	16078
305.897	18433
305.898	18456
305.953	16892
305.988	12701
306.008	10277
306.063	6791
306.078	6233
306.118	5136
306.168	3762
306.173	3654
306.228	3246
306.259	3053
306.283	2899
306.338	3105
306.349	3262
306.393	4143
306.440	4733
306.448	4759
306.503	4745
306.530	5069
306.558	6493
306.613	12951
306.620	13807
306.668	18620
306.711	22065
306.723	22330
306.778	16579
306.801	13482
306.833	9498
306.888	5133
306.892	4927
306.943	3760
306.982	3602
306.997	3556
307.052	3418
307.072	3484
307.107	4020
307.162	5630
307.163	5653
307.217	8419
307.253	10273
307.272	10767
307.327	11831
307.343	11241
307.381	9228
307.434	7913
307.436	8081
307.491	14880
307.524	20716
307.546	22410
307.600	20791
307.614	19006
307.655	12415
307.704	7753
307.710	7656
307.765	8406
307.795	9941
307.819	12172
307.874	20460
307.885	20809
307.929	17171
307.975	12875
307.984	12944
308.038	17856
308.065	22797
308.093	34672
308.148	66388
308.156	72537
308.202	110382
308.246	132610
308.257	128830
308.312	83688
308.336	63730
308.366	49149
308.421	29530
308.426	27955
308.475	18997
308.517	13771
308.530	12877
308.585	11267
308.607	10490
308.639	10049
308.694	10805
308.697	10939
308.748	17586
308.787	24463
308.803	24969
308.857	21461
308.877	19480
308.912	16475
308.967	14500
308.967	14495
309.021	18315
309.058	22399
309.076	27389
309.130	46319
309.148	54382
309.185	88049
309.238	142255
309.239	142842
309.293	159545
309.328	158832
309.348	141101
309.402	81023
309.418	65083
309.457	47062
309.508	28843
309.511	28292
309.566	22212
309.598	19743
309.620	20448
309.674	23483
309.688	24528
309.729	23827
309.778	21226
309.783	20839
309.837	16342
309.868	14181
309.892	15743
309.946	21093
309.959	22991
310.001	32128
310.049	40022
310.055	38812
310.109	24790
310.139	16898
310.163	13632
310.218	8029
310.229	7132
310.272	6007
310.319	4993
310.326	4949
310.381	4784
310.409	4840
310.435	4825
310.489	4505
310.499	4492
310.543	4730
310.589	5157
310.598	5194
310.652	5370
310.679	5294
310.706	4755
310.760	3861
310.769	3709
310.814	2969
310.859	2376
310.868	2445
310.923	2927
310.948	3089
310.977	3575
311.031	4705
311.038	4850
311.085	4678
311.128	4359
311.139	4225
311.193	3716
311.218	3467
311.247	3362
311.301	3068
311.308	3047
311.356	3139
311.398	3167
311.410	3206
311.464	3471
311.488	3550
311.518	3336
311.572	2985
311.578	2954
311.626	4141
311.668	5188
311.680	5205
311.734	5183
311.758	5210
311.788	5362
311.842	5623
311.847	5645
311.896	7029
311.937	8319
311.950	8313
312.004	8246
312.027	8175
312.058	6787
312.112	4352
312.117	4114
312.165	4040
312.207	3993
312.297	5867
312.386	6200
312.476	3621
312.566	8569
312.656	4807
312.745	2984
312.835	3293
312.925	4356
313.015	3839
313.104	4483
313.194	3004
313.284	4026
313.374	4331
313.463	4788
313.553	3014
313.643	3256
313.732	3151
313.822	2748
313.912	3565
314.001	4202
314.091	4762
314.180	7112
314.270	5349
314.360	5360
314.449	5194
314.539	3257
314.628	3271
314.718	3826
314.808	5772
314.897	3378
314.987	3037
315.076	3463
315.166	4986
315.255	5060
315.345	4880
315.434	5435
315.524	4528
315.613	5180
315.703	5165
315.792	5027
315.881	4195
315.971	4474
316.060	8440
316.150	13586
316.239	15967
316.328	7731
316.418	3552
316.507	2781
316.597	4241
316.686	3981
316.775	5619
316.865	16442
316.954	4961
317.043	3240
317.133	2756
317.222	2860
317.311	1897
317.400	2050
317.490	4198
317.579	4935
317.668	2790
317.757	3464
317.847	5015
317.936	6996
318.025	9455
318.114	5510
318.203	5849
318.293	8136
318.382	15010
318.471	13549
318.560	17472
318.649	39024
318.738	12148
318.828	5166
318.917	6838
319.006	7228
319.095	18664
319.184	43836
319.273	29541
319.362	13131
319.451	4940
319.540	5085
319.629	7552
319.718	15649
319.807	8230
319.896	14399
319.985	52597
320.074	25598
320.163	7225
320.252	10132
320.341	8878
320.430	9019
320.519	8550
320.608	6141
320.697	4235
320.786	4373
320.875	4838
320.964	6975
321.053	9064
321.142	14033
321.230	16183
321.319	11996
321.408	26142
321.497	15447
321.586	10649
321.675	14062
321.764	16019
321.852	9764
321.941	15006
322.030	12689
322.119	11612
322.207	27730
322.296	24390
322.385	13141
322.474	11676
322.562	29030
322.651	21786
322.740	11194
322.829	17459
322.917	21039
323.006	12917
323.095	9588
323.183	7676
323.272	11557
323.361	19303
323.449	55765
323.538	26099
323.626	37165
323.715	31456
323.804	11538
323.892	35088
323.981	26341
324.069	8492
324.158	18811
324.246	23773
324.335	7116
324.424	10272
324.512	4997
324.601	4951
324.689	10679
324.778	22283
324.866	15956
324.954	6289
325.043	4090
325.131	8873
325.220	16941
325.308	20121
325.397	13666
325.485	9374
325.574	3433
325.662	2785
325.750	3368
325.839	3091
325.927	2866
326.015	4218
326.104	6520
326.192	11118
326.280	4021
326.369	2619
326.457	3501
326.545	7643
326.634	4590
326.722	1942
326.810	2528
326.898	2400
326.987	3746
327.075	6625
327.163	9255
327.251	5203
327.340	7194
327.428	12727
327.516	3105
327.604	3023
327.692	3979
327.781	3950
327.869	8074
327.957	4668
328.045	3840
328.133	2852
328.221	3304
328.309	3069
328.397	2808
328.485	3638
328.574	4740
328.662	14721
328.750	12000
328.838	5090
328.926	3533
329.014	2707
329.102	4230
329.190	12159
329.278	9246
329.366	2696
329.454	2459
329.542	2699
329.630	2401
329.718	2325
329.806	3212
329.893	3827
329.981	5999
330.069	8356
330.157	26575
330.245	74267
330.333	49125
330.421	11758
330.509	7786
330.597	19075
330.684	16557
330.772	7170
330.860	9067
330.948	12439
331.036	6707
331.123	2408
331.211	3054
331.299	4298
331.387	9247
331.475	19127
331.562	6134
331.650	2512
331.738	3196
331.825	4766
331.913	2463
332.001	1974
332.089	3767
332.176	9186
332.264	19240
332.352	18395
332.439	4608
332.527	3718
332.614	2412
332.702	4544
332.790	2919
332.877	8110
332.965	18844
333.052	5443
333.140	4006
333.228	9565
333.315	3364
333.403	3133
333.490	9811
333.578	11155
333.665	8328
333.753	5940
333.840	2532
333.928	4540
334.015	11276
334.103	19067
334.190	56433
334.278	19580
334.365	4865
334.452	3248
334.540	2188
334.627	3348
334.715	6800
334.802	11576
334.889	58657
334.977	72418
335.064	8265
335.151	2931
335.239	4056
335.326	7109
335.413	24401
335.501	43093
335.588	6236
335.675	2957
335.762	3932
335.850	10382
335.937	6023
336.024	13985
336.111	64640
336.199	34140
336.286	5397
336.373	2403
336.460	1405
336.547	1889
336.635	3497
336.722	3828
336.809	2508
336.896	4224
336.983	17248
337.070	43970
337.157	61237
337.245	45342
337.332	38161
337.419	4743
337.506	3016
337.593	3766
337.680	13622
337.767	46938
337.854	15479
337.941	14487
338.028	16525
338.115	7095
338.202	7005
338.289	12559
338.376	44782
338.463	19296
338.550	23261
338.637	33187
338.724	8652
338.811	15789
338.898	3009
338.984	2818
339.071	3654
339.158	3246
339.245	10132
339.332	7726
339.419	8631
339.506	10919
339.593	1582
339.679	2034
339.766	1596
339.853	2451
339.940	6658
340.027	2286
340.113	1869
340.200	3576
340.287	3116
340.374	3265
340.460	6175
340.547	2655
340.634	4515
340.720	15970
340.807	12711
340.894	1980
340.980	2538
341.067	1601
341.154	2539
341.240	3518
341.327	8940
341.414	3233
341.500	3121
341.587	1543
341.674	2260
341.760	4763
341.847	6897
341.933	2370
342.020	737
342.106	544
342.193	1415
342.279	4048
342.366	2964
342.452	5527
342.539	2881
342.625	7503
342.712	19503
342.798	9583
342.885	3669
342.971	856
343.058	842
343.144	1502
343.230	916
343.317	1058
343.403	1374
343.490	621
343.576	900
343.662	674
343.749	1537
343.835	3126
343.921	5453
344.008	27667
344.094	74628
344.180	20923
344.267	6419
344.353	18180
344.439	26680
344.525	10353
344.612	5889
344.698	5452
344.784	4061
344.870	1179
344.957	1644
345.043	3509
345.129	2015
345.215	4782
345.301	3107
345.387	1553
345.474	851
345.560	592
345.646	2241
345.732	1564
345.818	1370
345.904	1588
345.990	1849
346.076	2388
346.162	5907
346.249	2282
346.335	1460
346.421	394
346.507	6764
346.593	27642
346.679	8501
346.765	2452
346.851	463
346.937	1092
347.023	421
347.108	1368
347.194	1467
347.280	1454
347.366	1990
347.452	6691
347.538	31639
347.624	26031
347.710	24159
347.796	3773
347.882	1626
347.967	982
348.053	2696
348.139	2081
348.225	1125
348.311	1391
348.397	1533
348.482	2194
348.568	2806
348.654	636
348.740	176
348.825	-265
348.911	2978
348.997	12607
349.083	33168
349.168	6283
349.254	1767
349.340	1602
349.425	736
349.511	1665
349.597	3171
349.682	4818
349.768	18932
349.854	11059
349.939	1830
350.025	621
350.110	1764
350.196	353
350.282	235
350.367	299
350.453	3150
350.538	3525
350.624	2713
350.709	2541
350.795	421
350.880	1061
350.966	1504
351.051	2799
351.137	1701
351.222	1178
351.308	4770
351.393	18964
351.479	5864
351.564	656
351.649	1196
351.735	372
351.820	389
351.906	1023
351.991	2162
352.076	9901
352.162	19665
352.247	3267
352.332	2120
352.418	4368
352.503	6653
352.588	24275
352.673	25339
352.759	4934
352.844	1314
352.929	1794
353.014	3969
353.100	498
353.185	1138
353.270	4289
353.355	6641
353.441	1578
353.526	2249
353.611	5188
353.696	6430
353.781	3563
353.866	1575
353.952	942
354.037	4769
354.122	12477
354.207	12864
354.292	4807
354.377	831
354.462	861
354.547	1908
354.632	2195
354.717	3014
354.802	1897
354.887	980
354.972	358
355.057	341
355.142	482
355.227	962
355.312	2750
355.397	8019
355.482	21653
355.567	13121
355.652	6794
355.737	8108
355.822	20950
355.907	24233
355.991	2598
356.076	775
356.161	612
356.246	743
356.331	1145
356.416	4492
356.501	32210
356.585	44178
356.670	6541
356.755	3194
356.840	4224
356.924	20591
357.009	87756
357.094	44575
357.179	8773
357.263	5870
357.348	4125
357.433	5274
357.517	4101
357.602	3628
357.687	1779
357.771	3784
357.856	18714
357.941	14160
358.025	17531
358.110	84830
358.195	52326
358.279	8077
358.364	4715
358.448	14600
358.533	45687
358.617	38191
358.702	33368
358.787	14775
358.871	6100
358.956	5746
359.040	1810
359.125	513
359.209	1272
359.294	7598
359.378	17321
359.462	5776
359.547	2123
359.631	1618
359.716	218
359.800	1708
359.885	3257
359.969	2277
360.053	1674
360.138	1851
360.222	1729
360.306	5377
360.391	4738
360.475	8463
360.559	24854
360.644	18555
360.728	14651
360.812	16759
360.896	58365
360.981	29054
361.065	16840
361.149	3411
361.233	1918
361.318	1417
361.402	1801
361.486	1946
361.570	942
361.654	1564
361.739	6603
361.823	31282
361.907	60420
361.991	12391
362.075	4590
362.159	11560
362.243	9097
362.327	4645
362.411	3781
362.495	2266
362.580	1322
362.664	174
362.748	-256
362.832	-14
362.916	751
363.000	5295
363.084	26202
363.168	66514
363.252	19462
363.336	4399
363.420	7537
363.503	32960
363.587	51541
363.671	8161
363.755	2996
363.839	5467
363.923	1782
364.007	4771
364.091	7952
364.175	10724
364.258	55779
364.342	33640
364.426	7055
364.510	4290
364.594	6902
364.677	9619
364.761	44527
364.845	41738
364.929	11308
365.013	9514
365.096	5805
365.180	10530
365.264	12537
365.347	61981
365.431	33150
365.515	7869
365.598	1592
365.682	2239
365.766	5627
365.849	10166
365.933	2481
366.017	4225
366.100	4286
366.184	295
366.267	1277
366.351	720
366.435	-40
366.518	-231
366.602	-57
366.685	-33
366.769	209
366.852	3964
366.936	9505
367.019	4871
367.103	2729
367.186	10095
367.270	2158
367.353	-763
367.436	-79
367.520	-848
367.603	774
367.687	2475
367.770	6804
367.853	3845
367.937	10796
368.020	25275
368.104	5160
368.187	4377
368.270	7133
368.353	7067
368.437	9419
368.520	28786
368.603	19292
368.687	15264
368.770	35562
368.853	9575
368.936	7811
369.020	9861
369.103	2037
369.186	609
369.269	1132
369.352	3437
369.436	6859
369.519	4579
369.602	652
369.685	1296
369.768	1441
369.851	648
369.934	17
370.018	894
370.101	4852
370.184	5160
370.267	2954
370.350	4436
370.433	9723
370.516	20838
370.599	29722
370.682	6982
370.765	16055
370.848	21068
370.931	40956
371.014	21249
371.097	1581
371.180	773
371.263	-288
371.346	-1204
371.429	-127
371.511	638
371.594	2168
371.677	5955
371.760	9933
371.843	5924
371.926	24180
372.009	75220
372.091	28800
372.174	14011
372.257	35877
372.340	16669
372.423	11554
372.505	18192
372.588	6619
372.671	9213
372.754	38338
372.836	23565
372.919	15349
373.002	41026
373.085	12859
373.167	5332
373.250	14262
373.332	35395
373.415	44384
373.498	102705
373.580	44515
373.663	35993
373.746	63555
373.828	17588
373.911	6454
373.993	6056
374.076	33079
374.159	39812
374.241	10885
374.324	32580
374.406	25662
374.489	22150
374.571	79256
374.654	40119
374.736	13666
374.819	46341
374.901	66210
374.983	81504
375.066	16374
375.148	4807
375.231	23666
375.313	60494
375.395	25266
375.478	4254
375.560	532
375.643	1608
375.725	10535
375.807	59392
375.890	59817
375.972	31067
376.054	12957
376.136	24848
376.219	10754
376.301	13078
376.383	53962
376.465	23718
376.548	11322
376.630	13730
376.712	43427
376.794	24733
376.877	1275
376.959	374
377.041	772
377.123	5441
377.205	10947
377.287	953
377.369	-922
377.452	145
377.534	-269
377.616	-575
377.698	-103
377.780	-563
377.862	-107
377.944	-320
378.026	-1193
378.108	-652
378.190	-946
378.272	-231
378.354	-1430
378.436	-709
378.518	1903
378.600	15608
378.682	12493
378.764	20784
378.846	20819
378.928	5285
379.010	6591
379.091	2960
379.173	419
379.255	-51
379.337	346
379.419	7562
379.501	32596
379.583	16939
379.664	1828
379.746	6010
379.828	20994
379.910	31102
379.991	30662
380.073	4659
380.155	1326
380.237	892
380.318	-190
380.400	667
380.482	2420
380.564	6722
380.645	5079
380.727	5599
380.809	2401
380.890	1682
380.972	-804
381.053	107
381.135	1178
381.217	4322
381.298	23657
381.380	13096
381.461	7656
381.543	39727
381.624	63211
381.706	12603
381.787	4698
381.869	4362
381.951	13314
382.032	71229
382.113	55447
382.195	12166
382.276	4770
382.358	8997
382.439	37164
382.521	42634
382.602	72085
382.684	35516
382.765	55997
382.846	61903
382.928	67618
383.009	42033
383.090	25046
383.172	86635
383.253	158646
383.334	62911
383.416	62201
383.497	37476
383.578	13585
383.659	24002
383.741	77505
383.822	222978
383.903	135355
383.984	45485
384.066	78415
384.147	57791
384.228	10682
384.309	5843
384.390	4282
384.471	2015
384.553	3687
384.634	5085
384.715	5008
384.796	2337
384.877	2773
384.958	17102
385.039	27625
385.120	9254
385.201	3166
385.282	4233
385.363	5226
385.444	3822
385.525	5879
385.606	27264
385.687	29769
385.768	7401
385.849	7105
385.930	28537
386.011	64175
386.092	21295
386.173	3961
386.254	2312
386.335	2582
386.416	2922
386.496	11005
386.577	25167
386.658	10046
386.739	5319
386.820	5366
386.901	3802
386.981	2912
387.062	737
387.143	2658
387.224	19171
387.304	23922
387.385	7421
387.466	3163
387.547	6295
387.627	1545
387.708	4357
387.789	34028
387.869	51925
387.950	14632
388.031	1380
388.111	1193
388.192	9270
388.273	18015
388.353	9444
388.434	2460
388.514	4481
388.595	30097
388.676	50225
388.756	25101
388.837	21442
388.917	14524
388.998	1264
389.078	1287
389.159	1212
389.239	-506
389.320	1942
389.400	2164
389.480	5817
389.561	23319
389.641	13637
389.722	2501
389.802	5621
389.883	7842
389.963	25999
390.043	21053
390.124	6588
390.204	5706
390.284	24971
390.365	20493
390.445	22758
390.525	60652
390.605	55224
390.686	16963
390.766	3912
390.846	1269
390.927	-631
391.007	-92
391.087	1838
391.167	1578
391.247	188
391.328	3239
391.408	7596
391.488	5892
391.568	-405
391.648	847
391.728	2607
391.808	1982
391.888	2989
391.969	9177
392.049	21245
392.129	10387
392.209	6939
392.289	23979
392.369	15724
392.449	16915
392.529	9069
392.609	3509
392.689	4695
392.769	20990
392.849	22546
392.929	11993
393.009	36291
393.089	25025
393.169	5815
393.248	11670
393.328	85445
393.408	125211
393.488	25710
393.568	3865
393.648	2471
393.728	698
393.807	1168
393.887	1606
393.967	1635
394.047	3044
394.127	6430
394.206	12196
394.286	42607
394.366	189743
394.446	256183
394.525	81459
394.605	18340
394.685	10192
394.764	23762
394.844	41669
394.924	31839
395.003	7083
395.083	3655
395.163	1934
395.242	2527
395.322	2600
395.402	1171
395.481	2714
395.561	11684
395.640	43567
395.720	30474
395.799	44932
395.879	46707
395.958	24637
396.038	69236
396.117	250283
396.197	327002
396.276	132542
396.356	43462
396.435	26477
396.515	13458
396.594	7969
396.673	9910
396.753	19967
396.832	90401
396.912	95729
396.991	30821
397.070	5455
397.150	1854
397.229	613
397.308	1001
397.388	938
397.467	459
397.546	150
397.625	-421
397.705	1237
397.784	1527
397.863	-340
397.942	-714
398.022	404
398.101	7382
398.180	43345
398.259	27383
398.338	5075
398.417	1378
398.497	-109
398.576	1165
398.655	-183
398.734	-117
398.813	322
398.892	7656
398.971	44490
399.050	27823
399.129	1538
399.208	-409
399.287	-125
399.366	-714
399.445	-654
399.524	-306
399.603	-1085
399.682	1452
399.761	8921
399.840	43343
399.919	43657
399.998	5074
400.077	-191
400.156	-1138
400.235	736
400.313	307
400.392	427
400.471	9285
400.550	21359
400.629	5450
400.708	173
400.786	1096
400.865	9004
400.944	12440
401.023	4484
401.102	-747
401.180	-913
401.259	-1052
401.338	-137
401.416	1507
401.495	1069
401.574	1239
401.652	-13
401.731	874
401.810	1144
401.888	-1134
401.967	-1894
402.046	-429
402.124	575
402.203	2194
402.281	358
402.360	1648
402.438	11414
402.517	10648
402.596	1510
402.674	978
402.753	-274
402.831	-522
402.910	-55
402.988	2417
403.066	12110
403.145	8605
403.223	2713
403.302	9023
403.380	6968
403.459	5834
403.537	1911
403.615	204
403.694	-1742
403.772	-788
403.850	-1853
403.929	-863
404.007	-1387
404.085	174
404.164	80
404.242	73
404.320	4620
404.398	22365
404.477	29426
404.555	56315
404.633	63093
404.711	22876
404.789	13690
404.868	1287
404.946	-924
405.024	-1274
405.102	-1231
405.180	-1348
405.258	-1896
405.336	-401
405.415	-1168
405.493	2446
405.571	1705
405.649	-994
405.727	-1105
405.805	1484
405.883	611
405.961	527
406.039	2704
406.117	-998
406.195	1055
406.273	7470
406.351	46806
406.429	38817
406.507	6187
406.585	2043
406.663	14
406.740	685
406.818	1028
406.896	-213
406.974	-322
407.052	1489
407.130	22918
407.208	47409
407.285	10264
407.363	-27
407.441	-131
407.519	-488
407.596	211
407.674	1769
407.752	6718
407.830	11944
407.907	6710
407.985	843
408.063	-212
408.141	-687
408.218	1231
408.296	1360
408.373	-1065
408.451	35
408.529	29
408.606	-1010
408.684	-1735
408.762	-1438
408.839	-2159
408.917	-1934
408.994	-1737
409.072	-2096
409.149	-1012
409.227	-1025
409.304	-982
409.382	-1193
409.459	-2034
409.537	-282
409.614	-943
409.692	-854
409.769	-1728
409.846	-1446
409.924	-646
410.001	-591
410.079	-594
410.156	-123
410.233	139
410.311	-84
410.388	-1464
410.465	-474
410.543	-535
410.620	-478
410.697	-1305
410.775	-622
410.852	-2568
410.929	417
411.006	766
411.083	-920
411.161	1683
411.238	3971
411.315	2494
411.392	-1287
411.469	476
411.547	340
411.624	-686
411.701	-630
411.778	-848
411.855	2014
411.932	102
412.009	-539
412.086	-659
412.163	640
412.240	449
412.317	1461
412.394	1677
412.471	-784
412.548	-1428
412.625	-1119
412.702	50
412.779	2553
412.856	1764
412.933	-660
413.010	-1242
413.087	287
413.164	8051
413.241	18677
413.318	4543
413.395	1331
413.471	2380
413.548	699
413.625	-448
413.702	310
413.779	757
413.855	-541
413.932	-986
414.009	-1059
414.086	-1447
414.162	-532
414.239	813
414.316	7905
414.393	26170
414.469	11852
414.546	-251
414.623	-291
414.699	-1289
414.776	-430
414.853	-883
414.929	660
415.006	244
415.082	417
415.159	-27
415.236	141
415.312	195
415.389	139
415.465	2626
415.542	842
415.618	-1306
415.695	1151
415.771	666
415.848	83
415.924	-254
416.000	3
416.077	-382
416.153	-1680
416.230	-2102
416.306	-954
416.383	-883
416.459	-428
416.535	-1566
416.612	-970
416.688	-1274
416.764	-1191
416.841	-1427
416.917	-554
416.993	-476
417.069	327
417.146	371
417.222	3564
417.298	39
417.374	-440
417.451	48
417.527	-4
417.603	-229
417.679	700
417.755	-1095
417.831	-503
417.908	-419
417.984	-257
418.060	-1341
418.136	1101
418.212	2986
418.288	512
418.364	-306
418.440	-726
418.516	1527
418.592	2409
418.668	4719
418.744	6487
418.820	6387
418.896	917
418.972	-678
419.048	-1120
419.124	2072
419.200	1672
419.276	-733
419.352	-1409
419.428	-529
419.504	-557
419.579	-1213
419.655	-233
419.731	-890
419.807	3071
419.883	7515
419.959	7194
420.034	1457
420.110	1437
420.186	13655
420.262	15580
420.337	1591
420.413	617
420.489	-780
420.565	459
420.640	-1283
420.716	186
420.792	-1577
420.867	99
420.943	-1549
421.019	448
421.094	863
421.170	69
421.245	-2068
421.321	-871
421.397	-1483
421.472	283
421.548	1636
421.623	2847
421.699	222
421.774	-41
421.850	-1061
421.925	940
422.001	1072
422.076	-27
422.152	-1128
422.227	991
422.302	1226
422.378	463
422.453	1992
422.529	5375
422.604	25453
422.679	88836
422.755	58226
422.830	11985
422.905	1692
422.981	-309
423.056	-544
423.131	-524
423.207	-1021
423.282	-747
423.357	2043
423.432	2744
423.508	1014
423.583	5379
423.658	5471
423.733	1301
423.808	870
423.883	1804
423.959	783
424.034	-548
424.109	-851
424.184	-720
424.259	-1028
424.334	-847
424.409	-1033
424.484	-241
424.559	-698
424.634	-638
424.709	489
424.784	-53
424.859	-90
424.934	788
425.009	7679
425.084	19644
425.159	8757
425.234	975
425.309	-1025
425.384	2996
425.459	9781
425.534	3728
425.609	460
425.683	225
425.758	-435
425.833	248
425.908	574
425.983	2511
426.058	19429
426.132	12094
426.207	1277
426.282	3506
426.357	3036
426.431	656
426.506	-238
426.581	284
426.655	676
426.730	-509
426.805	207
426.879	249
426.954	-465
427.029	1548
427.103	12660
427.178	44902
427.253	27376
427.327	3427
427.402	2693
427.476	12629
427.551	7769
427.625	1673
427.700	1361
427.774	-335
427.849	904
427.923	-66
427.998	-716
428.072	-320
428.147	2372
428.221	4507
428.296	10846
428.370	4026
428.444	913
428.519	3974
428.593	9714
428.667	9988
428.742	10945
428.816	8284
428.890	12326
428.965	21002
429.039	12869
429.113	14264
429.188	5728
429.262	663
429.336	632
429.410	7833
429.485	7153
429.559	8062
429.633	8939
429.707	1589
429.781	2698
429.855	17474
429.930	29624
430.004	24981
430.078	47296
430.152	43373
430.226	14412
430.300	13334
430.374	2343
430.448	1737
430.522	9436
430.596	44640
430.670	31501
430.744	20987
430.818	47900
430.892	16149
430.966	1408
431.040	450
431.114	-230
431.188	-615
431.262	124
431.336	-257
431.410	2744
431.484	11868
431.557	10571
431.631	1394
431.705	-310
431.779	34
431.853	5629
431.927	5639
432.000	638
432.074	24
432.148	1420
432.222	1924
432.295	256
432.369	218
432.443	176
432.516	13013
432.590	46743
432.664	25615
432.737	3461
432.811	124
432.885	-1024
432.958	4
433.032	-97
433.106	-571
433.179	-956
433.253	-765
433.326	-424
433.400	-240
433.473	33
433.547	-892
433.620	-264
433.694	1184
433.767	1857
433.841	-151
433.914	268
433.988	573
434.061	64
434.134	-290
434.208	-575
434.281	-192
434.355	-650
434.428	606
434.501	241
434.575	-102
434.648	519
434.721	-580
434.795	-476
434.868	-147
434.941	-1069
435.014	-663
435.088	-320
435.161	565
435.234	1234
435.307	1702
435.381	551
435.454	-86
435.527	-2
435.600	209
435.673	233
435.746	-31
435.819	42
435.892	321
435.966	-278
436.039	70
436.112	-57
436.185	-515
436.258	-687
436.331	-592
436.404	-948
436.477	-943
436.550	-1117
436.623	-322
436.696	-317
436.769	459
436.842	339
436.915	347
436.987	460
437.060	115
437.133	32
437.206	-1093
437.279	577
437.352	-702
437.425	-489
437.498	577
437.570	1391
437.643	2459
437.716	132
437.789	-950
437.861	353
437.934	5198
438.007	4185
438.080	733
438.152	201
438.225	2059
438.298	13450
438.370	62817
438.443	39177
438.516	8649
438.588	2323
438.661	-89
438.734	673
438.806	346
438.879	1060
438.951	1141
439.024	3212
439.096	1211
439.169	289
439.241	865
439.314	-917
439.386	1358
439.459	2228
439.531	4053
439.604	1373
439.676	181
439.749	-451
439.821	-265
439.893	-377
439.966	499
440.038	82
440.110	1178
440.183	934
440.255	537
440.327	878
440.400	6512
440.472	35987
440.544	37913
440.617	6408
440.689	2064
440.761	1908
440.833	4676
440.905	3902
440.978	614
441.050	-577
441.122	-65
441.194	-1247
441.266	106
441.338	-342
441.411	1447
441.483	7908
441.555	21801
441.627	7481
441.699	2480
441.771	3289
441.843	1352
441.915	-386
441.987	-217
442.059	-600
442.131	-72
442.203	870
442.275	2324
442.347	2333
442.419	535
442.491	758
442.563	3585
442.635	5313
442.706	11076
442.778	13431
442.850	2432
442.922	511
442.994	783
443.066	2356
443.137	1756
443.209	200
443.281	351
443.353	1240
443.425	4094
443.496	7502
443.568	7675
443.640	3694
443.711	1371
443.783	677
443.855	301
443.926	-473
443.998	526
444.070	1676
444.141	1519
444.213	1726
444.285	2993
444.356	2356
444.428	2612
444.499	1037
444.571	283
444.642	404
444.714	-450
444.785	743
444.857	2154
444.928	8608
445.000	8027
445.071	5255
445.143	7132
445.214	3016
445.285	2666
445.357	12806
445.428	13342
445.500	18034
445.571	21830
445.642	8797
445.714	6903
445.785	16530
445.856	5944
445.928	2305
445.999	2071
446.070	1862
446.141	1178
446.213	2340
446.284	1754
446.355	1744
446.426	1477
446.497	492
446.569	2219
446.640	4035
446.711	3107
446.782	-1
446.853	1128
446.924	1558
446.995	1081
447.066	930
447.138	3115
447.209	3223
447.280	44
447.351	384
447.422	224
447.493	760
447.564	1440
447.635	1846
447.706	1074
447.777	441
447.847	-395
447.918	-432
447.989	1188
448.060	2022
448.131	6062
448.202	6810
448.273	3988
448.344	1714
448.414	846
448.485	-59
448.556	501
448.627	156
448.698	444
448.768	-646
448.839	163
448.910	2509
448.981	2810
449.051	1440
449.122	245
449.193	446
449.263	501
449.334	-501
449.405	752
449.475	2636
449.546	2978
449.616	3017
449.687	5029
449.758	1390
449.828	1281
449.899	140
449.969	-275
450.040	-121
450.110	1054
450.181	1414
450.251	978
450.322	277
450.392	996
450.463	785
450.533	-97
450.604	1239
450.674	-135
450.744	732
450.815	434
450.885	576
450.955	551
451.026	-29
451.096	-24
451.166	663
451.237	3524
451.307	11580
451.377	6993
451.447	991
451.518	572
451.588	648
451.658	567
451.728	1401
451.799	9418
451.869	17179
451.939	6025
452.009	679
452.079	747
452.149	129
452.219	2023
452.289	12051
452.360	14182
452.430	3083
452.500	1112
452.570	1145
452.640	2009
452.710	4516
452.780	12706
452.850	8298
452.920	7991
452.990	3577
453.060	1265
453.129	1865
453.199	3889
453.269	9365
453.339	36753
453.409	64190
453.479	47171
453.549	73409
453.619	86487
453.688	48630
453.758	10009
453.828	1978
453.898	1590
453.968	868
454.037	714
454.087	895
454.107	945
454.168	840
454.177	795
454.247	877
454.249	909
454.316	1185
454.330	1268
454.386	1553
454.411	3371
454.456	5731
454.492	9416
454.525	12449
454.574	7857
454.595	5944
454.655	2379
454.665	1829
454.734	2884
454.736	2968
454.804	4359
454.817	6238
454.873	11940
454.898	14831
454.943	18831
454.979	13349
455.013	8763
455.060	4902
455.082	3700
455.141	4823
455.152	5009
455.221	11185
455.222	11537
455.291	23939
455.303	23951
455.360	23239
455.384	28818
455.430	34860
455.465	31076
455.499	27631
455.546	21228
455.569	17662
455.627	12911
455.638	12268
455.707	3854
455.708	3870
455.777	1734
455.789	1827
455.846	2039
455.869	1818
455.916	1458
455.950	2132
455.985	2653
456.031	2369
456.054	2187
456.112	1922
456.124	1885
456.193	1498
456.193	1468
456.262	2215
456.274	2550
456.332	3847
456.355	3869
456.401	3221
456.436	3220
456.470	3174
456.516	2012
456.540	1558
456.597	1201
456.609	1113
456.678	1425
456.678	1406
456.747	1267
456.759	1315
456.817	1527
456.840	1266
456.886	818
456.920	1550
456.955	2198
457.001	1748
457.024	1744
457.082	3696
457.093	4075
457.162	4534
457.163	4581
457.232	5626
457.243	5477
457.301	3472
457.324	2673
457.370	2180
457.405	2171
457.439	2133
457.485	2172
457.508	2271
457.566	2451
457.577	2441
457.646	3366
457.647	3383
457.715	2616
457.727	2735
457.784	3154
457.808	2973
457.853	2909
457.889	3432
457.922	3679
457.969	3898
457.991	4074
458.050	4515
458.060	4432
458.129	3453
458.130	3468
458.198	3659
458.211	3773
458.267	3480
458.292	3144
458.336	3150
458.372	3052
458.405	3056
458.453	3519
458.474	3748
458.533	4528
458.543	4692
458.611	6330
458.614	6402
458.680	5142
458.694	4839
458.749	4119
458.775	3641
458.818	3205
458.855	2951
458.887	2665
458.936	2451
458.955	2578
459.016	3773
459.024	3830
459.093	3378
459.097	3386
459.162	3963
459.177	4062
459.230	4312
459.257	4817
459.299	5441
459.338	5542
459.368	5566
459.418	6244
459.437	6146
459.499	4866
459.505	4761
459.574	4028
459.579	3980
459.643	3885
459.659	4084
459.711	4555
459.740	4472
459.780	4601
459.820	5080
459.849	5375
459.900	5986
459.917	6070
459.981	6456
459.986	6382
460.054	4725
460.061	4663
460.123	5592
460.141	5762
460.191	6495
460.222	6969
460.260	7688
460.302	8508
460.328	7796
460.382	7035
460.397	7134
460.462	5900
460.465	5859
460.534	6569
460.543	6624
460.602	12080
460.623	14151
460.671	23353
460.703	30515
460.739	29087
460.783	27464
460.808	23230
460.864	8821
460.876	8185
460.944	6217
460.945	6195
461.013	6069
461.024	6130
461.081	6312
461.104	6376
461.150	6056
461.184	5846
461.218	5712
461.264	5292
461.286	5338
461.345	5765
461.355	5839
461.423	6507
461.425	6523
461.491	6770
461.505	6766
461.559	10706
461.585	12783
461.628	23523
461.665	33391
461.696	39397
461.745	51363
461.764	43827
461.825	14826
461.832	14442
461.901	8436
461.905	8235
461.969	6924
461.985	6690
462.037	6677
462.065	6716
462.105	7226
462.145	7808
462.173	11471
462.225	18268
462.241	20975
462.305	32793
462.310	31919
462.378	18707
462.385	16881
462.446	10239
462.465	8114
462.514	7859
462.545	8391
462.582	7974
462.625	7420
462.650	7303
462.705	7208
462.718	7376
462.785	7840
462.786	7905
462.854	11800
462.865	12438
462.922	16474
462.945	18297
462.990	13360
463.025	9049
463.058	8403
463.104	7279
463.126	7002
463.184	6425
463.194	6480
463.262	7019
463.264	7038
463.330	7815
463.344	7974
463.398	9065
463.424	9480
463.466	9159
463.504	9032
463.533	9167
463.583	9320
463.601	9658
463.663	10503
463.669	10711
463.737	13448
463.743	13701
463.805	20293
463.823	22101
463.873	34593
463.903	42418
463.940	48837
463.982	56618
464.008	45476
464.062	20339
464.076	18731
464.142	9311
464.144	9263
464.211	8352
464.221	8328
464.279	8703
464.301	8816
464.347	9867
464.381	10559
464.414	11710
464.461	13414
464.482	14610
464.540	17874
464.550	17260
464.617	12604
464.620	12421
464.685	12507
464.699	12506
464.753	15105
464.779	16364
464.820	18141
464.859	19966
464.888	19852
464.938	19466
464.956	19750
465.018	20571
465.023	20260
465.091	15679
465.098	15192
465.158	14963
465.177	14872
465.226	15385
465.257	15687
465.293	15563
465.336	15340
465.361	16626
465.416	19472
465.428	20221
465.495	24169
465.496	24329
465.563	43145
465.575	46369
465.631	61536
465.654	68188
465.698	45124
465.734	25203
465.765	21388
465.813	15140
465.833	15038
465.893	15430
465.900	15407
465.968	15135
465.972	15078
466.035	15329
466.052	15381
466.102	15372
466.131	15361
466.170	15758
466.210	16088
466.237	16442
466.290	17029
466.304	17376
466.369	18680
466.372	18728
466.439	19278
466.449	19292
466.506	21415
466.528	22203
466.573	26400
466.607	29457
466.641	43930
466.687	63962
466.708	73468
466.766	99507
466.775	92797
466.842	41039
466.845	38492
466.909	26839
466.925	24035
466.977	23392
467.004	23072
467.044	22726
467.083	22321
467.111	24730
467.163	29101
467.178	29888
467.242	32886
467.245	32824
467.312	30156
467.321	29741
467.379	28334
467.400	27737
467.446	29458
467.480	30599
467.559	28113
467.638	23579
467.717	23695
467.796	24725
467.875	27046
467.955	26956
468.034	31749
468.113	70544
468.192	117667
468.271	43019
468.350	20656
468.429	19461
468.508	19336
468.588	18712
468.667	20925
468.746	23391
468.825	23292
468.904	18498
468.983	20904
469.062	31731
469.141	42155
469.220	21838
469.299	17804
469.378	21031
469.456	24700
469.535	23846
469.614	21241
469.693	22173
469.772	27028
469.851	37998
469.930	31033
470.009	19174
470.088	19282
470.166	20802
470.245	21503
470.324	25226
470.403	22328
470.482	19559
470.560	18160
470.639	19353
470.718	21381
470.797	18793
470.875	20617
470.954	29632
471.033	36275
471.111	18260
471.190	16158
471.269	14592
471.347	14966
471.426	17107
471.505	19200
471.583	22199
471.662	20416
471.740	17622
471.819	17874
471.898	17133
471.976	16335
472.055	16896
472.133	18274
472.212	24636
472.290	27098
472.369	19233
472.447	16156
472.526	15967
472.604	15896
472.683	15993
472.761	16580
472.839	16623
472.918	15078
472.996	16317
473.075	18094
473.153	19223
473.231	15284
473.310	18279
473.388	18583
473.466	16502
473.545	17997
473.623	22957
473.701	23153
473.780	16874
473.858	15583
473.936	18913
474.014	15422
474.093	17461
474.171	23820
474.249	37389
474.327	29417
474.405	15843
474.484	14089
474.562	14697
474.640	15065
474.718	16261
474.796	17281
474.874	16171
474.952	14411
475.030	15287
475.108	15206
475.187	17846
475.265	17530
475.343	18458
475.421	19623
475.499	17139
475.577	17722
475.655	20152
475.733	37454
475.811	71496
475.889	69471
475.966	54805
476.044	15448
476.122	15879
476.200	16558
476.278	16026
476.356	13716
476.434	16226
476.512	15248
476.590	17796
476.667	17934
476.745	14276
476.823	14491
476.901	14677
476.979	16161
477.056	14568
477.134	15417
477.212	16965
477.290	15332
477.367	13707
477.445	12883
477.523	13856
477.601	13163
477.678	13309
477.756	16298
477.834	19790
477.911	13525
477.989	14154
478.066	12689
478.144	15094
478.222	14668
478.299	13848
478.377	15882
478.454	13120
478.532	12113
478.609	13049
478.687	14387
478.764	11839
478.842	13676
478.919	14948
478.997	13350
479.074	13250
479.152	14910
479.229	20812
479.307	15066
479.384	11004
479.461	11566
479.539	11605
479.616	16276
479.694	12972
479.771	14715
479.848	15617
479.926	20956
480.003	24787
480.080	11670
480.157	11410
480.235	11567
480.312	12671
480.389	14105
480.467	21700
480.544	32075
480.621	17807
480.698	13223
480.775	16334
480.853	16210
480.930	14240
481.007	12752
481.084	15358
481.161	16568
481.238	16023
481.315	12144
481.392	12202
481.470	12498
481.547	14405
481.624	12972
481.701	11996
481.778	12793
481.855	14660
481.932	19924
482.009	37055
482.086	31381
482.163	11357
482.240	11628
482.317	14740
482.393	14107
482.470	12445
482.547	12433
482.624	12251
482.701	12032
482.778	12896
482.855	10332
482.932	9843
483.009	10532
483.085	10834
483.162	12471
483.239	12863
483.316	10552
483.393	10250
483.469	10938
483.546	12834
483.623	15248
483.699	12568
483.776	12799
483.853	15721
483.930	19547
484.006	48583
484.083	106274
484.160	55945
484.236	73261
484.313	63920
484.389	44713
484.466	38769
484.543	35473
484.619	36079
484.696	36734
484.772	39342
484.849	43720
484.925	37061
485.002	34108
485.078	36143
485.155	37079
485.231	33772
485.308	32306
485.384	34078
485.461	38225
485.537	60277
485.614	84953
485.690	38042
485.766	31659
485.843	31394
485.919	38008
485.995	43918
486.072	29470
486.148	29478
486.224	27765
486.301	29880
486.377	34215
486.453	36003
486.530	33531
486.606	41987
486.682	50126
486.758	55499
486.835	70574
486.911	49560
486.987	78171
487.063	77891
487.139	80489
487.215	64969
487.292	38189
487.368	32357
487.444	32522
487.520	35577
487.596	33106
487.672	31147
487.748	34716
487.824	45974
487.900	32957
487.976	28902
488.052	31239
488.128	38268
488.204	35253
488.280	30004
488.356	34187
488.432	61346
488.508	117605
488.584	49090
488.660	27656
488.736	26813
488.812	27949
488.888	34848
488.964	38632
489.039	64616
489.115	108157
489.191	81104
489.267	30325
489.343	29579
489.418	24459
489.494	24152
489.570	22188
489.646	24938
489.722	24277
489.797	26387
489.873	31981
489.949	78811
490.024	84309
490.100	26193
490.176	22163
490.251	25719
490.327	31792
490.403	23094
490.478	21051
490.554	18710
490.629	19889
490.705	18905
490.781	20681
490.856	20668
490.932	23395
491.007	23266
491.083	23397
491.158	22025
491.234	26511
491.309	54927
491.385	75431
491.460	25375
491.536	22883
491.611	22016
491.686	20102
491.762	26590
491.837	40678
491.913	77366
491.988	94125
492.063	142395
492.139	56150
492.214	37130
492.289	17849
492.365	16180
492.440	20035
492.515	20927
492.590	21818
492.666	17583
492.741	20645
492.816	38174
492.891	24443
492.967	17558
493.042	15820
493.117	18928
493.192	18966
493.267	27143
493.342	86299
493.418	164961
493.493	38272
493.568	16560
493.643	14853
493.718	19267
493.793	26482
493.868	31767
493.943	19604
494.018	16182
494.093	14845
494.168	16456
494.243	13860
494.318	13706
494.393	12066
494.468	13658
494.543	11926
494.618	15161
494.693	14094
494.768	13697
494.842	15454
494.917	12443
494.992	13681
495.067	12817
495.142	12825
495.217	14691
495.292	13720
495.366	15675
495.441	21162
495.516	26134
495.591	30177
495.665	67242
495.740	204172
495.815	123160
495.890	26514
495.964	18927
496.039	20460
496.114	18234
496.188	18284
496.263	19817
496.338	18880
496.412	20547
496.487	25509
496.561	23909
496.636	25762
496.710	21593
496.785	21862
496.860	28942
496.934	24175
497.009	21968
497.083	22693
497.158	23738
497.232	27156
497.307	35126
497.381	29270
497.455	33151
497.530	46236
497.604	36137
497.679	35606
497.753	48852
497.827	69423
497.902	64877
497.976	70666
498.050	104217
498.125	364286
498.199	543079
498.273	108921
498.348	70576
498.422	60867
498.496	56540
498.570	51868
498.645	43146
498.719	43027
498.793	45129
498.867	60294
498.941	77701
499.016	131810
499.090	469291
499.164	249172
499.238	34939
499.312	24499
499.386	28430
499.460	28884
499.534	24923
499.609	28678
499.683	44944
499.757	45817
499.831	61047
499.905	266294
499.979	378964
500.053	62042
500.127	55049
500.201	36342
500.275	23895
500.349	23805
500.422	25371
500.496	32912
500.570	59688
500.644	135745
500.718	366617
500.792	115381
500.866	24193
500.940	30658
501.013	28092
501.087	22915
501.161	37474
501.235	51150
501.309	91776
501.382	270706
501.456	340787
501.530	63180
501.603	110091
501.677	58281
501.751	20209
501.825	21426
501.898	34219
501.972	118058
502.046	107835
502.119	24963
502.193	43673
502.266	136898
502.340	90527
502.413	46881
502.487	126508
502.561	83815
502.634	28541
502.708	15088
502.781	14356
502.855	13020
502.928	11371
503.002	11746
503.075	11931
503.149	13666
503.222	13335
503.295	15742
503.369	21069
503.442	25273
503.516	66908
503.589	235793
503.662	198965
503.736	49084
503.809	99625
503.882	103281
503.956	104084
504.029	134496
504.102	32782
504.175	25688
504.249	13750
504.322	15082
504.395	18969
504.468	11985
504.542	13191
504.615	10802
504.688	9987
504.761	8385
504.834	11369
504.907	12587
504.980	22597
505.053	12890
505.127	13994
505.200	19120
505.273	20782
505.346	13086
505.419	10686
505.492	8874
505.565	8296
505.638	7289
505.711	8727
505.784	8182
505.857	7482
505.930	8838
506.003	9197
506.076	10229
506.149	13655
506.221	23131
506.294	17128
506.367	32836
506.440	151039
506.513	118546
506.586	22438
506.659	13199
506.731	9671
506.804	9753
506.877	17040
506.950	14390
507.022	9420
507.095	11462
507.168	18510
507.241	10487
507.313	8111
507.386	8192
507.459	12039
507.531	9621
507.604	7555
507.677	9143
507.749	7513
507.822	9304
507.894	19597
507.967	31075
508.040	19808
508.112	15688
508.185	14404
508.257	12454
508.330	18833
508.402	13719
508.475	14131
508.547	14957
508.620	13143
508.692	23984
508.765	17412
508.837	10471
508.909	10447
508.982	11296
509.054	10894
509.127	10942
509.199	10113
509.271	9908
509.344	9194
509.416	9925
509.488	10800
509.560	10194
509.633	11564
509.705	11601
509.777	12685
509.849	17350
509.922	14339
509.994	12489
510.066	11673
510.138	12008
510.210	24742
510.283	26123
510.355	20483
510.427	17744
510.499	16333
510.571	15114
510.643	15069
510.715	19733
510.787	20341
510.859	15632
510.931	17460
511.003	20502
511.076	21638
511.148	14724
511.219	15671
511.291	21505
511.363	31843
511.435	16334
511.507	12798
511.579	12644
511.651	12433
511.723	12275
511.795	12193
511.867	12396
511.939	15009
512.010	31704
512.082	32668
512.154	13233
512.226	14643
512.298	17572
512.369	30523
512.441	23375
512.513	21493
512.585	17539
512.656	17310
512.728	18960
512.800	15097
512.871	13895
512.943	15503
513.015	12939
513.086	13869
513.158	14347
513.230	15111
513.301	19889
513.373	22795
513.444	16121
513.516	12994
513.588	13201
513.659	15200
513.731	17104
513.802	14727
513.874	20686
513.945	45292
514.016	22114
514.088	13159
514.159	13064
514.231	16069
514.302	25133
514.374	21294
514.445	19089
514.516	34753
514.588	34636
514.659	18816
514.730	33128
514.802	29946
514.873	20366
514.944	25158
515.016	20320
515.087	19949
515.158	22976
515.229	39693
515.301	24428
515.372	32034
515.443	26410
515.514	19730
515.585	15127
515.656	15027
515.728	13266
515.799	13005
515.870	12542
515.941	13388
516.012	13544
516.083	17192
516.154	19696
516.225	22019
516.296	21441
516.367	18666
516.438	19504
516.509	24622
516.580	28430
516.651	56441
516.722	231898
516.793	180489
516.864	38605
516.935	34960
517.006	36731
517.077	44636
517.148	78429
517.219	194019
517.289	489404
517.360	218848
517.431	99959
517.502	23922
517.573	19421
517.643	19290
517.714	20548
517.785	22447
517.856	20479
517.926	25420
517.997	26839
518.068	33399
518.138	41966
518.209	52725
518.280	123104
518.350	572871
518.421	381380
518.492	50476
518.562	26634
518.633	23839
518.703	18059
518.774	19358
518.845	22010
518.915	25045
518.986	21028
519.056	23898
519.127	37279
519.197	57099
519.268	148050
519.338	148190
519.408	30505
519.479	28642
519.549	22544
519.620	16892
519.690	12890
519.760	13856
519.831	13577
519.901	14209
519.971	11033
520.042	14290
520.112	17159
520.182	16551
520.253	20047
520.323	15820
520.393	18579
520.463	36086
520.534	22126
520.604	49352
520.674	27008
520.744	21723
520.814	47668
520.885	56605
520.955	41550
521.025	180874
521.095	115748
521.165	18419
521.235	15022
521.305	13500
521.375	11421
521.445	12089
521.515	14619
521.585	16327
521.655	17066
521.725	14636
521.795	14521
521.865	12117
521.935	16864
522.005	20107
522.075	10902
522.145	11371
522.215	13724
522.285	20859
522.355	25188
522.424	52073
522.494	55799
522.564	24480
522.634	25693
522.704	84859
522.774	51912
522.843	13376
522.913	11284
522.983	14143
523.053	12393
523.122	11018
523.192	12609
523.262	37409
523.331	59816
523.401	15589
523.471	9770
523.540	9708
523.610	8117
523.680	7971
523.749	8655
523.819	10735
523.888	14141
523.958	8683
524.027	8394
524.097	9654
524.166	8744
524.236	9916
524.305	10644
524.375	8737
524.444	8019
524.514	9967
524.583	8853
524.653	13368
524.722	15246
524.791	11306
524.861	8414
524.930	8642
524.999	8915
525.069	13130
525.138	11452
525.207	14383
525.277	10149
525.346	9348
525.415	8298
525.484	9440
525.554	10295
525.623	12065
525.692	8345
525.761	9134
525.830	7010
525.900	7243
525.969	9745
526.038	11705
526.107	9698
526.176	16687
526.245	17723
526.314	16773
526.383	21258
526.452	18746
526.522	23013
526.591	42598
526.660	46018
526.729	26412
526.797	21149
526.867	34478
526.935	165727
527.004	184633
527.073	73603
527.142	14991
527.211	9467
527.280	9375
527.349	12001
527.418	6832
527.487	7383
527.555	6881
527.624	5997
527.693	5380
527.762	6496
527.831	6333
527.899	6413
527.968	7063
528.037	6044
528.106	8004
528.174	14654
528.243	15993
528.312	17363
528.380	31168
528.449	11637
528.518	7644
528.586	5663
528.655	6130
528.723	5846
528.792	5448
528.861	6836
528.929	6585
528.998	6360
529.066	5218
529.135	5113
529.203	4613
529.272	4923
529.340	6742
529.409	6269
529.477	5963
529.545	8475
529.614	12653
529.682	10049
529.751	15877
529.819	12717
529.887	9860
529.956	6082
530.024	6931
530.092	5449
530.161	6761
530.229	10586
530.297	8051
530.365	5552
530.434	5215
530.502	5130
530.570	5052
530.638	3812
530.707	5783
530.775	6809
530.843	5531
530.911	4854
530.979	5004
531.047	5367
531.115	5748
531.183	5396
531.252	5744
531.320	5590
531.388	5475
531.456	5381
531.524	4484
531.592	5581
531.660	5917
531.728	5237
531.796	5280
531.864	4971
531.932	5753
532.000	5861
532.067	6444
532.135	6981
532.203	8493
532.271	7673
532.339	13773
532.407	33813
532.475	30009
532.542	13102
532.610	13288
532.678	14786
532.746	39083
532.814	166412
532.881	62583
532.949	11329
533.017	8060
533.084	6520
533.152	6634
533.220	6319
533.287	7057
533.355	6120
533.423	5784
533.490	4973
533.558	6023
533.625	6412
533.693	8338
533.761	7993
533.828	8744
533.896	8356
533.963	14816
534.031	20099
534.098	23461
534.166	15913
534.233	8085
534.300	9040
534.368	9189
534.435	7962
534.503	7514
534.570	8273
534.637	7873
534.705	5999
534.772	6627
534.840	6164
534.907	10085
534.974	12786
535.041	7721
535.109	9964
535.176	7167
535.243	5462
535.310	6092
535.378	6026
535.445	5287
535.512	5819
535.579	5795
535.646	5803
535.714	7520
535.781	8891
535.848	10150
535.915	9431
535.982	11446
536.049	10026
536.116	10977
536.183	9351
536.250	8722
536.317	9159
536.384	9330
536.451	12183
536.518	14635
536.585	9877
536.652	12313
536.719	16701
536.786	16134
536.853	11043
536.920	14895
536.987	24139
537.053	20421
537.120	61974
537.187	92541
537.254	11610
537.321	7765
537.388	8123
537.454	6213
537.521	5968
537.588	6480
537.654	8049
537.721	9792
537.788	9540
537.855	7853
537.921	6869
537.988	7516
538.055	7467
538.121	7748
538.188	9144
538.254	10625
538.321	21584
538.388	17838
538.454	8457
538.521	7214
538.587	6429
538.654	6564
538.720	6837
538.787	6237
538.853	7768
538.920	10333
538.986	10805
539.053	9209
539.119	8508
539.185	9036
539.252	8926
539.318	13904
539.385	12385
539.451	12312
539.517	11284
539.583	12221
539.650	17578
539.716	64004
539.782	28054
539.849	9864
539.915	9722
539.981	8592
540.047	10021
540.114	10463
540.180	10229
540.246	9850
540.312	12526
540.378	22754
540.444	25892
540.510	20091
540.576	65187
540.643	35827
540.709	9945
540.775	8510
540.841	9227
540.907	11974
540.973	22042
541.039	17422
541.105	16320
541.171	10714
541.237	8255
541.303	9218
541.369	11266
541.435	12088
541.500	19391
541.566	15947
541.632	8671
541.698	7411
541.764	7499
541.830	7443
541.896	7734
541.961	8171
542.027	7831
542.093	8597
542.159	9132
542.224	10267
542.290	13960
542.356	20037
542.421	24972
542.487	14791
542.553	10632
542.618	12206
542.684	10159
542.750	8878
542.815	11428
542.881	16155
542.947	49347
543.012	58145
543.078	10557
543.143	8452
543.209	9934
543.274	9570
543.340	10907
543.405	16862
543.471	40574
543.536	13429
543.602	8443
543.667	8342
543.732	8841
543.798	7927
543.863	8721
543.928	9065
543.994	7063
544.059	7884
544.124	7996
544.190	8428
544.255	9232
544.320	8806
544.386	8059
544.451	12577
544.516	14708
544.581	13819
544.646	26719
544.712	66505
544.777	19869
544.842	13172
544.907	13686
544.972	11760
545.037	10201
545.102	12294
545.168	11836
545.233	12964
545.298	13019
545.363	16194
545.428	16080
545.493	21343
545.558	46805
545.623	30387
545.688	12782
545.753	11978
545.818	10925
545.883	12237
545.947	10532
546.012	12138
546.077	13864
546.142	12271
546.207	11386
546.272	14425
546.337	15141
546.401	12637
546.466	12171
546.531	11036
546.596	11508
546.661	12127
546.725	11797
546.790	10618
546.855	10316
546.919	10356
546.984	10613
547.049	10245
547.113	13421
547.178	11193
547.243	11828
547.307	13365
547.372	14314
547.436	17471
547.501	12397
547.565	11197
547.630	12832
547.695	14315
547.759	16986
547.823	16145
547.888	11568
547.952	10315
548.017	11213
548.081	12568
548.146	17767
548.210	19262
548.274	10875
548.339	10213
548.403	11147
548.468	10271
548.532	8777
548.596	10692
548.660	10047
548.725	10984
548.789	13365
548.853	16489
548.917	12190
548.982	16121
549.046	22099
549.110	11592
549.174	10749
549.238	9915
549.303	8851
549.367	10431
549.431	9728
549.495	10148
549.559	9542
549.623	9633
549.687	11133
549.751	16862
549.815	13525
549.879	12150
549.943	9500
550.007	12047
550.071	12284
550.135	14445
550.199	13935
550.263	11520
550.327	12748
550.391	19392
550.455	14310
550.519	11040
550.582	11634
550.646	14368
550.710	17077
550.774	12150
550.838	11143
550.901	11597
550.965	12041
551.029	13563
551.093	14961
551.156	18586
551.220	36432
551.284	52275
551.347	21606
551.411	41926
551.475	72514
551.538	19871
551.602	12144
551.666	11100
551.729	10257
551.793	10697
551.856	11208
551.920	11704
551.983	12354
552.047	11146
552.110	10153
552.174	10752
552.237	10037
552.301	10360
552.364	10439
552.428	9844
552.491	9366
552.554	11087
552.618	11119
552.681	13086
552.745	11502
552.808	16240
552.871	21671
552.934	17215
552.998	13152
553.061	13374
553.124	13998
553.187	13785
553.251	14538
553.314	17007
553.377	17269
553.440	23180
553.503	56611
553.567	150056
553.630	41025
553.693	13637
553.756	11935
553.819	10857
553.882	10956
553.945	11018
554.008	9989
554.071	8810
554.134	9383
554.197	8859
554.260	9491
554.323	11523
554.386	10222
554.449	10605
554.512	10769
554.575	9465
554.638	9662
554.701	9521
554.764	9710
554.827	9264
554.889	9320
554.952	9169
555.015	8431
555.078	8758
555.141	9219
555.203	9470
555.266	8417
555.329	9389
555.391	8832
555.454	9762
555.517	11513
555.580	9516
555.642	7501
555.705	8912
555.768	9301
555.830	10598
555.893	8854
555.955	8711
556.018	9127
556.080	8584
556.143	8953
556.206	8396
556.268	10515
556.330	10321
556.393	10907
556.455	10452
556.518	14576
556.580	19911
556.643	9967
556.705	9598
556.767	8138
556.830	10161
556.892	10432
556.955	14538
557.017	14501
557.079	9705
557.142	8809
557.204	10579
557.266	18640
557.328	20494
557.391	10027
557.453	9314
557.515	9402
557.577	10259
557.639	11437
557.701	8938
557.764	8191
557.826	8381
557.888	9851
557.950	9006
558.012	7925
558.074	8742
558.136	9949
558.198	14090
558.260	12350
558.322	9530
558.384	10238
558.446	10857
558.508	11027
558.570	13888
558.632	18593
558.694	33083
558.756	19380
558.818	18794
558.880	48280
558.942	27670
559.003	15929
559.065	12832
559.127	9122
559.189	10188
559.251	9627
559.312	10569
559.374	11582
559.436	27565
559.498	25395
559.559	10829
559.621	11622
559.683	11989
559.744	14002
559.806	22971
559.868	30207
559.929	16316
559.991	13638
560.052	13428
560.114	16180
560.176	15705
560.237	13695
560.299	18768
560.360	12669
560.422	10656
560.483	11754
560.545	10753
560.606	10799
560.667	10829
560.729	11062
560.790	10662
560.852	10576
560.913	12481
560.974	11213
561.036	9630
561.097	11441
561.158	11557
561.220	10880
561.281	10980
561.342	11603
561.403	13677
561.465	14030
561.526	25285
561.587	43863
561.648	19334
561.709	12322
561.771	11875
561.832	11802
561.893	11714
561.954	11981
562.015	10347
562.076	11615
562.137	12155
562.198	10971
562.259	12303
562.320	11429
562.381	12562
562.442	15050
562.503	16576
562.564	11864
562.625	11127
562.686	12162
562.747	12279
562.808	12974
562.869	12508
562.930	15578
562.991	15576
563.051	15125
563.112	13322
563.173	12850
563.234	12360
563.294	11534
563.355	12211
563.416	12657
563.477	11748
563.537	13084
563.598	13506
563.659	13222
563.720	13583
563.780	12583
563.841	14167
563.901	13416
563.962	13155
564.023	12968
564.083	13569
564.144	13221
564.204	13360
564.265	13605
564.325	16010
564.386	24899
564.446	30630
564.507	13908
564.567	13717
564.628	12872
564.688	12573
564.749	12725
564.809	14518
564.869	17175
564.930	14767
564.990	12818
565.050	12191
565.111	12741
565.171	12395
565.231	13451
565.292	13086
565.352	12053
565.412	13173
565.472	13648
565.532	14460
565.593	14254
565.653	13127
565.713	13699
565.773	15529
565.833	14288
565.893	18142
565.953	14988
566.013	14909
566.074	16970
566.134	19766
566.194	25494
566.254	32772
566.314	23340
566.374	17604
566.434	17820
566.494	18147
566.554	17882
566.614	18925
566.673	18666
566.733	19404
566.793	21222
566.853	22101
566.913	21915
566.973	23627
567.033	23035
567.092	22899
567.152	22941
567.212	23145
567.272	23533
567.331	24373
567.391	25402
567.451	27062
567.511	30477
567.570	34322
567.630	26348
567.690	23486
567.749	24980
567.809	25355
567.868	29016
567.928	31601
567.988	36791
568.047	42036
568.107	50361
568.166	61669
568.226	86581
568.285	124821
568.345	126954
568.404	109518
568.464	95444
568.523	89020
568.582	87838
568.642	93140
568.701	107075
568.761	137691
568.820	195394
568.879	230534
568.939	196592
568.998	153817
569.057	120330
569.116	98723
569.176	78846
569.235	65353
569.294	54908
569.353	47756
569.413	43548
569.472	38944
569.531	35013
569.590	31608
569.649	27697
569.708	26113
569.767	25577
569.827	25762
569.886	23504
569.945	21594
570.004	20491
570.063	20433
570.122	19328
570.181	19485
570.240	20581
570.299	21383
570.358	19688
570.417	17043
570.475	15879
570.534	16051
570.593	16089
570.652	16326
570.711	15327
570.770	15388
570.829	16809
570.887	15802
570.946	15235
571.005	14578
571.064	14109
571.122	14137
571.181	15701
571.240	14829
571.299	13267
571.357	13991
571.416	15440
571.475	14628
571.533	16640
571.592	14067
571.650	14615
571.709	12622
571.768	12178
571.826	11829
571.885	11770
571.943	12037
572.002	11946
572.060	12967
572.119	11087
572.177	11183
572.236	11301
572.294	10441
572.352	11177
572.411	11258
572.469	10675
572.528	10212
572.586	11990
572.644	11742
572.703	14653
572.761	12533
572.819	11123
572.877	11523
572.936	9913
572.994	10490
573.052	9749
573.110	10208
573.169	11140
573.227	10239
573.285	10209
573.343	10287
573.401	10244
573.459	11265
573.517	10216
573.576	10238
573.634	10176
573.692	11005
573.750	10712
573.808	11067
573.866	11266
573.924	13417
573.982	14251
574.040	10861
574.098	10215
574.155	10950
574.213	9816
574.271	10695
574.329	10142
574.387	9863
574.445	9834
574.503	10474
574.560	9439
574.618	8519
574.676	9259
574.734	8720
574.792	9099
574.849	9152
574.907	8293
574.965	9051
575.022	8192
575.080	9265
575.138	10237
575.195	9903
575.253	10040
575.311	11487
575.368	9748
575.426	9067
575.483	9799
575.541	9748
575.598	9364
575.656	10393
575.713	9443
575.771	9432
575.828	10064
575.886	10191
575.943	11143
576.001	11437
576.058	10602
576.115	11081
576.173	12319
576.230	13672
576.287	14354
576.345	13642
576.402	11022
576.459	11987
576.517	10569
576.574	12092
576.631	12179
576.688	12111
576.746	10528
576.803	11430
576.860	10613
576.917	11322
576.974	10643
577.031	10372
577.089	10533
577.146	11332
577.203	10555
577.260	12859
577.317	11425
577.374	12440
577.431	12416
577.488	12010
577.545	11213
577.602	11655
577.659	11148
577.716	12119
577.773	13051
577.830	12362
577.886	12208
577.943	11826
578.000	11514
578.057	12871
578.114	12650
578.171	14556
578.227	15847
578.284	17783
578.341	16431
578.398	13495
578.454	13983
578.511	14274
578.568	14733
578.625	13605
578.681	11817
578.738	11365
578.794	11017
578.851	12101
578.908	11298
578.964	12706
579.021	12888
579.077	11820
579.134	12491
579.190	11781
579.247	12322
579.303	10671
579.360	10552
579.416	11596
579.473	11220
579.529	11267
579.586	11289
579.642	12144
579.698	12244
579.755	12583
579.811	12092
579.867	12780
579.924	13061
579.980	13568
580.036	14732
580.093	17662
580.149	20247
580.205	25543
580.261	22357
580.317	18766
580.374	15481
580.430	16555
580.486	16482
580.542	14672
580.598	12979
580.619	13420
580.654	14201
580.692	13262
580.710	12819
580.765	12712
580.767	12721
580.823	13526
580.838	13561
580.879	13693
580.911	12970
580.935	12464
580.984	12869
580.991	12941
581.047	13161
581.057	13346
581.103	14229
581.130	14140
581.159	14079
581.203	14769
581.215	14962
581.270	15095
581.276	15125
581.326	15516
581.349	14645
581.382	13363
581.422	13543
581.438	13630
581.494	14357
581.494	14342
581.550	13773
581.567	13710
581.606	13531
581.640	13665
581.661	13813
581.713	14477
581.717	14528
581.773	13057
581.786	13141
581.829	13539
581.859	14006
581.885	14409
581.932	14024
581.940	13948
581.996	15052
582.004	14954
582.052	14496
582.077	14314
582.107	14121
582.150	14394
582.163	14482
582.219	14475
582.223	14422
582.274	13871
582.296	14059
582.330	14375
582.368	15385
582.386	15779
582.441	14252
582.441	14254
582.497	14197
582.514	14305
582.552	14668
582.587	16038
582.608	16815
582.659	15894
582.663	15813
582.719	15078
582.732	14971
582.774	14671
582.805	14622
582.830	14738
582.877	15560
582.885	15640
582.941	15648
582.950	15660
582.996	15958
583.023	15916
583.052	15915
583.095	17483
583.107	17915
583.162	18787
583.168	19047
583.218	21432
583.240	20871
583.273	19790
583.313	18806
583.328	18401
583.384	17844
583.385	17804
583.439	16966
583.458	17012
583.494	17132
583.531	16904
583.549	16710
583.603	15567
583.605	15540
583.660	16942
583.676	16862
583.715	16521
583.748	16880
583.770	17173
583.820	17536
583.825	17573
583.881	18041
583.893	17896
583.936	17169
583.965	16869
583.991	16796
584.038	17225
584.046	17266
584.101	17782
584.110	17782
584.156	17718
584.183	17660
584.211	17579
584.255	17910
584.266	18028
584.321	17573
584.328	17659
584.376	18139
584.400	18286
584.431	18677
584.472	18448
584.486	18247
584.541	18566
584.545	18538
584.596	18694
584.617	19059
584.651	19418
584.689	19787
584.706	19942
584.761	20180
584.762	20183
584.816	20355
584.834	20633
584.871	21293
584.906	21466
584.926	21454
584.978	21257
584.980	21255
585.035	22000
585.051	22203
585.090	22821
585.123	23140
585.145	23413
585.195	24146
585.200	24173
585.254	25019
585.267	25173
585.309	26277
585.340	27426
585.364	28275
585.412	28642
585.419	28438
585.473	25778
585.484	25579
585.528	26091
585.556	26447
585.583	26962
585.628	28448
585.637	28886
585.692	31872
585.700	32641
585.747	37343
585.772	37863
585.801	35985
585.845	31771
585.856	30988
585.910	29096
585.917	29105
585.965	30299
585.989	30416
586.019	30557
586.061	31131
586.074	31315
586.128	32089
586.133	32106
586.183	32700
586.205	33401
586.237	34164
586.277	34947
586.292	35274
586.346	36580
586.349	36633
586.401	37529
586.421	37838
586.455	38380
586.493	39462
586.509	40654
586.564	45900
586.565	46100
586.618	59689
586.637	63760
586.672	64809
586.709	57061
586.727	51666
586.781	43832
586.781	43830
586.835	45426
586.853	45965
586.889	46624
586.925	46573
586.944	46828
586.996	48659
586.998	48724
587.052	51402
587.068	52029
587.106	52879
587.140	53952
587.161	54910
587.212	56902
587.215	56979
587.269	59607
587.284	60378
587.323	63265
587.356	65441
587.377	66444
587.427	68654
587.431	68849
587.485	72713
587.499	73633
587.539	76594
587.571	79176
587.593	81200
587.643	85703
587.648	86147
587.702	91693
587.715	93327
587.755	98987
587.786	102698
587.810	105238
587.858	111367
587.864	112277
587.917	123435
587.930	125776
587.971	134579
588.001	141871
588.025	147674
588.073	159474
588.079	161123
588.133	178021
588.145	182004
588.187	198324
588.217	210898
588.241	222681
588.288	247892
588.295	251643
588.348	285098
588.360	292788
588.402	324710
588.431	348920
588.456	373698
588.503	424184
588.510	432547
588.564	506691
588.575	523427
588.617	603526
588.646	661603
588.671	725977
588.718	853562
588.725	878237
588.778	1074522
588.789	1112288
588.832	1270897
588.861	1359768
588.886	1362015
588.932	1315498
588.939	1289348
588.993	1057231
589.004	1032157
589.047	1201871
589.075	1333402
589.100	1391300
589.147	1424730
589.154	1404484
589.207	1199426
589.218	1157183
589.261	1045950
589.290	976612
589.314	965664
589.361	959476
589.368	971516
589.421	1083234
589.433	1107585
589.475	1239413
589.504	1314828
589.528	1301503
589.576	1222839
589.582	1216065
589.635	1208151
589.647	1213299
589.689	1263647
589.718	1256211
589.742	1140064
589.790	881867
589.795	860413
589.849	663981
589.861	619983
589.902	530622
589.932	468801
589.955	433532
590.004	360026
590.009	354496
590.062	299943
590.075	286899
590.115	259337
590.146	239237
590.168	228302
590.218	205195
590.222	203600
590.275	183641
590.289	178588
590.328	167240
590.360	158323
590.381	153200
590.431	141260
590.435	140602
590.488	129868
590.503	126896
590.541	120490
590.574	114971
590.594	112618
590.645	106948
590.647	106725
590.700	100530
590.716	98585
590.753	94384
590.787	90526
590.806	88782
590.859	84305
590.859	84258
590.912	80213
590.930	78964
590.965	77012
591.001	74772
591.018	73812
591.071	71482
591.072	71438
591.124	68492
591.143	67453
591.177	66522
591.214	65741
591.230	65346
591.283	63809
591.285	63723
591.336	62383
591.356	61747
591.389	60426
591.427	58845
591.442	58276
591.495	56173
591.498	55988
591.547	54043
591.569	53155
591.600	52654
591.640	51818
591.653	51425
591.706	49793
591.711	49593
591.759	49845
591.782	49951
591.811	51213
591.853	53155
591.864	52549
591.917	48889
591.924	48343
591.969	45727
591.995	44204
592.022	43722
592.066	42956
592.075	43223
592.127	44731
592.137	44995
592.180	48397
592.208	50551
592.233	48234
592.279	43608
592.285	43244
592.338	39960
592.350	39215
592.390	38805
592.421	38446
592.443	38530
592.491	38651
592.495	38617
592.548	37819
592.562	37570
592.600	37404
592.633	37228
592.653	36708
592.704	35093
592.705	35291
592.775	35175
592.846	34922
592.916	34282
592.987	34675
593.058	34133
593.128	32755
593.199	31618
593.270	31095
593.341	30461
593.411	29872
593.482	30181
593.553	29915
593.623	29166
593.694	28647
593.764	30547
593.835	29449
593.906	27585
593.976	27128
594.047	27648
594.117	30090
594.188	34517
594.258	27774
594.329	24548
594.399	25498
594.470	25194
594.540	24740
594.611	24258
594.681	23521
594.751	24228
594.822	24390
594.892	24935
594.963	25654
595.033	24967
595.103	24296
595.174	26597
595.244	31806
595.314	47827
595.384	33047
595.455	23351
595.525	22915
595.595	23440
595.665	23025
595.736	23142
595.806	22400
595.876	22849
595.946	21911
596.016	21329
596.087	21046
596.157	21657
596.227	21181
596.297	21637
596.367	21928
596.437	22983
596.507	28240
596.577	40698
596.647	30825
596.717	21260
596.787	20389
596.857	20480
596.927	20356
596.997	20900
597.067	20414
597.137	23412
597.207	23630
597.277	20998
597.347	19874
597.417	20513
597.487	19801
597.557	20948
597.626	20453
597.696	22229
597.766	25208
597.836	34754
597.906	30731
597.975	20339
598.045	19167
598.115	19193
598.185	19120
598.254	20351
598.324	19583
598.394	20500
598.464	21232
598.533	19810
598.603	19018
598.672	19051
598.742	19582
598.812	19993
598.881	19154
598.951	19138
599.020	17745
599.090	17481
599.159	16534
599.229	17765
599.299	16662
599.368	16054
599.437	16348
599.507	16934
599.576	17659
599.646	18703
599.715	20397
599.785	18097
599.854	17692
599.924	21819
599.993	21455
600.062	17950
600.132	17100
600.201	16706
600.270	18586
600.340	18726
600.409	16963
600.478	16935
600.547	16788
600.617	17280
600.686	17254
600.755	16195
600.824	18085
600.894	18083
600.963	16851
601.032	16153
601.101	16311
601.170	15848
601.239	16185
601.308	16393
601.378	15757
601.447	15561
601.516	15976
601.585	16063
601.654	16325
601.723	17012
601.792	15872
601.861	18099
601.930	19343
601.999	19616
602.068	16384
602.137	15864
602.206	16323
602.275	16292
602.343	16319
602.412	19382
602.481	16074
602.550	15009
602.619	14680
602.688	15834
602.756	16392
602.825	15457
602.894	14081
602.963	14905
603.032	14621
603.100	14061
603.169	14214
603.238	15095
603.307	14753
603.375	14699
603.444	15043
603.513	13815
603.581	12939
603.650	13550
603.719	13677
603.787	13291
603.856	13741
603.924	13642
603.993	15230
604.061	14115
604.130	12696
604.198	14837
604.267	14675
604.335	13422
604.404	13751
604.472	13202
604.541	13054
604.609	13993
604.678	12785
604.746	12951
604.815	13016
604.883	13578
604.951	14030
605.020	13123
605.088	13140
605.156	13720
605.225	12852
605.293	12649
605.361	12685
605.429	13828
605.498	13007
605.566	14685
605.634	13982
605.702	14002
605.771	13364
605.839	13319
605.907	12646
605.975	12946
606.043	12790
606.111	13999
606.180	13397
606.248	15134
606.316	20369
606.384	15214
606.452	17773
606.520	19056
606.588	17582
606.656	12649
606.724	12287
606.792	12352
606.860	12289
606.928	11403
606.996	10580
607.064	11283
607.132	11280
607.200	11214
607.267	11447
607.335	11918
607.403	11474
607.471	11055
607.539	11595
607.607	11908
607.674	12221
607.742	11693
607.810	12592
607.878	13476
607.946	11943
608.013	11152
608.081	12298
608.149	12517
608.216	11175
608.284	11387
608.352	11322
608.419	11533
608.487	17128
608.555	19463
608.622	11557
608.690	11199
608.757	10948
608.825	11441
608.893	11718
608.960	13515
609.028	18255
609.095	21907
609.163	17988
609.230	12357
609.298	12736
609.365	11558
609.432	11726
609.500	11453
609.567	12222
609.635	12567
609.702	13335
609.769	12822
609.837	14727
609.904	16435
609.971	12961
610.039	14342
610.106	17402
610.173	25528
610.241	48385
610.308	85927
610.375	87545
610.442	33816
610.509	15968
610.577	14360
610.644	12727
610.711	12057
610.778	12057
610.845	11889
610.912	12389
610.980	13032
611.047	18814
611.114	20656
611.181	12770
611.248	10667
611.315	11828
611.382	10237
611.449	10421
611.516	10358
611.583	11023
611.650	11490
611.717	10827
611.784	12030
611.851	11773
611.918	12956
611.984	13455
612.051	15304
612.118	21253
612.185	41702
612.252	58085
612.319	19145
612.386	12744
612.452	11758
612.519	13663
612.586	18478
612.653	21966
612.719	11846
612.786	12234
612.853	11000
612.919	10500
612.986	11171
613.053	9984
613.120	10322
613.186	9013
613.253	11350
613.319	10557
613.386	10516
613.453	11135
613.519	12706
613.586	14153
613.652	22652
613.719	20565
613.785	20213
613.852	13246
613.918	11366
613.985	12672
614.051	17483
614.118	34228
614.184	66240
614.250	22306
614.317	11071
614.383	10178
614.449	10512
614.516	9784
614.582	11065
614.648	10978
614.715	9961
614.781	10375
614.847	10274
614.914	12347
614.980	11882
615.046	11511
615.112	11524
615.179	11677
615.245	14195
615.311	18736
615.377	32076
615.443	54355
615.509	38698
615.575	21056
615.642	16759
615.708	15295
615.774	17638
615.840	17940
615.906	23661
615.972	33753
616.038	66420
616.104	112754
616.170	102482
616.236	111918
616.302	41893
616.368	22034
616.434	17192
616.500	16943
616.565	16818
616.631	15699
616.697	14857
616.763	14372
616.829	15774
616.895	19134
616.961	23553
617.026	19706
617.092	14201
617.158	13149
617.224	12455
617.289	12187
617.355	13285
617.421	13011
617.487	13063
617.552	12681
617.618	12542
617.684	11622
617.749	12838
617.815	11530
617.880	11401
617.946	12454
618.012	12713
618.077	11929
618.143	12007
618.208	11550
618.274	12016
618.339	12703
618.405	12486
618.470	12994
618.536	13268
618.601	14642
618.667	15350
618.732	14110
618.798	14145
618.863	14166
618.928	13301
618.994	14542
619.059	15434
619.124	20037
619.190	21418
619.255	14790
619.320	13238
619.386	13800
619.451	12340
619.516	13050
619.581	13148
619.647	13333
619.712	13020
619.777	12792
619.842	13237
619.907	13628
619.972	13992
620.038	12974
620.103	13591
620.168	12638
620.233	13004
620.298	12904
620.363	12160
620.428	11717
620.493	12785
620.558	13098
620.623	12363
620.688	12350
620.753	11836
620.818	11444
620.883	11669
620.948	11300
621.013	12691
621.078	12743
621.143	12911
621.207	14300
621.272	13529
621.337	15610
621.402	16587
621.467	18963
621.532	25386
621.596	19228
621.661	17021
621.726	15729
621.791	14587
621.855	16357
621.920	17664
621.985	18036
622.049	20991
622.114	21327
622.179	19523
622.243	17189
622.308	17576
622.373	16518
622.437	17082
622.502	16072
622.566	16648
622.631	16473
622.695	17495
622.760	16913
622.824	16146
622.889	16002
622.953	17875
623.018	22073
623.082	29849
623.147	18965
623.211	16672
623.276	17442
623.340	16448
623.404	15257
623.469	15071
623.533	15591
623.597	15516
623.662	15642
623.726	15350
623.790	14737
623.854	14972
623.919	14844
623.983	15465
624.047	15253
624.111	15042
624.176	14889
624.240	15422
624.304	17265
624.368	15469
624.432	14223
624.496	14792
624.560	15276
624.625	18190
624.689	16729
624.753	14328
624.817	15147
624.881	13812
624.945	14459
625.009	14794
625.073	14255
625.137	14760
625.201	18107
625.265	21035
625.329	15238
625.393	14553
625.456	15191
625.520	15123
625.584	16742
625.648	20934
625.712	28715
625.776	66627
625.839	113193
625.903	76624
625.967	21495
626.031	25722
626.095	54577
626.158	36373
626.222	14785
626.286	12668
626.349	12883
626.413	11800
626.477	13577
626.540	13514
626.604	13033
626.668	11833
626.731	12604
626.795	13205
626.858	13492
626.922	12534
626.986	12341
627.049	11848
627.113	11194
627.176	11548
627.240	12019
627.303	11416
627.366	11174
627.430	11632
627.493	11633
627.557	12353
627.620	12565
627.684	11212
627.747	11418
627.810	11778
627.874	11501
627.937	11536
628.000	12009
628.064	12259
628.127	10250
628.190	10999
628.253	11999
628.317	11107
628.380	10940
628.443	11573
628.506	11578
628.569	10470
628.632	10259
628.696	10093
628.759	10030
628.822	9796
628.885	10405
628.948	10394
629.011	10509
629.074	10556
629.137	10035
629.200	10198
629.263	11265
629.326	10093
629.389	10369
629.452	10127
629.515	10406
629.578	10817
629.641	10694
629.704	12070
629.767	11093
629.830	10139
629.892	10527
629.955	10089
630.018	11038
630.081	10578
630.144	14312
630.207	13194
630.269	11198
630.332	11383
630.395	13191
630.458	9836
630.520	9031
630.583	10680
630.646	8931
630.708	8367
630.771	8681
630.834	9929
630.896	8595
630.959	8573
631.021	8617
631.084	9055
631.146	9982
631.209	12058
631.272	10689
631.334	9237
631.397	8331
631.459	7648
631.522	8933
631.584	9337
631.646	9468
631.709	9464
631.771	10529
631.834	11525
631.896	8304
631.958	7768
632.021	7683
632.083	8145
632.145	9129
632.208	8641
632.270	9398
632.332	7927
632.395	7340
632.457	8783
632.519	8725
632.581	8868
632.643	7130
632.706	8134
632.768	7989
632.830	8048
632.892	8228
632.954	7737
633.016	7542
633.078	7722
633.141	7582
633.203	7870
633.265	7560
633.327	7572
633.389	7122
633.451	8014
633.513	10477
633.575	10721
633.637	10831
633.698	10275
633.760	8855
633.822	6860
633.884	7588
633.946	7211
634.008	6983
634.070	8484
634.132	8539
634.193	9087
634.255	7510
634.317	7551
634.379	8300
634.441	7589
634.502	7461
634.564	7555
634.626	7866
634.687	7711
634.749	7194
634.811	7241
634.873	5913
634.934	7054
634.996	6613
635.057	7201
635.119	6866
635.181	7698
635.242	7127
635.304	6563
635.365	7213
635.427	6387
635.488	8054
635.550	6439
635.611	6876
635.673	5891
635.734	6945
635.796	7156
635.857	7100
635.918	7272
635.980	7059
636.041	6905
636.102	7089
636.164	6742
636.225	6742
636.286	6837
636.348	7628
636.409	6763
636.470	6792
636.531	6586
636.593	7534
636.654	8904
636.715	6667
636.776	5269
636.838	5551
636.899	6551
636.960	6597
637.021	6026
637.082	6526
637.143	6115
637.204	5983
637.265	5144
637.326	6279
637.387	5796
637.448	5247
637.509	5100
637.570	6165
637.631	5837
637.692	5372
637.753	5564
637.814	4913
637.875	5231
637.936	5593
637.997	6167
638.058	6121
638.119	6966
638.179	6081
638.240	5375
638.301	6062
638.362	5630
638.423	5565
638.483	6119
638.544	4755
638.605	5399
638.666	5158
638.726	6296
638.787	5301
638.848	4844
638.908	4963
638.969	5211
639.030	4852
639.090	4882
639.151	5204
639.211	5878
639.272	7423
639.332	9887
639.393	11474
639.453	5478
639.514	5668
639.574	5417
639.635	4872
639.695	5258
639.756	4896
639.816	5970
639.877	5929
639.937	8903
639.997	14413
640.058	10134
640.118	5250
640.178	5125
640.239	4707
640.299	4531
640.359	4850
640.420	5122
640.480	4573
640.540	4299
640.600	4039
640.661	4442
640.721	4514
640.781	6998
640.841	5733
640.901	5584
640.961	5386
641.021	4955
641.082	6033
641.142	7795
641.202	9389
641.262	4794
641.322	6239
641.382	4798
641.442	5147
641.502	4865
641.562	5191
641.622	4916
641.682	4793
641.742	4618
641.802	4576
641.861	5344
641.921	4765
641.981	6262
642.041	5513
642.101	6696
642.161	6567
642.221	4475
642.280	4398
642.340	4561
642.400	3609
642.460	5436
642.519	3988
642.579	4606
642.639	4968
642.698	2962
642.758	5241
642.818	3843
642.877	4899
642.937	4504
642.997	5520
643.056	7656
643.116	7232
643.175	4604
643.235	4107
643.294	4385
643.354	4847
643.414	3948
643.473	4561
643.532	4695
643.592	5248
643.651	5299
643.711	7050
643.770	9985
643.830	15675
643.889	45550
643.948	36504
644.008	7167
644.067	3957
644.126	4082
644.186	4775
644.245	4836
644.304	3343
644.363	3566
644.423	4210
644.482	3171
644.541	4431
644.600	3114
644.659	4125
644.719	4144
644.778	3834
644.837	4813
644.896	6076
644.955	9015
645.014	9357
645.073	6760
645.132	4986
645.191	4515
645.250	3711
645.309	4703
645.368	3051
645.427	4447
645.486	4108
645.545	4870
645.604	3597
645.663	3946
645.722	3808
645.781	4707
645.840	3007
645.898	4025
645.957	4374
646.016	4448
646.075	6450
646.134	6935
646.192	14474
646.251	36886
646.310	18998
646.369	3979
646.427	3647
646.486	2397
646.545	3205
646.603	3548
646.662	4178
646.721	2419
646.779	3259
646.838	2070
646.896	3696
646.955	4735
647.014	3942
647.072	4215
647.131	5873
647.189	7000
647.248	3367
647.306	3948
647.365	3163
647.423	2746
647.481	4396
647.540	2417
647.598	3425
647.657	2962
647.715	4017
647.773	3268
647.832	3100
647.890	3150
647.948	3051
648.007	3569
648.065	3361
648.123	3599
648.181	3811
648.240	4351
648.298	5490
648.356	3612
648.414	4322
648.472	3343
648.531	3874
648.589	4068
648.647	3179
648.705	2780
648.763	3184
648.821	3795
648.879	2943
648.937	4039
648.995	3668
649.053	3174
649.111	3502
649.169	4630
649.227	5325
649.285	6752
649.343	13413
649.401	20081
649.459	13326
649.516	17883
649.574	8575
649.632	12902
649.690	28713
649.748	15266
649.806	6784
649.863	14225
649.921	9264
649.979	6095
650.037	4350
650.094	2659
650.152	2943
650.210	3082
650.268	3091
650.325	3124
650.383	3475
650.440	1657
650.498	2835
650.556	3527
650.613	2187
650.671	3099
650.728	3434
650.786	2967
650.843	3476
650.901	1885
650.958	2680
651.016	3646
651.073	1880
651.131	2209
651.188	1976
651.246	3278
651.303	2599
651.360	3264
651.418	2470
651.475	3009
651.532	2194
651.590	3016
651.647	2147
651.704	2827
651.762	3061
651.819	2829
651.876	2606
651.933	3247
651.990	2373
652.048	2387
652.105	2367
652.162	2718
652.219	2299
652.276	2533
652.333	2547
652.390	1764
652.448	2644
652.505	2597
652.562	2988
652.619	3247
652.676	4814
652.733	8755
652.790	3422
652.847	1973
652.904	2940
652.961	2136
653.017	1691
653.074	3013
653.131	2637
653.188	2039
653.245	2370
653.302	2824
653.359	2438
653.415	3516
653.472	2066
653.529	2567
653.586	1933
653.642	2764
653.699	2231
653.756	1901
653.813	2134
653.869	2506
653.926	1917
653.983	1026
654.039	2143
654.096	1844
654.152	2755
654.209	2135
654.266	3014
654.322	2682
654.379	2897
654.435	3545
654.492	3147
654.548	4242
654.605	8075
654.661	8037
654.717	2736
654.774	2842
654.830	3179
654.887	3543
654.943	2736
655.000	3199
655.056	3642
655.112	2038
655.168	2860
655.225	2777
655.281	3359
655.337	3552
655.394	6929
655.450	9365
655.506	5190
655.562	6622
655.618	10772
655.675	3928
655.731	2623
655.787	2648
655.843	3004
655.899	2579
655.955	3740
656.011	3054
656.067	2246
656.123	4028
656.179	4122
656.235	4323
656.291	2673
656.347	4297
656.403	3821
656.459	3796
656.515	3527
656.571	4537
656.627	4498
656.683	2713
656.739	4004
656.795	2528
656.850	3135
656.906	3481
656.962	3041
657.018	2845
657.074	2506
657.129	3119
657.185	3124
657.241	2243
657.297	3031
657.352	2645
657.408	1730
657.464	4118
657.519	2711
657.575	1610
657.630	1702
657.686	2468
657.742	1820
657.797	1313
657.853	1760
657.908	3671
657.964	1697
658.019	2037
658.075	1632
658.130	2154
658.186	1723
658.241	1999
658.297	1929
658.352	2379
658.407	1881
658.463	1788
658.518	1954
658.573	2440
658.629	1677
658.684	1936
658.739	2000
658.795	2161
658.850	2324
658.905	1250
658.960	2414
659.016	1572
659.071	1516
659.126	3564
659.181	2638
659.236	3930
659.291	5741
659.346	3546
659.401	3496
659.457	3974
659.512	5003
659.567	5689
659.622	2662
659.677	2306
659.732	1707
659.787	3042
659.842	2561
659.897	4667
659.952	3552
660.007	2273
660.061	2782
660.116	2571
660.171	2069
660.226	2553
660.281	2662
660.336	1613
660.391	2020
660.445	2351
660.500	2629
660.555	2049
660.610	1910
660.664	1972
660.719	983
660.774	1654
660.828	2572
660.883	1946
660.938	2424
660.992	2707
661.047	2401
661.101	2213
661.156	1922
661.211	2011
661.265	2153
661.320	1810
661.374	1670
661.429	1682
661.483	3235
661.538	1843
661.592	817
661.647	2348
661.701	1882
661.755	1898
661.810	2207
661.864	1714
661.919	1452
661.973	2743
662.027	1962
662.081	1992
662.136	1354
662.190	2218
662.244	2571
662.299	2416
662.353	2707
662.407	1291
662.461	1994
662.515	2185
662.569	1913
662.624	3146
662.678	1893
662.732	2630
662.786	1595
662.840	2510
662.894	2793
662.948	1706
663.002	1433
663.056	1973
663.110	1554
663.164	2045
663.218	2570
663.272	1941
663.326	1849
663.380	2195
663.434	2731
663.488	1701
663.542	2305
663.595	2351
663.649	1552
663.703	3109
663.757	2560
663.811	1371
663.864	1406
663.918	2012
663.972	2075
664.026	2492
664.079	2431
664.133	2556
664.187	1997
664.240	1467
664.294	2936
664.348	2133
664.401	2407
664.455	2130
664.508	1576
664.562	1570
664.615	2070
664.669	1917
664.722	1834
664.776	1543
664.829	1829
664.883	1889
664.936	1631
664.990	2536
665.043	2313
665.097	1893
665.150	2488
665.203	2341
665.257	1933
665.310	2162
665.363	1815
665.417	2585
665.470	3332
665.523	3329
665.576	2572
665.630	1743
665.683	2491
665.736	2612
665.789	3368
665.842	2246
665.895	1382
665.949	2586
666.002	2002
666.055	1940
666.108	2734
666.161	2734
666.214	3016
666.267	2799
666.320	2436
666.373	2531
666.426	1830
666.479	2385
666.532	2566
666.585	3295
666.638	3374
666.691	3195
666.744	3967
666.796	4028
666.849	3532
666.902	3753
666.955	2199
667.008	1624
667.060	2160
667.113	1437
667.166	1904
667.219	2379
667.271	2198
667.324	1883
667.377	2304
667.430	2690
667.482	1656
667.535	3834
667.587	3113
667.640	2874
667.693	2821
667.745	3726
667.798	5545
667.850	4746
667.903	2546
667.955	2101
668.008	2817
668.060	3643
668.113	2333
668.165	3181
668.218	3877
668.270	2667
668.322	2736
668.375	3118
668.427	2901
668.479	2340
668.532	2581
668.584	3105
668.636	1537
668.689	2637
668.741	2563
668.793	2401
668.845	1661
668.898	2920
668.950	2581
669.002	2514
669.054	1440
669.106	3297
669.158	3079
669.211	2848
669.263	2256
669.315	3521
669.367	4226
669.419	3807
669.471	3763
669.523	3592
669.575	4910
669.627	4983
669.679	4215
669.731	3537
669.783	2921
669.835	4077
669.886	3594
669.938	3285
669.990	3116
670.042	3152
670.094	2926
670.146	3948
670.197	4574
670.249	5011
670.301	4991
670.353	6635
670.404	8997
670.456	12671
670.508	18652
670.560	29418
670.611	50682
670.663	87241
670.715	162959
670.766	365521
670.818	325109
670.869	76234
670.921	22378
670.972	12987
671.024	9489
671.075	6817
671.127	6737
671.178	4775
671.230	4901
671.281	4409
671.333	4206
671.384	4048
671.436	4439
671.487	4040
671.538	3602
671.590	3737
671.641	4027
671.692	3510
671.744	4621
671.795	5434
671.846	3845
671.897	3326
671.949	3218
672.000	2826
672.051	2785
672.102	3311
672.153	2397
672.204	3168
672.256	2634
672.307	3219
672.358	2590
672.409	3963
672.460	3191
672.511	2784
672.562	2360
672.613	2965
672.664	2320
672.715	2785
672.766	2767
672.817	2607
672.868	3538
672.919	2312
672.970	2181
673.021	3120
673.071	2122
673.122	2862
673.173	2237
673.224	2330
673.275	2613
673.326	2436
673.376	2119
673.427	1707
673.478	2294
673.528	3170
673.579	1612
673.630	2797
673.680	2553
673.731	1769
673.782	2026
673.832	2086
673.883	3212
673.934	2918
673.984	2625
674.035	2108
674.085	2470
674.136	3053
674.186	2188
674.237	2676
674.287	4213
674.338	5673
674.388	2921
674.438	2326
674.489	2409
674.539	2449
674.589	2274
674.640	2786
674.690	2875
674.740	2434
674.791	3301
674.841	2700
674.891	2543
674.942	2504
674.992	2925
675.042	2073
675.092	1973
675.142	2145
675.193	2586
675.243	1887
675.293	1182
675.343	1637
675.393	2224
675.443	3280
675.493	1827
675.543	1402
675.593	2374
675.643	2123
675.693	2004
675.743	2164
675.793	2186
675.843	1729
675.893	2789
675.943	2476
675.993	1831
676.043	2196
676.093	2281
676.142	1857
676.192	1799
676.242	1677
676.292	2503
676.341	2173
676.391	1499
676.441	1938
676.491	2283
676.540	1819
676.590	1442
676.640	2291
676.689	1570
676.739	1693
676.789	990
676.838	1125
676.888	2049
676.937	1588
676.987	1655
677.037	1663
677.086	1284
677.136	1352
677.185	1135
677.235	2041
677.284	851
677.333	1529
677.383	1176
677.432	1257
677.482	1352
677.531	1448
677.580	1310
677.630	1055
677.679	1890
677.728	1171
677.778	769
677.827	1564
677.876	1249
677.925	1164
677.975	826
678.024	2045
678.073	1716
678.122	1463
678.171	1948
678.220	1302
678.269	1458
678.319	1864
678.368	1953
678.417	1573
678.466	2381
678.515	2537
678.564	1499
678.613	2429
678.662	1495
678.711	1990
678.760	1316
678.809	1806
678.857	1406
678.906	2147
678.955	854
679.004	2154
679.053	1666
679.102	1471
679.151	1980
679.199	1488
679.248	1431
679.297	1747
679.346	1747
679.394	835
679.443	1893
679.492	1400
679.540	1545
679.589	1345
679.638	2278
679.686	1455
679.735	1562
679.784	1270
679.832	1033
679.881	1338
679.929	1804
679.978	1150
680.026	1448
680.075	1847
680.123	1235
680.172	1372
680.220	1370
680.268	1977
680.317	1394
680.365	1194
680.414	1391
680.462	1327
680.510	1794
680.559	1178
680.607	902
680.655	391
680.703	1152
680.752	1905
680.800	1147
680.848	851
680.896	964
680.945	1449
680.993	886
681.041	1502
681.089	1650
681.137	204
681.185	395
681.233	977
681.258	1129
681.281	1235
681.329	2197
681.377	1360
681.380	1422
681.425	1844
681.473	1482
681.502	1558
681.521	1545
681.569	1938
681.617	1469
681.624	1574
681.665	1958
681.713	2329
681.745	1913
681.761	1655
681.809	1640
681.857	1854
681.867	1866
681.904	1752
681.952	2237
681.989	2665
682.000	2750
682.048	2463
682.096	2563
682.111	2561
682.143	2420
682.191	2647
682.233	2879
682.239	2878
682.286	2592
682.334	2289
682.354	2563
682.382	2864
682.430	3180
682.476	3007
682.477	2969
682.525	2673
682.572	2713
682.598	3225
682.620	3631
682.667	2972
682.715	3600
682.720	3691
682.763	4179
682.810	3554
682.841	3865
682.857	3981
682.905	3312
682.952	3481
682.963	3625
683.000	4012
683.047	3850
683.085	4057
683.095	4064
683.142	3409
683.190	4329
683.206	4359
683.237	4380
683.284	4212
683.328	4348
683.332	4331
683.379	4098
683.426	4346
683.449	4548
683.473	4666
683.521	4763
683.568	4178
683.571	4263
683.615	5113
683.662	4625
683.693	5050
683.709	5228
683.757	5387
683.804	4625
683.814	4676
683.851	4777
683.898	5418
683.936	5427
683.945	5391
683.992	5186
684.039	5928
684.057	6018
684.086	6195
684.133	5661
684.179	6275
684.180	6268
684.227	6639
684.274	6531
684.300	6188
684.321	5875
684.368	5761
684.415	5375
684.422	5458
684.462	5859
684.509	5238
684.543	5701
684.556	5858
684.603	5632
684.649	6250
684.665	6178
684.696	5955
684.743	6397
684.786	6861
684.790	6883
684.837	6695
684.883	6450
684.908	6918
684.930	7398
684.977	7586
685.023	7783
685.029	7739
685.070	7060
685.117	7783
685.150	7793
685.164	7811
685.210	7640
685.257	7975
685.272	8169
685.303	8421
685.350	8030
685.393	8051
685.396	8043
685.443	8063
685.490	8825
685.514	8894
685.536	8983
685.583	9012
685.629	8545
685.636	8590
685.675	8449
685.722	8348
685.757	8016
685.768	7965
685.815	8558
685.861	8628
685.878	8756
685.908	8960
685.954	8981
686.000	8608
686.000	8597
686.047	9213
686.093	9807
686.121	10236
686.139	10430
686.185	10438
686.232	9680
686.242	9858
686.278	10074
686.324	9746
686.363	9153
686.370	9070
686.416	8360
686.463	9415
686.484	9257
686.509	9296
686.555	9406
686.601	9567
686.606	9610
686.647	9566
686.693	9747
686.727	9222
686.739	9090
686.785	9510
686.831	9578
686.848	9595
686.877	9478
686.923	9937
686.969	9745
686.969	9742
687.015	9177
687.061	9282
687.090	9297
687.107	9335
687.153	9452
687.199	9953
687.211	9850
687.245	9575
687.291	9754
687.332	9960
687.336	9997
687.382	10116
687.428	10044
687.453	10370
687.474	10456
687.520	9638
687.565	10119
687.574	10031
687.611	9805
687.657	9796
687.695	10214
687.702	10323
687.748	10455
687.794	10314
687.816	10459
687.839	10556
687.885	10592
687.931	10069
687.937	10118
687.976	10231
688.022	9993
688.058	10430
688.067	10625
688.113	10233
688.158	10531
688.179	10727
688.204	10741
688.249	10843
688.295	10542
688.300	10535
688.340	10904
688.386	11021
688.421	11301
688.431	11383
688.477	11026
688.522	11780
688.542	11787
688.567	11621
688.613	11792
688.658	11596
688.663	11607
688.703	11853
688.749	11221
688.784	11484
688.794	11610
688.839	11794
688.884	12137
688.905	12299
688.930	12302
688.975	11250
689.020	11622
689.026	11592
689.065	11847
689.110	11709
689.146	11794
689.155	11785
689.201	11971
689.246	11719
689.267	11647
689.291	11583
689.336	11593
689.381	11760
689.388	11758
689.426	12114
689.471	12115
689.509	12573
689.516	12598
689.561	11913
689.606	11679
689.630	11451
689.651	11436
689.696	12116
689.741	12265
689.750	12210
689.785	12033
689.830	12261
689.871	12086
689.875	12072
689.920	12112
689.965	12112
689.992	12044
690.010	12016
690.054	12504
690.099	11676
690.112	11714
690.144	12158
690.189	12125
690.233	12597
690.233	12616
690.278	13104
690.323	12906
690.354	13256
690.367	13406
690.412	13157
690.457	13476
690.474	13584
690.501	13886
690.546	14035
690.590	14031
690.595	14058
690.635	14533
690.680	14843
690.716	14814
690.724	14963
690.769	16216
690.813	17540
690.836	17729
690.857	18425
690.902	20960
690.946	22924
690.957	23478
690.991	30092
691.035	38970
691.077	47977
691.080	48671
691.124	59859
691.168	69160
691.198	75450
691.213	71199
691.257	59126
691.301	46471
691.318	41524
691.346	37190
691.390	30487
691.434	23656
691.439	22839
691.478	21006
691.522	19196
691.559	17546
691.567	17522
691.611	17147
691.655	16499
691.680	16337
691.699	16296
691.743	16004
691.787	15430
691.800	15268
691.831	15231
691.875	15466
691.919	15410
691.921	15392
691.964	15923
692.008	15986
692.041	16096
692.052	16147
692.096	16083
692.139	16186
692.162	16414
692.183	16375
692.227	15468
692.271	14980
692.282	14809
692.315	15148
692.359	15877
692.402	15925
692.403	15954
692.447	16426
692.490	15805
692.523	15905
692.534	16045
692.578	16403
692.622	16706
692.643	16712
692.666	16557
692.709	16206
692.753	16180
692.763	16034
692.797	15808
692.840	15682
692.884	15750
692.884	15787
692.928	16170
692.971	16657
693.004	16669
693.015	16688
693.059	17157
693.102	17254
693.124	17328
693.146	17357
693.189	17544
693.233	17287
693.245	17382
693.276	18452
693.320	19156
693.363	19909
693.365	19920
693.407	21245
693.450	21672
693.485	22473
693.493	23025
693.537	25573
693.580	27772
693.605	29277
693.624	31662
693.667	37017
693.710	42283
693.725	44171
693.753	56674
693.797	76017
693.840	96680
693.845	99005
693.883	122327
693.926	146022
693.966	167819
693.970	165119
694.013	133618
694.056	102238
694.086	80658
694.099	75936
694.142	60674
694.185	44821
694.206	37308
694.229	35228
694.272	31387
694.315	27292
694.326	26177
694.358	25326
694.401	24221
694.444	22760
694.446	22655
694.487	22162
694.530	21389
694.566	20713
694.573	20643
694.616	19822
694.659	18882
694.686	18517
694.702	18386
694.745	17753
694.787	16860
694.806	16565
694.830	16788
694.873	16930
694.916	17055
694.926	17051
694.959	16896
695.002	16700
695.044	16328
695.046	16284
695.087	16515
695.130	16619
695.166	16562
695.172	16619
695.215	16836
695.258	17078
695.286	17224
695.301	17355
695.343	17423
695.386	17589
695.406	17711
695.428	17619
695.471	17019
695.514	16704
695.526	16499
695.556	16480
695.599	16612
695.641	16630
695.646	16600
695.684	16854
695.726	16895
695.766	17044
695.769	17082
695.811	17085
695.854	17012
695.886	16911
695.896	16922
695.938	16593
695.981	16554
696.005	16388
696.023	16374
696.065	16229
696.108	16077
696.125	16020
696.150	16465
696.192	17094
696.235	17696
696.245	17851
696.277	17753
696.319	17288
696.361	16876
696.365	16808
696.404	17245
696.446	17595
696.485	17810
696.488	17862
696.530	17984
696.572	18152
696.604	18186
696.614	18144
696.656	17754
696.698	17495
696.724	17204
696.740	17056
696.783	16595
696.825	16149
696.844	15887
696.867	16044
696.909	16299
696.951	16529
696.964	16600
696.992	16676
697.034	16380
697.076	16351
697.083	16286
697.118	16496
697.160	16771
697.202	16994
697.203	16957
697.244	16873
697.286	16695
697.323	16437
697.327	16490
697.369	16594
697.411	16764
697.442	16831
697.453	16873
697.494	16764
697.536	16773
697.562	16763
697.578	16946
697.620	17204
697.661	17492
697.682	17539
697.703	17426
697.744	17250
697.786	17069
697.801	16922
697.828	17272
697.869	17779
697.911	18300
697.921	18384
697.952	17776
697.994	16858
698.035	15976
698.040	15828
698.077	16068
698.118	16241
698.160	16429
698.160	16384
698.201	16452
698.243	16435
698.279	16380
698.284	16468
698.325	16878
698.367	17305
698.399	17558
698.408	17542
698.449	17258
698.491	17015
698.518	16764
698.532	16867
698.573	17069
698.614	17302
698.638	17355
698.656	17199
698.697	16758
698.738	16317
698.757	16051
698.779	16397
698.820	16984
698.862	17585
698.877	17752
698.903	17853
698.944	17952
698.985	18042
698.996	18020
699.026	18155
699.067	18273
699.116	18364
699.235	17646
699.354	16035
699.474	16563
699.593	17502
699.713	19262
699.832	17793
699.951	18077
700.070	17802
700.190	16476
700.309	17017
700.428	17441
700.547	17682
700.667	16650
700.786	16555
700.905	16293
701.024	16049
701.143	17710
701.262	15192
701.381	15051
701.500	15789
701.619	15589
701.738	15974
701.857	15273
701.976	15271
702.095	14962
702.214	15290
702.333	16272
702.452	15396
702.571	14576
702.690	14794
702.809	15108
702.928	14620
703.047	14060
703.165	15208
703.284	14788
703.403	14480
703.522	14458
703.640	16263
703.759	15320
703.878	18793
703.997	18493
704.115	14703
704.234	13668
704.353	14087
704.471	13317
704.590	14050
704.708	13049
704.827	13647
704.946	13018
705.064	14494
705.183	14445
705.301	16076
705.420	20607
705.538	24114
705.656	20101
705.775	18680
705.893	23365
706.012	43220
706.130	25917
706.249	19427
706.367	18569
706.485	19683
706.604	19601
706.722	18339
706.840	19208
706.958	20950
707.077	18881
707.195	17720
707.313	17451
707.431	17598
707.549	17215
707.668	16211
707.786	17365
707.904	17188
708.022	16700
708.140	16955
708.258	16698
708.376	16779
708.494	16782
708.612	17533
708.730	20560
708.848	27710
708.966	22958
709.084	21168
709.202	19911
709.320	19772
709.438	21314
709.556	20685
709.674	21085
709.791	21642
709.909	20202
710.027	20559
710.145	20394
710.263	19994
710.380	19662
710.498	20315
710.616	19266
710.733	18900
710.851	19409
710.969	20505
711.086	19446
711.204	19763
711.322	18524
711.439	18842
711.557	19786
711.674	18538
711.792	17688
711.909	19564
712.027	20855
712.144	19508
712.262	18100
712.379	18404
712.497	21920
712.614	29596
712.732	25509
712.849	22962
712.966	22872
713.084	24473
713.201	23839
713.318	24120
713.436	23479
713.553	23305
713.670	22685
713.787	23664
713.905	24658
714.022	22850
714.139	21404
714.256	22402
714.373	21651
714.490	21902
714.608	22122
714.725	27672
714.842	43999
714.959	25009
715.076	19819
715.193	19340
715.310	19204
715.427	19394
715.544	19445
715.661	18666
715.778	18478
715.895	20504
716.011	21283
716.128	20462
716.245	18672
716.362	19217
716.479	20454
716.596	19935
716.713	18383
716.829	19104
716.946	18762
717.063	17884
717.180	18183
717.296	18201
717.413	17624
717.530	17923
717.646	17262
717.763	17147
717.880	16782
717.996	16977
718.113	17548
718.229	16532
718.346	16529
718.462	15365
718.579	16298
718.695	18834
718.812	22423
718.928	20044
719.045	19943
719.161	15933
719.277	14967
719.394	14866
719.510	15048
719.626	15293
719.743	16442
719.859	16903
719.975	15685
720.092	16914
720.208	22584
720.324	20365
720.440	16402
720.557	16177
720.673	18410
720.789	21982
720.905	35545
721.021	43165
721.137	16223
721.253	14769
721.369	15749
721.486	16238
721.602	18432
721.718	17412
721.834	13588
721.950	13669
722.066	14122
722.181	13876
722.297	13469
722.413	14359
722.529	13153
722.645	14044
722.761	13734
722.877	13990
722.993	13089
723.108	13105
723.224	12844
723.340	12948
723.456	12495
723.571	12907
723.687	12604
723.803	12430
723.918	12589
724.034	12673
724.150	12728
724.265	13143
724.381	15541
724.497	30247
724.612	16941
724.728	12340
724.843	11261
724.959	12535
725.074	14822
725.190	27663
725.305	14488
725.421	12667
725.536	10970
725.651	11491
725.767	11765
725.882	11327
725.997	10945
726.113	11811
726.228	10821
726.343	11041
726.459	10039
726.574	10223
726.689	10965
726.804	10344
726.920	11055
727.035	11093
727.150	10695
727.265	10755
727.380	10627
727.495	11422
727.610	9765
727.725	9808
727.841	10630
727.956	14405
728.071	22250
728.186	12419
728.301	9457
728.416	10351
728.531	9887
728.645	9348
728.760	9369
728.875	9970
728.990	9559
729.105	10232
729.220	9223
729.335	9849
729.449	9783
729.564	9528
729.679	8232
729.794	9276
729.908	8969
730.023	10549
730.138	8817
730.253	9207
730.367	8965
730.482	9054
730.596	9107
730.711	9397
730.826	9683
730.940	8473
731.055	8601
731.169	8913
731.284	8215
731.398	8309
731.513	8922
731.627	9093
731.742	8186
731.856	10578
731.970	8280
732.085	8195
732.199	8386
732.313	8073
732.428	8726
732.542	10473
732.656	11076
732.771	7522
732.885	8481
732.999	8075
733.113	8065
733.227	8912
733.342	8274
733.456	7912
733.570	7635
733.684	8102
733.798	8101
733.912	7860
734.026	6916
734.140	7636
734.254	7700
734.368	9842
734.482	16150
734.596	9513
734.710	6619
734.824	8009
734.938	7682
735.052	6959
735.166	8214
735.280	8482
735.393	7937
735.507	7479
735.621	8482
735.735	11831
735.849	12738
735.962	7261
736.076	7350
736.190	7802
736.303	8734
736.417	12107
736.531	9205
736.644	8133
736.758	7027
736.872	6446
736.985	6179
737.099	6493
737.212	6392
737.326	7039
737.439	5774
737.553	7340
737.666	7078
737.780	7818
737.893	6973
738.007	6655
738.120	6251
738.233	6112
738.347	6422
738.460	6765
738.573	6924
738.687	6380
738.800	7388
738.913	7551
739.026	7652
739.140	7491
739.253	7849
739.366	6865
739.479	5391
739.592	5986
739.705	6433
739.818	7264
739.932	5550
740.045	6792
740.158	6892
740.271	6570
740.384	6738
740.497	6371
740.610	6984
740.723	6489
740.836	6392
740.949	6902
741.062	6813
741.174	8290
741.287	5900
741.400	6323
741.513	6229
741.626	7253
741.739	6765
741.851	6943
741.964	5779
742.077	6465
742.189	6299
742.302	7579
742.415	7839
742.527	6903
742.640	6551
742.753	6390
742.865	5613
742.978	5531
743.090	6049
743.203	6069
743.316	5670
743.428	5300
743.541	5699
743.653	5372
743.766	5431
743.878	6560
743.990	7106
744.103	8305
744.215	8139
744.327	8294
744.440	6363
744.552	8032
744.664	6921
744.777	6768
744.889	5405
745.001	5230
745.113	6073
745.226	6071
745.338	6097
745.450	6282
745.562	6486
745.674	6062
745.786	5270
745.898	6209
746.010	6691
746.122	5676
746.234	5902
746.347	6339
746.459	5905
746.570	6544
746.682	7072
746.794	9004
746.906	8583
747.018	6653
747.130	6426
747.242	6229
747.354	6078
747.466	5773
747.577	5810
747.689	5826
747.801	5854
747.913	5679
748.024	5162
748.136	6033
748.248	4943
748.359	6197
748.471	5658
748.583	5742
748.694	6080
748.806	6834
748.918	6362
749.029	6838
749.141	6304
749.252	6059
749.364	5516
749.475	7105
749.587	8285
749.698	6874
749.809	6294
749.921	5679
750.032	6158
750.144	5646
750.255	4754
750.366	5973
750.478	5407
750.589	5679
750.700	5615
750.811	5855
750.923	6494
751.034	7255
751.145	11146
751.256	6976
751.367	5499
751.479	6420
751.590	5671
751.701	6099
751.812	5715
751.923	5333
752.034	5477
752.145	5386
752.256	5402
752.367	5792
752.478	5623
752.589	6172
752.700	6192
752.811	6091
752.922	5380
753.032	5667
753.143	6075
753.254	5170
753.365	6038
753.476	6190
753.586	5854
753.697	5872
753.808	5211
753.919	5396
754.029	5926
754.140	5906
754.251	5680
754.361	6186
754.472	5771
754.582	6081
754.693	5456
754.804	6533
754.914	5984
755.025	4950
755.135	5885
755.246	5896
755.356	5315
755.466	5595
755.577	5437
755.687	6406
755.798	6168
755.908	6669
756.018	5287
756.129	6182
756.239	5718
756.349	6174
756.460	5489
756.570	7173
756.680	5675
756.790	6532
756.900	6974
757.011	5997
757.121	6673
757.231	5960
757.341	6030
757.451	6442
757.561	6237
757.671	6620
757.781	6500
757.891	6768
758.001	6578
758.111	6807
758.221	6884
758.331	7184
758.441	7096
758.551	7198
758.661	7964
758.771	7733
758.880	7840
758.990	7379
759.100	8034
759.210	7999
759.320	7428
759.429	8040
759.539	7676
759.649	8038
759.758	8010
759.868	8073
759.978	8288
760.087	8490
760.197	9321
760.307	9409
760.416	8991
760.526	9635
760.635	8821
760.745	10406
760.854	9316
760.964	9162
761.073	10069
761.182	9591
761.292	10541
761.401	10665
761.511	10962
761.620	10799
761.729	11044
761.839	11530
761.948	12532
762.057	12306
762.166	12457
762.276	11989
762.385	13367
762.494	12230
762.603	13743
762.712	14801
762.822	14904
762.931	15918
763.040	15365
763.149	16061
763.258	16688
763.367	17585
763.476	18524
763.585	18837
763.694	20232
763.803	20666
763.912	22266
764.021	23764
764.130	24578
764.238	26838
764.347	28234
764.456	30210
764.565	31374
764.674	34827
764.783	37360
764.891	41731
765.000	44897
765.109	51590
765.217	58691
765.326	66645
765.435	80187
765.543	94445
765.652	115697
765.761	142748
765.869	187434
765.978	250417
766.086	346500
766.195	488650
766.303	670504
766.412	740100
766.520	542085
766.629	673028
766.737	662415
766.846	491846
766.954	347143
767.062	252663
767.171	192415
767.279	150059
767.387	118443
767.496	97716
767.604	83503
767.712	71418
767.820	63488
767.928	57486
768.037	52569
768.145	50363
768.253	47904
768.361	44474
768.469	45417
768.577	45434
768.685	46756
768.793	48598
768.901	53076
769.009	58242
769.117	67610
769.225	84173
769.333	108352
769.441	151042
769.549	225430
769.657	364440
769.765	578253
769.873	648649
769.981	562027
770.088	575197
770.196	380653
770.304	245559
770.412	167302
770.519	124831
770.627	97801
770.735	78911
770.842	64361
770.950	55648
771.058	49361
771.165	43093
771.273	37611
771.380	35018
771.488	32273
771.595	29783
771.703	26859
771.810	24594
771.918	22720
772.025	21856
772.133	20774
772.240	20249
772.348	17802
772.455	17712
772.562	17081
772.670	15766
772.777	16354
772.884	15904
772.991	14489
773.099	15225
773.206	13211
773.313	13117
773.420	12835
773.528	12152
773.635	11768
773.742	11317
773.849	11155
773.956	11500
774.063	10390
774.170	10373
774.277	10636
774.384	9277
774.491	9747
774.598	10469
774.705	9413
774.812	9876
774.919	10263
775.026	9950
775.133	8227
775.239	8713
775.346	8758
775.453	8601
775.560	8218
775.667	8622
775.773	8883
775.880	9327
775.987	8102
776.093	8580
776.200	7574
776.307	8550
776.413	7046
776.520	7398
776.627	7243
776.733	7287
776.840	6843
776.946	8587
777.053	8035
777.159	12691
777.266	12845
777.372	11347
777.478	12540
777.585	11020
777.691	6931
777.798	7114
777.904	6730
778.010	7634
778.117	7759
778.223	6427
778.329	6063
778.435	5771
778.542	6480
778.648	5990
778.754	5429
778.860	5922
778.966	6402
779.072	5765
779.178	5492
779.284	7206
779.391	6113
779.497	6230
779.603	7663
779.708	9486
779.815	16576
779.920	42387
780.026	155149
780.132	116050
780.238	16203
780.344	8687
780.450	7364
780.556	6443
780.661	5670
780.767	5504
780.873	6418
780.979	5703
781.085	4443
781.190	5560
781.296	4489
781.402	5384
781.507	4087
781.613	5238
781.719	3695
781.824	4994
781.930	4872
782.035	5031
782.141	5031
782.246	4816
782.352	4252
782.457	4684
782.563	4079
782.668	4006
782.773	3713
782.879	5396
782.984	4458
783.090	5688
783.195	4918
783.300	5901
783.405	4116
783.511	4370
783.616	4635
783.721	3311
783.826	4728
783.932	4719
784.037	3830
784.142	3543
784.247	4019
784.352	4500
784.457	3214
784.562	4238
784.667	3858
784.772	4291
784.877	4334
784.982	4248
785.087	3884
785.192	3987
785.297	3369
785.402	3865
785.507	3443
785.611	4001
785.716	3481
785.821	4846
785.926	4151
786.031	2973
786.135	3801
786.240	3722
786.345	3674
786.450	4161
786.554	3223
786.659	3036
786.763	3568
786.868	3537
786.973	4315
787.077	2629
787.182	3075
787.286	3492
787.391	3100
787.495	3661
787.600	3430
787.704	3187
787.809	3343
787.913	3186
788.017	3061
788.122	3843
788.226	3449
788.330	3414
788.435	2788
788.539	4257
788.643	3394
788.747	3462
788.852	2306
788.956	3132
789.060	2552
789.164	3644
789.268	2766
789.372	3117
789.476	3233
789.580	2873
789.684	3158
789.788	3154
789.892	2287
789.996	3471
790.100	2663
790.204	2480
790.308	3297
790.412	3084
790.516	3200
790.620	3857
790.724	3230
790.828	2940
790.931	2815
791.035	3602
791.139	3692
791.242	2080
791.346	3113
791.450	3416
791.554	1989
791.657	2975
791.761	3214
791.864	3729
791.968	3378
792.072	2935
792.175	2351
792.279	3091
792.382	2792
792.486	3193
792.589	2949
792.693	4099
792.796	3141
792.899	3084
793.003	2553
793.106	2694
793.209	2229
793.313	2966
793.416	2319
793.519	3437
793.623	3226
793.726	3572
793.829	3974
793.932	3416
794.035	2591
794.138	3434
794.242	3540
794.345	3951
794.448	6353
794.551	10085
794.654	25630
794.757	87340
794.860	75793
794.963	10467
795.066	4279
795.169	4913
795.272	2319
795.375	3905
795.477	3012
795.580	2591
795.683	1642
795.786	2474
795.889	2111
795.991	3227
796.094	2922
796.197	3226
796.300	2790
796.402	2358
796.505	2729
796.608	2390
796.710	2476
796.813	2411
796.915	1662
797.018	2201
797.120	2553
797.223	1581
797.326	2318
797.428	2206
797.530	1947
797.633	2226
797.735	2644
797.838	3036
797.940	4384
798.042	2508
798.145	2643
798.247	2235
798.349	1843
798.452	2195
798.554	2336
798.656	1412
798.758	2500
798.860	2306
798.962	2389
799.065	2192
799.167	1491
799.269	2473
799.371	2805
799.473	2283
799.575	2320
799.677	2751
799.779	3803
799.881	2076
799.983	3263
800.085	1847
800.187	1775
800.289	1534
800.390	2718
800.492	1803
800.594	2354
800.696	1808
800.798	1430
800.899	2077
801.001	2054
801.103	2432
801.205	2178
801.306	2096
801.408	824
801.509	1874
801.611	1664
801.713	1952
801.814	1418
801.916	1618
802.017	1493
802.119	2132
802.220	1995
802.322	1578
802.423	2166
802.525	2943
802.626	1534
802.727	1510
802.829	1879
802.930	1776
803.031	2400
803.133	1973
803.234	1565
803.335	1812
803.436	1482
803.538	1952
803.639	1063
803.740	2580
803.841	1219
803.942	2274
804.043	2079
804.144	1956
804.245	1692
804.346	1408
804.447	1268
804.548	1809
804.649	2869
804.750	2104
804.851	1871
804.952	2170
805.053	1663
805.154	1322
805.255	2119
805.355	2004
805.456	1190
805.557	2208
805.658	1396
805.758	1761
805.859	2456
805.960	884
806.061	1156
806.161	1295
806.262	2284
806.362	1583
806.463	1435
806.564	1425
806.664	1063
806.765	1871
806.865	2572
806.966	2484
807.066	1637
807.166	1407
807.267	1688
807.367	1855
807.468	2190
807.568	1335
807.668	1195
807.769	2271
807.869	1147
807.969	1465
808.069	1595
808.170	2208
808.270	1720
808.370	1889
808.470	1013
808.570	2171
808.670	1409
808.770	1133
808.870	653
808.970	1612
809.070	1672
809.170	1055
809.271	1971
809.370	1339
809.470	1145
809.570	1594
809.670	1656
809.770	1093
809.870	1733
809.970	1845
810.070	1615
810.169	2208
810.269	-241
810.369	1903
810.469	916
810.568	1170
810.668	592
810.768	1669
810.867	1903
810.967	2036
811.066	1461
811.166	1997
811.265	1942
811.365	1242
811.464	1164
811.564	1551
811.663	2153
811.763	1933
811.862	2762
811.962	1128
812.061	1250
812.160	1599
812.260	2399
812.359	1909
812.458	1617
812.557	3406
812.657	7011
812.756	6053
812.855	2456
812.954	1495
813.053	1800
813.153	2372
813.252	1231
813.351	1694
813.450	1211
813.549	2125
813.648	1412
813.747	1829
813.846	1422
813.945	1071
814.044	1962
814.143	1627
814.242	1434
814.341	1251
814.439	1944
814.538	2641
814.637	1147
814.736	1989
814.835	1991
814.933	1722
815.032	2701
815.131	2566
815.229	1728
815.328	2432
815.427	2501
815.525	3530
815.624	2292
815.722	2000
815.821	2813
815.919	2316
816.018	2412
816.116	3015
816.215	2128
816.313	4037
816.412	3284
816.510	3955
816.609	4740
816.707	4185
816.805	3915
816.904	3895
817.002	5075
817.100	4863
817.198	6615
817.296	6301
817.395	7133
817.493	8793
817.591	9630
817.689	12206
817.787	17811
817.885	25127
817.983	38490
818.081	69224
818.179	137159
818.277	285200
818.375	438211
818.473	288213
818.571	129426
818.669	68099
818.767	50918
818.865	43561
818.963	45031
819.061	54495
819.158	77457
819.256	128232
819.354	233845
819.452	427724
819.549	489067
819.647	329698
819.745	172692
819.842	95627
819.940	60685
820.038	42779
820.135	32373
820.233	25089
820.330	18761
820.428	15604
820.525	14172
820.623	11802
820.720	10535
820.818	9536
820.915	8218
821.012	7723
821.110	6291
821.207	6449
821.304	6147
821.402	4717
821.499	5497
821.596	7075
821.693	6732
821.791	5083
821.888	4297
821.985	4620
822.082	5990
822.179	4627
822.276	3979
822.373	3790
822.470	2513
822.567	2565
822.664	2116
822.761	3205
822.858	1836
822.955	2576
823.052	2559
823.149	2534
823.246	1742
823.343	2029
823.440	2163
823.536	1020
823.633	1979
823.730	1864
823.827	2686
823.923	1516
824.020	2441
824.117	2408
824.213	1346
824.310	2354
824.407	1972
824.503	1616
824.600	2143
824.696	1542
824.793	2275
824.889	1472
824.986	898
825.082	1418
825.179	1849
825.275	1102
825.371	897
825.468	2258
825.564	1178
825.660	1042
825.757	703
825.853	1477
825.949	231
826.045	1381
826.142	212
826.238	936
826.334	1173
826.430	1009
826.526	625
826.622	1228
826.718	1194
826.814	1960
826.910	1664
827.006	1261
827.102	583
827.198	1669
827.294	938
827.390	904
827.486	832
827.582	771
827.678	221
827.774	1583
827.869	222
827.965	1827
828.061	1148
828.157	678
828.252	1718
828.348	655
828.444	583
828.539	1175
828.635	-328
828.731	1591
828.826	168
828.922	1261
829.017	689
829.113	1355
829.208	268
829.304	795
829.399	958
829.495	1223
829.590	1046
829.685	673
829.781	944
829.876	1025
829.971	670
830.066	346
830.162	192
830.257	1150
830.352	604
830.447	1085
830.543	642
830.638	757
830.733	1186
830.828	626
830.923	806
831.018	1385
831.113	97
831.208	803
831.303	520
831.398	332
831.493	808
831.588	1139
831.683	266
831.778	1019
831.873	516
831.967	913
832.062	208
832.157	928
832.252	992
832.346	906
832.441	181
832.536	1227
832.631	2017
832.725	2713
832.820	1172
832.914	606
833.009	304
833.104	599
833.198	714
833.293	1049
833.387	344
833.482	733
833.576	40
833.670	895
833.765	815
833.859	217
833.954	344
834.048	1079
834.142	-130
834.237	1116
834.331	378
834.425	404
834.519	296
834.613	549
834.708	406
834.802	386
834.896	108
834.990	-85
835.084	832
835.178	249
835.272	75
835.366	183
835.460	420
835.554	717
835.648	-104
835.742	945
835.836	25
835.930	389
836.024	516
836.117	998
836.211	262
836.305	1128
836.399	1640
836.493	1520
836.586	115
836.680	545
836.774	313
836.867	1050
836.961	146
837.055	425
837.148	1081
837.242	489
837.335	-185
837.429	545
837.522	254
837.616	400
837.709	1206
837.803	2233
837.896	1079
837.989	1241
838.083	1316
838.176	2179
838.269	3608
838.363	1730
838.456	-293
838.549	954
838.642	486
838.735	2249
838.829	3546
838.922	873
839.015	1442
839.108	726
839.201	1160
839.294	1289
839.387	131
839.480	1154
839.573	1062
839.666	2071
839.759	1010
839.852	-221
839.945	56
840.038	127
840.131	300
840.223	174
840.316	740
840.409	1032
840.502	441
840.594	582
840.687	67
840.780	1310
840.873	459
840.965	-55
841.058	392
841.150	2074
841.243	2178
841.336	1879
841.428	-450
841.521	506
841.613	418
841.706	1162
841.798	315
841.890	623
841.983	8
842.075	787
842.167	364
842.260	326
842.352	882
842.444	1672
842.537	1566
842.629	4240
842.721	3610
842.813	113
842.905	-748
842.997	348
843.090	-245
843.182	1161
843.274	1916
843.366	5751
843.458	11083
843.550	14606
843.642	5030
843.734	1336
843.826	1160
843.918	1659
844.009	1033
844.101	760
844.193	-104
844.285	80
844.377	900
844.469	978
844.560	1739
844.652	2380
844.744	1351
844.835	969
844.927	505
845.019	1048
845.110	679
845.202	299
845.293	315
845.385	440
845.476	5
845.568	1080
845.659	274
845.751	729
845.842	505
845.934	863
846.025	-114
846.116	1196
846.208	70
846.299	293
846.390	263
846.482	1196
846.573	180
846.664	1154
846.755	1438
846.846	1582
846.937	980
847.029	185
847.120	-343
847.211	64
847.302	706
847.393	-137
847.484	295
847.575	509
847.666	843
847.757	470
847.847	404
847.938	1285
848.029	-106
848.120	-61
848.211	426
848.302	363
848.392	722
848.483	622
848.574	126
848.664	721
848.755	825
848.846	1008
848.936	93
849.027	753
849.118	-256
849.208	788
849.299	484
849.389	354
849.480	12
849.570	343
849.661	1177
849.751	691
849.841	884
849.932	1416
850.022	149
850.112	581
850.203	346
850.293	145
850.383	-280
850.474	482
850.564	414
850.654	1125
850.744	238
850.834	-190
850.924	297
851.014	802
851.104	143
851.194	277
851.284	190
851.374	1438
851.464	101
851.554	1133
851.644	-242
851.734	1641
851.824	1326
851.914	1051
852.004	3001
852.094	5511
852.183	3191
852.273	430
852.363	730
852.452	246
852.542	516
852.632	353
852.721	55
852.811	412
852.901	-345
852.990	444
853.080	374
853.169	-176
853.259	33
853.348	57
853.438	-561
853.527	907
853.617	171
853.706	652
853.795	88
853.885	1011
853.974	1755
854.063	3045
854.152	4277
854.242	4445
854.331	126
854.420	-217
854.509	723
854.598	35
854.687	466
854.777	376
854.866	-175
854.955	-169
855.044	513
855.133	195
855.222	568
855.311	135
855.400	146
855.488	326
855.577	-301
855.666	667
855.755	992
855.844	190
855.933	1304
856.021	1307
856.110	665
856.199	4
856.288	-122
856.376	-226
856.465	-119
856.554	489
856.642	406
856.731	-179
856.819	347
856.908	175
856.996	598
857.085	150
857.173	-12
857.262	-164
857.350	174
857.438	-132
857.527	767
857.615	557
857.703	-383
857.792	39
857.880	-340
857.968	-607
858.056	-26
858.145	172
858.233	-416
858.321	-525
858.409	10
858.497	345
858.585	-471
858.673	-160
858.761	-299
858.849	-139
858.937	222
859.025	499
859.113	-204
859.201	142
859.289	235
859.377	838
859.465	440
859.552	585
859.640	-536
859.728	158
859.816	-44
859.903	554
859.991	-776
860.079	824
860.166	154
860.254	553
860.342	-595
860.429	49
860.517	-17
860.604	56
860.692	819
860.779	-352
860.867	-35
860.954	280
861.042	-230
861.129	770
861.216	217
861.304	-308
861.391	-65
861.478	-302
861.565	389
861.653	496
861.740	6
861.827	394
861.914	-335
862.001	-54
862.089	479
862.176	-87
862.263	-588
862.350	33
862.437	-583
862.524	-717
862.611	-107
862.698	1017
862.785	644
862.871	1237
862.958	-223
863.045	53
863.132	200
863.219	-522
863.306	-162
863.392	487
863.479	268
863.566	295
863.652	511
863.739	-41
863.826	-622
863.912	450
863.999	-722
864.086	282
864.172	453
864.259	-214
864.345	-515
864.432	-39
864.518	555
864.604	-494
864.691	-16
864.777	1006
864.863	-259
864.950	189
865.036	512
865.122	17
865.209	116
865.295	-279
865.381	-869
865.467	267
865.553	-479
865.639	303
865.726	622
865.812	947
865.898	550
865.984	1360
866.070	1762
866.156	4076
866.242	1428
866.328	418
866.414	346
866.499	-359
866.585	-234
866.671	-153
866.757	-770
866.843	597
866.928	-483
867.014	-630
867.100	-934
867.186	259
867.271	-353
867.357	425
867.442	543
867.528	1222
867.614	1164
867.699	718
867.785	974
867.870	1570
867.956	2402
868.041	2286
868.127	1219
868.212	918
868.297	1807
868.383	663
868.468	-249
868.553	1627
868.639	1204
868.724	2065
868.809	4489
868.894	1696
868.979	82
869.065	166
869.150	66
869.235	-667
869.320	-277
869.405	-725
869.490	436
869.575	-3
869.660	-131
869.745	-594
869.830	-793
869.915	-512
870.000	306
870.085	-152
870.169	564
870.254	918
870.339	200
870.424	-222
870.509	-174
870.593	-236
870.678	-233
870.763	-340
870.847	422
870.932	-543
871.016	599
871.101	-369
871.186	-598
871.270	91
871.355	-956
871.439	266
871.523	-305
871.608	-160
871.692	-509
871.777	263
871.861	173
871.945	-533
872.030	295
872.114	-274
872.198	-437
872.282	-260
872.367	-809
872.451	-802
872.535	-570
872.619	222
872.703	-1053
872.787	-242
872.871	176
872.955	-515
873.039	-716
873.123	-884
873.207	-288
873.291	-712
873.375	-69
873.459	146
873.543	-112
873.627	-292
873.711	-914
873.794	-314
873.878	335
873.962	-257
874.045	15
874.129	-539
874.137	-536
874.213	-506
874.245	-576
874.296	-689
874.352	-273
874.380	-74
874.460	-66
874.464	-66
874.547	-916
874.568	-815
874.631	-529
874.676	-575
874.714	-612
874.784	-176
874.798	-90
874.881	-277
874.892	-283
874.965	-300
874.999	-374
875.048	-529
875.107	-457
875.131	-400
875.215	-427
875.215	-426
875.298	-137
875.323	-121
875.381	-72
875.430	151
875.465	346
875.538	12
875.548	-52
875.631	737
875.646	515
875.714	-575
875.753	-504
875.798	-302
875.861	158
875.881	268
875.964	-49
875.968	-41
876.047	92
876.076	185
876.130	383
876.183	133
876.213	2
876.291	470
876.296	500
876.379	-372
876.398	-190
876.462	425
876.506	195
876.545	-68
876.613	-73
876.628	-40
876.711	-148
876.721	-109
876.794	124
876.828	-15
876.877	-203
876.935	94
876.960	175
877.043	476
877.043	474
877.125	330
877.150	279
877.208	132
877.258	457
877.291	579
877.365	422
877.374	446
877.456	429
877.472	474
877.539	453
877.579	471
877.622	499
877.687	182
877.704	130
877.787	79
877.794	108
877.869	166
877.901	274
877.952	505
878.008	74
878.034	-113
878.115	-94
878.117	-89
878.199	52
878.222	284
878.282	781
878.329	725
878.364	715
878.437	530
878.447	491
878.529	-217
878.544	-100
878.611	540
878.651	260
878.694	14
878.758	524
878.776	635
878.858	219
878.865	250
878.941	496
878.972	520
879.023	711
879.078	680
879.105	718
879.185	1028
879.187	1027
879.269	618
879.292	404
879.351	83
879.399	166
879.433	193
879.506	515
879.516	552
879.598	303
879.613	240
879.680	-2
879.720	60
879.762	193
879.827	-198
879.844	-321
879.926	873
879.933	796
880.007	247
880.040	484
880.089	607
880.147	152
880.171	46
880.253	477
880.254	478
880.335	1005
880.360	1238
880.417	2060
880.467	2345
880.499	2573
880.574	3962
880.580	3988
880.662	2312
880.680	1893
880.744	685
880.787	468
880.825	350
880.893	155
880.907	125
880.989	89
881.000	90
881.070	582
881.106	579
881.152	180
881.213	293
881.233	427
881.315	430
881.319	421
881.396	289
881.426	373
881.478	367
881.532	387
881.559	542
881.639	362
881.641	356
881.722	375
881.745	414
881.803	545
881.852	493
881.885	436
881.958	669
881.966	684
882.047	690
882.064	662
882.129	839
882.171	914
882.210	824
882.277	741
882.291	795
882.372	1289
882.383	1212
882.454	506
882.489	568
882.535	424
882.596	302
882.616	421
882.697	488
882.702	482
882.778	120
882.808	119
882.859	446
882.914	745
882.940	596
883.020	106
883.021	111
883.102	202
883.127	336
883.183	556
883.233	673
883.264	666
883.339	438
883.345	440
883.426	846
883.445	859
883.507	711
883.551	708
883.587	837
883.657	839
883.668	791
883.749	789
883.763	752
883.830	791
883.869	761
883.910	686
883.975	590
883.991	564
884.072	712
884.081	673
884.152	639
884.187	639
884.233	691
884.292	859
884.314	826
884.394	791
884.398	776
884.475	596
884.504	568
884.555	763
884.610	822
884.636	625
884.716	305
884.716	309
884.797	30
884.821	31
884.877	278
884.927	587
884.958	669
885.033	461
885.038	444
885.118	549
885.139	496
885.199	940
885.244	1262
885.279	1207
885.350	1028
885.359	990
885.439	873
885.456	786
885.520	357
885.561	151
885.600	550
885.667	1358
885.680	1357
885.760	1117
885.773	1073
885.840	813
885.878	716
885.920	1006
885.984	1262
886.000	1175
886.080	885
886.089	848
886.160	745
886.195	702
886.240	742
886.300	627
886.320	633
886.400	1204
886.406	1200
886.480	977
886.511	960
886.560	807
886.616	533
886.640	734
886.720	1747
886.722	1760
886.800	1220
886.827	1066
886.879	1088
886.932	955
886.959	968
887.038	1099
887.039	1109
887.119	1400
887.143	1479
887.198	1204
887.248	900
887.278	1049
887.354	1516
887.358	1512
887.437	1221
887.459	1134
887.517	1146
887.564	1140
887.596	1145
887.669	1175
887.676	1161
887.755	906
887.774	854
887.835	871
887.880	833
887.914	961
887.985	1192
887.994	1159
888.073	890
888.090	808
888.153	917
888.195	1085
888.232	1078
888.300	906
888.311	971
888.391	1421
888.405	1522
888.470	1528
888.510	1414
888.549	1506
888.615	1834
888.628	1833
888.708	1665
888.720	1641
888.787	1698
888.825	1683
888.866	1424
888.930	1068
888.945	1214
889.024	1920
889.035	2015
889.103	1098
889.140	585
889.182	1021
889.245	1689
889.261	1561
889.340	903
889.349	827
889.419	1358
889.454	1621
889.498	1522
889.559	1381
889.577	1360
889.656	1254
889.664	1243
889.735	1012
889.768	896
889.814	1000
889.873	1137
889.978	577
890.083	1810
890.187	1723
890.292	1688
890.397	1479
890.501	1065
890.606	1000
890.710	1917
890.815	1941
890.919	1069
891.024	1370
891.128	1690
891.233	1135
891.337	2060
891.442	1973
891.546	1302
891.650	1521
891.755	1237
891.859	2197
891.963	1214
892.068	1865
892.172	2832
892.276	1234
892.380	1122
892.484	1068
892.589	984
892.693	1483
892.797	1803
892.901	400
893.005	1629
893.109	1072
893.213	534
893.317	947
893.421	1566
893.525	1554
893.629	397
893.733	1531
893.837	1112
893.941	1471
894.045	1957
894.148	2223
894.252	3780
894.356	5068
894.460	1276
894.564	898
894.667	1682
894.771	982
894.875	1289
894.978	1119
895.082	1626
895.186	1376
895.289	1695
895.393	883
895.496	2127
895.600	1202
895.703	603
895.807	1046
895.910	1197
896.014	1187
896.117	1611
896.221	1336
896.324	1677
896.427	195
896.531	524
896.634	733
896.737	1172
896.840	1036
896.944	1215
897.047	846
897.150	716
897.253	1413
897.356	1079
897.460	1229
897.563	969
897.666	1441
897.769	1352
897.872	877
897.975	901
898.078	-27
898.181	1240
898.284	732
898.387	996
898.490	821
898.593	313
898.695	662
898.798	1257
898.901	938
899.004	718
899.107	830
899.209	1541
899.312	510
899.415	1017
899.518	866
899.620	836
899.723	1103
899.826	801
899.928	2138
900.031	1410
900.133	208
900.236	945
900.338	833
900.441	828
900.543	279
900.646	1710
900.748	1999
900.851	194
900.953	682
901.055	1427
901.158	797
901.260	889
901.362	1325
901.465	1722
901.567	800
901.669	776
901.771	561
901.873	1131
901.976	740
902.078	852
902.180	428
902.282	800
902.384	309
902.486	616
902.588	947
902.690	1717
902.792	896
902.894	1670
902.996	1237
903.098	1478
903.200	440
903.302	1823
903.404	765
903.505	814
903.607	124
903.709	1122
903.811	779
903.913	1054
904.014	1117
904.116	692
904.218	632
904.319	1542
904.421	1207
904.523	1257
904.624	2303
904.726	641
904.827	801
904.929	2043
905.030	1866
905.132	1156
905.233	1838
905.335	215
905.436	568
905.537	643
905.639	1375
905.740	1087
905.841	1617
905.943	1054
906.044	1281
906.145	1879
906.247	1299
906.348	1448
906.449	562
906.550	1000
906.651	911
906.752	1306
906.854	541
906.955	759
907.056	1670
907.157	785
907.258	237
907.359	884
907.460	1087
907.561	1220
907.662	666
907.762	1464
907.863	134
907.964	1038
908.065	1270
908.166	898
908.267	1388
908.367	1011
908.468	1329
908.569	1254
908.670	657
908.770	1782
908.871	675
908.971	965
909.072	1089
909.173	875
909.273	628
909.374	1033
909.474	36
909.575	1759
909.675	708
909.776	684
909.876	644
909.977	690
910.077	542
910.177	1075
910.278	360
910.378	441
910.478	368
910.579	1458
910.679	881
910.779	1431
910.879	1202
910.980	1182
911.080	833
911.180	1191
911.280	961
911.380	1003
911.480	1099
911.580	733
911.680	1247
911.780	780
911.880	855
911.980	983
912.080	395
912.180	525
912.280	454
912.380	422
912.480	596
912.580	1674
912.679	281
912.779	1279
912.879	540
912.979	618
913.078	770
913.178	724
913.278	1674
913.377	426
913.477	731
913.577	91
913.676	1334
913.776	807
913.875	1318
913.975	822
914.074	1578
914.174	1051
914.273	919
914.373	1029
914.472	413
914.572	1078
914.671	863
914.770	501
914.870	659
914.969	550
915.068	212
915.167	1014
915.267	1495
915.366	663
915.465	1016
915.564	855
915.663	507
915.763	266
915.862	446
915.961	1151
916.060	789
916.159	623
916.258	613
916.357	1180
916.456	1157
916.555	358
916.654	620
916.752	616
916.851	1006
916.950	863
917.049	899
917.148	912
917.247	735
917.345	434
917.444	795
917.543	1820
917.642	1824
917.740	569
917.839	1298
917.937	721
918.036	987
918.135	1145
918.233	267
918.332	1090
918.430	1072
918.529	302
918.627	960
918.726	308
918.824	1064
918.923	934
919.021	822
919.119	1406
919.218	1231
919.316	1063
919.414	1164
919.512	1926
919.611	1119
919.709	340
919.807	514
919.905	933
920.003	1084
920.102	1620
920.200	1156
920.298	1854
920.396	910
920.494	1652
920.592	785
920.690	230
920.788	938
920.886	1229
920.984	1238
921.082	1317
921.180	1538
921.277	957
921.375	333
921.473	830
921.571	468
921.669	1084
921.766	1266
921.864	805
921.962	668
922.060	1361
922.157	1266
922.255	695
922.352	997
922.450	1233
922.548	746
922.645	521
922.743	773
922.840	139
922.938	724
923.035	1327
923.133	1578
923.230	1076
923.327	711
923.425	1262
923.522	1756
923.619	1317
923.717	611
923.814	602
923.911	562
924.008	1382
924.106	986
924.203	1750
924.300	979
924.397	644
924.494	98
924.591	1442
924.688	769
924.786	465
924.883	368
924.979	500
925.077	715
925.173	1287
925.270	1633
925.367	1207
925.464	1334
925.561	1849
925.658	950
925.755	561
925.852	1197
925.948	1563
926.045	1437
926.142	1326
926.239	1604
926.335	1665
926.432	1411
926.529	2049
926.625	2202
926.722	1460
926.818	1171
926.915	996
927.011	1052
927.108	1460
927.204	1302
927.301	1072
927.397	857
927.494	673
927.590	725
927.687	1131
927.783	555
927.879	450
927.976	472
928.072	834
928.168	978
928.264	1002
928.361	873
928.457	765
928.553	1077
928.649	1610
928.745	495
928.841	584
928.937	-120
929.033	817
929.129	1154
929.225	-66
929.321	318
929.417	415
929.513	407
929.609	1022
929.705	491
929.801	351
929.897	70
929.993	478
930.089	401
930.184	572
930.280	812
930.376	633
930.471	135
930.567	968
930.663	603
930.758	1010
930.854	1126
930.950	220
931.045	368
931.141	651
931.236	1354
931.332	965
931.427	649
931.523	224
931.618	649
931.714	801
931.809	492
931.905	441
932.000	906
932.095	1624
932.191	-438
932.286	1025
932.381	396
932.476	899
932.572	441
932.667	807
932.762	338
932.857	444
932.952	404
933.047	1426
933.142	-88
933.237	942
933.332	-106
933.427	820
933.522	730
933.617	569
933.712	640
933.807	705
933.902	-258
933.997	1095
934.092	1603
934.187	357
934.282	423
934.376	306
934.471	1350
934.566	902
934.661	1136
934.755	1108
934.850	419
934.945	498
935.039	-203
935.134	593
935.228	448
935.323	937
935.417	780
935.512	787
935.606	688
935.701	1104
935.795	256
935.890	444
935.984	25
936.079	-98
936.173	1274
936.267	848
936.362	452
936.456	860
936.550	435
936.644	380
936.738	604
936.833	707
936.927	1147
937.021	1247
937.115	-265
937.209	-31
937.303	1086
937.397	89
937.491	111
937.585	764
937.679	1063
937.773	1205
937.867	261
937.961	629
938.055	513
938.149	1471
938.243	644
938.337	1452
938.430	1050
938.524	783
938.618	1637
938.712	2973
938.805	866
938.899	613
938.993	51
939.086	1532
939.180	1352
939.274	3507
939.367	2007
939.461	1659
939.554	1416
939.648	753
939.741	-94
939.835	1067
939.928	305
940.022	1057
940.115	1216
940.208	819
940.302	1081
940.395	834
940.488	7
940.582	1214
940.675	869
940.768	1772
940.861	887
940.954	541
941.048	448
941.141	923
941.234	1031
941.327	781
941.420	1129
941.513	1378
941.606	89
941.699	1143
941.792	1195
941.885	938
941.978	190
942.071	224
942.164	927
942.257	1443
942.349	228
942.442	671
942.535	980
942.628	726
942.721	515
942.813	-20
942.906	1069
942.999	685
943.091	788
943.184	-43
943.277	358
943.369	1192
943.462	878
943.554	56
943.647	496
943.739	671
943.832	521
943.924	420
944.017	919
944.109	214
944.201	815
944.294	746
944.386	512
944.478	783
944.571	509
944.663	1453
944.755	1344
944.847	1469
944.940	1127
945.032	1381
945.124	354
945.216	401
945.308	1101
945.400	643
945.492	805
945.584	833
945.676	132
945.768	810
945.860	773
945.952	125
946.044	1792
946.136	746
946.228	563
946.320	788
946.412	260
946.503	623
946.595	1975
946.687	600
946.779	917
946.870	891
946.962	998
947.054	782
947.145	1233
947.237	257
947.329	1366
947.420	360
947.512	970
947.603	795
947.695	843
947.786	372
947.878	386
947.969	1568
948.061	672
948.152	1002
948.243	418
948.335	1027
948.426	-340
948.517	671
948.609	641
948.700	1271
948.791	1154
948.882	1035
948.973	838
949.065	546
949.156	492
949.247	1162
949.338	984
949.429	876
949.520	663
949.611	928
949.702	339
949.793	1107
949.884	1529
949.975	330
950.066	44
950.157	903
950.247	716
950.338	178
950.429	518
950.520	1232
950.611	408
950.701	1316
950.792	845
950.883	1347
950.973	1459
951.064	1529
951.155	665
951.245	955
951.336	414
951.427	833
951.517	1333
951.608	1293
951.698	549
951.788	195
951.879	977
951.969	688
952.060	1661
952.150	997
952.240	1180
952.331	-201
952.421	1197
952.511	671
952.602	1028
952.692	819
952.782	857
952.872	764
952.962	649
953.052	891
953.143	756
953.233	697
953.323	875
953.413	875
953.503	1118
953.593	2276
953.683	588
953.773	731
953.863	1426
953.953	1322
954.042	68
954.132	711
954.222	1160
954.312	241
954.402	732
954.492	698
954.581	1297
954.671	2201
954.761	1366
954.850	1795
954.940	1034
955.030	1449
955.119	1606
955.209	1139
955.298	978
955.388	1106
955.477	727
955.567	1002
955.656	941
955.746	1332
955.835	920
955.925	1209
956.014	901
956.103	972
956.193	936
956.282	1442
956.371	1479
956.461	1031
956.550	666
956.639	1068
956.728	180
956.817	541
956.906	409
956.995	1282
957.085	779
957.174	1986
957.263	795
957.352	1027
957.441	464
957.530	1245
957.619	785
957.708	1252
957.796	992
957.885	1029
957.974	1481
958.063	1947
958.152	893
958.241	1526
958.329	1491
958.418	1290
958.507	1420
958.596	1694
958.684	1417
958.773	1358
958.861	1113
958.950	1469
959.039	1954
959.127	1654
959.216	2759
959.304	1869
959.393	1620
959.481	1847
959.570	1728
959.658	1905
959.746	1295
959.835	2463
959.923	3005
960.011	2786
960.100	1976
960.188	1456
960.276	764
960.365	722
960.453	1594
960.541	1322
960.629	1045
960.717	1859
960.805	1355
960.893	1407
960.981	834
961.069	2076
961.158	930
961.245	1050
961.333	916
961.421	965
961.509	1795
961.597	720
961.685	1202
961.773	222
961.861	846
961.949	930
962.036	597
962.124	1250
962.212	710
962.299	815
962.387	340
962.475	1209
962.562	469
962.650	810
962.738	847
962.825	1117
962.913	973
963.000	594
963.088	911
963.175	167
963.263	1182
963.350	744
963.438	275
963.525	929
963.612	2081
963.700	2658
963.787	7036
963.874	8689
963.962	2129
964.049	473
964.136	300
964.223	1207
964.310	168
964.398	1062
964.485	678
964.572	245
964.659	1552
964.746	3105
964.833	813
964.920	960
965.007	1176
965.094	633
965.181	192
965.268	1282
965.355	1014
965.441	698
965.528	659
965.615	716
965.702	1019
965.789	1625
965.875	823
965.962	772
966.049	335
966.136	661
966.222	1233
966.309	73
966.395	115
966.482	570
966.569	408
966.655	266
966.742	890
966.828	219
966.915	5
967.001	1129
967.087	478
967.174	631
967.260	715
967.347	1085
967.433	1733
967.519	5509
967.605	4379
967.692	557
967.778	567
967.864	1278
967.950	356
968.036	931
968.123	781
968.209	429
968.295	-496
968.381	632
968.467	1319
968.553	802
968.639	604
968.725	536
968.811	1553
968.897	1390
968.983	-43
969.069	965
969.154	456
969.240	478
969.326	-172
969.412	443
969.497	18
969.583	681
969.669	742
969.755	1500
969.840	63
969.926	-81
970.012	-121
970.097	638
970.183	863
970.268	318
970.354	664
970.439	1925
970.525	3228
970.610	3670
970.696	735
970.781	237
970.866	-713
970.952	373
971.037	902
971.122	278
971.208	1133
971.293	634
971.378	-24
971.463	-70
971.549	775
971.634	279
971.719	428
971.804	810
971.889	1641
971.974	554
972.059	-320
972.144	966
972.229	-546
972.314	-117
972.399	140
972.484	283
972.569	248
972.654	-10
972.739	1617
972.824	1915
972.908	1373
972.993	1140
973.078	404
973.163	229
973.247	550
973.332	-386
973.417	901
973.501	404
973.586	476
973.671	578
973.755	-162
973.840	823
973.924	132
974.009	356
974.093	116
974.178	1658
974.262	414
974.346	2122
974.431	1717
974.515	427
974.600	-220
974.684	542
974.768	229
974.852	956
974.937	765
975.021	629
975.105	-164
975.189	323
975.273	580
975.358	405
975.442	466
975.526	-294
975.610	-350
975.694	-316
975.778	238
975.862	933
975.946	-981
976.030	1177
976.114	198
976.198	655
976.281	-275
976.365	494
976.449	-520
976.533	290
976.617	146
976.700	329
976.784	585
976.868	925
976.951	186
977.035	1229
977.119	187
977.202	-228
977.286	477
977.369	1
977.453	-447
977.536	-21
977.620	-506
977.703	588
977.787	-661
977.870	660
977.953	279
978.037	-219
978.120	1574
978.203	391
978.287	1705
978.370	2094
978.453	398
978.536	1094
978.620	483
978.703	1512
978.786	733
978.869	175
978.952	-160
979.035	359
979.118	322
979.201	83
979.284	731
979.367	-393
979.450	165
979.533	242
979.616	486
979.699	-7
979.782	215
979.865	121
979.948	248
980.030	-273
980.113	-108
980.196	185
980.279	-199
980.361	-290
980.444	-377
980.526	477
980.609	323
980.692	81
980.774	-588
980.857	-539
980.939	365
981.022	-254
981.104	-374
981.187	-310
981.269	66
981.352	-930
981.434	-367
981.516	533
981.599	827
981.681	598
981.763	77
981.846	541
981.928	-99
982.010	128
982.092	-172
982.174	517
982.256	238
982.339	739
982.421	-747
982.503	-129
982.585	379
982.667	-321
982.749	-32
982.831	-179
982.913	-73
982.995	976
983.077	548
983.158	549
983.240	419
983.322	844
983.404	713
983.486	-486
983.568	-222
983.649	753
983.731	547
983.813	-520
983.894	-5
983.976	-203
984.058	-268
984.139	1008
984.221	-198
984.302	1320
984.384	114
984.465	-207
984.547	309
984.628	547
984.710	456
984.791	-169
984.872	-237
984.954	-813
985.035	495
985.116	-421
985.198	-318
985.279	374
985.360	-528
985.441	169
985.522	-131
985.604	-265
985.685	-786
985.766	1243
985.847	704
985.928	-192
986.009	-295
986.090	-9
986.171	564
986.252	134
986.333	1329
986.414	96
986.495	335
986.576	-13
986.656	594
986.737	-282
986.818	-74
986.899	67
986.980	-175
987.060	284
987.141	-123
987.222	464
987.302	-447
987.383	370
987.464	-367
987.544	165
987.625	693
987.705	475
987.786	-182
987.866	522
987.947	-124
988.027	178
988.108	-218
988.188	-181
988.268	-13
988.349	775
988.429	40
988.509	766
988.589	-239
988.670	-682
988.750	147
988.830	-427
988.910	176
988.990	366
989.070	-171
989.151	184
989.231	311
989.311	703
989.391	-71
989.471	-307
989.551	487
989.631	30
989.711	565
989.791	-323
989.870	-124
989.950	722
990.030	139
990.110	870
990.190	123
990.269	-378
990.349	596
990.429	769
990.509	295
990.588	-275
990.668	-158
990.747	-244
990.827	228
990.907	611
990.986	-859
991.066	-55
991.145	-175
991.225	-301
991.304	-36
991.383	348
991.463	-154
991.542	761
991.622	-452
991.701	-396
991.780	432
991.859	171
991.939	-509
992.018	-1148
992.097	-96
992.176	111
992.256	-217
992.335	546
992.414	1019
992.493	-668
992.572	-509
992.651	88
992.730	97
992.809	528
992.888	-726
992.967	249
993.046	437
993.125	-406
993.203	-245
993.282	868
993.361	-214
993.440	-215
993.519	-211
993.597	692
993.676	-203
993.755	109
993.834	-63
993.912	83
993.991	-49
994.069	283
994.148	-498
994.226	-1184
994.305	-133
994.384	644
994.462	975
994.540	-158
994.619	-88
994.697	-381
994.776	293
994.854	-25
994.932	-288
995.011	-142
995.089	268
995.167	-297
995.245	-295
995.324	-437
995.402	-566
995.480	-595
995.558	-101
995.636	195
995.714	-672
995.792	433
995.870	-319
995.948	-78
996.026	-162
996.104	-347
996.182	-61
996.260	34
996.338	-226
996.416	-777
996.494	-151
996.572	-138
996.649	565
996.727	112
996.805	491
996.883	-192
996.960	-669
997.038	-552
997.116	105
997.193	117
997.271	1340
997.348	-302
997.426	845
997.504	-547
997.581	-452
997.658	-43
997.736	-101
997.813	-247
997.891	-79
997.968	-365
998.046	-269
998.123	-655
998.200	483
998.277	-997
998.355	676
998.432	26
998.509	181
998.586	874
998.663	-595
998.741	612
998.818	-345
998.895	845
998.972	-556
999.049	160
999.126	-260
999.203	-134
999.280	-456
999.357	-201
999.434	-578
999.511	40
999.587	-528
999.664	-789
999.741	-66
999.818	21
999.895	-134
999.971	-61
1000.048	-469
1000.125	-192
1000.202	-406
1000.278	-517
1000.355	373
1000.431	-276
1000.508	-1033
1000.584	301
1000.661	-318
1000.738	-504
1000.814	23
1000.890	101
1000.967	-242
1001.043	354
1001.120	-636
1001.196	-803
1001.272	-365
1001.349	-2
1001.425	-744
1001.501	64
1001.577	-295
1001.654	-676
1001.730	-306
1001.806	-815
1001.882	-1153
1001.958	31
1002.034	-795
1002.110	133
1002.186	-1116
1002.262	-193
1002.338	-418
1002.414	72
1002.490	-28
1002.566	-654
1002.642	-956
1002.718	18
1002.794	-483
1002.870	-484
1002.945	-833
1003.021	-437
1003.097	-871
1003.173	-200
1003.248	-749
1003.324	-673
1003.400	78
1003.475	-127
1003.551	-573
1003.626	-506
1003.702	-1340
1003.777	-813
1003.853	-75
1003.928	-407
1004.004	-831
1004.079	7
1004.155	-729
1004.230	-615
1004.305	-442
1004.381	-945
1004.456	-1051
1004.531	-223
1004.607	-577
1004.682	-423
1004.757	-315
1004.832	142
1004.907	-794
1004.982	-497
1005.057	-382
1005.133	-1227
1005.208	-222
1005.283	-359
1005.358	-287
1005.433	-627
1005.508	-301
1005.583	-1394
1005.657	-786
1005.732	7
1005.807	-778
1005.882	-415
1005.957	-1175
1006.032	-577
1006.106	-698
1006.181	-550
1006.256	-654
1006.331	-471
1006.405	-1248
1006.480	140
1006.554	-1151
1006.629	-691
1006.704	-736
1006.778	-262
1006.853	-215
1006.927	-244
1007.002	-1250
1007.076	-552
1007.150	-1692
1007.225	-164
1007.299	-547
1007.373	-837
1007.448	-74
1007.522	100
1007.596	-1038
1007.671	-204
1007.745	-1221
1007.819	-710
1007.893	-1421
1007.967	-852
1008.041	-892
1008.115	-249
1008.190	-1476
1008.264	-122
1008.338	-1326
1008.412	-802
1008.486	-134
1008.560	-385
1008.633	-386
1008.707	-662
1008.781	-1246
1008.855	-801
1008.929	-57
1009.003	-824
1009.076	-738
1009.150	-326
1009.224	-693
1009.298	-389
1009.371	-807
1009.445	-537
1009.519	-211
1009.592	-138
1009.666	-500
1009.739	-791
1009.813	-900
1009.886	-47
1009.960	-1039
1010.033	-193
1010.107	-38
1010.180	-1394
1010.253	-434
1010.327	-713
1010.400	-597
1010.473	-420
1010.547	-803
1010.620	-877
1010.693	-95
1010.766	-554
1010.840	-483
1010.913	250
1010.986	25
1011.059	-301
1011.132	-314
1011.205	-652
1011.278	-229
1011.351	-285
1011.424	-392
1011.497	-764
1011.570	-418
1011.643	-696
1011.716	-1021
1011.789	-470
1011.862	377
1011.934	20
1012.007	-1455
1012.080	25
1012.153	-628
1012.225	-189
1012.298	-1029
1012.371	-498
1012.443	-986
1012.516	-984
1012.588	-375
1012.661	-607
1012.733	-676
1012.806	178
1012.879	-952
1012.951	-402
1013.023	-868
1013.096	-214
1013.168	-1013
1013.241	-247
1013.313	-819
1013.385	-387
1013.458	-1397
1013.530	-240
1013.602	-1241
1013.674	-607
1013.746	-1408
1013.819	-121
1013.891	-278
1013.963	149
1014.035	-559
1014.107	-1132
1014.179	-309
1014.251	-580
1014.323	-846
1014.395	22
1014.467	-957
1014.539	-571
1014.611	-1676
1014.683	87
1014.754	-709
1014.826	-1244
1014.898	-1465
1014.970	-1011
1015.042	-16
1015.113	22
1015.185	-692
1015.257	-1391
1015.328	-392
1015.400	-773
1015.471	-593
1015.543	-1212
1015.615	-4
1015.686	-899
1015.757	-790
1015.829	-462
1015.901	-1294
1015.972	-872
1016.043	-883
1016.115	-812
1016.186	-586
1016.257	-1255
1016.328	-550
1016.400	-547
1016.471	-1320
1016.542	-789
1016.613	-840
1016.685	-396
1016.756	-685
1016.827	-1044
1016.898	-908
1016.969	698
1017.040	-1006
1017.111	-413
1017.182	-1089
1017.253	-555
1017.324	-1022
1017.395	-731
1017.466	-1425
1017.537	-793
1017.608	-1137
1017.678	-449
1017.749	-806
1017.820	-1113
1017.891	-692
1017.961	-878
1018.032	-707
1018.103	-1094
1018.173	-1309
1018.244	-1027
1018.315	-1140
1018.385	-245
1018.456	-550
1018.526	-1176
1018.597	-514
1018.667	-654
1018.738	-1157
1018.808	-546
1018.878	-995
1018.949	-865
1019.019	-1438
1019.089	-956
1019.160	-734
1019.230	-1125
1019.300	-1419
1019.371	-983
1019.441	-1309
1019.511	-365
1019.581	-730
1019.651	-453
1019.721	-939
1019.791	-241
1019.861	-890
1019.931	-135
1020.001	-1051
1020.071	-611
1020.141	-1267
1020.211	-737
1020.281	-1243
1020.351	-489
1020.421	-837
1020.491	-323
1020.560	-602
1020.630	-1070
1020.700	-1337
1020.770	-778
1020.839	-1941
1020.909	-996
1020.979	-1306
1021.048	-899
1021.118	-1301
1021.187	-693
1021.257	-558
1021.326	-694
1021.396	-1235
1021.465	-701
1021.535	-894
1021.604	-1816
1021.674	-1192
1021.743	-1029
1021.812	-1202
1021.882	-1047
1021.951	-1178
1022.020	-651
1022.089	-905
1022.159	-866
1022.228	-594
1022.297	-885
1022.366	-597
1022.435	-1374
1022.504	-482
1022.573	-1593
1022.642	-817
1022.711	-564
1022.781	-1015
1022.849	-1318
1022.918	-556
1022.987	-908
1023.056	-970
1023.125	-1040
1023.194	-1005
1023.263	-558
1023.331	-1160
1023.400	-1328
1023.469	-347
1023.538	-802
1023.606	-930
1023.675	-687
1023.744	-877
1023.812	-985
1023.881	-1487
1023.949	-1163
1024.018	-1273
1024.086	-275
1024.155	-1075
1024.223	-1025
1024.292	-728
1024.360	-68
1024.429	-1212
1024.497	-1464
1024.565	-596
1024.634	-779
1024.702	-1047
1024.770	-627
1024.838	-930
1024.907	-1002
1024.975	-1029
1025.043	-1559
1025.111	-1862
1025.179	-401
1025.247	-301
1025.315	-1058
1025.383	-824
1025.451	-1043
1025.519	-618
1025.587	-1015
1025.655	-808
1025.723	-693
1025.791	-1177
1025.859	-1074
1025.927	-589
1025.995	-1353
1026.062	-1072
1026.130	-1700
1026.198	-1849
1026.266	-754
1026.333	-1137
1026.401	-684
1026.469	-1982
1026.536	-1292
1026.604	-1116
1026.671	-1387
1026.739	-1248
1026.806	-1327
1026.874	-1729
1026.941	-1427
1027.009	-960
1027.076	-1156
1027.144	-993
1027.211	-1284
1027.278	-688
1027.345	-929
1027.413	-1374
1027.480	-1001
1027.547	-1276
1027.614	-1380
1027.682	-740
1027.749	-911
1027.816	-995
1027.883	-814
1027.950	-1082
1028.017	-712
1028.084	-1212
1028.151	-1882
1028.218	-1700
1028.285	-1550
1028.352	-1170
1028.419	-1064
1028.486	-1985
1028.553	-1642
1028.619	-1660
1028.686	-845
1028.753	-1818
1028.820	-1283
1028.886	-1354
1028.953	-806
1029.020	-1467
1029.086	-2041
1029.153	-837
1029.220	-832
1029.286	-905
1029.353	-915
1029.419	-1829
1029.486	-1486
1029.552	-1596
1029.619	-649
1029.685	-1186
1029.751	-437
1029.818	-390
1029.884	-725
1029.951	-399
1030.017	-1055
1030.083	-794
1030.149	-1155
1030.216	-2190
1030.282	-1136
1030.348	-1635
1030.414	-1379
1030.480	-696
1030.546	-394
1030.612	-1077
1030.678	-1198
1030.744	-1224
1030.810	-1577
1030.876	-1107
1030.942	-1506
1031.008	-1869
1031.074	-1603
1031.140	-1580
1031.206	-766
1031.272	-2049
1031.337	-1544
1031.403	-1660
1031.469	-1692
1031.534	-1045
1031.600	-1143
1031.666	-2137
1031.731	-1201
1031.797	-1708
1031.863	-1474
1031.928	-1640
1031.994	-1448
1032.059	-1370
1032.125	-2097
1032.190	-1290
1032.256	-769
1032.321	-1709
1032.386	-1275
1032.452	-548
1032.517	-2031
1032.582	-1438
1032.647	-1492
1032.713	-1066
1032.778	-959
1032.843	-1968
1032.908	-952
1032.974	-1773
1033.039	-1552
1033.104	-1463
1033.169	-1315
1033.234	-1593
1033.299	-992
1033.364	-1337
1033.429	-1021
1033.494	-950
1033.559	-1472
1033.624	-1696
1033.688	-1996
1033.753	-1418
1033.818	-502
1033.883	-703
1033.948	-1321
1034.013	-1403
1034.077	-1667
1034.142	-1553
1034.207	-1304
1034.271	-1202
1034.336	-1193
1034.400	-1104
1034.465	-1869
1034.530	-681
1034.594	-1311
1034.658	-1091
1034.723	-1530
1034.787	-1792
1034.852	-851
1034.916	-1782
1034.981	-1332
1035.045	-709
1035.109	-1845
1035.173	-1360
1035.238	-2429
1035.302	-1393
1035.366	-756
1035.430	-1393
1035.495	-1517
1035.559	-1666
1035.623	-1290
1035.687	-1445
1035.751	-1635
1035.815	-1676
1035.879	-1252
1035.943	-2064
1036.007	-1502
1036.071	-1488
1036.135	-1354
1036.198	-1451
1036.262	-1477
1036.326	-2094
1036.390	-1815
1036.454	-1532
1036.517	-1210
1036.581	-1820
1036.645	-391
1036.709	-576
1036.772	-2051
1036.836	-1150
1036.900	-1397
1036.963	-1596
1037.026	-1374
1037.090	-938
1037.154	-1862
1037.217	-1348
1037.280	-640
1037.344	-1791
1037.407	-2123
1037.471	-1106
1037.534	-1719
1037.597	-1621
1037.661	-1258
1037.724	-1426
1037.787	-1045
1037.850	-925
1037.913	-833
1037.977	-721
1038.040	-1574
1038.103	-1864
1038.166	-1036
1038.229	-1465
1038.292	-1662
1038.355	-887
1038.418	-1213
1038.481	-1441
1038.544	-1781
1038.607	-1542
1038.670	-1329
1038.732	-1459
1038.795	-1536
1038.858	-1674
1038.921	-1397
1038.984	-1644
1039.046	-2435
1039.109	-1465
1039.172	-1191
1039.234	-1243
1039.297	-956
1039.360	-1644
1039.422	-1758
1039.485	-1721
1039.547	-1484
1039.610	-1609
1039.672	-1589
1039.734	-1627
1039.797	-935
1039.859	-1249
1039.922	-1375
1039.984	-1271
1040.046	-1069
1040.109	-1526
1040.171	-1331
1040.233	-1853
1040.295	-1251
1040.358	-1334
1040.420	-1162
1040.482	-1564
1040.544	-1160
1040.606	-2114
1040.668	-1366
1040.730	-851
1040.792	-1378
1040.854	-1249
1040.916	-1279
1040.978	-1111
1041.040	-1117
1041.102	-981
1041.164	-1227
1041.225	-2402
1041.287	-2437
1041.349	-806
1041.411	-459
1041.472	-1549
1041.534	-1421
1041.596	-1618
1041.657	-1410
1041.719	-495
1041.781	-1396
1041.842	-1957
1041.904	-1453
1041.965	-1124
1042.027	-1745
1042.088	-947
1042.150	-1579
1042.211	-1561
1042.272	-1601
1042.334	-1357
1042.395	-1577
1042.456	-1760
1042.518	-1345
1042.579	-971
1042.640	-1159
1042.701	-1213
1042.763	-2334
1042.824	-1986
1042.885	-1920
1042.946	-1737
1043.007	-936
1043.068	-2214
1043.129	-1199
1043.190	-1227
1043.251	-1177
1043.312	-630
1043.373	-963
1043.434	-1660
1043.495	-934
1043.556	-1916
1043.616	-1853
1043.677	-1544
1043.738	-725
1043.799	-1075
1043.859	-1237
1043.920	-1330
1043.981	-1358
1044.041	-1554
1044.102	-1148
1044.162	-1697
1044.223	-1688
1044.284	-1641
1044.344	-1527
1044.405	-1384
1044.465	-1179
1044.525	-1863
1044.586	-1106
1044.646	-1681
1044.707	-991
1044.767	-1085
1044.827	-971
1044.887	-893
1044.948	-1058
1045.008	-1594
1045.068	-910
1045.128	-1186
1045.188	-1578
1045.249	-755
1045.309	-1828
1045.369	-2283
1045.429	-1439
1045.489	-743
1045.549	-1399
1045.609	-1471
1045.669	-833
1045.729	-1808
1045.789	-1057
1045.848	-1594
1045.908	-1757
1045.968	-1338
1046.028	-863
1046.088	-1049
1046.147	-817
1046.207	-510
1046.267	-970
1046.326	-137
1046.386	-626
1046.446	-1162
1046.505	-729
1046.565	-675
1046.624	309
1046.684	-241
1046.743	-463
1046.803	333
1046.862	-487
1046.922	0
