'Start Wavelength	183.907
'End Wavelength	1046.922
'Gate Delay	5.000
'Gate Width (ms)	1.050
'Laser Output Level	0.000
'X Position	0.000
'Y Position	0.000
'Z Position	0.000
'Grid Point Number	1.000
'Shot Number	100.000
183.907	247.000
183.977	295.000
184.047	-582
184.116	527
184.186	316
184.256	-911
184.325	-814
184.395	-23
184.465	-116
184.534	772
184.604	-341
184.674	110
184.743	-735
184.813	183
184.883	-81
184.952	452
185.022	298
185.092	53
185.161	347
185.231	589
185.301	-249
185.370	130
185.440	274
185.509	324
185.579	-236
185.649	-65
185.718	-74
185.788	530
185.857	-114
185.927	232
185.996	-288
186.066	7
186.136	459
186.205	215
186.275	374
186.344	709
186.414	194
186.483	246
186.553	530
186.622	1259
186.692	-108
186.761	470
186.831	-137
186.900	192
186.970	-404
187.039	378
187.109	429
187.178	676
187.248	165
187.317	605
187.387	-106
187.456	573
187.526	249
187.595	-106
187.664	-132
187.734	190
187.803	108
187.873	85
187.942	120
188.012	1199
188.081	418
188.150	794
188.220	545
188.289	57
188.358	629
188.428	49
188.497	49
188.567	492
188.636	-26
188.705	359
188.775	112
188.844	-23
188.913	143
188.983	37
189.052	29
189.121	547
189.191	-302
189.260	1036
189.329	1511
189.399	-116
189.468	-25
189.537	976
189.606	260
189.676	797
189.745	267
189.814	934
189.883	156
189.953	369
190.022	673
190.091	2100
190.161	1376
190.230	1005
190.299	101
190.368	272
190.437	-15
190.507	850
190.576	-29
190.645	775
190.714	24
190.783	334
190.853	777
190.922	1295
190.991	260
191.060	304
191.129	-349
191.198	321
191.268	-28
191.337	409
191.406	342
191.475	523
191.544	48
191.613	209
191.682	248
191.752	405
191.821	190
191.890	661
191.959	815
192.028	362
192.097	124
192.166	235
192.235	127
192.304	-34
192.373	-73
192.442	736
192.511	823
192.580	1134
192.650	13
192.719	266
192.788	209
192.857	723
192.926	364
192.995	520
193.064	-58
193.133	1136
193.202	1240
193.271	1472
193.340	1284
193.409	990
193.478	865
193.547	1223
193.615	1456
193.684	1629
193.753	1086
193.822	549
193.891	567
193.960	1092
194.029	946
194.098	1202
194.167	748
194.236	670
194.305	172
194.374	431
194.443	389
194.512	-450
194.580	776
194.649	921
194.718	899
194.787	1295
194.856	655
194.925	735
194.994	682
195.062	888
195.131	341
195.200	733
195.269	1086
195.338	610
195.407	415
195.475	363
195.544	36
195.613	-174
195.682	137
195.751	1009
195.819	-27
195.888	944
195.957	1176
196.026	1299
196.094	1328
196.163	783
196.232	1020
196.301	1100
196.369	893
196.438	283
196.507	548
196.576	368
196.644	95
196.713	1056
196.782	87
196.850	1032
196.919	507
196.988	618
197.056	645
197.125	1254
197.194	257
197.262	756
197.331	504
197.400	1106
197.468	676
197.537	355
197.606	565
197.674	1922
197.743	1668
197.812	1015
197.880	1799
197.949	1254
198.017	2043
198.086	1634
198.155	839
198.223	1213
198.292	2316
198.360	1096
198.429	718
198.497	1302
198.566	2818
198.635	2622
198.703	724
198.772	1822
198.840	3497
198.909	3146
198.977	191
199.046	1436
199.114	924
199.183	1763
199.251	1064
199.320	625
199.388	-440
199.457	739
199.525	587
199.594	794
199.662	178
199.731	531
199.799	745
199.867	974
199.936	692
200.004	1183
200.073	287
200.141	1321
200.210	11
200.278	755
200.346	1254
200.415	913
200.483	474
200.552	1766
200.620	341
200.688	629
200.757	505
200.825	1184
200.893	324
200.962	518
201.030	617
201.098	307
201.167	1196
201.235	1461
201.303	588
201.372	849
201.440	496
201.508	1205
201.577	914
201.645	458
201.713	-49
201.781	699
201.850	392
201.918	537
201.986	806
202.055	1121
202.123	1001
202.191	450
202.259	890
202.327	412
202.396	848
202.464	464
202.532	1352
202.600	2882
202.669	793
202.737	987
202.805	752
202.873	1088
202.941	1132
203.009	1494
203.078	378
203.146	1681
203.214	477
203.282	1336
203.350	1137
203.418	1171
203.487	564
203.555	310
203.623	1071
203.691	1659
203.759	694
203.827	1244
203.895	813
203.963	1011
204.031	641
204.099	1399
204.168	642
204.236	676
204.304	1281
204.372	892
204.440	402
204.508	985
204.576	601
204.644	1306
204.712	616
204.780	1353
204.848	1217
204.916	1377
204.984	303
205.052	868
205.120	419
205.188	1472
205.256	-257
205.324	612
205.392	545
205.460	2180
205.528	1394
205.596	1493
205.664	1402
205.732	1498
205.799	3725
205.867	4929
205.935	1261
206.003	1491
206.071	1516
206.139	1431
206.207	634
206.275	1633
206.343	1560
206.411	1204
206.478	1451
206.546	1246
206.614	1527
206.682	1868
206.750	354
206.818	1532
206.885	754
206.953	1056
207.021	1373
207.089	1073
207.157	449
207.225	1375
207.292	483
207.360	1336
207.428	1264
207.496	1025
207.563	720
207.631	1317
207.699	792
207.767	664
207.834	22
207.902	1273
207.970	1201
208.038	965
208.105	1146
208.173	1860
208.241	1461
208.309	1822
208.376	2047
208.444	2567
208.512	1710
208.579	1276
208.647	1244
208.715	1855
208.782	1177
208.850	1468
208.918	1066
208.985	1755
209.053	839
209.120	1304
209.188	1118
209.256	1123
209.323	1066
209.391	1682
209.459	1306
209.526	1138
209.594	670
209.661	1212
209.729	1363
209.796	2037
209.864	820
209.932	1189
209.999	1531
210.067	1864
210.134	1918
210.202	1872
210.269	2324
210.337	1877
210.404	992
210.472	1601
210.539	1018
210.607	1953
210.674	1994
210.742	2125
210.809	987
210.877	1707
210.944	1384
211.012	1673
211.079	2359
211.146	1175
211.214	2462
211.281	1652
211.349	1705
211.416	1567
211.484	1465
211.551	2009
211.618	1908
211.686	1602
211.753	1731
211.821	1898
211.888	1227
211.955	1588
212.023	1536
212.090	1812
212.157	1694
212.225	2162
212.292	4003
212.359	9186
212.427	16862
212.494	6813
212.561	3391
212.629	2846
212.696	2008
212.763	2660
212.831	1353
212.898	2058
212.965	1498
213.032	1727
213.100	1846
213.167	1594
213.234	2111
213.301	2761
213.369	1682
213.436	1700
213.503	2003
213.570	2204
213.638	2415
213.705	1923
213.772	1296
213.839	2277
213.906	2057
213.973	2403
214.041	1886
214.108	1893
214.175	1706
214.242	1844
214.309	2082
214.376	2017
214.444	1891
214.511	2417
214.578	2421
214.645	2563
214.712	2203
214.779	2222
214.846	1765
214.913	2316
214.980	2049
215.048	2323
215.115	2176
215.182	2421
215.249	2757
215.316	1967
215.383	1517
215.450	2316
215.517	1162
215.584	2675
215.651	1654
215.718	1127
215.785	2436
215.852	2644
215.919	2098
215.986	2712
216.053	727
216.120	1365
216.187	1917
216.254	2604
216.321	1403
216.388	2136
216.455	2184
216.522	1267
216.589	2277
216.656	4005
216.722	3079
216.789	3740
216.856	3107
216.923	2806
216.990	2954
217.057	1815
217.124	3001
217.191	3638
217.258	3694
217.324	4327
217.391	4500
217.458	3801
217.525	2490
217.592	2722
217.659	2676
217.725	1562
217.792	3453
217.859	3060
217.926	1659
217.993	1921
218.059	1890
218.126	2390
218.193	961
218.260	1156
218.327	2107
218.393	1452
218.460	1315
218.527	1347
218.594	1738
218.660	2803
218.727	2972
218.794	1513
218.860	2333
218.927	1638
218.994	1430
219.061	1509
219.127	2128
219.194	3721
219.261	1710
219.327	2171
219.394	1208
219.461	1247
219.527	1099
219.594	2368
219.661	993
219.727	1647
219.794	1322
219.860	1830
219.927	1668
219.994	3039
220.060	3567
220.127	2585
220.193	2622
220.260	2798
220.326	4361
220.393	5409
220.460	6626
220.526	4875
220.593	3141
220.659	4372
220.726	3734
220.792	9944
220.859	7522
220.925	10076
220.992	11605
221.058	12741
221.125	11043
221.191	8773
221.258	3323
221.324	3518
221.391	1790
221.457	2886
221.524	2842
221.590	4294
221.657	11116
221.723	6082
221.789	7221
221.856	5594
221.922	3307
221.989	1941
222.055	2063
222.121	2237
222.188	2352
222.254	2270
222.321	1907
222.387	1725
222.453	1464
222.520	1922
222.586	1136
222.652	1369
222.719	1503
222.785	1488
222.851	1480
222.918	1684
222.984	989
223.050	1547
223.116	1065
223.183	1171
223.249	420
223.315	751
223.382	1140
223.448	1941
223.514	914
223.580	1073
223.647	970
223.713	1026
223.779	853
223.845	672
223.911	807
223.978	1282
224.044	518
224.110	1354
224.176	1730
224.242	1725
224.309	1304
224.375	2166
224.441	1502
224.507	1236
224.573	1368
224.639	1561
224.705	548
224.772	1135
224.838	1308
224.904	2010
224.970	1828
225.036	746
225.102	1488
225.168	1607
225.234	889
225.300	1765
225.366	878
225.432	1434
225.499	957
225.565	1538
225.631	2257
225.697	1608
225.763	2229
225.829	2439
225.895	2390
225.961	3821
226.027	3075
226.093	3738
226.159	4443
226.225	6518
226.291	11866
226.357	15303
226.423	8248
226.489	5335
226.554	3803
226.620	4250
226.686	4912
226.752	7268
226.818	12102
226.884	21738
226.950	15313
227.016	8575
227.082	4534
227.148	4186
227.214	3514
227.279	3251
227.345	2205
227.411	2065
227.477	1421
227.543	3365
227.609	3819
227.674	3020
227.740	2241
227.806	2197
227.872	2067
227.938	3448
228.003	2977
228.069	1839
228.135	1818
228.201	1792
228.267	2151
228.332	1985
228.398	2092
228.464	2118
228.530	1205
228.595	1816
228.661	938
228.727	3204
228.792	2008
228.858	2160
228.924	689
228.990	2459
229.055	1493
229.121	2434
229.187	1089
229.252	1681
229.318	882
229.384	1518
229.449	2127
229.515	597
229.581	43
229.646	2056
229.712	1753
229.777	5164
229.843	3417
229.909	3496
229.974	3065
230.040	3373
230.105	2385
230.171	2362
230.236	3963
230.302	5045
230.368	3528
230.433	2928
230.499	2646
230.564	2946
230.630	2053
230.695	2065
230.761	2063
230.826	1140
230.892	2265
230.957	2248
231.023	1404
231.088	2060
231.154	1845
231.219	2422
231.284	3174
231.350	2318
231.415	900
231.481	1439
231.546	1396
231.612	1190
231.677	1595
231.742	725
231.808	1897
231.873	1046
231.939	438
232.004	3243
232.069	2222
232.135	2138
232.200	2012
232.265	1752
232.331	1275
232.396	1184
232.461	1001
232.527	494
232.592	556
232.657	1557
232.723	3741
232.788	2726
232.853	1667
232.918	1642
232.984	763
233.049	1465
233.114	2931
233.179	2864
233.245	5366
233.310	5182
233.375	980
233.440	2125
233.506	1841
233.571	1787
233.636	1418
233.701	1555
233.766	4478
233.832	4213
233.897	1948
233.962	1724
234.027	2519
234.092	2019
234.157	1960
234.222	2451
234.288	4469
234.353	14062
234.418	9520
234.483	5429
234.548	3368
234.613	2908
234.678	3184
234.743	4264
234.808	12877
234.873	7034
234.938	3480
235.004	3022
235.069	2582
235.134	2125
235.199	2638
235.264	1976
235.329	1668
235.394	2941
235.459	4129
235.524	2910
235.589	2455
235.654	1857
235.719	1697
235.784	2865
235.849	3416
235.913	6091
235.978	7883
236.043	7163
236.108	2610
236.173	3825
236.238	3334
236.303	3165
236.368	2691
236.433	5936
236.498	7595
236.563	5384
236.627	11451
236.692	29629
236.757	20904
236.822	10186
236.887	8762
236.952	5553
237.017	5221
237.081	5917
237.146	8236
237.211	16579
237.276	31840
237.341	41493
237.405	20839
237.470	10400
237.535	6774
237.600	5573
237.664	4170
237.729	3650
237.794	5231
237.859	9385
237.923	6813
237.988	4262
238.053	6594
238.118	6667
238.182	19111
238.247	11724
238.312	6900
238.376	5002
238.441	4000
238.506	3412
238.570	1556
238.635	2905
238.700	2792
238.764	2338
238.829	9015
238.893	7745
238.958	3622
239.023	3529
239.087	2575
239.152	3571
239.216	1541
239.281	1838
239.346	2266
239.410	2492
239.475	4008
239.539	18703
239.604	9348
239.668	3421
239.733	2504
239.797	2814
239.862	6575
239.926	11947
239.991	4159
240.055	2280
240.120	2653
240.184	2191
240.249	1329
240.313	2658
240.378	2835
240.442	11927
240.507	13011
240.571	4630
240.635	8809
240.700	7640
240.764	2676
240.829	2388
240.893	1155
240.957	3314
241.022	11427
241.086	14336
241.151	5266
241.215	2295
241.279	4975
241.344	7890
241.408	3464
241.472	2884
241.537	3309
241.601	3311
241.665	2612
241.730	2970
241.794	3025
241.858	3039
241.922	3232
241.987	2960
242.051	1983
242.115	2152
242.179	2089
242.244	2068
242.308	3962
242.372	3397
242.436	4092
242.501	3190
242.565	2417
242.629	1805
242.693	2266
242.757	2235
242.822	2446
242.886	3538
242.950	2988
243.014	2130
243.078	2901
243.142	3188
243.206	2907
243.271	4004
243.335	3907
243.399	7698
243.463	26495
243.527	46703
243.591	12578
243.655	5906
243.719	3407
243.783	5037
243.847	6809
243.911	8853
243.975	10365
244.040	5194
244.104	4061
244.168	3443
244.232	5426
244.296	7057
244.360	6636
244.424	4407
244.488	3792
244.552	4613
244.615	2658
244.679	2314
244.743	3726
244.807	2608
244.871	2384
244.935	2621
244.999	949
245.063	3052
245.127	3585
245.191	5300
245.255	4108
245.319	4443
245.383	2331
245.446	4088
245.510	1779
245.574	2735
245.638	2681
245.702	2843
245.766	6334
245.829	4194
245.893	3976
245.957	3444
246.021	4068
246.085	3099
246.149	4904
246.212	10827
246.276	12371
246.340	6004
246.404	4790
246.467	6789
246.531	6461
246.595	5046
246.659	4555
246.722	3603
246.786	4470
246.850	5933
246.913	5325
246.977	3113
247.041	3466
247.104	3387
247.168	4112
247.232	10446
247.295	18046
247.359	7021
247.423	4403
247.486	8300
247.550	4379
247.614	3514
247.677	4451
247.741	3269
247.804	3600
247.868	4723
247.932	10934
247.995	16603
248.059	5705
248.122	3413
248.186	5715
248.249	11223
248.313	30753
248.376	25886
248.440	16914
248.503	5501
248.567	6690
248.630	9757
248.694	11636
248.757	16568
248.821	30096
248.884	17437
248.948	18759
249.011	25508
249.075	36802
249.138	25987
249.202	11685
249.265	9649
249.328	12408
249.392	8232
249.455	6027
249.519	5118
249.582	6061
249.645	10181
249.709	6719
249.772	7140
249.835	5832
249.899	6577
249.962	5379
250.025	5070
250.089	13686
250.152	14113
250.215	7140
250.279	6576
250.342	6908
250.405	6059
250.468	5008
250.532	8379
250.595	14410
250.658	59226
250.721	66840
250.785	22636
250.848	12863
250.911	8537
250.974	8630
251.038	12461
251.101	18146
251.164	11634
251.227	10834
251.290	10807
251.354	20640
251.417	74641
251.480	54300
251.543	52553
251.606	123581
251.669	72753
251.732	32048
251.795	32410
251.859	36215
251.922	79006
251.985	34402
252.048	15219
252.111	12138
252.174	12245
252.237	22326
252.300	37518
252.363	53445
252.426	86887
252.489	32200
252.552	19713
252.615	13500
252.678	15874
252.741	32777
252.804	52864
252.867	91970
252.930	47594
252.993	24433
253.056	15256
253.119	11388
253.182	10384
253.245	17119
253.308	12009
253.371	11989
253.434	10373
253.497	9765
253.559	18816
253.622	12086
253.685	17637
253.748	13315
253.811	7298
253.874	12707
253.937	9885
254.000	7234
254.062	14777
254.125	16645
254.188	18179
254.251	12325
254.314	7420
254.376	14040
254.439	13343
254.502	11549
254.565	15164
254.628	19884
254.690	11716
254.753	5794
254.816	6337
254.878	7851
254.941	15410
255.004	11352
255.067	6479
255.129	5182
255.192	3835
255.255	2743
255.317	4783
255.380	2525
255.443	2513
255.505	2905
255.568	3174
255.631	2921
255.693	3692
255.756	2154
255.819	3657
255.881	1854
255.944	2951
256.006	2914
256.069	2886
256.132	2601
256.194	5954
256.257	15024
256.319	9737
256.382	7036
256.444	4597
256.507	3235
256.569	3920
256.632	3973
256.694	8296
256.757	22209
256.819	44651
256.882	16843
256.944	8024
257.007	6943
257.069	7608
257.132	5341
257.194	4339
257.257	3827
257.319	4336
257.381	5602
257.444	17739
257.506	60915
257.569	50685
257.631	22765
257.693	13445
257.756	8087
257.818	8110
257.880	4191
257.943	4577
258.005	3579
258.067	3842
258.130	3542
258.192	5325
258.254	8910
258.317	4478
258.379	3819
258.441	11252
258.503	8412
258.566	19995
258.628	16546
258.690	4466
258.753	5530
258.815	8553
258.877	5136
258.939	4186
259.001	3409
259.064	4251
259.126	6041
259.188	5508
259.250	4779
259.312	6323
259.375	10918
259.437	6022
259.499	3516
259.561	3311
259.623	4097
259.685	3475
259.747	4609
259.809	20711
259.872	26147
259.934	47731
259.996	28417
260.058	8695
260.120	4520
260.182	4352
260.244	3411
260.306	2363
260.368	3491
260.430	3622
260.492	8700
260.554	12950
260.616	7161
260.678	22711
260.740	21495
260.802	6468
260.864	4302
260.926	3824
260.988	4892
261.050	5938
261.112	14957
261.174	34173
261.236	17363
261.298	7545
261.359	15287
261.421	14731
261.483	4890
261.545	4984
261.607	2181
261.669	3634
261.731	10460
261.793	17342
261.854	5418
261.916	5310
261.978	4810
262.040	5022
262.102	3924
262.164	7594
262.225	4114
262.287	3492
262.349	7627
262.411	5559
262.472	4054
262.534	11948
262.596	14946
262.658	4807
262.719	2825
262.781	6815
262.843	16632
262.904	5782
262.966	5779
263.028	9239
263.090	48053
263.151	72602
263.213	20493
263.275	11859
263.336	4839
263.398	4751
263.459	3233
263.521	3911
263.583	8161
263.644	4573
263.706	2780
263.767	1672
263.829	2343
263.891	2000
263.952	1588
264.014	1766
264.075	6198
264.137	11536
264.198	4350
264.260	1926
264.321	2407
264.383	9548
264.444	17650
264.506	4734
264.567	3741
264.629	9517
264.690	13910
264.752	5199
264.813	3097
264.875	2521
264.936	3029
264.998	3069
265.059	2830
265.120	2580
265.182	6303
265.243	29803
265.305	20423
265.366	5782
265.427	3479
265.489	2849
265.550	1309
265.611	3495
265.673	1784
265.734	2243
265.795	1749
265.857	1630
265.918	2724
265.979	11200
266.040	44999
266.102	26309
266.163	9229
266.224	7416
266.286	3811
266.347	2189
266.408	2668
266.469	4740
266.530	2075
266.592	1404
266.653	6722
266.714	7936
266.775	2417
266.836	1941
266.898	1068
266.959	4751
267.020	2244
267.081	2837
267.142	1881
267.203	2361
267.264	1292
267.326	2776
267.387	1738
267.448	1078
267.509	1578
267.570	1758
267.631	1427
267.692	1037
267.753	2159
267.814	1406
267.875	6343
267.936	10089
267.997	5913
268.058	5578
268.119	2930
268.180	3798
268.241	1509
268.302	1709
268.363	1938
268.424	2092
268.485	3169
268.546	2038
268.607	1102
268.668	1784
268.729	1364
268.790	2061
268.851	3245
268.912	8177
268.972	6766
269.033	3246
269.094	352
269.155	2048
269.216	1689
269.277	3253
269.338	1806
269.398	1918
269.459	2150
269.520	4010
269.581	5062
269.642	5182
269.702	3215
269.763	3396
269.824	2567
269.885	2923
269.945	4895
270.006	2690
270.067	1089
270.128	1290
270.188	1296
270.249	1278
270.310	720
270.370	1974
270.431	1494
270.492	1101
270.553	2596
270.613	6118
270.674	9381
270.734	2934
270.795	2928
270.856	4939
270.916	2209
270.977	2109
271.038	3010
271.098	3427
271.159	5132
271.219	3613
271.280	2014
271.340	1940
271.401	3417
271.462	8412
271.522	4033
271.583	3220
271.643	2919
271.704	2577
271.764	2821
271.825	9906
271.885	30097
271.946	28979
272.006	10001
272.066	18471
272.127	22701
272.187	7669
272.248	4702
272.308	6544
272.369	18496
272.429	8269
272.489	8662
272.550	7844
272.610	8100
272.671	5103
272.731	8827
272.791	9759
272.852	4446
272.912	4156
272.972	1692
273.033	3667
273.093	5420
273.153	4622
273.214	2667
273.274	3957
273.334	18974
273.394	22805
273.455	8189
273.515	12705
273.575	19758
273.635	8162
273.696	16432
273.756	22508
273.816	8077
273.876	7199
273.936	20662
273.997	23282
274.057	5442
274.117	4784
274.177	9528
274.237	35432
274.297	25206
274.358	20850
274.418	20293
274.478	13045
274.538	5459
274.598	7986
274.658	27589
274.718	25149
274.778	8445
274.838	6584
274.898	20286
274.958	37522
275.018	27788
275.078	14045
275.138	6238
275.198	4390
275.258	3247
275.318	5672
275.378	9154
275.438	7501
275.498	7033
275.558	25547
275.618	30867
275.678	13229
275.738	11698
275.798	7878
275.858	4874
275.918	2392
275.978	4181
276.038	3019
276.098	2394
276.157	8656
276.217	16158
276.277	7228
276.337	5005
276.397	2936
276.457	4377
276.517	3319
276.576	1983
276.636	1797
276.696	5193
276.756	12449
276.815	5946
276.875	3672
276.935	4247
276.995	3037
277.055	2212
277.114	2556
277.174	4764
277.234	12405
277.293	4636
277.353	3304
277.413	2341
277.472	2814
277.532	2900
277.592	4443
277.651	12844
277.711	14671
277.771	6408
277.830	24619
277.890	14574
277.950	18041
278.009	34919
278.069	10759
278.128	15130
278.188	15580
278.248	8697
278.307	19920
278.367	9419
278.426	4564
278.486	2616
278.545	2204
278.605	2399
278.664	2649
278.724	3841
278.783	13217
278.843	20829
278.902	5581
278.962	4337
279.021	5476
279.081	9034
279.140	7534
279.199	5264
279.259	4682
279.318	4853
279.378	7542
279.437	15040
279.496	49926
279.556	139753
279.615	72061
279.675	21718
279.734	16198
279.793	25659
279.853	26840
279.912	9678
279.971	6874
280.031	6188
280.090	12139
280.149	16715
280.208	24855
280.268	107251
280.327	66374
280.386	16594
280.445	15706
280.505	10701
280.564	7077
280.623	5602
280.682	9617
280.742	9471
280.801	3216
280.860	2452
280.919	2930
280.978	1885
281.037	2870
281.097	1299
281.156	2237
281.215	2335
281.274	4792
281.333	16057
281.392	7852
281.451	2722
281.510	2226
281.569	1901
281.628	1444
281.688	1374
281.747	3438
281.806	1870
281.865	1464
281.924	1245
281.983	1621
282.042	541
282.101	865
282.160	1214
282.219	1138
282.278	2222
282.337	9009
282.396	4074
282.454	2225
282.513	3784
282.572	14200
282.631	5237
282.690	1690
282.749	1261
282.808	2302
282.867	1692
282.926	2743
282.985	1185
283.043	984
283.102	1227
283.161	2595
283.220	8162
283.279	12238
283.338	2664
283.396	2231
283.455	2390
283.514	3136
283.573	4694
283.631	3490
283.690	1895
283.749	2300
283.808	6416
283.866	5821
283.925	1629
283.984	2617
284.043	4002
284.101	3928
284.160	2093
284.219	3625
284.277	2222
284.336	6239
284.395	17453
284.453	10273
284.512	4287
284.570	6764
284.629	5046
284.688	4850
284.746	4321
284.805	5669
284.863	7380
284.922	8941
284.981	10322
285.039	15331
285.098	31051
285.156	73839
285.215	124194
285.273	101880
285.332	55912
285.390	30898
285.449	19389
285.507	14630
285.566	10445
285.624	7655
285.683	6165
285.741	5682
285.799	4045
285.858	3952
285.916	4052
285.975	2628
286.033	1538
286.091	2854
286.150	1771
286.208	2079
286.267	2530
286.325	2860
286.383	4923
286.442	3496
286.500	1988
286.558	1612
286.616	1666
286.675	2765
286.733	2644
286.791	1775
286.850	3210
286.908	4547
286.966	6240
287.024	2744
287.083	2149
287.141	1720
287.199	2197
287.257	3452
287.315	2563
287.374	3387
287.432	7382
287.490	4060
287.548	3481
287.606	2252
287.664	2499
287.723	3923
287.781	5225
287.839	3884
287.897	3663
287.955	5884
288.013	11433
288.071	29728
288.129	109002
288.187	187062
288.245	76300
288.303	29779
288.361	17293
288.419	13525
288.477	8802
288.535	6772
288.593	4960
288.651	3355
288.709	1667
288.767	2690
288.825	2139
288.883	2543
288.941	2112
288.999	1571
289.057	1866
289.115	1672
289.173	1979
289.231	1900
289.289	1148
289.346	2192
289.404	2299
289.462	5006
289.520	3349
289.578	1538
289.636	1954
289.694	1138
289.751	598
289.809	1002
289.867	1814
289.925	3184
289.983	2162
290.040	1321
290.098	1081
290.156	2311
290.214	2267
290.271	1129
290.329	160
290.387	1483
290.444	861
290.502	1263
290.560	1217
290.617	562
290.675	1030
290.733	1183
290.790	2018
290.848	874
290.906	1639
290.963	1314
291.021	1725
291.078	1729
291.136	2153
291.194	10391
291.251	13889
291.309	3504
291.366	950
291.424	1602
291.481	1305
291.539	1935
291.596	1404
291.654	955
291.711	1359
291.769	2326
291.826	4025
291.884	2360
291.941	996
291.999	1005
292.056	1921
292.114	1591
292.171	733
292.228	1113
292.286	2262
292.343	4853
292.401	4846
292.458	3013
292.515	2143
292.573	2588
292.630	2542
292.687	3196
292.745	1984
292.802	4112
292.859	10843
292.917	16363
292.974	6643
293.031	2371
293.089	1497
293.146	1702
293.203	1187
293.260	2045
293.318	1654
293.375	4630
293.432	1755
293.489	1721
293.546	1774
293.604	4405
293.661	13240
293.718	24076
293.775	10355
293.832	4993
293.889	3002
293.947	3742
294.004	2361
294.061	3249
294.118	8926
294.175	17352
294.232	18598
294.289	6651
294.346	4647
294.403	4996
294.460	2845
294.517	2749
294.574	2265
294.631	2160
294.688	3771
294.745	10790
294.802	33677
294.859	28501
294.916	10446
294.973	5949
295.030	5231
295.087	3542
295.144	3295
295.201	2740
295.258	2417
295.315	4184
295.372	13389
295.429	17676
295.486	7758
295.542	6232
295.599	19084
295.656	23267
295.713	17095
295.770	16021
295.827	5614
295.883	4072
295.940	4255
295.997	6504
296.054	5192
296.111	2845
296.167	2489
296.224	1537
296.281	1139
296.338	1731
296.394	1877
296.451	3276
296.508	9872
296.564	15412
296.621	11756
296.678	27404
296.734	28067
296.791	10350
296.848	5687
296.904	8230
296.961	14398
297.018	20824
297.074	12760
297.131	5570
297.187	5055
297.244	8683
297.301	25245
297.357	30243
297.414	9478
297.470	5262
297.527	2565
297.583	3343
297.640	3137
297.696	2490
297.753	1894
297.809	2106
297.866	1459
297.922	1945
297.979	1256
298.035	3045
298.092	5120
298.148	12372
298.204	9289
298.261	5614
298.317	13769
298.374	26513
298.430	11934
298.486	7348
298.543	5928
298.599	5793
298.656	5752
298.712	12446
298.768	25763
298.824	13802
298.881	4548
298.937	3942
298.993	3378
299.050	4220
299.106	2322
299.162	3066
299.218	2897
299.275	2955
299.331	3580
299.387	8265
299.443	23993
299.500	17753
299.556	7090
299.612	3903
299.668	4367
299.724	4200
299.780	3592
299.837	3896
299.893	6639
299.949	19473
300.005	18069
300.061	21265
300.117	28559
300.173	12110
300.229	6429
300.285	9507
300.341	9033
300.397	3551
300.453	2932
300.510	2456
300.566	2385
300.622	4055
300.678	7575
300.734	15518
300.790	16912
300.845	19363
300.901	11339
300.957	18299
301.013	11906
301.069	5138
301.125	4130
301.181	4436
301.237	2190
301.293	1881
301.349	2139
301.405	3096
301.461	2077
301.516	4497
301.572	3970
301.628	6811
301.684	5074
301.740	8438
301.796	11627
301.851	9494
301.907	15340
301.963	15226
302.019	28516
302.074	63773
302.130	52516
302.186	22554
302.242	11156
302.297	7604
302.353	7992
302.409	14057
302.464	11453
302.520	10714
302.576	24686
302.631	23031
302.687	12779
302.743	5697
302.798	4001
302.854	3807
302.910	3560
302.965	5663
303.021	9103
303.076	7431
303.132	9589
303.187	11078
303.243	4615
303.299	3160
303.354	2973
303.410	2101
303.465	2466
303.521	1943
303.576	3065
303.632	3426
303.687	9120
303.743	20211
303.798	14160
303.853	5951
303.909	4606
303.964	3368
304.020	6209
304.075	8411
304.130	7986
304.186	15207
304.241	12665
304.297	10152
304.352	5205
304.358	5103
304.407	4278
304.449	3103
304.463	2710
304.518	3879
304.539	3397
304.573	2604
304.629	3818
304.630	3874
304.684	6651
304.720	14177
304.739	17980
304.794	21139
304.811	17785
304.850	9569
304.902	4704
304.905	4409
304.960	4112
304.992	3996
305.015	3895
305.071	3225
305.083	3253
305.126	3372
305.173	2309
305.181	2136
305.236	1484
305.264	1948
305.292	2410
305.347	3326
305.354	3288
305.402	3134
305.445	3559
305.457	3666
305.512	5714
305.535	5303
305.567	4706
305.622	5603
305.626	5832
305.678	11058
305.716	20484
305.733	23930
305.788	22919
305.807	20606
305.843	16347
305.897	20474
305.898	20517
305.953	18761
305.988	12533
306.008	8981
306.063	5725
306.078	5046
306.118	3875
306.168	2858
306.173	2764
306.228	2824
306.259	2466
306.283	2328
306.338	2646
306.349	2662
306.393	2718
306.440	3114
306.448	3179
306.503	3860
306.530	4157
306.558	5370
306.613	13118
306.620	13720
306.668	17218
306.711	21237
306.723	21499
306.778	15289
306.801	11913
306.833	7904
306.888	4931
306.892	4677
306.943	2759
306.982	3092
306.997	3275
307.052	3196
307.072	3203
307.107	3689
307.162	5595
307.163	5616
307.217	8139
307.253	9850
307.272	10170
307.327	9539
307.343	8953
307.381	7630
307.434	7452
307.436	7650
307.491	14302
307.524	20033
307.546	21481
307.600	18890
307.614	16849
307.655	10125
307.704	6608
307.710	6623
307.765	7580
307.795	9812
307.819	12690
307.874	20143
307.885	20255
307.929	15048
307.975	10999
307.984	11265
308.038	16815
308.065	21458
308.093	35131
308.148	72194
308.156	79616
308.202	121998
308.246	141395
308.257	134951
308.312	73921
308.336	51491
308.366	39883
308.421	23893
308.426	22556
308.475	14751
308.517	10634
308.530	9942
308.585	8428
308.607	7743
308.639	7813
308.694	9441
308.697	9600
308.748	17168
308.787	24806
308.803	24959
308.857	18399
308.877	16296
308.912	13913
308.967	12187
308.967	12171
309.021	15880
309.058	19690
309.076	24998
309.130	45823
309.148	54276
309.185	97355
309.238	168910
309.239	169585
309.293	183509
309.328	174778
309.348	148542
309.402	70727
309.418	50590
309.457	35564
309.508	21301
309.511	20914
309.566	17218
309.598	15739
309.620	16398
309.674	19496
309.688	20253
309.729	18997
309.778	16374
309.783	16106
309.837	12689
309.868	11636
309.892	13870
309.946	20141
309.959	22217
310.001	29449
310.049	34702
310.055	33540
310.109	19788
310.139	12668
310.163	10074
310.218	6059
310.229	5321
310.272	4844
310.319	4823
310.326	4756
310.381	4017
310.409	3853
310.435	3848
310.489	3614
310.499	3577
310.543	4033
310.589	4709
310.598	4616
310.652	4074
310.679	3635
310.706	3155
310.760	2266
310.769	2143
310.814	2182
310.859	2175
310.868	2249
310.923	2690
310.948	2935
310.977	3083
311.031	3421
311.038	3458
311.085	3312
311.128	3075
311.139	3041
311.193	2933
311.218	2886
311.247	2734
311.301	2413
311.308	2362
311.356	2168
311.398	2143
311.410	2115
311.464	1812
311.488	1697
311.518	1781
311.572	1985
311.578	2011
311.626	3024
311.668	3915
311.680	3962
311.734	4098
311.758	4161
311.788	4096
311.842	3941
311.847	3928
311.896	4999
311.937	5959
311.950	5938
312.004	5799
312.027	5721
312.058	4720
312.112	2948
312.117	2774
312.165	2724
312.207	2688
312.297	3565
312.386	2621
312.476	2919
312.566	6347
312.656	3566
312.745	2133
312.835	3169
312.925	2880
313.015	3051
313.104	3802
313.194	3023
313.284	2615
313.374	2987
313.463	3045
313.553	1597
313.643	1999
313.732	1682
313.822	1741
313.912	1934
314.001	3104
314.091	2981
314.180	4314
314.270	3624
314.360	4957
314.449	3748
314.539	1351
314.628	1728
314.718	3537
314.808	3439
314.897	2195
314.987	2761
315.076	2294
315.166	4188
315.255	4887
315.345	4278
315.434	5143
315.524	3925
315.613	4209
315.703	6242
315.792	7943
315.881	26064
315.971	15921
316.060	9653
316.150	14331
316.239	15681
316.328	6583
316.418	2267
316.507	2856
316.597	3478
316.686	3264
316.775	7203
316.865	17716
316.954	4455
317.043	2064
317.133	2646
317.222	2431
317.311	2101
317.400	1820
317.490	4729
317.579	4396
317.668	4124
317.757	6263
317.847	12256
317.936	44180
318.025	25585
318.114	12030
318.203	7899
318.293	6727
318.382	10391
318.471	9294
318.560	14078
318.649	27540
318.738	8528
318.828	4645
318.917	5718
319.006	8000
319.095	19799
319.184	36077
319.273	21306
319.362	11185
319.451	4437
319.540	4554
319.629	7925
319.718	14097
319.807	6283
319.896	14371
319.985	43613
320.074	19255
320.163	6126
320.252	9139
320.341	7688
320.430	5678
320.519	6886
320.608	4568
320.697	2931
320.786	3796
320.875	4887
320.964	5643
321.053	9765
321.142	12870
321.230	14629
321.319	12117
321.408	22485
321.497	10839
321.586	10051
321.675	14393
321.764	14352
321.852	9325
321.941	12555
322.030	10169
322.119	10798
322.207	25517
322.296	21976
322.385	9877
322.474	12236
322.562	27555
322.651	16712
322.740	12471
322.829	17290
322.917	21261
323.006	11500
323.095	7988
323.183	8005
323.272	12109
323.361	23614
323.449	65929
323.538	27597
323.626	44551
323.715	32056
323.804	12867
323.892	40049
323.981	23992
324.069	7854
324.158	22305
324.246	23356
324.335	6246
324.424	8718
324.512	3996
324.601	3724
324.689	4794
324.778	8384
324.866	15440
324.954	5234
325.043	4671
325.131	10207
325.220	17968
325.308	19329
325.397	13265
325.485	9029
325.574	2628
325.662	2938
325.750	2723
325.839	2355
325.927	2463
326.015	3880
326.104	7593
326.192	12697
326.280	2807
326.369	2560
326.457	4123
326.545	7317
326.634	3653
326.722	1849
326.810	2029
326.898	1711
326.987	3036
327.075	7102
327.163	8725
327.251	4771
327.340	2145
327.428	3484
327.516	1922
327.604	2132
327.692	3127
327.781	3948
327.869	7632
327.957	5338
328.045	3815
328.133	1957
328.221	3818
328.309	2854
328.397	2283
328.485	3023
328.574	4960
328.662	14691
328.750	11645
328.838	5881
328.926	3264
329.014	2434
329.102	3755
329.190	9366
329.278	6724
329.366	2426
329.454	1330
329.542	1564
329.630	1738
329.718	2305
329.806	2897
329.893	3088
329.981	3944
330.069	6968
330.157	23649
330.245	56584
330.333	31169
330.421	6368
330.509	6745
330.597	18141
330.684	13149
330.772	5280
330.860	6888
330.948	7406
331.036	3713
331.123	1253
331.211	1783
331.299	2890
331.387	7143
331.475	11487
331.562	4873
331.650	2802
331.738	3164
331.825	4265
331.913	2528
332.001	1854
332.089	4148
332.176	8739
332.264	20856
332.352	16898
332.439	4890
332.527	3023
332.614	2472
332.702	4284
332.790	3218
332.877	9936
332.965	18600
333.052	5798
333.140	5212
333.228	9616
333.315	3641
333.403	3519
333.490	12162
333.578	10152
333.665	8278
333.753	5391
333.840	2285
333.928	4387
334.015	12550
334.103	21698
334.190	56065
334.278	17343
334.365	5608
334.452	3768
334.540	2823
334.627	4403
334.715	7936
334.802	16645
334.889	79987
334.977	83533
335.064	9359
335.151	3717
335.239	3784
335.326	5626
335.413	24591
335.501	32118
335.588	4978
335.675	2892
335.762	4386
335.850	6610
335.937	6006
336.024	19022
336.111	74711
336.199	31254
336.286	4651
336.373	1980
336.460	1881
336.547	2004
336.635	3007
336.722	2987
336.809	2541
336.896	5190
336.983	15957
337.070	36351
337.157	53046
337.245	51062
337.332	39887
337.419	4965
337.506	2547
337.593	4132
337.680	12851
337.767	31567
337.854	10597
337.941	11491
338.028	15778
338.115	5817
338.202	5448
338.289	14890
338.376	49200
338.463	18190
338.550	20740
338.637	21457
338.724	9698
338.811	14824
338.898	3385
338.984	1853
339.071	2325
339.158	3726
339.245	8827
339.332	6344
339.419	9820
339.506	8620
339.593	1287
339.679	2105
339.766	1490
339.853	2881
339.940	6292
340.027	2341
340.113	2072
340.200	3327
340.287	2610
340.374	3293
340.460	5989
340.547	2344
340.634	4929
340.720	18101
340.807	11731
340.894	2068
340.980	1898
341.067	2292
341.154	2211
341.240	3754
341.327	8415
341.414	3294
341.500	2306
341.587	2106
341.674	1997
341.760	5297
341.847	7146
341.933	2508
342.020	1252
342.106	1694
342.193	2228
342.279	4222
342.366	2871
342.452	5731
342.539	2949
342.625	8187
342.712	19798
342.798	8914
342.885	3262
342.971	1226
343.058	778
343.144	1025
343.230	1792
343.317	1970
343.403	927
343.490	846
343.576	1340
343.662	1942
343.749	2315
343.835	3694
343.921	7282
344.008	39805
344.094	89367
344.180	22219
344.267	7180
344.353	21814
344.439	24962
344.525	10013
344.612	4932
344.698	4352
344.784	2514
344.870	2013
344.957	1373
345.043	2984
345.129	2273
345.215	5099
345.301	2905
345.387	2131
345.474	1497
345.560	1052
345.646	2514
345.732	1995
345.818	1849
345.904	2075
345.990	3054
346.076	3196
346.162	5988
346.249	2268
346.335	1338
346.421	2512
346.507	10143
346.593	31227
346.679	8810
346.765	1762
346.851	1902
346.937	1355
347.023	1755
347.108	2469
347.194	1594
347.280	1129
347.366	2209
347.452	9670
347.538	38884
347.624	29453
347.710	22670
347.796	4080
347.882	2052
347.967	1764
348.053	2444
348.139	1801
348.225	1713
348.311	755
348.397	1260
348.482	1842
348.568	2089
348.654	1084
348.740	1128
348.825	1240
348.911	5024
348.997	18616
349.083	35946
349.168	6581
349.254	1807
349.340	1325
349.425	804
349.511	2431
349.597	2767
349.682	6931
349.768	20132
349.854	10545
349.939	1843
350.025	1314
350.110	1420
350.196	660
350.282	-80
350.367	1578
350.453	4393
350.538	5401
350.624	2707
350.709	2322
350.795	527
350.880	1287
350.966	2059
351.051	4854
351.137	3812
351.222	1606
351.308	7238
351.393	17365
351.479	4657
351.564	1466
351.649	1330
351.735	1451
351.820	965
351.906	1347
351.991	2974
352.076	11836
352.162	16653
352.247	2881
352.332	2226
352.418	4074
352.503	6576
352.588	25180
352.673	21481
352.759	4411
352.844	2196
352.929	2198
353.014	2598
353.100	2128
353.185	3591
353.270	6626
353.355	6664
353.441	2373
353.526	2984
353.611	6133
353.696	7182
353.781	4790
353.866	1604
353.952	2138
354.037	6997
354.122	14608
354.207	12193
354.292	4318
354.377	2520
354.462	1105
354.547	2196
354.632	1980
354.717	3183
354.802	3310
354.887	1604
354.972	1541
355.057	700
355.142	429
355.227	1731
355.312	4129
355.397	10029
355.482	23104
355.567	11116
355.652	7685
355.737	9436
355.822	25465
355.907	21070
355.991	3187
356.076	1284
356.161	1878
356.246	1403
356.331	2145
356.416	6465
356.501	44795
356.585	50203
356.670	7263
356.755	3445
356.840	6263
356.924	30861
357.009	110530
357.094	46817
357.179	8354
357.263	5283
357.348	4630
357.433	5228
357.517	4291
357.602	3511
357.687	2462
357.771	4650
357.856	14832
357.941	9982
358.025	25941
358.110	109057
358.195	54870
358.279	7906
358.364	5921
358.448	19325
358.533	46537
358.617	37067
358.702	34535
358.787	13145
358.871	6594
358.956	5447
359.040	1624
359.125	1300
359.209	1676
359.294	6735
359.378	10727
359.462	5122
359.547	3999
359.631	2564
359.716	1682
359.800	1757
359.885	2958
359.969	2036
360.053	2227
360.138	1312
360.222	2741
360.306	6436
360.391	4674
360.475	10055
360.559	20157
360.644	19595
360.728	15032
360.812	24521
360.896	71504
360.981	30145
361.065	12832
361.149	3586
361.233	2708
361.318	2561
361.402	2789
361.486	3612
361.570	1525
361.654	3431
361.739	9411
361.823	44469
361.907	72881
361.991	13063
362.075	6104
362.159	14018
362.243	9289
362.327	5835
362.411	5288
362.495	4152
362.580	2242
362.664	1337
362.748	1672
362.832	1828
362.916	2142
363.000	10197
363.084	41148
363.168	80418
363.252	20318
363.336	5241
363.420	9551
363.503	35525
363.587	39604
363.671	6987
363.755	4051
363.839	6733
363.923	3334
364.007	6506
364.091	9223
364.175	14298
364.258	53625
364.342	28770
364.426	13418
364.510	7386
364.594	7917
364.677	14033
364.761	59042
364.845	44930
364.929	12381
365.013	10399
365.096	7062
365.180	9856
365.264	15978
365.347	54946
365.431	23880
365.515	5273
365.598	2147
365.682	2574
365.766	4964
365.849	6140
365.933	3019
366.017	5013
366.100	2690
366.184	878
366.267	1879
366.351	1432
366.435	1458
366.518	956
366.602	635
366.685	1056
366.769	1721
366.852	4224
366.936	7957
367.019	4420
367.103	3166
367.186	6503
367.270	2467
367.353	-118
367.436	1468
367.520	-11
367.603	2328
367.687	2930
367.770	7642
367.853	5098
367.937	14281
368.020	25434
368.104	6143
368.187	5479
368.270	8171
368.353	7060
368.437	13550
368.520	35103
368.603	18974
368.687	19672
368.770	34584
368.853	8452
368.936	7933
369.020	7585
369.103	2000
369.186	1801
369.269	1316
369.352	5077
369.436	7769
369.519	4719
369.602	1244
369.685	2185
369.768	3000
369.851	2135
369.934	1368
370.018	2527
370.101	6158
370.184	6006
370.267	3090
370.350	5471
370.433	10163
370.516	27927
370.599	38082
370.682	13787
370.765	18080
370.848	23144
370.931	45023
371.014	17683
371.097	3020
371.180	1792
371.263	1017
371.346	346
371.429	1522
371.511	1249
371.594	4054
371.677	6914
371.760	8074
371.843	7160
371.926	35402
372.009	86901
372.091	27668
372.174	17122
372.257	40624
372.340	17214
372.423	10958
372.505	12421
372.588	5198
372.671	12905
372.754	43421
372.836	22922
372.919	16885
373.002	30964
373.085	8595
373.167	6225
373.250	17727
373.332	40039
373.415	57353
373.498	124459
373.580	47066
373.663	54975
373.746	82019
373.828	19070
373.911	6769
373.993	8763
374.076	31884
374.159	29471
374.241	12523
374.324	36308
374.406	24035
374.489	33042
374.571	95517
374.654	40105
374.736	18033
374.819	57606
374.901	85290
374.983	92783
375.066	16670
375.148	6323
375.231	26031
375.313	47173
375.395	16894
375.478	3295
375.560	2017
375.643	3357
375.725	17863
375.807	78429
375.890	70187
375.972	32529
376.054	15705
376.136	28527
376.219	12249
376.301	20750
376.383	66500
376.465	27009
376.548	14622
376.630	18244
376.712	53598
376.794	26235
376.877	3357
376.959	1336
377.041	1855
377.123	6064
377.205	6584
377.287	1035
377.369	439
377.452	1046
377.534	977
377.616	1263
377.698	1071
377.780	837
377.862	1465
377.944	525
378.026	337
378.108	20
378.190	278
378.272	1189
378.354	105
378.436	353
378.518	3244
378.600	12590
378.682	10860
378.764	23477
378.846	19119
378.928	5170
379.010	5949
379.091	3305
379.173	1344
379.255	1163
379.337	2715
379.419	11569
379.501	35552
379.583	14387
379.664	3023
379.746	9043
379.828	23479
379.910	32630
379.991	27634
380.073	5167
380.155	2230
380.237	1646
380.318	368
380.400	1064
380.482	5004
380.564	7928
380.645	6748
380.727	6427
380.809	2539
380.890	2671
380.972	1059
381.053	1243
381.135	1615
381.217	7662
381.298	23696
381.380	11219
381.461	10939
381.543	55080
381.624	70403
381.706	12552
381.787	5284
381.869	5203
381.951	22441
382.032	93577
382.113	60330
382.195	11365
382.276	6065
382.358	14079
382.439	45491
382.521	53694
382.602	87994
382.684	39794
382.765	66693
382.846	63695
382.928	62777
383.009	35760
383.090	27614
383.172	97811
383.253	144480
383.334	57413
383.416	73413
383.497	38078
383.578	14503
383.659	25717
383.741	91710
383.822	226412
383.903	117476
383.984	48279
384.066	88879
384.147	56756
384.228	11169
384.309	7502
384.390	4924
384.471	4038
384.553	3540
384.634	5758
384.715	6590
384.796	2538
384.877	4894
384.958	21583
385.039	26761
385.120	8000
385.201	3935
385.282	4781
385.363	6065
385.444	4115
385.525	8817
385.606	34202
385.687	31372
385.768	7538
385.849	8938
385.930	38407
386.011	72221
386.092	19894
386.173	4463
386.254	2610
386.335	3091
386.416	2805
386.496	13885
386.577	23783
386.658	8673
386.739	4522
386.820	5086
386.901	2771
386.981	3039
387.062	1899
387.143	5086
387.224	22629
387.304	22043
387.385	6940
387.466	3186
387.547	4996
387.627	2713
387.708	8412
387.789	41490
387.869	53551
387.950	15235
388.031	2296
388.111	1428
388.192	9083
388.273	12378
388.353	6289
388.434	3617
388.514	7878
388.595	41154
388.676	55029
388.756	23918
388.837	22554
388.917	13404
388.998	2051
389.078	1745
389.159	2429
389.239	1658
389.320	3830
389.400	3330
389.480	9351
389.561	25485
389.641	11947
389.722	3742
389.802	6525
389.883	10036
389.963	30999
390.043	21349
390.124	6482
390.204	7981
390.284	27121
390.365	18990
390.445	27529
390.525	78429
390.605	72739
390.686	18252
390.766	4942
390.846	2376
390.927	1428
391.007	1428
391.087	2598
391.167	3004
391.247	1804
391.328	5480
391.408	8164
391.488	4468
391.568	911
391.648	2452
391.728	3478
391.808	4331
391.888	5201
391.969	12417
392.049	21101
392.129	9671
392.209	10341
392.289	27941
392.369	15308
392.449	13722
392.529	7816
392.609	5368
392.689	8375
392.769	28029
392.849	23137
392.929	18193
393.009	41087
393.089	29853
393.169	21071
393.248	61961
393.328	270412
393.408	322637
393.488	86583
393.568	22759
393.648	11108
393.728	6730
393.807	5001
393.887	5171
393.967	4389
394.047	6071
394.127	7634
394.206	15386
394.286	54370
394.366	235523
394.446	267832
394.525	64440
394.605	15264
394.685	11143
394.764	21061
394.844	35131
394.924	22713
395.003	7405
395.083	3778
395.163	3689
395.242	4193
395.322	4022
395.402	2614
395.481	4720
395.561	14627
395.640	37552
395.720	26436
395.799	43145
395.879	35634
395.958	23674
396.038	81960
396.117	311378
396.197	358545
396.276	107871
396.356	30614
396.435	20762
396.515	13304
396.594	12586
396.673	19877
396.753	71729
396.832	262786
396.912	216045
396.991	51669
397.070	13267
397.150	6482
397.229	4276
397.308	3878
397.388	5217
397.467	3491
397.546	2257
397.625	827
397.705	3661
397.784	3422
397.863	1817
397.942	930
398.022	1300
398.101	11773
398.180	36782
398.259	18138
398.338	3863
398.417	2398
398.497	1418
398.576	1841
398.655	369
398.734	1273
398.813	1716
398.892	12124
398.971	40058
399.050	18376
399.129	2304
399.208	1438
399.287	794
399.366	959
399.445	379
399.524	930
399.603	341
399.682	3122
399.761	12197
399.840	43933
399.919	32365
399.998	4125
400.077	577
400.156	-167
400.235	2109
400.313	267
400.392	1706
400.471	12436
400.550	20248
400.629	4916
400.708	2136
400.786	2237
400.865	7775
400.944	7701
401.023	3571
401.102	-586
401.180	-22
401.259	795
401.338	1361
401.416	2360
401.495	1632
401.574	1741
401.652	918
401.731	2085
401.810	1261
401.888	-27
401.967	-3
402.046	587
402.124	2114
402.203	2518
402.281	1972
402.360	2807
402.438	9673
402.517	5824
402.596	1882
402.674	708
402.753	827
402.831	960
402.910	662
402.988	4825
403.066	16414
403.145	9151
403.223	5102
403.302	12027
403.380	8161
403.459	7552
403.537	2585
403.615	1074
403.694	-693
403.772	115
403.850	-370
403.929	-288
404.007	-234
404.085	2354
404.164	1546
404.242	1115
404.320	6788
404.398	19794
404.477	24388
404.555	72143
404.633	69757
404.711	20713
404.789	8101
404.868	1244
404.946	704
405.024	500
405.102	363
405.180	-159
405.258	-591
405.336	440
405.415	226
405.493	2689
405.571	1699
405.649	-338
405.727	340
405.805	1305
405.883	951
405.961	2058
406.039	1857
406.117	439
406.195	2166
406.273	14140
406.351	59964
406.429	37200
406.507	5145
406.585	1406
406.663	1334
406.740	1836
406.818	1320
406.896	550
406.974	1132
407.052	3926
407.130	32508
407.208	48927
407.285	9406
407.363	273
407.441	992
407.519	257
407.596	1618
407.674	4817
407.752	19765
407.830	21675
407.907	5953
407.985	1718
408.063	740
408.141	-357
408.218	1724
408.296	725
408.373	451
408.451	458
408.529	489
408.606	205
408.684	-141
408.762	-489
408.839	-549
408.917	-246
408.994	-485
409.072	-606
409.149	-822
409.227	-56
409.304	-464
409.382	42
409.459	309
409.537	1080
409.614	167
409.692	296
409.769	-520
409.846	1009
409.924	405
410.001	202
410.079	361
410.156	867
410.233	935
410.311	-441
410.388	302
410.465	-35
410.543	-109
410.620	94
410.697	-115
410.775	790
410.852	-355
410.929	1328
411.006	875
411.083	-701
411.161	2548
411.238	3097
411.315	1866
411.392	2
411.469	1007
411.547	735
411.624	-826
411.701	-189
411.778	51
411.855	3455
411.932	926
412.009	-625
412.086	258
412.163	907
412.240	881
412.317	2431
412.394	547
412.471	-232
412.548	110
412.625	-1010
412.702	1022
412.779	2199
412.856	1197
412.933	-327
413.010	194
413.087	1559
413.164	11389
413.241	15844
413.318	2719
413.395	1967
413.471	1707
413.548	1184
413.625	324
413.702	917
413.779	988
413.855	-178
413.932	-75
414.009	-422
414.086	-283
414.162	-520
414.239	1946
414.316	11138
414.393	27037
414.469	8462
414.546	4
414.623	142
414.699	-638
414.776	291
414.853	-359
414.929	199
415.006	-135
415.082	1221
415.159	334
415.236	-128
415.312	-196
415.389	1701
415.465	3331
415.542	1197
415.618	-947
415.695	1951
415.771	656
415.848	110
415.924	433
416.000	230
416.077	348
416.153	-1755
416.230	-1547
416.306	188
416.383	-225
416.459	-430
416.535	-704
416.612	-1012
416.688	-621
416.764	-543
416.841	-722
416.917	-226
416.993	-200
417.069	310
417.146	790
417.222	1664
417.298	67
417.374	-535
417.451	728
417.527	920
417.603	791
417.679	321
417.755	509
417.831	-865
417.908	-404
417.984	53
418.060	-1357
418.136	2366
418.212	3347
418.288	586
418.364	32
418.440	-122
418.516	1675
418.592	2908
418.668	4640
418.744	7007
418.820	5579
418.896	-517
418.972	-494
419.048	-192
419.124	2853
419.200	1160
419.276	-93
419.352	-302
419.428	-2
419.504	291
419.579	718
419.655	499
419.731	73
419.807	4503
419.883	8973
419.959	6464
420.034	1001
420.110	2496
420.186	15130
420.262	12411
420.337	2043
420.413	723
420.489	0
420.565	-260
420.640	-758
420.716	-288
420.792	-1405
420.867	329
420.943	-204
421.019	800
421.094	-79
421.170	-301
421.245	-893
421.321	-380
421.397	-1083
421.472	2566
421.548	8523
421.623	6768
421.699	1095
421.774	728
421.850	329
421.925	1507
422.001	1758
422.076	104
422.152	126
422.227	1758
422.302	2672
422.378	2047
422.453	5432
422.529	14460
422.604	62891
422.679	152488
422.755	84491
422.830	18640
422.905	4976
422.981	2336
423.056	1293
423.131	714
423.207	-494
423.282	610
423.357	3688
423.432	1940
423.508	1200
423.583	5945
423.658	5117
423.733	1350
423.808	1638
423.883	1853
423.959	1205
424.034	218
424.109	163
424.184	-403
424.259	-333
424.334	-647
424.409	-1348
424.484	120
424.559	-67
424.634	-838
424.709	886
424.784	1483
424.859	305
424.934	1068
425.009	10245
425.084	18055
425.159	6319
425.234	782
425.309	300
425.384	2949
425.459	5450
425.534	1101
425.609	36
425.683	-331
425.758	-391
425.833	-411
425.908	908
425.983	5257
426.058	19642
426.132	8958
426.207	1167
426.282	2541
426.357	1381
426.431	331
426.506	174
426.581	259
426.655	-189
426.730	349
426.805	-172
426.879	416
426.954	6
427.029	2411
427.103	16671
427.178	48740
427.253	23466
427.327	1590
427.402	2559
427.476	7372
427.551	2796
427.625	591
427.700	724
427.774	-309
427.849	99
427.923	-518
427.998	154
428.072	283
428.147	1634
428.221	6973
428.296	18379
428.370	9016
428.444	1186
428.519	3050
428.593	6674
428.667	6382
428.742	7280
428.816	5769
428.890	14998
428.965	22056
429.039	9750
429.113	8243
429.188	2781
429.262	85
429.336	1489
429.410	8034
429.485	4553
429.559	6045
429.633	4670
429.707	437
429.781	3161
429.855	18712
429.930	29301
430.004	21533
430.078	37170
430.152	28984
430.226	27611
430.300	29929
430.374	4967
430.448	1788
430.522	11559
430.596	37733
430.670	20290
430.744	31506
430.818	57046
430.892	14434
430.966	1297
431.040	524
431.114	-561
431.188	-75
431.262	209
431.336	-51
431.410	3067
431.484	9595
431.557	6093
431.631	361
431.705	239
431.779	1442
431.853	13193
431.927	10294
432.000	1100
432.074	-366
432.148	1209
432.222	745
432.295	-347
432.369	-84
432.443	1174
432.516	15807
432.590	50786
432.664	20213
432.737	1220
432.811	-331
432.885	-610
432.958	-29
433.032	85
433.106	-1075
433.179	-547
433.253	-303
433.326	-615
433.400	-220
433.473	-97
433.547	-1164
433.620	-271
433.694	510
433.767	996
433.841	-988
433.914	-156
433.988	-704
434.061	-320
434.134	-1061
434.208	-823
434.281	-1642
434.355	-432
434.428	128
434.501	-400
434.575	-1040
434.648	-703
434.721	-138
434.795	-419
434.868	-251
434.941	-483
435.014	-448
435.088	-699
435.161	200
435.234	236
435.307	1530
435.381	201
435.454	-882
435.527	269
435.600	-1183
435.673	-223
435.746	-630
435.819	-270
435.892	-309
435.966	-376
436.039	-986
436.112	133
436.185	-479
436.258	-962
436.331	-51
436.404	-428
436.477	-1449
436.550	-176
436.623	-976
436.696	-257
436.769	-242
436.842	-225
436.915	14
436.987	-92
437.060	-707
437.133	-416
437.206	-771
437.279	336
437.352	-1230
437.425	-330
437.498	-397
437.570	1643
437.643	911
437.716	-739
437.789	-708
437.861	19
437.934	3137
438.007	740
438.080	-940
438.152	232
438.225	2261
438.298	19949
438.370	70539
438.443	30760
438.516	4768
438.588	367
438.661	-761
438.734	371
438.806	-176
438.879	-44
438.951	101
439.024	1414
439.096	-18
439.169	-250
439.241	-84
439.314	-1047
439.386	626
439.459	2219
439.531	3287
439.604	-83
439.676	-414
439.749	-120
439.821	-480
439.893	-330
439.966	-286
440.038	24
440.110	170
440.183	285
440.255	-668
440.327	374
440.400	8314
440.472	39552
440.544	27979
440.617	2279
440.689	1751
440.761	950
440.833	3379
440.905	958
440.978	-213
441.050	-198
441.122	-105
441.194	-1124
441.266	-502
441.338	-614
441.411	40
441.483	8719
441.555	15741
441.627	3399
441.699	1721
441.771	1378
441.843	-721
441.915	-719
441.987	-330
442.059	-699
442.131	-412
442.203	780
442.275	624
442.347	1322
442.419	87
442.491	3126
442.563	11384
442.635	6464
442.706	7204
442.778	5504
442.850	393
442.922	-658
442.994	-61
443.066	322
443.137	466
443.209	-330
443.281	459
443.353	1756
443.425	6127
443.496	21135
443.568	21287
443.640	7873
443.711	724
443.783	-163
443.855	-238
443.926	-975
443.998	64
444.070	-291
444.141	-149
444.213	1544
444.285	1291
444.356	873
444.428	802
444.499	-539
444.571	-928
444.642	-554
444.714	-5
444.785	494
444.857	1324
444.928	5647
445.000	3128
445.071	3239
445.143	2994
445.214	1155
445.285	2222
445.357	9089
445.428	16368
445.500	42354
445.571	27160
445.642	10904
445.714	7529
445.785	9627
445.856	1157
445.928	945
445.999	505
446.070	455
446.141	112
446.213	873
446.284	347
446.355	615
446.426	-835
446.497	-427
446.569	649
446.640	1940
446.711	1046
446.782	280
446.853	1524
446.924	1054
446.995	-250
447.066	-373
447.138	1224
447.209	1047
447.280	-226
447.351	-1010
447.422	-1168
447.493	-223
447.564	403
447.635	703
447.706	-122
447.777	-767
447.847	-949
447.918	-914
447.989	357
448.060	191
448.131	3053
448.202	1810
448.273	1542
448.344	412
448.414	-295
448.485	-693
448.556	-873
448.627	-1106
448.698	-799
448.768	-1386
448.839	-726
448.910	1067
448.981	818
449.051	60
449.122	-244
449.193	-870
449.263	-696
449.334	-967
449.405	-45
449.475	2393
449.546	1511
449.616	1685
449.687	1296
449.758	-306
449.828	-1038
449.899	-438
449.969	-546
450.040	-814
450.110	156
450.181	686
450.251	-661
450.322	-1408
450.392	-253
450.463	173
450.533	-805
450.604	-1089
450.674	-984
450.744	-565
450.815	-933
450.885	-564
450.955	-608
451.026	-1128
451.096	-1025
451.166	-307
451.237	1826
451.307	5940
451.377	914
451.447	-411
451.518	-657
451.588	-647
451.658	-125
451.728	87
451.799	5852
451.869	6813
451.939	832
452.009	-699
452.079	-942
452.149	-239
452.219	202
452.289	7083
452.360	4609
452.430	71
452.500	-278
452.570	326
452.640	714
452.710	3344
452.780	7165
452.850	3902
452.920	3278
452.990	914
453.060	-136
453.129	1258
453.199	325
453.269	6927
453.339	18704
453.409	30515
453.479	29626
453.549	40718
453.619	44838
453.688	16038
453.758	1750
453.828	-262
453.898	-593
453.968	-314
454.037	-440
454.087	-251
454.107	-195
454.168	-1000
454.177	-1145
454.247	-373
454.249	-358
454.316	-544
454.330	-438
454.386	-77
454.411	1256
454.456	3134
454.492	4470
454.525	5519
454.574	2239
454.595	846
454.655	164
454.665	63
454.734	-23
454.736	56
454.804	1856
454.817	3073
454.873	7107
454.898	7889
454.943	8665
454.979	5518
455.013	2829
455.060	1419
455.082	1049
455.141	1399
455.152	1439
455.221	6702
455.222	6879
455.291	13186
455.303	13383
455.360	13292
455.384	19725
455.430	29102
455.465	22455
455.499	15890
455.546	10697
455.569	8243
455.627	5335
455.638	4877
455.707	612
455.708	634
455.777	374
455.789	417
455.846	470
455.869	713
455.916	1214
455.950	983
455.985	591
456.031	236
456.054	90
456.112	-50
456.124	-104
456.193	225
456.193	206
456.262	1070
456.274	1182
456.332	1198
456.355	1438
456.401	1818
456.436	1417
456.470	927
456.516	640
456.540	541
456.597	755
456.609	774
456.678	-183
456.678	-204
456.747	-112
456.759	-81
456.817	35
456.840	318
456.886	768
456.920	383
456.955	64
457.001	357
457.024	569
457.082	904
457.093	938
457.162	2908
457.163	2929
457.232	3094
457.243	2912
457.301	1253
457.324	1062
457.370	1098
457.405	894
457.439	682
457.485	835
457.508	961
457.566	1158
457.577	1192
457.646	1752
457.647	1774
457.715	1850
457.727	1844
457.784	2172
457.808	2405
457.853	2944
457.889	3431
457.922	3248
457.969	2854
457.991	2935
458.050	3204
458.060	3201
458.129	3696
458.130	3737
458.198	4299
458.211	4325
458.267	3085
458.292	2305
458.336	1919
458.372	1867
458.405	2071
458.453	2160
458.474	2418
458.533	4351
458.543	4663
458.611	7322
458.614	7432
458.680	5594
458.694	4906
458.749	3155
458.775	2482
458.818	1901
458.855	1752
458.887	1762
458.936	1672
458.955	1672
459.016	1967
459.024	1960
459.093	2025
459.097	2035
459.162	2092
459.177	2226
459.230	2970
459.257	3223
459.299	3329
459.338	3060
459.368	2835
459.418	3343
459.437	3307
459.499	2856
459.505	2821
459.574	2323
459.579	2280
459.643	1902
459.659	1997
459.711	2466
459.740	2572
459.780	2725
459.820	2674
459.849	2652
459.900	3355
459.917	3580
459.981	3617
459.986	3550
460.054	3403
460.061	3339
460.123	3280
460.141	3398
460.191	4100
460.222	4458
460.260	4921
460.302	5581
460.328	5361
460.382	4562
460.397	4393
460.462	3990
460.465	4017
460.534	5019
460.543	5102
460.602	12470
460.623	15161
460.671	24618
460.703	32951
460.739	32823
460.783	30704
460.808	24562
460.864	6172
460.876	5336
460.944	3876
460.945	3861
461.013	3358
461.024	3416
461.081	3798
461.104	3817
461.150	3496
461.184	3448
461.218	3583
461.264	3735
461.286	3696
461.345	3331
461.355	3346
461.423	3479
461.425	3487
461.491	3800
461.505	3983
461.559	6349
461.585	7179
461.628	12398
461.665	17624
461.696	20686
461.745	26557
461.764	22978
461.825	7838
461.832	7515
461.901	5561
461.905	5458
461.969	4155
461.985	3900
462.037	4240
462.065	4425
462.105	4403
462.145	4520
462.173	6572
462.225	10282
462.241	11321
462.305	15979
462.310	15633
462.378	10294
462.385	9528
462.446	5545
462.465	4366
462.514	4392
462.545	4824
462.582	4755
462.625	4223
462.650	4323
462.705	4671
462.718	4595
462.785	4737
462.786	4792
462.854	7316
462.865	7786
462.922	9392
462.945	10031
462.990	8190
463.025	6580
463.058	5869
463.104	4621
463.126	4551
463.184	4781
463.194	4804
463.262	4558
463.264	4563
463.330	4900
463.344	4896
463.398	5392
463.424	5677
463.466	5764
463.504	5949
463.533	5932
463.583	5673
463.601	5780
463.663	6221
463.669	6320
463.737	7334
463.743	7434
463.805	11050
463.823	12057
463.873	18563
463.903	22668
463.940	25572
463.982	28833
464.008	23284
464.062	10920
464.076	10143
464.142	6145
464.144	6139
464.211	5788
464.221	5783
464.279	5740
464.301	5665
464.347	5875
464.381	6199
464.414	6970
464.461	7766
464.482	8246
464.540	9757
464.550	9580
464.617	7934
464.620	7862
464.685	7910
464.699	7957
464.753	9621
464.779	10453
464.820	11923
464.859	13133
464.888	13252
464.938	13453
464.956	13431
465.018	13345
465.023	13188
465.091	10909
465.098	10625
465.158	10138
465.177	9993
465.226	10286
465.257	10486
465.293	10530
465.336	10568
465.361	11213
465.416	12528
465.428	12929
465.495	14970
465.496	15058
465.563	24656
465.575	26282
465.631	34091
465.654	37491
465.698	25981
465.734	15921
465.765	13683
465.813	10243
465.833	10177
465.893	10389
465.900	10386
465.968	9928
465.972	9884
466.035	9808
466.052	9760
466.102	10187
466.131	10405
466.170	11063
466.210	11663
466.237	11596
466.290	11436
466.304	11560
466.369	11999
466.372	12052
466.439	12848
466.449	12932
466.506	13793
466.528	14088
466.573	16561
466.607	18363
466.641	26293
466.687	37238
466.708	41760
466.766	54153
466.775	51001
466.842	26361
466.845	25134
466.909	17866
466.925	16106
466.977	15945
467.004	15840
467.044	15676
467.083	15435
467.111	17076
467.163	20064
467.178	20681
467.242	23040
467.245	22962
467.312	20323
467.321	19930
467.379	19040
467.400	18655
467.446	20310
467.480	21432
467.559	19233
467.638	16288
467.717	16418
467.796	17357
467.875	17951
467.955	18141
468.034	20331
468.113	41905
468.192	65157
468.271	28423
468.350	14114
468.429	13732
468.508	14122
468.588	13671
468.667	14228
468.746	15222
468.825	14621
468.904	13475
468.983	13780
469.062	19745
469.141	23942
469.220	14804
469.299	12465
469.378	14237
469.456	17289
469.535	16206
469.614	15518
469.693	15111
469.772	16835
469.851	22478
469.930	20359
470.009	13486
470.088	12600
470.166	14639
470.245	15084
470.324	16323
470.403	14987
470.482	14066
470.560	12875
470.639	13917
470.718	14005
470.797	13034
470.875	13274
470.954	18664
471.033	21213
471.111	12819
471.190	11086
471.269	10681
471.347	11556
471.426	11540
471.505	12696
471.583	14616
471.662	13773
471.740	12751
471.819	12877
471.898	11338
471.976	11543
472.055	11059
472.133	12489
472.212	16018
472.290	17373
472.369	13300
472.447	11248
472.526	10773
472.604	11356
472.683	11989
472.761	12822
472.839	11147
472.918	12007
472.996	11548
473.075	12502
473.153	12678
473.231	11222
473.310	12774
473.388	12828
473.466	12299
473.545	13554
473.623	15009
473.701	16525
473.780	12522
473.858	12018
473.936	12671
474.014	12115
474.093	11877
474.171	15531
474.249	22368
474.327	17847
474.405	11055
474.484	9662
474.562	9981
474.640	10317
474.718	12442
474.796	11934
474.874	12131
474.952	11493
475.030	11570
475.108	10775
475.187	12793
475.265	11619
475.343	14063
475.421	15043
475.499	12516
475.577	12284
475.655	14138
475.733	22488
475.811	40469
475.889	39101
475.966	33405
476.044	11167
476.122	10524
476.200	11955
476.278	12170
476.356	10311
476.434	10796
476.512	11740
476.590	12178
476.667	12728
476.745	9638
476.823	10641
476.901	9944
476.979	10334
477.056	10536
477.134	11605
477.212	10857
477.290	10782
477.367	10229
477.445	9525
477.523	10001
477.601	9674
477.678	8479
477.756	10955
477.834	13439
477.911	9569
477.989	9991
478.066	8994
478.144	10757
478.222	10143
478.299	10245
478.377	12265
478.454	9666
478.532	8238
478.609	9322
478.687	9745
478.764	8575
478.842	8828
478.919	9429
478.997	10711
479.074	8842
479.152	9401
479.229	13141
479.307	10268
479.384	8412
479.461	8637
479.539	8509
479.616	10519
479.694	9232
479.771	9332
479.848	9836
479.926	12615
480.003	15171
480.080	9129
480.157	9207
480.235	8182
480.312	8543
480.389	9342
480.467	13953
480.544	18933
480.621	12532
480.698	9961
480.775	10692
480.853	11059
480.930	10016
481.007	9411
481.084	11003
481.161	11277
481.238	11281
481.315	8620
481.392	8841
481.470	8818
481.547	9091
481.624	8820
481.701	9237
481.778	9572
481.855	10088
481.932	12584
482.009	22812
482.086	20660
482.163	9769
482.240	8643
482.317	12496
482.393	12471
482.470	8915
482.547	8962
482.624	8499
482.701	9016
482.778	9506
482.855	8158
482.932	7322
483.009	7368
483.085	7950
483.162	9600
483.239	10511
483.316	8138
483.393	7083
483.469	7202
483.546	8952
483.623	10740
483.699	9070
483.776	9021
483.853	10989
483.930	12654
484.006	29130
484.083	59513
484.160	39574
484.236	49123
484.313	43924
484.389	31700
484.466	26940
484.543	24866
484.619	26242
484.696	25393
484.772	26638
484.849	29101
484.925	24595
485.002	23025
485.078	25833
485.155	25676
485.231	23242
485.308	22516
485.384	24178
485.461	25870
485.537	37801
485.614	51923
485.690	26809
485.766	21165
485.843	22592
485.919	25952
485.995	30901
486.072	21143
486.148	21099
486.224	20877
486.301	21860
486.377	23028
486.453	24394
486.530	24148
486.606	29360
486.682	34654
486.758	37078
486.835	43890
486.911	33807
486.987	47836
487.063	51098
487.139	54007
487.215	46495
487.292	28328
487.368	22949
487.444	23323
487.520	25619
487.596	25666
487.672	24278
487.748	32450
487.824	46391
487.900	33883
487.976	22215
488.052	22706
488.128	27109
488.204	24177
488.280	21440
488.356	22869
488.432	38098
488.508	69119
488.584	33815
488.660	20279
488.736	19148
488.812	20753
488.888	24527
488.964	27977
489.039	42506
489.115	72991
489.191	59693
489.267	22148
489.343	21425
489.418	17388
489.494	17467
489.570	15594
489.646	16997
489.722	16888
489.797	17982
489.873	22419
489.949	46060
490.024	53897
490.100	18639
490.176	16364
490.251	18110
490.327	22510
490.403	18653
490.478	16445
490.554	14080
490.629	14926
490.705	13629
490.781	16077
490.856	16112
490.932	16891
491.007	16576
491.083	17214
491.158	16899
491.234	17674
491.309	34145
491.385	47046
491.460	19142
491.536	16835
491.611	16214
491.686	14824
491.762	19784
491.837	28441
491.913	51417
491.988	64174
492.063	97411
492.139	41688
492.214	25216
492.289	14882
492.365	13450
492.440	15052
492.515	16488
492.590	15151
492.666	12931
492.741	14535
492.816	24404
492.891	17683
492.967	13931
493.042	12418
493.117	13268
493.192	13771
493.267	20586
493.342	64715
493.418	129267
493.493	36216
493.568	12747
493.643	11715
493.718	13950
493.793	18616
493.868	22568
493.943	14458
494.018	12380
494.093	11853
494.168	11956
494.243	11296
494.318	10773
494.393	10184
494.468	11505
494.543	9837
494.618	11838
494.693	11491
494.768	10387
494.842	13003
494.917	9212
494.992	11028
495.067	11592
495.142	9583
495.217	11202
495.292	11019
495.366	12718
495.441	15236
495.516	19067
495.591	20757
495.665	46794
495.740	136534
495.815	97002
495.890	20695
495.964	14164
496.039	16411
496.114	14543
496.188	16259
496.263	16058
496.338	14233
496.412	16310
496.487	19818
496.561	18681
496.636	20596
496.710	16691
496.785	17240
496.860	20714
496.934	18322
497.009	17239
497.083	18381
497.158	18032
497.232	20346
497.307	25236
497.381	23056
497.455	24309
497.530	32400
497.604	27224
497.679	25926
497.753	34794
497.827	47542
497.902	44091
497.976	46967
498.050	67757
498.125	225123
498.199	365482
498.273	85263
498.348	48633
498.422	45044
498.496	41040
498.570	38472
498.645	32575
498.719	30650
498.793	32518
498.867	39858
498.941	51111
499.016	85041
499.090	288783
499.164	190137
499.238	26616
499.312	19330
499.386	20350
499.460	20805
499.534	17199
499.609	20410
499.683	29539
499.757	29865
499.831	38751
499.905	159767
499.979	255454
500.053	48877
500.127	35565
500.201	25076
500.275	17737
500.349	16195
500.422	17836
500.496	22954
500.570	37639
500.644	87000
500.718	221353
500.792	93131
500.866	16903
500.940	19710
501.013	19537
501.087	15688
501.161	23611
501.235	33847
501.309	53664
501.382	160907
501.456	223295
501.530	46261
501.603	66091
501.677	41423
501.751	13278
501.825	15127
501.898	21846
501.972	69069
502.046	73344
502.119	17378
502.193	27368
502.266	79785
502.340	62069
502.413	29487
502.487	75837
502.561	55658
502.634	21088
502.708	12242
502.781	11521
502.855	9679
502.928	8252
503.002	8923
503.075	8912
503.149	9286
503.222	9916
503.295	11795
503.369	13247
503.442	16717
503.516	41145
503.589	136762
503.662	128335
503.736	35351
503.809	59571
503.882	67892
503.956	64529
504.029	89054
504.102	28774
504.175	26148
504.249	16075
504.322	11826
504.395	13555
504.468	10294
504.542	9366
504.615	9635
504.688	7939
504.761	6925
504.834	9547
504.907	10124
504.980	17261
505.053	11738
505.127	10734
505.200	16114
505.273	14272
505.346	11675
505.419	8741
505.492	8276
505.565	7878
505.638	7344
505.711	7104
505.784	7532
505.857	6251
505.930	7313
506.003	7387
506.076	7952
506.149	10242
506.221	14525
506.294	12095
506.367	20778
506.440	90134
506.513	85200
506.586	16942
506.659	10768
506.731	8000
506.804	8308
506.877	12740
506.950	11140
507.022	7479
507.095	8369
507.168	13701
507.241	8764
507.313	7812
507.386	6899
507.459	10019
507.531	7650
507.604	7053
507.677	7220
507.749	6631
507.822	7867
507.894	14991
507.967	23411
508.040	15985
508.112	12008
508.185	11640
508.257	10037
508.330	14350
508.402	10945
508.475	10340
508.547	12139
508.620	11613
508.692	16592
508.765	15063
508.837	8896
508.909	9823
508.982	9293
509.054	9457
509.127	8927
509.199	10050
509.271	8248
509.344	8253
509.416	8631
509.488	8393
509.560	8431
509.633	10518
509.705	10854
509.777	11841
509.849	13407
509.922	12450
509.994	10774
510.066	10519
510.138	9838
510.210	19966
510.283	19773
510.355	15352
510.427	13994
510.499	12587
510.571	12407
510.643	11769
510.715	16023
510.787	17131
510.859	12020
510.931	13510
511.003	15620
511.076	17483
511.148	11819
511.219	11649
511.291	16280
511.363	23754
511.435	12740
511.507	11106
511.579	10942
511.651	10936
511.723	10651
511.795	10090
511.867	10103
511.939	11036
512.010	19745
512.082	22716
512.154	11084
512.226	11581
512.298	13185
512.369	22598
512.441	17584
512.513	15585
512.585	13024
512.656	13215
512.728	14726
512.800	12865
512.871	11592
512.943	12085
513.015	10486
513.086	11276
513.158	11067
513.230	11374
513.301	14266
513.373	18340
513.444	12510
513.516	10103
513.588	10148
513.659	10711
513.731	12353
513.802	12246
513.874	15550
513.945	32552
514.016	19392
514.088	10220
514.159	10961
514.231	13449
514.302	20280
514.374	15235
514.445	13280
514.516	23847
514.588	25426
514.659	14146
514.730	22843
514.802	23026
514.873	15427
514.944	20499
515.016	17435
515.087	16263
515.158	16795
515.229	27699
515.301	19303
515.372	25072
515.443	20962
515.514	16093
515.585	12361
515.656	12902
515.728	10718
515.799	10427
515.870	10699
515.941	11650
516.012	11066
516.083	14887
516.154	14640
516.225	17024
516.296	16995
516.367	15740
516.438	14442
516.509	18186
516.580	21624
516.651	40160
516.722	158345
516.793	145924
516.864	29017
516.935	25543
517.006	25852
517.077	30938
517.148	53636
517.219	133014
517.289	347426
517.360	163918
517.431	75936
517.502	17834
517.573	14424
517.643	14488
517.714	16531
517.785	17422
517.856	15143
517.926	18554
517.997	19993
518.068	23613
518.138	29275
518.209	36206
518.280	83300
518.350	386780
518.421	319942
518.492	42208
518.562	20609
518.633	18235
518.703	16340
518.774	17954
518.845	23469
518.915	29956
518.986	20245
519.056	19236
519.127	26913
519.197	41188
519.268	96230
519.338	106588
519.408	23128
519.479	21293
519.549	19290
519.620	12656
519.690	10816
519.760	10951
519.831	10772
519.901	12649
519.971	9743
520.042	10692
520.112	12432
520.182	13549
520.253	14815
520.323	11713
520.393	14727
520.463	24138
520.534	14736
520.604	31709
520.674	19066
520.744	15283
520.814	30353
520.885	36081
520.955	27601
521.025	114761
521.095	90415
521.165	15398
521.235	11634
521.305	11229
521.375	9661
521.445	10161
521.515	12393
521.585	12762
521.655	15200
521.725	11722
521.795	11444
521.865	9241
521.935	11935
522.005	15007
522.075	9528
522.145	8928
522.215	10763
522.285	14391
522.355	18327
522.424	33283
522.494	36847
522.564	19910
522.634	19669
522.704	63259
522.774	45066
522.843	11450
522.913	9618
522.983	11705
523.053	11445
523.122	9423
523.192	10234
523.262	26503
523.331	48915
523.401	14519
523.471	7304
523.540	8537
523.610	6768
523.680	7677
523.749	7665
523.819	9337
523.888	11212
523.958	7896
524.027	7253
524.097	8271
524.166	7447
524.236	8172
524.305	9649
524.375	6789
524.444	7422
524.514	9403
524.583	7242
524.653	9935
524.722	11374
524.791	9232
524.861	8331
524.930	7165
524.999	6840
525.069	10338
525.138	9276
525.207	11587
525.277	9563
525.346	7915
525.415	8648
525.484	7873
525.554	8967
525.623	9443
525.692	8076
525.761	8153
525.830	7319
525.900	7958
525.969	9375
526.038	12584
526.107	12596
526.176	32641
526.245	40156
526.314	20918
526.383	25313
526.452	32683
526.522	38085
526.591	68617
526.660	42598
526.729	24947
526.797	19330
526.867	29213
526.935	128446
527.004	190400
527.073	116721
527.142	20227
527.211	10068
527.280	9498
527.349	10807
527.418	7216
527.487	7081
527.555	5925
527.624	5633
527.693	5308
527.762	6343
527.831	5652
527.899	5561
527.968	6517
528.037	5852
528.106	7694
528.174	12098
528.243	12936
528.312	12656
528.380	23581
528.449	10704
528.518	8052
528.586	4147
528.655	5577
528.723	5891
528.792	4519
528.861	6039
528.929	5360
528.998	6154
529.066	6362
529.135	5464
529.203	5109
529.272	4883
529.340	7343
529.409	6748
529.477	5648
529.545	6975
529.614	10735
529.682	7866
529.751	12162
529.819	11097
529.887	10919
529.956	6587
530.024	6984
530.092	4977
530.161	7301
530.229	9722
530.297	8676
530.365	6891
530.434	6499
530.502	5846
530.570	6791
530.638	4009
530.707	6177
530.775	7344
530.843	6463
530.911	6282
530.979	5981
531.047	6769
531.115	7049
531.183	6101
531.252	5879
531.320	5763
531.388	5589
531.456	6276
531.524	4759
531.592	6245
531.660	7354
531.728	6111
531.796	6021
531.864	5185
531.932	6801
532.000	6109
532.067	6398
532.135	7525
532.203	8127
532.271	8322
532.339	12608
532.407	27300
532.475	28805
532.542	13431
532.610	11353
532.678	13041
532.746	32932
532.814	128079
532.881	59818
532.949	11848
533.017	8234
533.084	7163
533.152	6670
533.220	6847
533.287	7106
533.355	7140
533.423	6352
533.490	6043
533.558	5777
533.625	6711
533.693	8436
533.761	7873
533.828	8851
533.896	7788
533.963	12559
534.031	18398
534.098	21045
534.166	14901
534.233	8495
534.300	9289
534.368	9759
534.435	8285
534.503	8509
534.570	7728
534.637	8070
534.705	6516
534.772	8091
534.840	8421
534.907	15763
534.974	29240
535.041	11357
535.109	8704
535.176	7357
535.243	6507
535.310	6422
535.378	6473
535.445	6322
535.512	5636
535.579	5385
535.646	5969
535.714	6751
535.781	8815
535.848	8600
535.915	9527
535.982	11672
536.049	10260
536.116	10413
536.183	8312
536.250	8897
536.317	8744
536.384	9325
536.451	10638
536.518	12674
536.585	9388
536.652	10633
536.719	13517
536.786	12496
536.853	10523
536.920	12829
536.987	18177
537.053	17902
537.120	47154
537.187	77951
537.254	12683
537.321	6837
537.388	7613
537.454	6133
537.521	5473
537.588	5730
537.654	7151
537.721	8183
537.788	8356
537.855	7339
537.921	5968
537.988	7832
538.055	6966
538.121	7757
538.188	6950
538.254	9528
538.321	17187
538.388	16948
538.454	7680
538.521	7379
538.587	7192
538.654	6472
538.720	6282
538.787	6331
538.853	5837
538.920	8732
538.986	8331
539.053	8079
539.119	8197
539.185	7448
539.252	7941
539.318	11452
539.385	11858
539.451	9756
539.517	9626
539.583	10163
539.650	13819
539.716	49382
539.782	26039
539.849	8152
539.915	7399
539.981	6804
540.047	9017
540.114	9534
540.180	8580
540.246	8425
540.312	10304
540.378	18022
540.444	21949
540.510	17536
540.576	51616
540.643	32007
540.709	7629
540.775	8105
540.841	6649
540.907	10417
540.973	15895
541.039	14125
541.105	13472
541.171	9704
541.237	6843
541.303	8955
541.369	9554
541.435	9735
541.500	15738
541.566	13907
541.632	7585
541.698	6594
541.764	6711
541.830	6910
541.896	6531
541.961	6930
542.027	7647
542.093	8146
542.159	7368
542.224	8521
542.290	11231
542.356	15326
542.421	22139
542.487	13620
542.553	9492
542.618	10305
542.684	8729
542.750	8789
542.815	8939
542.881	11692
542.947	37214
543.012	50925
543.078	10215
543.143	7354
543.209	8109
543.274	8411
543.340	8746
543.405	14133
543.471	32962
543.536	12701
543.602	8135
543.667	6622
543.732	7802
543.798	6424
543.863	7335
543.928	6015
543.994	5655
544.059	7726
544.124	7072
544.190	6495
544.255	7709
544.320	6787
544.386	6602
544.451	9784
544.516	11372
544.581	11264
544.646	20373
544.712	53144
544.777	18183
544.842	10632
544.907	10044
544.972	9615
545.037	7505
545.102	10330
545.168	9654
545.233	9821
545.298	10292
545.363	12139
545.428	12868
545.493	16857
545.558	35576
545.623	26610
545.688	10092
545.753	10023
545.818	8176
545.883	10275
545.947	9030
546.012	9968
546.077	10890
546.142	10304
546.207	8640
546.272	11149
546.337	12515
546.401	10430
546.466	9884
546.531	8788
546.596	9754
546.661	9524
546.725	10437
546.790	7811
546.855	8740
546.919	9009
546.984	8228
547.049	10196
547.113	11098
547.178	9525
547.243	10267
547.307	11347
547.372	11524
547.436	15270
547.501	12086
547.565	10910
547.630	11705
547.695	13389
547.759	14296
547.823	14714
547.888	10046
547.952	10747
548.017	9809
548.081	12750
548.146	15476
548.210	16761
548.274	11521
548.339	10766
548.403	9732
548.468	9904
548.532	9924
548.596	9997
548.660	9566
548.725	10983
548.789	11562
548.853	15359
548.917	10838
548.982	12790
549.046	18176
549.110	10829
549.174	9947
549.238	9577
549.303	9336
549.367	10607
549.431	9594
549.495	9352
549.559	8126
549.623	10186
549.687	11512
549.751	15102
549.815	12782
549.879	12335
549.943	10031
550.007	12107
550.071	11753
550.135	15049
550.199	12670
550.263	11435
550.327	12384
550.391	15590
550.455	14014
550.519	12015
550.582	11696
550.646	13833
550.710	17480
550.774	13522
550.838	12196
550.901	12824
550.965	14002
551.029	14688
551.093	15551
551.156	18568
551.220	29479
551.284	46057
551.347	23252
551.411	31547
551.475	57291
551.538	21626
551.602	12580
551.666	11792
551.729	10636
551.793	12776
551.856	12274
551.920	12607
551.983	11607
552.047	10849
552.110	11424
552.174	11136
552.237	10650
552.301	11012
552.364	10603
552.428	10688
552.491	9560
552.554	10852
552.618	10182
552.681	11366
552.745	11019
552.808	14124
552.871	19661
552.934	16166
552.998	12050
553.061	12929
553.124	13197
553.187	13522
553.251	13609
553.314	15987
553.377	15968
553.440	20985
553.503	46002
553.567	127769
553.630	41368
553.693	14110
553.756	12820
553.819	11428
553.882	10191
553.945	11637
554.008	10059
554.071	10122
554.134	10658
554.197	10666
554.260	9732
554.323	10965
554.386	10223
554.449	11014
554.512	10766
554.575	9912
554.638	9835
554.701	10586
554.764	8859
554.827	9542
554.889	9964
554.952	9221
555.015	8454
555.078	8742
555.141	9520
555.203	8608
555.266	8206
555.329	9549
555.391	9048
555.454	9959
555.517	9892
555.580	9393
555.642	8409
555.705	8069
555.768	9606
555.830	9938
555.893	8230
555.955	8817
556.018	8186
556.080	9664
556.143	8384
556.206	8143
556.268	9395
556.330	10104
556.393	9957
556.455	9248
556.518	12020
556.580	16652
556.643	9381
556.705	9025
556.767	7359
556.830	10283
556.892	9038
556.955	12103
557.017	12339
557.079	9289
557.142	8568
557.204	8547
557.266	14638
557.328	18919
557.391	8967
557.453	8268
557.515	7894
557.577	8401
557.639	10658
557.701	8432
557.764	6707
557.826	7603
557.888	8655
557.950	8115
558.012	8700
558.074	8779
558.136	11522
558.198	27220
558.260	20898
558.322	10122
558.384	9275
558.446	11335
558.508	10692
558.570	14040
558.632	18464
558.694	33529
558.756	27123
558.818	37888
558.880	136786
558.942	85450
559.003	30491
559.065	25624
559.127	11741
559.189	10339
559.251	11912
559.312	13184
559.374	20616
559.436	68042
559.498	73568
559.559	14904
559.621	11792
559.683	11748
559.744	15122
559.806	31275
559.868	69529
559.929	28379
559.991	14864
560.052	13563
560.114	23606
560.176	28468
560.237	15964
560.299	31449
560.360	18226
560.422	9600
560.483	9950
560.545	9042
560.606	7857
560.667	9265
560.729	8246
560.790	8488
560.852	7359
560.913	8674
560.974	7727
561.036	7970
561.097	7975
561.158	9201
561.220	8942
561.281	9351
561.342	8846
561.403	10558
561.465	10078
561.526	18776
561.587	36032
561.648	16673
561.709	9835
561.771	7958
561.832	8072
561.893	8978
561.954	7578
562.015	8865
562.076	8117
562.137	8897
562.198	8421
562.259	8870
562.320	9028
562.381	9611
562.442	12166
562.503	12736
562.564	8571
562.625	8204
562.686	9044
562.747	8256
562.808	10114
562.869	8962
562.930	10723
562.991	11015
563.051	10932
563.112	9580
563.173	9452
563.234	8809
563.294	8919
563.355	8953
563.416	9770
563.477	9493
563.537	9079
563.598	10207
563.659	9310
563.720	9416
563.780	9415
563.841	9916
563.901	9073
563.962	9874
564.023	9623
564.083	10175
564.144	9041
564.204	9674
564.265	8512
564.325	10585
564.386	16377
564.446	23689
564.507	11218
564.567	9071
564.628	9814
564.688	9485
564.749	9444
564.809	10844
564.869	13157
564.930	11439
564.990	10006
565.050	9579
565.111	8991
565.171	8858
565.231	9392
565.292	10731
565.352	9096
565.412	9666
565.472	9678
565.532	10299
565.593	9658
565.653	9866
565.713	10240
565.773	11133
565.833	11028
565.893	15010
565.953	11084
566.013	11109
566.074	11242
566.134	13886
566.194	17979
566.254	23207
566.314	17159
566.374	12830
566.434	12571
566.494	12870
566.554	13586
566.614	14206
566.673	14275
566.733	15112
566.793	16382
566.853	16679
566.913	17601
566.973	17986
567.033	17754
567.092	17465
567.152	16155
567.212	17932
567.272	17110
567.331	18087
567.391	19041
567.451	20644
567.511	22301
567.570	25543
567.630	18938
567.690	17639
567.749	17551
567.809	18585
567.868	20345
567.928	22561
567.988	26070
568.047	30360
568.107	34641
568.166	43188
568.226	59356
568.285	84698
568.345	90278
568.404	78658
568.464	68608
568.523	64370
568.582	62510
568.642	64544
568.701	75706
568.761	95116
568.820	134167
568.879	157014
568.939	137857
568.998	112914
569.057	90187
569.116	73209
569.176	60395
569.235	49160
569.294	44432
569.353	37589
569.413	32871
569.472	29068
569.531	26759
569.590	24301
569.649	21697
569.708	20920
569.767	18827
569.827	19226
569.886	17255
569.945	16416
570.004	15225
570.063	14704
570.122	14440
570.181	14568
570.240	14550
570.299	16037
570.358	14092
570.417	13038
570.475	11006
570.534	11741
570.593	10924
570.652	11624
570.711	11450
570.770	10914
570.829	11399
570.887	12036
570.946	12622
571.005	10569
571.064	10301
571.122	10081
571.181	9914
571.240	10337
571.299	9118
571.357	10387
571.416	10459
571.475	10131
571.533	12303
571.592	9939
571.650	9765
571.709	9312
571.768	8432
571.826	9973
571.885	7557
571.943	8236
572.002	7798
572.060	9352
572.119	7502
572.177	8216
572.236	6517
572.294	7542
572.352	7672
572.411	7623
572.469	8072
572.528	7268
572.586	8662
572.644	7757
572.703	10369
572.761	8057
572.819	8511
572.877	8018
572.936	7237
572.994	7073
573.052	6394
573.110	7702
573.169	7432
573.227	8076
573.285	7602
573.343	7417
573.401	7099
573.459	7008
573.517	6738
573.576	6924
573.634	6955
573.692	7424
573.750	7143
573.808	6754
573.866	7092
573.924	7555
573.982	9482
574.040	8125
574.098	5945
574.155	6563
574.213	6997
574.271	6292
574.329	6143
574.387	6145
574.445	6468
574.503	6548
574.560	5895
574.618	6669
574.676	6112
574.734	5646
574.792	6980
574.849	7269
574.907	6574
574.965	5828
575.022	5534
575.080	6139
575.138	6977
575.195	6620
575.253	6925
575.311	6653
575.368	6781
575.426	5843
575.483	6353
575.541	6661
575.598	5839
575.656	6518
575.713	6299
575.771	6705
575.828	6625
575.886	6781
575.943	7093
576.001	7681
576.058	6894
576.115	7371
576.173	7591
576.230	7952
576.287	8360
576.345	9419
576.402	7004
576.459	7250
576.517	7165
576.574	8488
576.631	7478
576.688	8346
576.746	7307
576.803	6550
576.860	6715
576.917	7339
576.974	7127
577.031	7562
577.089	7360
577.146	7206
577.203	6593
577.260	8528
577.317	8294
577.374	9016
577.431	9479
577.488	8760
577.545	6596
577.602	8564
577.659	7909
577.716	8368
577.773	9407
577.830	8616
577.886	7419
577.943	7055
578.000	7354
578.057	8298
578.114	8986
578.171	8812
578.227	11602
578.284	13079
578.341	11096
578.398	9281
578.454	9786
578.511	8912
578.568	9757
578.625	8621
578.681	8952
578.738	7952
578.794	7471
578.851	7713
578.908	7610
578.964	7560
579.021	8678
579.077	7429
579.134	8848
579.190	7678
579.247	7345
579.303	8301
579.360	7372
579.416	7722
579.473	7319
579.529	7323
579.586	8285
579.642	7865
579.698	7226
579.755	7610
579.811	8653
579.867	8257
579.924	8203
579.980	8911
580.036	9871
580.093	10589
580.149	14145
580.205	18845
580.261	16612
580.317	13637
580.374	11749
580.430	12232
580.486	12669
580.542	9649
580.598	9965
580.619	9434
580.654	8525
580.692	9023
580.710	9290
580.765	9250
580.767	9261
580.823	9276
580.838	9305
580.879	9445
580.911	8903
580.935	8524
580.984	8433
580.991	8432
581.047	8452
581.057	8645
581.103	9577
581.130	9549
581.159	9537
581.203	10430
581.215	10682
581.270	11118
581.276	10987
581.326	9901
581.349	9709
581.382	9431
581.422	9139
581.438	9019
581.494	9039
581.494	9033
581.550	9648
581.567	9328
581.606	8541
581.640	9010
581.661	9364
581.713	9323
581.717	9325
581.773	8808
581.786	8812
581.829	8911
581.859	9228
581.885	9527
581.932	9240
581.940	9178
581.996	8959
582.004	9005
582.052	9335
582.077	9445
582.107	9573
582.150	9118
582.163	9001
582.219	9324
582.223	9286
582.274	8840
582.296	9011
582.330	9362
582.368	9220
582.386	9144
582.441	9471
582.441	9477
582.497	8943
582.514	9039
582.552	9230
582.587	9731
582.608	10078
582.659	9877
582.663	9861
582.719	10443
582.732	10397
582.774	10248
582.805	9694
582.830	9263
582.877	10016
582.885	10134
582.941	10170
582.950	10235
582.996	10642
583.023	10700
583.052	10760
583.095	11528
583.107	11721
583.162	12366
583.168	12490
583.218	13777
583.240	13592
583.273	13284
583.313	12204
583.328	11729
583.384	11464
583.385	11444
583.439	11194
583.458	10995
583.494	10372
583.531	9850
583.549	9697
583.603	9831
583.605	9829
583.660	9829
583.676	9821
583.715	9858
583.748	9850
583.770	9822
583.820	10424
583.825	10488
583.881	10464
583.893	10432
583.936	10279
583.965	10427
583.991	10448
584.038	10739
584.046	10815
584.101	10855
584.110	10814
584.156	10696
584.183	10476
584.211	10044
584.255	10308
584.266	10367
584.321	10747
584.328	10704
584.376	10583
584.400	10850
584.431	11168
584.472	10675
584.486	10490
584.541	11273
584.545	11292
584.596	11287
584.617	11239
584.651	11223
584.689	11123
584.706	11027
584.761	11489
584.762	11497
584.816	11440
584.834	11639
584.871	11750
584.906	11455
584.926	11362
584.978	11856
584.980	11865
585.035	12286
585.051	12559
585.090	13106
585.123	12798
585.145	12570
585.195	13277
585.200	13354
585.254	13144
585.267	13462
585.309	14282
585.340	15155
585.364	15844
585.412	16267
585.419	16248
585.473	14996
585.484	15122
585.528	15613
585.556	15903
585.583	16562
585.628	18655
585.637	19315
585.692	25009
585.700	27046
585.747	38690
585.772	38383
585.801	33681
585.845	22597
585.856	20366
585.910	16421
585.917	16218
585.965	16026
585.989	16139
586.019	16148
586.061	15738
586.074	15643
586.128	16194
586.133	16305
586.183	16752
586.205	16691
586.237	16823
586.277	17351
586.292	17461
586.346	17383
586.349	17443
586.401	17802
586.421	18228
586.455	18743
586.493	19177
586.509	19575
586.564	21585
586.565	21729
586.618	26179
586.637	27501
586.672	28795
586.709	25283
586.727	23188
586.781	21630
586.781	21572
586.835	21396
586.853	21450
586.889	21275
586.925	21495
586.944	21796
586.996	23241
586.998	23202
587.052	23385
587.068	23692
587.106	24241
587.140	24833
587.161	25104
587.212	26216
587.215	26176
587.269	27441
587.284	27616
587.323	28063
587.356	29021
587.377	29333
587.427	30883
587.431	30916
587.485	32109
587.499	32648
587.539	33488
587.571	34744
587.593	35606
587.643	37634
587.648	37640
587.702	39841
587.715	40429
587.755	42062
587.786	43819
587.810	44918
587.858	48625
587.864	48811
587.917	52169
587.930	53303
587.971	56628
588.001	59457
588.025	61182
588.073	65886
588.079	66279
588.133	73366
588.145	75403
588.187	81305
588.217	86550
588.241	90782
588.288	100913
588.295	101825
588.348	114239
588.360	117622
588.402	129018
588.431	138697
588.456	146522
588.503	164950
588.510	166944
588.564	191292
588.575	197786
588.617	222045
588.646	240564
588.671	257797
588.718	295834
588.725	302754
588.778	366547
588.789	379747
588.832	465130
588.861	519331
588.886	599558
588.932	732487
588.939	740438
588.993	781490
589.004	800638
589.047	745746
589.075	711050
589.100	639330
589.147	469095
589.154	457527
589.207	364861
589.218	347666
589.261	316134
589.290	300603
589.314	297366
589.361	301701
589.368	305028
589.421	352184
589.433	363740
589.475	463535
589.504	529808
589.528	610574
589.576	745825
589.582	737703
589.635	688872
589.647	679755
589.689	518784
589.718	385114
589.742	335891
589.790	236035
589.795	228946
589.849	177933
589.861	168207
589.902	144826
589.932	130830
589.955	120017
590.004	100881
590.009	98505
590.062	84816
590.075	82251
590.115	73581
590.146	69027
590.168	64894
590.218	57980
590.222	56983
590.275	51575
590.289	50708
590.328	47277
590.360	45114
590.381	42850
590.431	39319
590.435	38761
590.488	35996
590.503	35478
590.541	32984
590.574	31688
590.594	30686
590.645	28981
590.647	28631
590.700	26931
590.716	26596
590.753	24705
590.787	23961
590.806	23341
590.859	21857
590.859	21617
590.912	20745
590.930	20724
590.965	19644
591.001	18977
591.018	18538
591.071	17965
591.072	18147
591.124	17343
591.143	17346
591.177	16554
591.214	16164
591.230	15810
591.283	15091
591.285	15229
591.336	15161
591.356	15349
591.389	14774
591.427	14374
591.442	13900
591.495	12667
591.498	12732
591.547	12293
591.569	12275
591.600	11668
591.640	11223
591.653	11169
591.706	11557
591.711	11729
591.759	11732
591.782	11892
591.811	11372
591.853	11071
591.864	10903
591.917	10561
591.924	10639
591.969	9904
591.995	9648
592.022	9518
592.066	9682
592.075	9533
592.127	9322
592.137	9415
592.180	10301
592.208	11053
592.233	10318
592.279	9135
592.285	8938
592.338	8282
592.350	8252
592.390	7994
592.421	7970
592.443	7781
592.491	7724
592.495	7591
592.548	7196
592.562	7200
592.600	7305
592.633	7570
592.653	7286
592.704	6786
592.705	6827
592.775	7106
592.846	6698
592.916	5543
592.987	7100
593.058	6814
593.128	6265
593.199	6067
593.270	5695
593.341	6232
593.411	6144
593.482	5210
593.553	6128
593.623	6366
593.694	5401
593.764	5429
593.835	6129
593.906	5291
593.976	4894
594.047	5468
594.117	6408
594.188	6156
594.258	4963
594.329	5266
594.399	5853
594.470	4989
594.540	5214
594.611	3886
594.681	4204
594.751	5665
594.822	5171
594.892	5381
594.963	5691
595.033	6277
595.103	5330
595.174	5934
595.244	6631
595.314	8813
595.384	6401
595.455	4770
595.525	4909
595.595	5265
595.665	4877
595.736	4468
595.806	4791
595.876	5092
595.946	5547
596.016	4990
596.087	4546
596.157	4695
596.227	4167
596.297	4921
596.367	4969
596.437	5545
596.507	5744
596.577	7858
596.647	5779
596.717	5049
596.787	4888
596.857	5175
596.927	5139
596.997	5019
597.067	4448
597.137	5292
597.207	5973
597.277	4363
597.347	5006
597.417	4747
597.487	5223
597.557	5461
597.626	5152
597.696	5684
597.766	5123
597.836	6927
597.906	5788
597.975	4216
598.045	4105
598.115	4319
598.185	4944
598.254	4561
598.324	5410
598.394	4770
598.464	4818
598.533	5475
598.603	4633
598.672	4881
598.742	5092
598.812	4691
598.881	4142
598.951	4532
599.020	4612
599.090	5049
599.159	5593
599.229	5161
599.299	4752
599.368	5077
599.437	5206
599.507	4455
599.576	4912
599.646	5117
599.715	4868
599.785	5062
599.854	4375
599.924	5070
599.993	5023
600.062	4653
600.132	3905
600.201	4497
600.270	4821
600.340	5108
600.409	4921
600.478	4420
600.547	5167
600.617	5279
600.686	3837
600.755	4183
600.824	4229
600.894	4678
600.963	3259
601.032	4077
601.101	5149
601.170	4117
601.239	4329
601.308	4480
601.378	3948
601.447	3978
601.516	4155
601.585	4698
601.654	4325
601.723	4556
601.792	4042
601.861	4613
601.930	4798
601.999	5029
602.068	5151
602.137	3740
602.206	4559
602.275	4042
602.343	4596
602.412	4691
602.481	4748
602.550	3930
602.619	4111
602.688	4000
602.756	4318
602.825	4199
602.894	3679
602.963	4569
603.032	4773
603.100	4004
603.169	4859
603.238	2923
603.307	4208
603.375	3984
603.444	4270
603.513	4199
603.581	3896
603.650	4680
603.719	3680
603.787	3385
603.856	3950
603.924	4180
603.993	4212
604.061	3602
604.130	4448
604.198	4816
604.267	4226
604.335	4086
604.404	4083
604.472	4301
604.541	4016
604.609	4713
604.678	4800
604.746	3738
604.815	4088
604.883	4645
604.951	4323
605.020	4207
605.088	3874
605.156	4280
605.225	4899
605.293	4659
605.361	4594
605.429	4226
605.498	4821
605.566	4952
605.634	5290
605.702	4442
605.771	4586
605.839	4368
605.907	4591
605.975	4509
606.043	4382
606.111	4306
606.180	4669
606.248	5038
606.316	6255
606.384	5231
606.452	5687
606.520	5873
606.588	5225
606.656	4435
606.724	4564
606.792	4951
606.860	3638
606.928	2825
606.996	3510
607.064	3612
607.132	4532
607.200	3141
607.267	3050
607.335	3278
607.403	3513
607.471	3565
607.539	4056
607.607	2779
607.674	2964
607.742	3464
607.810	3549
607.878	3968
607.946	3879
608.013	4088
608.081	3472
608.149	3508
608.216	3455
608.284	4412
608.352	2601
608.419	3373
608.487	5099
608.555	4432
608.622	4221
608.690	4081
608.757	3956
608.825	3876
608.893	3082
608.960	5213
609.028	4172
609.095	5216
609.163	4299
609.230	3586
609.298	3660
609.365	2828
609.432	3175
609.500	3677
609.567	4436
609.635	3919
609.702	5505
609.769	4298
609.837	4393
609.904	3644
609.971	4031
610.039	4597
610.106	5836
610.173	10884
610.241	24730
610.308	33819
610.375	21599
610.442	7733
610.509	4090
610.577	3694
610.644	3778
610.711	3646
610.778	3482
610.845	3111
610.912	4177
610.980	4141
611.047	5606
611.114	5294
611.181	4122
611.248	3364
611.315	4554
611.382	3929
611.449	3535
611.516	4018
611.583	3570
611.650	3801
611.717	3511
611.784	3725
611.851	4293
611.918	4891
611.984	6221
612.051	8247
612.118	18139
612.185	45848
612.252	59074
612.319	11835
612.386	4781
612.452	4571
612.519	4265
612.586	5475
612.653	5193
612.719	4164
612.786	4690
612.853	2823
612.919	3705
612.986	3294
613.053	3463
613.120	3450
613.186	3253
613.253	4179
613.319	3726
613.386	4088
613.453	3666
613.519	3754
613.586	4600
613.652	7303
613.719	5805
613.785	5764
613.852	4277
613.918	3609
613.985	4400
614.051	5854
614.118	13728
614.184	22691
614.250	7217
614.317	3862
614.383	4129
614.449	3168
614.516	3562
614.582	3891
614.648	3737
614.715	3014
614.781	3556
614.847	3251
614.914	4115
614.980	3746
615.046	4174
615.112	3033
615.179	3757
615.245	4052
615.311	5974
615.377	7198
615.443	12276
615.509	8177
615.575	5485
615.642	4659
615.708	4837
615.774	5686
615.840	6454
615.906	8389
615.972	11766
616.038	22596
616.104	38759
616.170	66074
616.236	99283
616.302	25816
616.368	8781
616.434	7070
616.500	5723
616.565	6356
616.631	7065
616.697	6342
616.763	6487
616.829	7317
616.895	14238
616.961	17805
617.026	10063
617.092	5137
617.158	4906
617.224	4031
617.289	3299
617.355	4194
617.421	3698
617.487	4348
617.552	3468
617.618	3066
617.684	2457
617.749	4229
617.815	3399
617.880	3145
617.946	3675
618.012	2639
618.077	3709
618.143	3597
618.208	3475
618.274	3064
618.339	3072
618.405	2872
618.470	3070
618.536	3555
618.601	3875
618.667	3362
618.732	3544
618.798	3116
618.863	3285
618.928	2813
618.994	3244
619.059	3882
619.124	5451
619.190	4463
619.255	2971
619.320	4096
619.386	3164
619.451	2552
619.516	2958
619.581	2650
619.647	3108
619.712	2843
619.777	3385
619.842	3823
619.907	3194
619.972	3409
620.038	3747
620.103	3742
620.168	2707
620.233	2555
620.298	3007
620.363	2943
620.428	2312
620.493	2575
620.558	2826
620.623	2481
620.688	2947
620.753	3103
620.818	2429
620.883	2881
620.948	3082
621.013	3220
621.078	2904
621.143	1957
621.207	4399
621.272	3791
621.337	3575
621.402	3696
621.467	4376
621.532	5124
621.596	4326
621.661	3116
621.726	3735
621.791	3136
621.855	4113
621.920	3166
621.985	4335
622.049	4321
622.114	4014
622.179	3999
622.243	3614
622.308	3806
622.373	4205
622.437	4341
622.502	3241
622.566	3589
622.631	3047
622.695	3779
622.760	3808
622.824	3717
622.889	4383
622.953	3831
623.018	4902
623.082	7224
623.147	4455
623.211	4376
623.276	3755
623.340	3213
623.404	3005
623.469	3736
623.533	3442
623.597	3410
623.662	3089
623.726	3102
623.790	3124
623.854	2749
623.919	3755
623.983	2342
624.047	3502
624.111	2768
624.176	3285
624.240	3374
624.304	3796
624.368	3469
624.432	3689
624.496	3073
624.560	3602
624.625	4214
624.689	3841
624.753	2920
624.817	2757
624.881	3129
624.945	2733
625.009	3051
625.073	3233
625.137	2676
625.201	3472
625.265	5380
625.329	2819
625.393	2954
625.456	4381
625.520	3323
625.584	4029
625.648	4120
625.712	5518
625.776	11952
625.839	17537
625.903	11287
625.967	4003
626.031	5597
626.095	9094
626.158	6106
626.222	2435
626.286	2038
626.349	2321
626.413	1790
626.477	2376
626.540	2303
626.604	2465
626.668	2631
626.731	1845
626.795	2322
626.858	2861
626.922	1976
626.986	2397
627.049	2283
627.113	1551
627.176	2243
627.240	1961
627.303	2063
627.366	2257
627.430	1500
627.493	2283
627.557	1969
627.620	2494
627.684	2092
627.747	1951
627.810	1391
627.874	2516
627.937	1614
628.000	3403
628.064	1809
628.127	1746
628.190	1905
628.253	2330
628.317	1235
628.380	1805
628.443	1614
628.506	1785
628.569	1160
628.632	1374
628.696	1688
628.759	1448
628.822	1039
628.885	812
628.948	1132
629.011	1214
629.074	1449
629.137	2294
629.200	1197
629.263	1440
629.326	659
629.389	1058
629.452	1595
629.515	1536
629.578	1674
629.641	1909
629.704	1779
629.767	1830
629.830	1128
629.892	1294
629.955	1309
630.018	2180
630.081	1315
630.144	2430
630.207	1681
630.269	1780
630.332	1818
630.395	2375
630.458	1311
630.520	628
630.583	1929
630.646	563
630.708	1365
630.771	625
630.834	1211
630.896	1219
630.959	908
631.021	510
631.084	911
631.146	1084
631.209	1285
631.272	1003
631.334	1363
631.397	1168
631.459	1289
631.522	1805
631.584	965
631.646	1577
631.709	1260
631.771	2062
631.834	1627
631.896	840
631.958	1232
632.021	1166
632.083	1115
632.145	1136
632.208	706
632.270	2154
632.332	819
632.395	657
632.457	1308
632.519	774
632.581	1357
632.643	862
632.706	897
632.768	1511
632.830	1378
632.892	1136
632.954	789
633.016	1808
633.078	691
633.141	1635
633.203	548
633.265	1408
633.327	604
633.389	1285
633.451	1881
633.513	2022
633.575	1664
633.637	2137
633.698	1539
633.760	1599
633.822	960
633.884	1243
633.946	538
634.008	1006
634.070	1131
634.132	1630
634.193	866
634.255	925
634.317	390
634.379	1682
634.441	681
634.502	862
634.564	722
634.626	1775
634.687	971
634.749	1139
634.811	791
634.873	536
634.934	885
634.996	1132
635.057	533
635.119	695
635.181	699
635.242	1418
635.304	337
635.365	2820
635.427	630
635.488	774
635.550	758
635.611	1332
635.673	10
635.734	1414
635.796	604
635.857	1580
635.918	922
635.980	1560
636.041	1229
636.102	1059
636.164	1202
636.225	1761
636.286	1010
636.348	839
636.409	1527
636.470	410
636.531	383
636.593	647
636.654	728
636.715	1015
636.776	56
636.838	791
636.899	642
636.960	482
637.021	714
637.082	922
637.143	564
637.204	322
637.265	-370
637.326	908
637.387	309
637.448	217
637.509	948
637.570	-74
637.631	75
637.692	-297
637.753	280
637.814	196
637.875	980
637.936	446
637.997	178
638.058	216
638.119	443
638.179	479
638.240	371
638.301	758
638.362	383
638.423	-472
638.483	810
638.544	114
638.605	172
638.666	-550
638.726	639
638.787	-59
638.848	94
638.908	535
638.969	856
639.030	667
639.090	62
639.151	27
639.211	781
639.272	764
639.332	1958
639.393	1788
639.453	87
639.514	133
639.574	559
639.635	107
639.695	82
639.756	401
639.816	148
639.877	13
639.937	2214
639.997	3216
640.058	1311
640.118	-393
640.178	698
640.239	-380
640.299	427
640.359	333
640.420	533
640.480	-121
640.540	-380
640.600	420
640.661	479
640.721	-21
640.781	1043
640.841	-583
640.901	1449
640.961	350
641.021	965
641.082	934
641.142	999
641.202	1215
641.262	-199
641.322	1300
641.382	242
641.442	549
641.502	872
641.562	755
641.622	-412
641.682	-139
641.742	537
641.802	570
641.861	-111
641.921	365
641.981	1160
642.041	981
642.101	95
642.161	518
642.221	100
642.280	213
642.340	-332
642.400	11
642.460	189
642.519	98
642.579	-219
642.639	233
642.698	-1119
642.758	2108
642.818	680
642.877	-171
642.937	493
642.997	467
643.056	752
643.116	-178
643.175	460
643.235	238
643.294	132
643.354	170
643.414	88
643.473	476
643.532	377
643.592	910
643.651	1276
643.711	4835
643.770	7844
643.830	16150
643.889	51308
643.948	35056
644.008	2725
644.067	627
644.126	-181
644.186	-178
644.245	645
644.304	-397
644.363	1423
644.423	-69
644.482	-373
644.541	1042
644.600	-854
644.659	696
644.719	-138
644.778	1000
644.837	129
644.896	3090
644.955	7590
645.014	6750
645.073	1606
645.132	208
645.191	-509
645.250	-214
645.309	1121
645.368	-111
645.427	845
645.486	311
645.545	1200
645.604	780
645.663	-115
645.722	-304
645.781	582
645.840	147
645.898	477
645.957	1067
646.016	742
646.075	3524
646.134	6163
646.192	13800
646.251	40154
646.310	15983
646.369	1634
646.427	822
646.486	-433
646.545	92
646.603	17
646.662	244
646.721	-289
646.779	-540
646.838	-605
646.896	289
646.955	770
647.014	202
647.072	-104
647.131	3926
647.189	4821
647.248	-61
647.306	127
647.365	-125
647.423	-674
647.481	904
647.540	-1314
647.598	-722
647.657	142
647.715	-194
647.773	-1328
647.832	638
647.890	-937
647.948	-377
648.007	199
648.065	-853
648.123	-437
648.181	1018
648.240	160
648.298	127
648.356	-553
648.414	-196
648.472	1
648.531	-411
648.589	-5
648.647	-422
648.705	-97
648.763	-417
648.821	269
648.879	300
648.937	424
648.995	92
649.053	26
649.111	296
649.169	1313
649.227	2049
649.285	4269
649.343	13086
649.401	18828
649.459	3997
649.516	4395
649.574	774
649.632	3509
649.690	8702
649.748	3794
649.806	880
649.863	2777
649.921	3647
649.979	4178
650.037	240
650.094	-1451
650.152	-161
650.210	-535
650.268	333
650.325	-122
650.383	-422
650.440	-1155
650.498	315
650.556	-397
650.613	-417
650.671	629
650.728	-56
650.786	-191
650.843	-452
650.901	-1236
650.958	401
651.016	-630
651.073	-207
651.131	-549
651.188	-1363
651.246	-84
651.303	-1437
651.360	-314
651.418	-647
651.475	287
651.532	-1190
651.590	-147
651.647	-1219
651.704	-468
651.762	-463
651.819	-129
651.876	-394
651.933	-294
651.990	-171
652.048	-764
652.105	-897
652.162	-748
652.219	-578
652.276	-520
652.333	-385
652.390	-956
652.448	-1151
652.505	-1385
652.562	-502
652.619	-115
652.676	1
652.733	916
652.790	-390
652.847	-1282
652.904	-466
652.961	-1206
653.017	-1260
653.074	-250
653.131	-756
653.188	-1043
653.245	-360
653.302	-134
653.359	-403
653.415	-327
653.472	-82
653.529	-323
653.586	-703
653.642	-654
653.699	-721
653.756	-1036
653.813	-664
653.869	-640
653.926	-1340
653.983	-728
654.039	135
654.096	-597
654.152	558
654.209	-1100
654.266	182
654.322	-1772
654.379	-36
654.435	-133
654.492	-554
654.548	-752
654.605	904
654.661	683
654.717	206
654.774	-146
654.830	-843
654.887	-1556
654.943	-1102
655.000	-529
655.056	-1086
655.112	-477
655.168	-394
655.225	-932
655.281	433
655.337	-811
655.394	648
655.450	1041
655.506	-33
655.562	-362
655.618	1700
655.675	-899
655.731	-782
655.787	-994
655.843	-637
655.899	-759
655.955	190
656.011	-56
656.067	-223
656.123	358
656.179	92
656.235	1523
656.291	430
656.347	739
656.403	-251
656.459	4
656.515	-106
656.571	-215
656.627	536
656.683	-742
656.739	208
656.795	-252
656.850	3
656.906	-260
656.962	-476
657.018	-486
657.074	-218
657.129	187
657.185	-196
657.241	-35
657.297	-426
657.352	-226
657.408	-1026
657.464	-264
657.519	-1072
657.575	-461
657.630	-30
657.686	-372
657.742	-767
657.797	-822
657.853	-618
657.908	236
657.964	-673
658.019	-770
658.075	-945
658.130	-486
658.186	-1482
658.241	-413
658.297	-996
658.352	-1251
658.407	-416
658.463	-1051
658.518	629
658.573	-868
658.629	-357
658.684	-508
658.739	-876
658.795	-1521
658.850	-566
658.905	-890
658.960	-682
659.016	-1484
659.071	-446
659.126	-1025
659.181	-1043
659.236	-156
659.291	339
659.346	-733
659.401	-720
659.457	-272
659.512	198
659.567	-77
659.622	-1173
659.677	-747
659.732	-1478
659.787	-958
659.842	-706
659.897	-467
659.952	454
660.007	-980
660.061	-556
660.116	-464
660.171	-1211
660.226	-408
660.281	-276
660.336	-913
660.391	-305
660.445	-952
660.500	-1172
660.555	-540
660.610	-1200
660.664	-77
660.719	-1075
660.774	-755
660.828	-195
660.883	-851
660.938	-543
660.992	-1301
661.047	-823
661.101	-541
661.156	-580
661.211	-1572
661.265	-1513
661.320	-936
661.374	-511
661.429	-1122
661.483	-662
661.538	-1082
661.592	-501
661.647	-1496
661.701	261
661.755	-371
661.810	94
661.864	-1505
661.919	235
661.973	-519
662.027	-664
662.081	-1546
662.136	-1018
662.190	-66
662.244	-186
662.299	-976
662.353	-765
662.407	-1065
662.461	-1592
662.515	-922
662.569	-961
662.624	-175
662.678	-1332
662.732	-1981
662.786	-747
662.840	82
662.894	-107
662.948	-1378
663.002	-254
663.056	-454
663.110	-602
663.164	-443
663.218	-445
663.272	-677
663.326	-193
663.380	-1062
663.434	120
663.488	-1012
663.542	-385
663.595	-65
663.649	-836
663.703	-167
663.757	-196
663.811	-1397
663.864	116
663.918	-462
663.972	-1506
664.026	-776
664.079	-1136
664.133	-909
664.187	-182
664.240	-499
664.294	-1132
664.348	-1315
664.401	-923
664.455	-297
664.508	-920
664.562	-359
664.615	-201
664.669	-1271
664.722	-489
664.776	-1131
664.829	-354
664.883	-404
664.936	-565
664.990	-551
665.043	-285
665.097	-872
665.150	-461
665.203	-726
665.257	-620
665.310	-1293
665.363	-1196
665.417	-391
665.470	-409
665.523	-261
665.576	-604
665.630	-643
665.683	-553
665.736	-150
665.789	300
665.842	-915
665.895	-856
665.949	-86
666.002	-1033
666.055	-461
666.108	-194
666.161	-205
666.214	-465
666.267	-157
666.320	-294
666.373	251
666.426	-288
666.479	-686
666.532	-360
666.585	-693
666.638	534
666.691	-645
666.744	-95
666.796	-360
666.849	-22
666.902	-734
666.955	-333
667.008	-848
667.060	-926
667.113	-848
667.166	-878
667.219	-347
667.271	-524
667.324	-184
667.377	-266
667.430	-1045
667.482	-565
667.535	456
667.587	-415
667.640	-242
667.693	-125
667.745	255
667.798	1376
667.850	-85
667.903	-370
667.955	-846
668.008	-489
668.060	539
668.113	-561
668.165	360
668.218	-254
668.270	-217
668.322	-112
668.375	-441
668.427	194
668.479	-482
668.532	-225
668.584	-327
668.636	-361
668.689	-202
668.741	-706
668.793	-379
668.845	-245
668.898	-356
668.950	156
669.002	110
669.054	-383
669.106	-362
669.158	334
669.211	-489
669.263	147
669.315	-201
669.367	247
669.419	-296
669.471	-14
669.523	223
669.575	929
669.627	516
669.679	-650
669.731	-503
669.783	59
669.835	-81
669.886	561
669.938	12
669.990	159
670.042	-712
670.094	49
670.146	-205
670.197	715
670.249	506
670.301	1142
670.353	1464
670.404	2955
670.456	3193
670.508	7752
670.560	12271
670.611	20459
670.663	35578
670.715	71007
670.766	179128
670.818	156629
670.869	33240
670.921	8905
670.972	5127
671.024	2238
671.075	2195
671.127	1536
671.178	795
671.230	537
671.281	304
671.333	563
671.384	79
671.436	541
671.487	781
671.538	691
671.590	-47
671.641	494
671.692	934
671.744	2110
671.795	3778
671.846	1500
671.897	163
671.949	-171
672.000	409
672.051	381
672.102	394
672.153	-344
672.204	244
672.256	399
672.307	-803
672.358	182
672.409	524
672.460	640
672.511	-838
672.562	-821
672.613	-52
672.664	20
672.715	-318
672.766	-403
672.817	-75
672.868	-477
672.919	136
672.970	-450
673.021	401
673.071	-365
673.122	535
673.173	-484
673.224	-451
673.275	473
673.326	-235
673.376	-203
673.427	-269
673.478	-308
673.528	187
673.579	315
673.630	-1318
673.680	233
673.731	-670
673.782	-204
673.832	-395
673.883	-419
673.934	-123
673.984	-441
674.035	-207
674.085	-241
674.136	496
674.186	-351
674.237	303
674.287	523
674.338	884
674.388	-10
674.438	-561
674.489	-744
674.539	-470
674.589	987
674.640	-436
674.690	-194
674.740	-770
674.791	482
674.841	243
674.891	62
674.942	-22
674.992	-965
675.042	-527
675.092	-286
675.142	-578
675.193	-350
675.243	-633
675.293	-224
675.343	-286
675.393	191
675.443	-9
675.493	-413
675.543	-956
675.593	-596
675.643	-524
675.693	-214
675.743	-660
675.793	-238
675.843	-601
675.893	-34
675.943	-91
675.993	176
676.043	-656
676.093	272
676.142	-1263
676.192	-304
676.242	-325
676.292	-565
676.341	-905
676.391	-770
676.441	-366
676.491	-604
676.540	-1041
676.590	-853
676.640	-1135
676.689	-477
676.739	-621
676.789	-540
676.838	-400
676.888	182
676.937	-1093
676.987	-514
677.037	-909
677.086	-693
677.136	-694
677.185	-1403
677.235	-259
677.284	-496
677.333	-1429
677.383	-760
677.432	-729
677.482	-167
677.531	-977
677.580	-905
677.630	-263
677.679	-923
677.728	-559
677.778	-336
677.827	-696
677.876	-461
677.925	-663
677.975	-725
678.024	481
678.073	-930
678.122	-699
678.171	-426
678.220	-626
678.269	396
678.319	-106
678.368	-520
678.417	-836
678.466	-231
678.515	-611
678.564	-610
678.613	87
678.662	-1182
678.711	-618
678.760	-464
678.809	-364
678.857	-897
678.906	-771
678.955	-386
679.004	-395
679.053	-1343
679.102	-962
679.151	-813
679.199	-346
679.248	-623
679.297	-334
679.346	-657
679.394	-566
679.443	-680
679.492	-400
679.540	-149
679.589	-605
679.638	-520
679.686	-826
679.735	-867
679.784	-984
679.832	-771
679.881	-220
679.929	-589
679.978	-841
680.026	-762
680.075	-1062
680.123	-320
680.172	-1242
680.220	-114
680.268	-287
680.317	-793
680.365	-375
680.414	-587
680.462	-29
680.510	-424
680.559	-393
680.607	-1007
680.655	-555
680.703	-416
680.752	-259
680.800	-332
680.848	-1570
680.896	-555
680.945	-991
680.993	-853
681.041	-1288
681.089	-712
681.137	-241
681.185	-931
681.233	-554
681.258	-425
681.281	-309
681.329	-248
681.377	-410
681.380	-405
681.425	-402
681.473	-103
681.502	-360
681.521	-548
681.569	-206
681.617	-490
681.624	-424
681.665	-52
681.713	-485
681.745	-324
681.761	-254
681.809	-789
681.857	72
681.867	-80
681.904	-605
681.952	-299
681.989	-593
682.000	-688
682.048	-293
682.096	-656
682.111	-559
682.143	-376
682.191	-987
682.233	-107
682.239	18
682.286	-675
682.334	-364
682.354	-478
682.382	-646
682.430	-718
682.476	-678
682.477	-681
682.525	-205
682.572	-305
682.598	-1046
682.620	-1690
682.667	-825
682.715	-661
682.720	-584
682.763	60
682.810	-517
682.841	-317
682.857	-213
682.905	-409
682.952	-110
682.963	-147
683.000	-351
683.047	-68
683.085	70
683.095	123
683.142	-426
683.190	-293
683.206	-287
683.237	-327
683.284	-323
683.328	-1006
683.332	-1066
683.379	-291
683.426	-764
683.449	-685
683.473	-605
683.521	-561
683.568	-45
683.571	-61
683.615	-367
683.662	-213
683.693	-508
683.709	-681
683.757	-552
683.804	-590
683.814	-466
683.851	-39
683.898	-450
683.936	-483
683.945	-492
683.992	-375
684.039	-81
684.057	-287
684.086	-589
684.133	200
684.179	62
684.180	51
684.227	-290
684.274	309
684.300	234
684.321	182
684.368	-68
684.415	-210
684.422	-232
684.462	-379
684.509	20
684.543	15
684.556	5
684.603	917
684.649	14
684.665	-149
684.696	-487
684.743	-14
684.786	-147
684.790	-161
684.837	-48
684.883	244
684.908	85
684.930	-63
684.977	246
685.023	4
685.029	48
685.070	361
685.117	58
685.150	91
685.164	97
685.210	389
685.257	245
685.272	308
685.303	436
685.350	111
685.393	-201
685.396	-224
685.443	318
685.490	261
685.514	305
685.536	291
685.583	194
685.629	479
685.636	417
685.675	58
685.722	111
685.757	-301
685.768	-432
685.815	77
685.861	391
685.878	547
685.908	784
685.954	196
686.000	304
686.000	305
686.047	428
686.093	-37
686.121	656
686.139	1146
686.185	624
686.232	406
686.242	464
686.278	479
686.324	803
686.363	-265
686.370	-435
686.416	113
686.463	285
686.484	430
686.509	609
686.555	508
686.601	210
686.606	250
686.647	505
686.693	200
686.727	284
686.739	342
686.785	536
686.831	670
686.848	682
686.877	621
686.923	188
686.969	406
686.969	407
687.015	-128
687.061	-33
687.090	-83
687.107	-63
687.153	53
687.199	391
687.211	438
687.245	586
687.291	623
687.332	597
687.336	581
687.382	752
687.428	483
687.453	651
687.474	842
687.520	459
687.565	1037
687.574	1015
687.611	763
687.657	24
687.695	480
687.702	620
687.748	549
687.794	1147
687.816	1253
687.839	1160
687.885	577
687.931	902
687.937	830
687.976	533
688.022	339
688.058	126
688.067	94
688.113	541
688.158	437
688.179	439
688.204	475
688.249	695
688.295	1004
688.300	1023
688.340	1021
688.386	1000
688.421	474
688.431	340
688.477	429
688.522	565
688.542	721
688.567	1054
688.613	960
688.658	1101
688.663	1138
688.703	1051
688.749	798
688.784	799
688.794	879
688.839	594
688.884	1320
688.905	1433
688.930	1340
688.975	695
689.020	480
689.026	449
689.065	614
689.110	373
689.146	735
689.155	815
689.201	1003
689.246	248
689.267	457
689.291	686
689.336	719
689.381	1177
689.388	1181
689.426	1145
689.471	1175
689.509	1130
689.516	1108
689.561	720
689.606	795
689.630	802
689.651	902
689.696	581
689.741	852
689.750	880
689.785	902
689.830	790
689.871	741
689.875	748
689.920	1009
689.965	1013
689.992	948
690.010	881
690.054	1253
690.099	1096
690.112	932
690.144	519
690.189	552
690.233	543
690.233	548
690.278	685
690.323	941
690.354	1092
690.367	1095
690.412	1271
690.457	942
690.474	995
690.501	1129
690.546	1124
690.590	1132
690.595	1114
690.635	1145
690.680	1481
690.716	1513
690.724	1501
690.769	1535
690.813	1822
690.836	1915
690.857	2164
690.902	2201
690.946	3058
690.957	3247
690.991	4726
691.035	6379
691.077	8848
691.080	8982
691.124	10817
691.168	11232
691.198	11437
691.213	10379
691.257	7823
691.301	4988
691.318	4125
691.346	3806
691.390	3170
691.434	2030
691.439	1997
691.478	2076
691.522	1703
691.559	1464
691.567	1481
691.611	1532
691.655	1629
691.680	1626
691.699	1625
691.743	1466
691.787	1716
691.800	1620
691.831	1452
691.875	1608
691.919	1613
691.921	1609
691.964	1566
692.008	1660
692.041	1490
692.052	1443
692.096	1302
692.139	1312
692.162	1227
692.183	1174
692.227	1485
692.271	1423
692.282	1407
692.315	1485
692.359	1426
692.402	1772
692.403	1779
692.447	1638
692.490	1446
692.523	1516
692.534	1579
692.578	1844
692.622	1433
692.643	1488
692.666	1549
692.709	1805
692.753	1763
692.763	1699
692.797	1410
692.840	1319
692.884	1453
692.884	1461
692.928	1455
692.971	1678
693.004	1625
693.015	1571
693.059	1345
693.102	1444
693.124	1310
693.146	1330
693.189	1605
693.233	1638
693.245	1745
693.276	1949
693.320	1657
693.363	1855
693.365	1844
693.407	1960
693.450	2366
693.485	2579
693.493	2663
693.537	2989
693.580	3493
693.605	3720
693.624	4224
693.667	5810
693.710	6789
693.725	7127
693.753	9258
693.797	13437
693.840	17897
693.845	18414
693.883	21511
693.926	22791
693.966	24503
693.970	23961
694.013	17930
694.056	12416
694.086	8566
694.099	8031
694.142	6044
694.185	4485
694.206	3642
694.229	3553
694.272	3356
694.315	3066
694.326	3004
694.358	2838
694.401	2628
694.444	2575
694.446	2554
694.487	2504
694.530	2402
694.566	2499
694.573	2531
694.616	2622
694.659	2393
694.686	2421
694.702	2329
694.745	1961
694.787	1751
694.806	1634
694.830	1749
694.873	1720
694.916	2034
694.926	2038
694.959	1902
695.002	1740
695.044	1616
695.046	1604
695.087	1690
695.130	1828
695.166	1868
695.172	1869
695.215	1726
695.258	1705
695.286	1657
695.301	1686
695.343	1852
695.386	2065
695.406	1985
695.428	1722
695.471	1616
695.514	1415
695.526	1289
695.556	1509
695.599	1966
695.641	2412
695.646	2457
695.684	2426
695.726	2286
695.766	2136
695.769	2146
695.811	2238
695.854	2415
695.886	2344
695.896	2285
695.938	2204
695.981	1994
696.005	1917
696.023	1904
696.065	1895
696.108	1748
696.125	1704
696.150	1696
696.192	1737
696.235	1750
696.245	1722
696.277	1864
696.319	2103
696.361	2268
696.365	2289
696.404	2188
696.446	1899
696.485	1658
696.488	1683
696.530	1786
696.572	2123
696.604	2349
696.614	2385
696.656	2401
696.698	2346
696.724	2412
696.740	2408
696.783	2279
696.825	2206
696.844	2113
696.867	2158
696.909	2293
696.951	2487
696.964	2511
696.992	2326
697.034	2059
697.076	1831
697.083	1774
697.118	1758
697.160	1722
697.202	1743
697.203	1735
697.244	1654
697.286	1498
697.323	1368
697.327	1396
697.369	1541
697.411	1802
697.442	1971
697.453	1963
697.494	1811
697.536	1704
697.562	1683
697.578	1817
697.620	1997
697.661	2212
697.682	2357
697.703	2396
697.744	2365
697.786	2389
697.801	2390
697.828	2404
697.869	2349
697.911	2323
697.921	2318
697.952	2391
697.994	2414
698.035	2439
698.040	2431
698.077	2526
698.118	2637
698.160	2775
698.160	2765
698.201	2525
698.243	2229
698.279	2045
698.284	2078
698.325	2224
698.367	2415
698.399	2569
698.408	2575
698.449	2509
698.491	2496
698.518	2448
698.532	2400
698.573	2238
698.614	2092
698.638	1985
698.656	1991
698.697	2002
698.738	2005
698.757	1996
698.779	1991
698.820	1978
698.862	1956
698.877	1943
698.903	2001
698.944	2077
698.985	2161
698.996	2176
699.026	2090
699.067	1964
699.116	1808
699.235	2419
699.354	2313
699.474	2319
699.593	1949
699.713	2718
699.832	2458
699.951	2377
700.070	2306
700.190	2339
700.309	2485
700.428	2557
700.547	2351
700.667	1774
700.786	1974
700.905	3011
701.024	2294
701.143	2359
701.262	2588
701.381	2213
701.500	2604
701.619	2512
701.738	2694
701.857	1896
701.976	1939
702.095	2222
702.214	1741
702.333	2196
702.452	3186
702.571	1869
702.690	2731
702.809	1688
702.928	1731
703.047	2218
703.165	1949
703.284	2144
703.403	2624
703.522	1817
703.640	2875
703.759	2328
703.878	2440
703.997	2262
704.115	1864
704.234	1639
704.353	2016
704.471	2245
704.590	1514
704.708	2343
704.827	2418
704.946	1638
705.064	2145
705.183	2105
705.301	2244
705.420	2459
705.538	3067
705.656	2738
705.775	2392
705.893	3456
706.012	6349
706.130	2653
706.249	2810
706.367	2813
706.485	3354
706.604	2290
706.722	3211
706.840	2028
706.958	2535
707.077	2782
707.195	1992
707.313	2966
707.431	1758
707.549	1499
707.668	1817
707.786	2826
707.904	2429
708.022	1871
708.140	2393
708.258	3147
708.376	2202
708.494	2318
708.612	2514
708.730	2708
708.848	2609
708.966	2941
709.084	2560
709.202	2743
709.320	3061
709.438	1571
709.556	2880
709.674	2998
709.791	3115
709.909	2616
710.027	2551
710.145	2094
710.263	2638
710.380	2157
710.498	2945
710.616	2539
710.733	2042
710.851	1833
710.969	3124
711.086	2370
711.204	2400
711.322	2751
711.439	2708
711.557	2086
711.674	2565
711.792	2837
711.909	2907
712.027	2340
712.144	2178
712.262	1942
712.379	2541
712.497	3197
712.614	3842
712.732	3096
712.849	2453
712.966	3459
713.084	3192
713.201	3224
713.318	3822
713.436	2967
713.553	3326
713.670	2761
713.787	3120
713.905	2672
714.022	2789
714.139	2453
714.256	2235
714.373	3110
714.490	3118
714.608	3800
714.725	11708
714.842	28026
714.959	5284
715.076	2514
715.193	2715
715.310	2716
715.427	2319
715.544	2968
715.661	2421
715.778	2252
715.895	2012
716.011	2810
716.128	2407
716.245	2448
716.362	3062
716.479	2149
716.596	2095
716.713	1938
716.829	2474
716.946	2846
717.063	2066
717.180	1778
717.296	2057
717.413	1737
717.530	2339
717.646	2499
717.763	2494
717.880	2467
717.996	2328
718.113	2788
718.229	1982
718.346	1986
718.462	2033
718.579	1860
718.695	2902
718.812	2881
718.928	3073
719.045	2595
719.161	2454
719.277	2657
719.394	1992
719.510	1850
719.626	1395
719.743	2397
719.859	2498
719.975	2146
720.092	3418
720.208	10845
720.324	5722
720.440	1449
720.557	1722
720.673	2795
720.789	3766
720.905	5229
721.021	3994
721.137	1475
721.253	2405
721.369	1447
721.486	1912
721.602	3250
721.718	1496
721.834	1093
721.950	1750
722.066	1431
722.181	1873
722.297	1416
722.413	1989
722.529	1400
722.645	1854
722.761	1206
722.877	1343
722.993	1638
723.108	1534
723.224	1570
723.340	1612
723.456	2188
723.571	2028
723.687	1874
723.803	2339
723.918	1482
724.034	612
724.150	1602
724.265	1440
724.381	1744
724.497	3577
724.612	1744
724.728	993
724.843	1453
724.959	1241
725.074	1576
725.190	3141
725.305	1794
725.421	878
725.536	1169
725.651	1563
725.767	1540
725.882	1723
725.997	1389
726.113	1711
726.228	1409
726.343	1502
726.459	1369
726.574	969
726.689	1500
726.804	643
726.920	1453
727.035	1288
727.150	1157
727.265	1406
727.380	1371
727.495	1414
727.610	1550
727.725	1515
727.841	2012
727.956	1749
728.071	3417
728.186	1570
728.301	1039
728.416	1025
728.531	919
728.645	1440
728.760	1025
728.875	934
728.990	1429
729.105	1501
729.220	317
729.335	1687
729.449	1251
729.564	1819
729.679	1095
729.794	974
729.908	1180
730.023	1760
730.138	1367
730.253	1455
730.367	677
730.482	996
730.596	1065
730.711	1007
730.826	991
730.940	835
731.055	1626
731.169	1194
731.284	807
731.398	1128
731.513	422
731.627	1567
731.742	736
731.856	339
731.970	955
732.085	995
732.199	1387
732.313	1126
732.428	1334
732.542	3842
732.656	4610
732.771	456
732.885	988
732.999	1092
733.113	1231
733.227	509
733.342	1310
733.456	879
733.570	1268
733.684	382
733.798	483
733.912	1429
734.026	553
734.140	331
734.254	777
734.368	1346
734.482	1829
734.596	468
734.710	1235
734.824	702
734.938	328
735.052	648
735.166	467
735.280	1089
735.393	517
735.507	1041
735.621	6
735.735	1348
735.849	1103
735.962	631
736.076	1018
736.190	725
736.303	1031
736.417	1852
736.531	372
736.644	287
736.758	217
736.872	432
736.985	81
737.099	612
737.212	-84
737.326	740
737.439	813
737.553	1122
737.666	1030
737.780	1000
737.893	1008
738.007	1097
738.120	-110
738.233	286
738.347	573
738.460	592
738.573	1119
738.687	707
738.800	1377
738.913	973
739.026	1190
739.140	341
739.253	292
739.366	1271
739.479	-365
739.592	526
739.705	325
739.818	854
739.932	666
740.045	783
740.158	735
740.271	374
740.384	643
740.497	1274
740.610	873
740.723	273
740.836	187
740.949	979
741.062	1240
741.174	767
741.287	634
741.400	343
741.513	790
741.626	727
741.739	244
741.851	-108
741.964	261
742.077	581
742.189	687
742.302	1742
742.415	1535
742.527	385
742.640	330
742.753	703
742.865	273
742.978	234
743.090	1192
743.203	403
743.316	-334
743.428	1017
743.541	796
743.653	411
743.766	1056
743.878	162
743.990	284
744.103	1640
744.215	1862
744.327	1387
744.440	1023
744.552	1792
744.664	796
744.777	444
744.889	149
745.001	91
745.113	-115
745.226	7
745.338	735
745.450	423
745.562	176
745.674	359
745.786	137
745.898	484
746.010	80
746.122	540
746.234	1144
746.347	505
746.459	1012
746.570	1437
746.682	1159
746.794	3378
746.906	2390
747.018	1111
747.130	-72
747.242	576
747.354	92
747.466	938
747.577	364
747.689	489
747.801	339
747.913	1217
748.024	284
748.136	313
748.248	-113
748.359	-1155
748.471	982
748.583	674
748.694	971
748.806	620
748.918	401
749.029	512
749.141	725
749.252	809
749.364	-252
749.475	1707
749.587	515
749.698	441
749.809	852
749.921	321
750.032	485
750.144	738
750.255	22
750.366	8
750.478	362
750.589	329
750.700	159
750.811	202
750.923	990
751.034	644
751.145	1699
751.256	381
751.367	632
751.479	12
751.590	-128
751.701	-231
751.812	203
751.923	899
752.034	513
752.145	660
752.256	220
752.367	589
752.478	-499
752.589	-205
752.700	216
752.811	380
752.922	459
753.032	308
753.143	614
753.254	973
753.365	164
753.476	24
753.586	264
753.697	682
753.808	-207
753.919	160
754.029	76
754.140	362
754.251	430
754.361	930
754.472	245
754.582	708
754.693	-168
754.804	1109
754.914	-90
755.025	38
755.135	210
755.246	818
755.356	25
755.466	-79
755.577	-93
755.687	365
755.798	-221
755.908	1005
756.018	952
756.129	417
756.239	-14
756.349	739
756.460	1
756.570	436
756.680	25
756.790	357
756.900	314
757.011	457
757.121	555
757.231	169
757.341	503
757.451	173
757.561	588
757.671	925
757.781	450
757.891	408
758.001	14
758.111	899
758.221	881
758.331	849
758.441	700
758.551	861
758.661	0
758.771	382
758.880	373
758.990	665
759.100	701
759.210	231
759.320	827
759.429	407
759.539	957
759.649	442
759.758	231
759.868	525
759.978	50
760.087	849
760.197	1346
760.307	-361
760.416	562
760.526	84
760.635	988
760.745	546
760.854	1194
760.964	1051
761.073	814
761.182	863
761.292	1025
761.401	1942
761.511	1410
761.620	1329
761.729	1095
761.839	979
761.948	1353
762.057	1166
762.166	1249
762.276	157
762.385	2015
762.494	1389
762.603	1214
762.712	2070
762.822	722
762.931	2379
763.040	1934
763.149	949
763.258	1343
763.367	2234
763.476	1797
763.585	2438
763.694	3043
763.803	2927
763.912	3052
764.021	3119
764.130	3386
764.238	3608
764.347	3457
764.456	3918
764.565	3703
764.674	4503
764.783	4998
764.891	4985
765.000	6374
765.109	7202
765.217	7570
765.326	9292
765.435	11643
765.543	13242
765.652	15743
765.761	20281
765.869	27537
765.978	39602
766.086	59566
766.195	97167
766.303	172217
766.412	297283
766.520	304074
766.629	246695
766.737	139703
766.846	80591
766.954	52116
767.062	36799
767.171	26289
767.279	21239
767.387	16274
767.496	13605
767.604	11398
767.712	9231
767.820	7962
767.928	7815
768.037	7808
768.145	5599
768.253	6554
768.361	6668
768.469	6556
768.577	5797
768.685	6434
768.793	6006
768.901	7748
769.009	8785
769.117	9401
769.225	11700
769.333	16346
769.441	24997
769.549	39419
769.657	73268
769.765	152278
769.873	276207
769.981	230842
770.088	122986
770.196	57902
770.304	34066
770.412	23698
770.519	17046
770.627	13476
770.735	9837
770.842	8670
770.950	6624
771.058	6071
771.165	6699
771.273	5566
771.380	4420
771.488	3624
771.595	3361
771.703	3640
771.810	3489
771.918	3056
772.025	2381
772.133	2586
772.240	2957
772.348	2315
772.455	1875
772.562	1486
772.670	2243
772.777	1049
772.884	1313
772.991	803
773.099	1488
773.206	1109
773.313	1497
773.420	1709
773.528	1192
773.635	993
773.742	1002
773.849	902
773.956	1100
774.063	1321
774.170	912
774.277	1370
774.384	610
774.491	992
774.598	676
774.705	729
774.812	1204
774.919	1362
775.026	689
775.133	1149
775.239	798
775.346	457
775.453	280
775.560	1007
775.667	625
775.773	-142
775.880	430
775.987	1101
776.093	432
776.200	295
776.307	82
776.413	1016
776.520	145
776.627	-147
776.733	804
776.840	367
776.946	713
777.053	1462
777.159	3957
777.266	2803
777.372	4197
777.478	3622
777.585	2557
777.691	803
777.798	210
777.904	752
778.010	1431
778.117	701
778.223	434
778.329	537
778.435	495
778.542	464
778.648	0
778.754	-559
778.860	187
778.966	-426
779.072	1221
779.178	139
779.284	-89
779.391	109
779.497	-811
779.603	713
779.708	716
779.815	2780
779.920	8735
780.026	33981
780.132	17957
780.238	316
780.344	929
780.450	454
780.556	219
780.661	481
780.767	-129
780.873	307
780.979	958
781.085	-205
781.190	394
781.296	-171
781.402	-299
781.507	-415
781.613	494
781.719	-139
781.824	-517
781.930	-215
782.035	-376
782.141	260
782.246	-383
782.352	-196
782.457	2
782.563	-24
782.668	7
782.773	396
782.879	396
782.984	-71
783.090	400
783.195	-441
783.300	-60
783.405	-393
783.511	-22
783.616	-360
783.721	443
783.826	-348
783.932	170
784.037	-79
784.142	-751
784.247	342
784.352	-266
784.457	314
784.562	541
784.667	115
784.772	-93
784.877	-1240
784.982	-52
785.087	9
785.192	693
785.297	-457
785.402	-59
785.507	-48
785.611	-696
785.716	-76
785.821	-56
785.926	-253
786.031	-351
786.135	281
786.240	251
786.345	-431
786.450	-424
786.554	-827
786.659	-510
786.763	-1006
786.868	-458
786.973	236
787.077	-682
787.182	-42
787.286	-638
787.391	-699
787.495	-46
787.600	-286
787.704	-1479
787.809	-702
787.913	-560
788.017	-580
788.122	-313
788.226	-10
788.330	-238
788.435	-764
788.539	-237
788.643	-73
788.747	-138
788.852	103
788.956	-640
789.060	-315
789.164	-94
789.268	179
789.372	-205
789.476	-727
789.580	-165
789.684	-1024
789.788	-847
789.892	-279
789.996	-671
790.100	-103
790.204	445
790.308	-1130
790.412	-936
790.516	-221
790.620	-5
790.724	-490
790.828	-56
790.931	-174
791.035	-147
791.139	-123
791.242	-858
791.346	72
791.450	-8
791.554	-392
791.657	-1323
791.761	406
791.864	-79
791.968	-1324
792.072	-441
792.175	-605
792.279	-650
792.382	69
792.486	-53
792.589	-284
792.693	-544
792.796	-661
792.899	-112
793.003	-259
793.106	-1224
793.209	-754
793.313	-112
793.416	-880
793.519	-525
793.623	-328
793.726	-134
793.829	-643
793.932	-460
794.035	-915
794.138	110
794.242	-580
794.345	416
794.448	-117
794.551	477
794.654	4693
794.757	18035
794.860	10265
794.963	362
795.066	-227
795.169	-237
795.272	-886
795.375	490
795.477	25
795.580	400
795.683	-933
795.786	-446
795.889	-1143
795.991	27
796.094	-375
796.197	-519
796.300	124
796.402	-636
796.505	-561
796.608	-738
796.710	-564
796.813	238
796.915	-650
797.018	103
797.120	-477
797.223	-232
797.326	-185
797.428	-161
797.530	-715
797.633	-462
797.735	-527
797.838	97
797.940	-324
798.042	-88
798.145	-360
798.247	-815
798.349	-782
798.452	3
798.554	-420
798.656	-1068
798.758	-15
798.860	-347
798.962	-621
799.065	-430
799.167	-667
799.269	-8
799.371	-794
799.473	-999
799.575	-371
799.677	-1049
799.779	30
799.881	-1422
799.983	-351
800.085	-847
800.187	-825
800.289	-1076
800.390	-596
800.492	-108
800.594	111
800.696	-800
800.798	-892
800.899	-325
801.001	-797
801.103	32
801.205	-1332
801.306	-1580
801.408	-719
801.509	-770
801.611	-273
801.713	-269
801.814	-1046
801.916	-820
802.017	-680
802.119	-670
802.220	61
802.322	-2104
802.423	92
802.525	-932
802.626	-454
802.727	-352
802.829	-736
802.930	-1569
803.031	421
803.133	-887
803.234	-1218
803.335	-407
803.436	-1234
803.538	-548
803.639	-758
803.740	-691
803.841	-1662
803.942	-265
804.043	-737
804.144	-272
804.245	-164
804.346	-955
804.447	-1650
804.548	-1299
804.649	-87
804.750	-182
804.851	-519
804.952	-367
805.053	-1313
805.154	-922
805.255	-440
805.355	-908
805.456	-246
805.557	-631
805.658	-1572
805.758	-1013
805.859	-100
805.960	-952
806.061	-493
806.161	-470
806.262	-445
806.362	-1297
806.463	-284
806.564	-423
806.664	-243
806.765	-1056
806.865	-405
806.966	-335
807.066	-1543
807.166	-319
807.267	-462
807.367	-1088
807.468	48
807.568	-1008
807.668	-335
807.769	-378
807.869	-237
807.969	-1422
808.069	-752
808.170	-361
808.270	-1195
808.370	-383
808.470	-604
808.570	-1161
808.670	-697
808.770	-571
808.870	-1699
808.970	-809
809.070	-939
809.170	-345
809.271	-510
809.370	-1417
809.470	-348
809.570	-648
809.670	-942
809.770	-545
809.870	16
809.970	-539
810.070	-806
810.169	-408
810.269	-1389
810.369	-491
810.469	-402
810.568	-684
810.668	-1020
810.768	-953
810.867	-709
810.967	-670
811.066	-217
811.166	-875
811.265	-655
811.365	-567
811.464	-1438
811.564	-737
811.663	-360
811.763	-1981
811.862	-920
811.962	-768
812.061	-875
812.160	-400
812.260	-674
812.359	-889
812.458	-747
812.557	36
812.657	1039
812.756	-74
812.855	-1212
812.954	-956
813.053	470
813.153	-1031
813.252	-455
813.351	-561
813.450	-960
813.549	-1205
813.648	-450
813.747	-1289
813.846	-704
813.945	-1524
814.044	-558
814.143	-851
814.242	-557
814.341	-709
814.439	-723
814.538	-865
814.637	-950
814.736	247
814.835	-113
814.933	-1316
815.032	-967
815.131	-916
815.229	-745
815.328	-754
815.427	-156
815.525	-98
815.624	-848
815.722	-1099
815.821	-720
815.919	-1290
816.018	-538
816.116	655
816.215	-710
816.313	-220
816.412	-88
816.510	-956
816.609	-417
816.707	-323
816.805	-1428
816.904	-201
817.002	659
817.100	665
817.198	767
817.296	-222
817.395	592
817.493	832
817.591	1
817.689	1518
817.787	1481
817.885	3956
817.983	8221
818.081	16341
818.179	36696
818.277	90760
818.375	137023
818.473	57383
818.571	18338
818.669	9655
818.767	7188
818.865	6348
818.963	7585
819.061	9823
819.158	16871
819.256	31726
819.354	70075
819.452	155546
819.549	177458
819.647	69878
819.745	25680
819.842	13239
819.940	8660
820.038	6350
820.135	3970
820.233	4057
820.330	2791
820.428	1166
820.525	1269
820.623	1146
820.720	1403
820.818	1017
820.915	1072
821.012	769
821.110	-59
821.207	-338
821.304	-160
821.402	82
821.499	1181
821.596	1800
821.693	1389
821.791	182
821.888	427
821.985	274
822.082	697
822.179	279
822.276	-36
822.373	-404
822.470	-102
822.567	489
822.664	-869
822.761	-222
822.858	-952
822.955	-703
823.052	-693
823.149	-817
823.246	-689
823.343	-759
823.440	-258
823.536	-508
823.633	-472
823.730	29
823.827	-638
823.923	-1136
824.020	156
824.117	-1050
824.213	-536
824.310	147
824.407	-591
824.503	-316
824.600	-530
824.696	-1010
824.793	718
824.889	-831
824.986	-720
825.082	-645
825.179	192
825.275	-1300
825.371	-1161
825.468	125
825.564	-1170
825.660	-256
825.757	-740
825.853	-1376
825.949	-1649
826.045	-53
826.142	-624
826.238	-121
826.334	93
826.430	-786
826.526	-256
826.622	-1045
826.718	-540
826.814	-692
826.910	537
827.006	-1546
827.102	-1555
827.198	-180
827.294	-1336
827.390	-577
827.486	-203
827.582	-1126
827.678	-1541
827.774	-810
827.869	-1164
827.965	-347
828.061	-800
828.157	-504
828.252	-459
828.348	-875
828.444	-365
828.539	-501
828.635	-1612
828.731	-207
828.826	-1003
828.922	-933
829.017	-979
829.113	-713
829.208	-246
829.304	-814
829.399	123
829.495	-875
829.590	-232
829.685	-1353
829.781	-1099
829.876	-512
829.971	-299
830.066	-991
830.162	-869
830.257	-823
830.352	-583
830.447	-84
830.543	-1072
830.638	-1647
830.733	-226
830.828	-1195
830.923	-517
831.018	-414
831.113	-899
831.208	-1085
831.303	-1354
831.398	-748
831.493	-955
831.588	-906
831.683	-753
831.778	-735
831.873	-923
831.967	303
832.062	-397
832.157	-1219
832.252	-636
832.346	-1207
832.441	13
832.536	-944
832.631	-138
832.725	-339
832.820	-703
832.914	-1188
833.009	-983
833.104	-985
833.198	-633
833.293	-1367
833.387	-889
833.482	-58
833.576	-1353
833.670	-307
833.765	-608
833.859	-1069
833.954	-792
834.048	-1129
834.142	-43
834.237	-591
834.331	-88
834.425	-73
834.519	-1057
834.613	-301
834.708	-1218
834.802	-965
834.896	-506
834.990	-1113
835.084	-1207
835.178	-663
835.272	-1380
835.366	-133
835.460	-665
835.554	-1430
835.648	-919
835.742	-389
835.836	-981
835.930	-1185
836.024	-126
836.117	-694
836.211	-1371
836.305	218
836.399	-556
836.493	-1041
836.586	-77
836.680	-372
836.774	-1314
836.867	-1001
836.961	-1440
837.055	-744
837.148	-1017
837.242	-1066
837.335	-548
837.429	-437
837.522	-1013
837.616	-687
837.709	579
837.803	-591
837.896	-864
837.989	-935
838.083	-650
838.176	-606
838.269	-753
838.363	-617
838.456	-1183
838.549	-357
838.642	-222
838.735	-43
838.829	-660
838.922	-803
839.015	-1083
839.108	-473
839.201	-751
839.294	-469
839.387	655
839.480	-275
839.573	-700
839.666	-974
839.759	-1691
839.852	-1203
839.945	-622
840.038	-471
840.131	-690
840.223	-955
840.316	-625
840.409	-1280
840.502	-926
840.594	-23
840.687	-450
840.780	-415
840.873	-1062
840.965	-672
841.058	-701
841.150	-676
841.243	-379
841.336	-269
841.428	-521
841.521	-1387
841.613	-1790
841.706	-986
841.798	-721
841.890	-648
841.983	-1441
842.075	497
842.167	-716
842.260	-394
842.352	-109
842.444	-495
842.537	-516
842.629	369
842.721	-397
842.813	-604
842.905	-1098
842.997	-279
843.090	-661
843.182	-1331
843.274	-742
843.366	863
843.458	1568
843.550	2117
843.642	-454
843.734	-246
843.826	-1425
843.918	-439
844.009	-466
844.101	-477
844.193	-1473
844.285	-530
844.377	-617
844.469	140
844.560	-389
844.652	-29
844.744	-261
844.835	-713
844.927	-1068
845.019	-543
845.110	-654
845.202	-1204
845.293	-1052
845.385	-925
845.476	-420
845.568	-564
845.659	-782
845.751	-317
845.842	-1601
845.934	-628
846.025	-215
846.116	-301
846.208	-815
846.299	-929
846.390	-893
846.482	-286
846.573	-1038
846.664	-583
846.755	-656
846.846	-3
846.937	-1576
847.029	-143
847.120	-1460
847.211	-1831
847.302	24
847.393	-1076
847.484	-1279
847.575	-1109
847.666	-1062
847.757	-750
847.847	-444
847.938	347
848.029	-1219
848.120	-1039
848.211	-1396
848.302	-807
848.392	-1019
848.483	-64
848.574	-1224
848.664	-783
848.755	-7
848.846	-994
848.936	-1020
849.027	-1458
849.118	-1218
849.208	-520
849.299	-1064
849.389	-921
849.480	-359
849.570	-680
849.661	319
849.751	986
849.841	36
849.932	-380
850.022	-1076
850.112	-34
850.203	-298
850.293	-439
850.383	-573
850.474	-971
850.564	-1138
850.654	-281
850.744	-1358
850.834	-497
850.924	-530
851.014	-202
851.104	-1273
851.194	-1303
851.284	-635
851.374	-834
851.464	-964
851.554	-1269
851.644	-1385
851.734	-374
851.824	-819
851.914	160
852.004	-83
852.094	1257
852.183	-267
852.273	-414
852.363	-1338
852.452	-404
852.542	-750
852.632	-1337
852.721	-896
852.811	-786
852.901	-630
852.990	-877
853.080	-223
853.169	-426
853.259	-440
853.348	-958
853.438	-1688
853.527	-1309
853.617	-452
853.706	-173
853.795	-241
853.885	1042
853.974	4176
854.063	5351
854.152	11892
854.242	7162
854.331	1484
854.420	-806
854.509	-629
854.598	-1266
854.687	-1245
854.777	-775
854.866	-480
854.955	-534
855.044	-1482
855.133	-821
855.222	-614
855.311	-952
855.400	-711
855.488	-366
855.577	-1273
855.666	-594
855.755	-691
855.844	-689
855.933	-882
856.021	-543
856.110	-727
856.199	-497
856.288	-1054
856.376	-885
856.465	-1504
856.554	-579
856.642	-944
856.731	-631
856.819	-845
856.908	-1430
856.996	-1442
857.085	-856
857.173	-1297
857.262	-781
857.350	-293
857.438	-385
857.527	-788
857.615	-648
857.703	-786
857.792	-933
857.880	-463
857.968	-773
858.056	-139
858.145	-620
858.233	-1036
858.321	-883
858.409	-396
858.497	-638
858.585	-1476
858.673	-482
858.761	-1003
858.849	-1219
858.937	-368
859.025	-874
859.113	-774
859.201	-776
859.289	-970
859.377	-939
859.465	-334
859.552	-732
859.640	-1142
859.728	-922
859.816	-924
859.903	-396
859.991	-1395
860.079	-966
860.166	48
860.254	-421
860.342	-413
860.429	-1669
860.517	-1248
860.604	-417
860.692	-328
860.779	-982
860.867	-509
860.954	-792
861.042	-1426
861.129	-563
861.216	-561
861.304	-1072
861.391	-825
861.478	-443
861.565	-960
861.653	-223
861.740	-1493
861.827	-999
861.914	-838
862.001	-1047
862.089	-793
862.176	-431
862.263	-1166
862.350	-1310
862.437	-1226
862.524	-1333
862.611	-986
862.698	-1141
862.785	-469
862.871	-571
862.958	-1637
863.045	-1421
863.132	-856
863.219	-1361
863.306	-1247
863.392	-845
863.479	-1129
863.566	-947
863.652	-139
863.739	-1248
863.826	-778
863.912	-43
863.999	-1229
864.086	-744
864.172	-1310
864.259	-724
864.345	-1176
864.432	-152
864.518	-1029
864.604	-918
864.691	-845
864.777	-284
864.863	-1051
864.950	-533
865.036	-762
865.122	-987
865.209	-1439
865.295	-1160
865.381	-841
865.467	-725
865.553	-651
865.639	-646
865.726	-1142
865.812	-349
865.898	416
865.984	1395
866.070	3470
866.156	6998
866.242	1487
866.328	-211
866.414	-1632
866.499	-545
866.585	-1612
866.671	-568
866.757	-728
866.843	-965
866.928	-1551
867.014	-1213
867.100	-877
867.186	-1279
867.271	-347
867.357	-701
867.442	-492
867.528	-1196
867.614	-724
867.699	-353
867.785	-143
867.870	-526
867.956	488
868.041	45
868.127	-245
868.212	-176
868.297	-121
868.383	-1189
868.468	-404
868.553	359
868.639	92
868.724	-874
868.809	1028
868.894	-872
868.979	117
869.065	-677
869.150	-917
869.235	-1661
869.320	-914
869.405	-918
869.490	-892
869.575	-814
869.660	-1268
869.745	-601
869.830	-550
869.915	-545
870.000	-458
870.085	-841
870.169	-695
870.254	-1041
870.339	-989
870.424	-1015
870.509	-606
870.593	-773
870.678	-582
870.763	-1193
870.847	-612
870.932	-436
871.016	-204
871.101	-305
871.186	-738
871.270	-882
871.355	-1522
871.439	-1575
871.523	-1449
871.608	-1386
871.692	-1313
871.777	-956
871.861	-248
871.945	-1772
872.030	-1425
872.114	-984
872.198	-1639
872.282	-893
872.367	-1582
872.451	-591
872.535	-744
872.619	-1316
872.703	-1190
872.787	-691
872.871	-1342
872.955	-1480
873.039	-1301
873.123	-731
873.207	-258
873.291	-798
873.375	-1156
873.459	-615
873.543	-1301
873.627	-266
873.711	-783
873.794	-310
873.878	-1838
873.962	-1003
874.045	-1332
874.129	-1045
874.137	-1047
874.213	-1070
874.245	-1241
874.296	-1519
874.352	-1514
874.380	-1517
874.460	-1229
874.464	-1218
874.547	-1494
874.568	-1395
874.631	-1099
874.676	-658
874.714	-299
874.784	-748
874.798	-835
874.881	-277
874.892	-365
874.965	-980
874.999	-860
875.048	-688
875.107	-1229
875.131	-1442
875.215	-723
875.215	-722
875.298	-795
875.323	-810
875.381	-837
875.430	-624
875.465	-455
875.538	-349
875.548	-347
875.631	-1068
875.646	-1049
875.714	-942
875.753	-1107
875.798	-1269
875.861	-1257
875.881	-1255
875.964	-263
875.968	-285
876.047	-688
876.076	-618
876.130	-456
876.183	-606
876.213	-687
876.291	-648
876.296	-648
876.379	-721
876.398	-811
876.462	-1086
876.506	-858
876.545	-682
876.613	-321
876.628	-237
876.711	-258
876.721	-286
876.794	-504
876.828	-652
876.877	-832
876.935	-372
876.960	-172
877.043	-41
877.043	-43
877.125	-395
877.150	-528
877.208	-638
877.258	-366
877.291	-245
877.365	-637
877.374	-678
877.456	127
877.472	-30
877.539	-604
877.579	-507
877.622	-421
877.687	-165
877.704	-116
877.787	-548
877.794	-524
877.869	-157
877.901	-65
877.952	26
878.008	127
878.034	184
878.115	-456
878.117	-467
878.199	-181
878.222	-307
878.282	-544
878.329	-163
878.364	96
878.437	81
878.447	80
878.529	-181
878.544	-204
878.611	-253
878.651	-252
878.694	-342
878.758	-197
878.776	-145
878.858	-762
878.865	-735
878.941	-146
878.972	-147
879.023	-211
879.078	-221
879.105	-178
879.185	86
879.187	87
879.269	246
879.292	59
879.351	-318
879.399	-92
879.433	55
879.506	221
879.516	265
879.598	-286
879.613	-285
879.680	-165
879.720	-123
879.762	-163
879.827	308
879.844	404
879.926	128
879.933	107
880.007	152
880.040	248
880.089	325
880.147	398
880.171	436
880.253	257
880.254	253
880.335	113
880.360	382
880.417	1238
880.467	1294
880.499	1574
880.574	3070
880.580	3046
880.662	1662
880.680	1447
880.744	763
880.787	78
880.825	39
880.893	145
880.907	101
880.989	233
881.000	239
881.070	337
881.106	252
881.152	259
881.213	408
881.233	354
881.315	-313
881.319	-345
881.396	-495
881.426	-587
881.478	-473
881.532	182
881.559	358
881.639	235
881.641	243
881.722	688
881.745	675
881.803	511
881.852	582
881.885	578
881.958	131
881.966	94
882.047	133
882.064	116
882.129	524
882.171	760
882.210	890
882.277	1226
882.291	1224
882.372	1153
882.383	1109
882.454	644
882.489	294
882.535	284
882.596	673
882.616	705
882.697	531
882.702	498
882.778	350
882.808	471
882.859	542
882.914	548
882.940	549
883.020	418
883.021	423
883.102	430
883.127	415
883.183	606
883.233	642
883.264	539
883.339	359
883.345	377
883.426	515
883.445	523
883.507	321
883.551	270
883.587	382
883.657	770
883.668	790
883.749	468
883.763	472
883.830	764
883.869	689
883.910	679
883.975	765
883.991	711
884.072	653
884.081	623
884.152	1024
884.187	1206
884.233	833
884.292	461
884.314	555
884.394	567
884.398	561
884.475	578
884.504	685
884.555	852
884.610	827
884.636	823
884.716	1048
884.716	1054
884.797	777
884.821	605
884.877	952
884.927	1192
884.958	1032
885.033	1037
885.038	1060
885.118	967
885.139	942
885.199	1011
885.244	1193
885.279	1108
885.350	668
885.359	701
885.439	1071
885.456	1133
885.520	1246
885.561	1239
885.600	1310
885.667	1535
885.680	1502
885.760	1159
885.773	1128
885.840	1472
885.878	1541
885.920	1308
885.984	1247
886.000	1296
886.080	930
886.089	921
886.160	1246
886.195	1375
886.240	1084
886.300	568
886.320	839
886.400	2069
886.406	2141
886.480	1266
886.511	852
886.560	1278
886.616	1686
886.640	1559
886.720	1238
886.722	1222
886.800	1838
886.827	2046
886.879	1802
886.932	1388
886.959	1393
887.038	1869
887.039	1878
887.119	1543
887.143	1499
887.198	1507
887.248	1560
887.278	1458
887.354	988
887.358	1023
887.437	1611
887.459	1814
887.517	1622
887.564	1331
887.596	1513
887.669	1920
887.676	1906
887.755	1715
887.774	1646
887.835	1948
887.880	2123
887.914	1816
887.985	1131
887.994	1169
888.073	1583
888.090	1650
888.153	1634
888.195	1561
888.232	1615
888.300	1724
888.311	1725
888.391	1633
888.405	1631
888.470	2051
888.510	2253
888.549	2179
888.615	1946
888.628	1934
888.708	1974
888.720	1939
888.787	1708
888.825	1609
888.866	1518
888.930	1379
888.945	1511
889.024	2132
889.035	2208
889.103	1529
889.140	1132
889.182	1518
889.245	2103
889.261	2100
889.340	2030
889.349	2013
889.419	2147
889.454	2196
889.498	2269
889.559	2360
889.577	2212
889.656	1522
889.664	1450
889.735	1851
889.768	2036
889.814	2276
889.873	2577
889.978	1980
890.083	2511
890.187	1493
890.292	1693
890.397	1644
890.501	3136
890.606	2278
890.710	2351
890.815	2646
890.919	1935
891.024	1995
891.128	2020
891.233	2126
891.337	1944
891.442	1661
891.546	2436
891.650	2535
891.755	1484
891.859	2638
891.963	2095
892.068	2226
892.172	1468
892.276	2347
892.380	1340
892.484	1785
892.589	2274
892.693	2340
892.797	1780
892.901	2152
893.005	1190
893.109	1417
893.213	1842
893.317	2025
893.421	2037
893.525	2062
893.629	1450
893.733	2022
893.837	2337
893.941	1974
894.045	1664
894.148	3915
894.252	5783
894.356	8307
894.460	2547
894.564	2235
894.667	2873
894.771	2870
894.875	1712
894.978	2363
895.082	1058
895.186	1909
895.289	2997
895.393	2272
895.496	1337
895.600	1334
895.703	1117
895.807	1797
895.910	1470
896.014	1902
896.117	1260
896.221	1937
896.324	1233
896.427	2045
896.531	1198
896.634	1102
896.737	2025
896.840	1769
896.944	509
897.047	2242
897.150	1974
897.253	1239
897.356	1543
897.460	1364
897.563	1557
897.666	1213
897.769	1797
897.872	2154
897.975	732
898.078	1955
898.181	1907
898.284	932
898.387	1656
898.490	1898
898.593	1490
898.695	1604
898.798	1764
898.901	2454
899.004	1583
899.107	2358
899.209	2316
899.312	1334
899.415	1984
899.518	1769
899.620	1632
899.723	1871
899.826	1653
899.928	2761
900.031	1612
900.133	2120
900.236	1734
900.338	1383
900.441	1864
900.543	1809
900.646	2664
900.748	1558
900.851	1047
900.953	1477
901.055	1283
901.158	1811
901.260	1686
901.362	1797
901.465	1387
901.567	1562
901.669	2743
901.771	2350
901.873	1319
901.976	1676
902.078	1805
902.180	2252
902.282	1324
902.384	1864
902.486	2152
902.588	1692
902.690	1975
902.792	2426
902.894	1842
902.996	2149
903.098	1153
903.200	1746
903.302	1402
903.404	837
903.505	1504
903.607	1521
903.709	2259
903.811	1277
903.913	1731
904.014	1638
904.116	1212
904.218	1982
904.319	1454
904.421	1992
904.523	1761
904.624	1656
904.726	2461
904.827	1917
904.929	1534
905.030	1733
905.132	1405
905.233	1849
905.335	1874
905.436	1439
905.537	1292
905.639	1619
905.740	1643
905.841	2006
905.943	2025
906.044	2140
906.145	1521
906.247	1564
906.348	1998
906.449	1792
906.550	1041
906.651	2201
906.752	694
906.854	929
906.955	1792
907.056	1779
907.157	1331
907.258	1459
907.359	1477
907.460	1056
907.561	1716
907.662	1381
907.762	1266
907.863	1404
907.964	1107
908.065	1953
908.166	1519
908.267	1796
908.367	1214
908.468	828
908.569	2357
908.670	1396
908.770	2868
908.871	1986
908.971	2143
909.072	2183
909.173	1456
909.273	1542
909.374	1839
909.474	982
909.575	1499
909.675	1260
909.776	1672
909.876	2189
909.977	1021
910.077	2139
910.177	1169
910.278	2076
910.378	1348
910.478	1616
910.579	776
910.679	2126
910.779	1364
910.879	1703
910.980	1277
911.080	1516
911.180	1382
911.280	842
911.380	1429
911.480	1178
911.580	907
911.680	1723
911.780	1820
911.880	1908
911.980	1261
912.080	925
912.180	1224
912.280	1360
912.380	1275
912.480	966
912.580	1062
912.679	1358
912.779	1613
912.879	1669
912.979	1393
913.078	1640
913.178	1572
913.278	1111
913.377	1932
913.477	1450
913.577	1022
913.676	2335
913.776	1596
913.875	1527
913.975	1143
914.074	1428
914.174	1329
914.273	850
914.373	1161
914.472	1416
914.572	1457
914.671	1981
914.770	525
914.870	1924
914.969	1438
915.068	2332
915.167	1556
915.267	1418
915.366	1046
915.465	563
915.564	2071
915.663	2155
915.763	906
915.862	1384
915.961	2199
916.060	1034
916.159	701
916.258	1451
916.357	1285
916.456	1600
916.555	1324
916.654	1180
916.752	2034
916.851	1251
916.950	1664
917.049	1094
917.148	1202
917.247	2560
917.345	1857
917.444	1121
917.543	1283
917.642	1462
917.740	2066
917.839	1582
917.937	1312
918.036	2106
918.135	1285
918.233	1715
918.332	1298
918.430	999
918.529	1164
918.627	1662
918.726	1610
918.824	1374
918.923	1809
919.021	1628
919.119	1105
919.218	1933
919.316	1664
919.414	1791
919.512	1538
919.611	1634
919.709	1766
919.807	1738
919.905	1452
920.003	1512
920.102	397
920.200	1171
920.298	1910
920.396	1352
920.494	1329
920.592	543
920.690	1624
920.788	1957
920.886	1584
920.984	1919
921.082	844
921.180	1093
921.277	1600
921.375	1677
921.473	1509
921.571	1273
921.669	1030
921.766	723
921.864	2118
921.962	969
922.060	1209
922.157	1769
922.255	1218
922.352	1844
922.450	2459
922.548	1906
922.645	663
922.743	1242
922.840	1335
922.938	2379
923.035	1890
923.133	1310
923.230	998
923.327	1854
923.425	1572
923.522	2214
923.619	1939
923.717	1480
923.814	1776
923.911	2033
924.008	1994
924.106	1422
924.203	1161
924.300	1400
924.397	1520
924.494	1818
924.591	3285
924.688	2105
924.786	1702
924.883	2144
924.979	1660
925.077	1803
925.173	1809
925.270	1718
925.367	1734
925.464	1657
925.561	1059
925.658	1187
925.755	1908
925.852	2437
925.948	2221
926.045	3401
926.142	3039
926.239	2769
926.335	2235
926.432	2997
926.529	2573
926.625	3456
926.722	2098
926.818	2094
926.915	1931
927.011	1852
927.108	1850
927.204	1052
927.301	1510
927.397	2099
927.494	2258
927.590	1981
927.687	1646
927.783	1240
927.879	1416
927.976	2401
928.072	1541
928.168	746
928.264	1553
928.361	1987
928.457	1269
928.553	1107
928.649	1097
928.745	1140
928.841	1868
928.937	978
929.033	1016
929.129	1409
929.225	1655
929.321	1348
929.417	1499
929.513	1024
929.609	1581
929.705	1548
929.801	1242
929.897	2279
929.993	1380
930.089	1590
930.184	1594
930.280	1621
930.376	1357
930.471	1787
930.567	1650
930.663	1235
930.758	981
930.854	1234
930.950	1490
931.045	1464
931.141	1207
931.236	1248
931.332	1304
931.427	1675
931.523	1431
931.618	1442
931.714	1280
931.809	1232
931.905	1595
932.000	885
932.095	1199
932.191	1387
932.286	1180
932.381	1114
932.476	1958
932.572	1498
932.667	932
932.762	1973
932.857	1101
932.952	1789
933.047	1058
933.142	1920
933.237	1796
933.332	729
933.427	1879
933.522	1705
933.617	796
933.712	1471
933.807	1132
933.902	794
933.997	1268
934.092	704
934.187	756
934.282	1239
934.376	1516
934.471	1296
934.566	1404
934.661	1671
934.755	1873
934.850	1122
934.945	1754
935.039	1794
935.134	1164
935.228	866
935.323	1552
935.417	1818
935.512	1214
935.606	1066
935.701	1694
935.795	1673
935.890	734
935.984	1423
936.079	1248
936.173	1651
936.267	713
936.362	274
936.456	1311
936.550	1581
936.644	360
936.738	706
936.833	1268
936.927	2019
937.021	2070
937.115	1492
937.209	1049
937.303	2121
937.397	1019
937.491	1603
937.585	1167
937.679	1161
937.773	1349
937.867	1180
937.961	1755
938.055	1090
938.149	1500
938.243	1812
938.337	1461
938.430	1307
938.524	1215
938.618	2873
938.712	2733
938.805	1754
938.899	436
938.993	1652
939.086	2123
939.180	3351
939.274	4205
939.367	2536
939.461	816
939.554	979
939.648	1325
939.741	1307
939.835	923
939.928	2128
940.022	2329
940.115	1880
940.208	823
940.302	1482
940.395	228
940.488	1180
940.582	1922
940.675	869
940.768	1159
940.861	742
940.954	1224
941.048	1062
941.141	816
941.234	1004
941.327	1464
941.420	1768
941.513	1436
941.606	1291
941.699	1352
941.792	616
941.885	833
941.978	1596
942.071	695
942.164	932
942.257	1224
942.349	1036
942.442	421
942.535	1230
942.628	441
942.721	534
942.813	402
942.906	1165
942.999	1450
943.091	1144
943.184	407
943.277	419
943.369	1051
943.462	653
943.554	949
943.647	1284
943.739	571
943.832	583
943.924	155
944.017	621
944.109	456
944.201	1304
944.294	1183
944.386	1058
944.478	680
944.571	553
944.663	408
944.755	1300
944.847	723
944.940	745
945.032	941
945.124	715
945.216	1357
945.308	900
945.400	926
945.492	893
945.584	1095
945.676	644
945.768	859
945.860	1569
945.952	1006
946.044	1941
946.136	1082
946.228	600
946.320	95
946.412	-15
946.503	955
946.595	1043
946.687	1749
946.779	1367
946.870	1133
946.962	634
947.054	1578
947.145	851
947.237	179
947.329	1372
947.420	-50
947.512	1357
947.603	1296
947.695	1245
947.786	907
947.878	713
947.969	733
948.061	423
948.152	328
948.243	963
948.335	389
948.426	708
948.517	878
948.609	1039
948.700	1063
948.791	309
948.882	453
948.973	1222
949.065	572
949.156	1679
949.247	838
949.338	803
949.429	772
949.520	433
949.611	1063
949.702	980
949.793	655
949.884	914
949.975	1529
950.066	1081
950.157	444
950.247	971
950.338	1141
950.429	-239
950.520	582
950.611	647
950.701	954
950.792	854
950.883	1009
950.973	954
951.064	546
951.155	1289
951.245	1633
951.336	1040
951.427	948
951.517	650
951.608	1027
951.698	601
951.788	783
951.879	506
951.969	348
952.060	1165
952.150	17
952.240	1075
952.331	623
952.421	1544
952.511	1524
952.602	919
952.692	972
952.782	1617
952.872	327
952.962	951
953.052	807
953.143	1219
953.233	576
953.323	1017
953.413	416
953.503	1178
953.593	936
953.683	914
953.773	222
953.863	636
953.953	742
954.042	889
954.132	620
954.222	696
954.312	975
954.402	1222
954.492	1330
954.581	1929
954.671	1747
954.761	698
954.850	1279
954.940	1518
955.030	1613
955.119	1397
955.209	1468
955.298	823
955.388	1408
955.477	1079
955.567	826
955.656	309
955.746	887
955.835	823
955.925	797
956.014	790
956.103	825
956.193	507
956.282	1279
956.371	1233
956.461	311
956.550	-53
956.639	718
956.728	1439
956.817	1121
956.906	1092
956.995	1360
957.085	1547
957.174	1009
957.263	1275
957.352	1644
957.441	596
957.530	1384
957.619	1752
957.708	1143
957.796	1512
957.885	1095
957.974	956
958.063	1201
958.152	879
958.241	1726
958.329	1107
958.418	1427
958.507	745
958.596	2188
958.684	1831
958.773	2651
958.861	1545
958.950	1490
959.039	1833
959.127	1586
959.216	2034
959.304	2258
959.393	2270
959.481	2684
959.570	2067
959.658	1798
959.746	2581
959.835	2892
959.923	3948
960.011	2462
960.100	2443
960.188	1653
960.276	1837
960.365	1327
960.453	1722
960.541	1632
960.629	1255
960.717	377
960.805	1246
960.893	1794
960.981	1511
961.069	1392
961.158	1117
961.245	704
961.333	1435
961.421	739
961.509	1136
961.597	1543
961.685	730
961.773	220
961.861	917
961.949	996
962.036	882
962.124	1310
962.212	-80
962.299	601
962.387	998
962.475	1090
962.562	927
962.650	1296
962.738	639
962.825	930
962.913	821
963.000	825
963.088	638
963.175	216
963.263	1244
963.350	761
963.438	1203
963.525	1059
963.612	1934
963.700	4705
963.787	10593
963.874	8843
963.962	2111
964.049	558
964.136	237
964.223	842
964.310	1117
964.398	307
964.485	923
964.572	357
964.659	2004
964.746	2366
964.833	1128
964.920	529
965.007	743
965.094	712
965.181	920
965.268	1160
965.355	662
965.441	72
965.528	198
965.615	711
965.702	707
965.789	344
965.875	795
965.962	238
966.049	-125
966.136	866
966.222	226
966.309	225
966.395	-120
966.482	585
966.569	1392
966.655	770
966.742	262
966.828	82
966.915	926
967.001	-141
967.087	1236
967.174	616
967.260	1215
967.347	1843
967.433	2899
967.519	6704
967.605	4644
967.692	773
967.778	369
967.864	-436
967.950	746
968.036	376
968.123	163
968.209	-169
968.295	39
968.381	570
968.467	94
968.553	-1
968.639	1016
968.725	-161
968.811	1033
968.897	1678
968.983	313
969.069	487
969.154	-305
969.240	324
969.326	222
969.412	-194
969.497	250
969.583	579
969.669	594
969.755	-249
969.840	-338
969.926	852
970.012	546
970.097	210
970.183	660
970.268	890
970.354	1438
970.439	1165
970.525	4069
970.610	1804
970.696	641
970.781	647
970.866	67
970.952	-183
971.037	160
971.122	580
971.208	224
971.293	238
971.378	-17
971.463	532
971.549	-39
971.634	64
971.719	710
971.804	805
971.889	934
971.974	-117
972.059	-139
972.144	595
972.229	17
972.314	342
972.399	542
972.484	-197
972.569	1377
972.654	229
972.739	1954
972.824	2317
972.908	1142
972.993	-502
973.078	456
973.163	611
973.247	-662
973.332	-637
973.417	120
973.501	-210
973.586	-555
973.671	89
973.755	81
973.840	722
973.924	153
974.009	810
974.093	1015
974.178	1618
974.262	1184
974.346	1793
974.431	1854
974.515	-148
974.600	408
974.684	635
974.768	-198
974.852	397
974.937	-46
975.021	684
975.105	335
975.189	-462
975.273	-524
975.358	429
975.442	-119
975.526	810
975.610	116
975.694	-302
975.778	765
975.862	208
975.946	-434
976.030	798
976.114	-703
976.198	-429
976.281	365
976.365	273
976.449	354
976.533	324
976.617	43
976.700	-104
976.784	614
976.868	-121
976.951	867
977.035	655
977.119	-285
977.202	-359
977.286	88
977.369	61
977.453	360
977.536	-630
977.620	142
977.703	187
977.787	-507
977.870	726
977.953	304
978.037	-22
978.120	784
978.203	853
978.287	2088
978.370	1340
978.453	965
978.536	-299
978.620	525
978.703	483
978.786	1098
978.869	138
978.952	-1293
979.035	475
979.118	486
979.201	-743
979.284	350
979.367	-247
979.450	-40
979.533	82
979.616	134
979.699	-407
979.782	-114
979.865	-384
979.948	427
980.030	-234
980.113	119
980.196	133
980.279	-273
980.361	-132
980.444	-90
980.526	341
980.609	86
980.692	252
980.774	325
980.857	-584
980.939	525
981.022	-463
981.104	-1416
981.187	430
981.269	660
981.352	375
981.434	-592
981.516	-66
981.599	561
981.681	-223
981.763	-127
981.846	-283
981.928	-652
982.010	-221
982.092	-254
982.174	-658
982.256	142
982.339	-461
982.421	-221
982.503	347
982.585	-157
982.667	-267
982.749	-528
982.831	249
982.913	-523
982.995	72
983.077	-376
983.158	-186
983.240	-449
983.322	237
983.404	463
983.486	-556
983.568	-462
983.649	189
983.731	670
983.813	-699
983.894	46
983.976	-545
984.058	-54
984.139	1222
984.221	-1196
984.302	-604
984.384	-321
984.465	-423
984.547	320
984.628	-847
984.710	-653
984.791	367
984.872	-828
984.954	-496
985.035	780
985.116	-596
985.198	-500
985.279	72
985.360	240
985.441	-311
985.522	83
985.604	-686
985.685	-1462
985.766	110
985.847	150
985.928	-241
986.009	-484
986.090	-469
986.171	270
986.252	-290
986.333	-127
986.414	-203
986.495	-345
986.576	60
986.656	-304
986.737	358
986.818	636
986.899	245
986.980	-51
987.060	187
987.141	-9
987.222	-180
987.302	-148
987.383	-239
987.464	-412
987.544	-182
987.625	-801
987.705	-144
987.786	-529
987.866	-876
987.947	62
988.027	-803
988.108	-77
988.188	-138
988.268	-1162
988.349	-712
988.429	-16
988.509	238
988.589	-299
988.670	-1120
988.750	378
988.830	-394
988.910	-69
988.990	-394
989.070	-206
989.151	-1261
989.231	-889
989.311	-353
989.391	-369
989.471	-13
989.551	-252
989.631	-648
989.711	363
989.791	-327
989.870	-610
989.950	31
990.030	-564
990.110	-638
990.190	-381
990.269	-1139
990.349	-236
990.429	-165
990.509	-907
990.588	-704
990.668	102
990.747	-1171
990.827	-485
990.907	-87
990.986	-72
991.066	-238
991.145	-201
991.225	-285
991.304	-24
991.383	-874
991.463	-187
991.542	-294
991.622	-773
991.701	-487
991.780	-498
991.859	-889
991.939	-529
992.018	-624
992.097	21
992.176	-495
992.256	-973
992.335	-745
992.414	382
992.493	-619
992.572	-766
992.651	-160
992.730	356
992.809	-602
992.888	-641
992.967	-940
993.046	-445
993.125	-1446
993.203	-119
993.282	35
993.361	-796
993.440	-593
993.519	-1393
993.597	-653
993.676	-889
993.755	-785
993.834	-41
993.912	-1189
993.991	416
994.069	-617
994.148	-642
994.226	17
994.305	-1082
994.384	-729
994.462	590
994.540	-881
994.619	-850
994.697	-145
994.776	-540
994.854	270
994.932	-46
995.011	7
995.089	-211
995.167	-887
995.245	195
995.324	-1404
995.402	-177
995.480	-301
995.558	-885
995.636	-657
995.714	-1394
995.792	-757
995.870	-586
995.948	-454
996.026	-288
996.104	-192
996.182	-602
996.260	-916
996.338	-808
996.416	-428
996.494	-1174
996.572	-183
996.649	-566
996.727	-1156
996.805	-722
996.883	-746
996.960	-767
997.038	-668
997.116	335
997.193	-1537
997.271	204
997.348	-1007
997.426	-922
997.504	-1497
997.581	710
997.658	-129
997.736	-1388
997.813	-921
997.891	343
997.968	-1301
998.046	-505
998.123	-827
998.200	-437
998.277	-2056
998.355	-411
998.432	-1309
998.509	-272
998.586	473
998.663	-840
998.741	-517
998.818	-722
998.895	-459
998.972	-453
999.049	-487
999.126	-704
999.203	154
999.280	-1766
999.357	-1198
999.434	-1184
999.511	-1034
999.587	159
999.664	-1060
999.741	-135
999.818	-321
999.895	-791
999.971	-520
1000.048	-39
1000.125	-653
1000.202	-805
1000.278	245
1000.355	-608
1000.431	-502
1000.508	-718
1000.584	-1216
1000.661	-249
1000.738	-1164
1000.814	-1034
1000.890	-1758
1000.967	-1672
1001.043	-1031
1001.120	-735
1001.196	-551
1001.272	-1190
1001.349	-607
1001.425	-446
1001.501	-685
1001.577	-1098
1001.654	-1292
1001.730	-1073
1001.806	-1127
1001.882	-1920
1001.958	-1173
1002.034	-714
1002.110	-1454
1002.186	-2170
1002.262	-1369
1002.338	-2648
1002.414	-1165
1002.490	-1041
1002.566	-1542
1002.642	-761
1002.718	-870
1002.794	648
1002.870	-1546
1002.945	-1414
1003.021	-1463
1003.097	-1368
1003.173	-950
1003.248	-936
1003.324	-809
1003.400	-901
1003.475	-1542
1003.551	-1221
1003.626	-583
1003.702	-654
1003.777	-669
1003.853	-1094
1003.928	-1550
1004.004	-2037
1004.079	-364
1004.155	-947
1004.230	-1317
1004.305	-1017
1004.381	-2004
1004.456	-1135
1004.531	-1162
1004.607	-763
1004.682	-1652
1004.757	-1447
1004.832	-1281
1004.907	-1724
1004.982	-406
1005.057	-1070
1005.133	-1627
1005.208	-781
1005.283	-843
1005.358	-1365
1005.433	-1869
1005.508	-1202
1005.583	-1803
1005.657	-1267
1005.732	-695
1005.807	-954
1005.882	-1537
1005.957	-736
1006.032	-1042
1006.106	-1091
1006.181	-610
1006.256	-796
1006.331	-768
1006.405	-1696
1006.480	-1073
1006.554	-1789
1006.629	-1188
1006.704	-1338
1006.778	-672
1006.853	-712
1006.927	-1234
1007.002	-1065
1007.076	-1053
1007.150	-824
1007.225	-1209
1007.299	-843
1007.373	-1548
1007.448	-770
1007.522	-1057
1007.596	-1236
1007.671	-1219
1007.745	-697
1007.819	-1785
1007.893	-951
1007.967	-1050
1008.041	-1399
1008.115	-1400
1008.190	-1470
1008.264	-901
1008.338	-2206
1008.412	-1892
1008.486	-999
1008.560	-1837
1008.633	-1596
1008.707	-1882
1008.781	-1011
1008.855	-1327
1008.929	-1579
1009.003	-1617
1009.076	-1168
1009.150	-1045
1009.224	-1337
1009.298	-1376
1009.371	-1461
1009.445	-1422
1009.519	-741
1009.592	-2020
1009.666	-1483
1009.739	-1682
1009.813	-1655
1009.886	-1179
1009.960	-2309
1010.033	-247
1010.107	-1313
1010.180	-840
1010.253	-1691
1010.327	-2178
1010.400	-839
1010.473	-1544
1010.547	-260
1010.620	-1857
1010.693	-1624
1010.766	-1431
1010.840	-1047
1010.913	-1873
1010.986	-1301
1011.059	-1146
1011.132	-1590
1011.205	-834
1011.278	-1374
1011.351	-790
1011.424	-1040
1011.497	-1363
1011.570	-1970
1011.643	-1445
1011.716	-1983
1011.789	-1018
1011.862	-1161
1011.934	-1008
1012.007	-2522
1012.080	-712
1012.153	-1695
1012.225	-1275
1012.298	-2155
1012.371	-1550
1012.443	-2159
1012.516	-2060
1012.588	-1357
1012.661	-512
1012.733	-1144
1012.806	-946
1012.879	-1511
1012.951	-1321
1013.023	-955
1013.096	-734
1013.168	-1847
1013.241	-754
1013.313	-1067
1013.385	-1985
1013.458	-933
1013.530	-1312
1013.602	-1649
1013.674	-1020
1013.746	-2008
1013.819	-2084
1013.891	-976
1013.963	-1568
1014.035	-1511
1014.107	-1852
1014.179	-1648
1014.251	-1862
1014.323	-1139
1014.395	-1896
1014.467	-1222
1014.539	-900
1014.611	-2166
1014.683	-1688
1014.754	-1617
1014.826	-1328
1014.898	-798
1014.970	-2569
1015.042	-1740
1015.113	-1072
1015.185	-1617
1015.257	-2266
1015.328	-1315
1015.400	-1822
1015.471	-1355
1015.543	-1899
1015.615	-1724
1015.686	-2085
1015.757	-1561
1015.829	-762
1015.901	-1426
1015.972	-1327
1016.043	-1231
1016.115	-1548
1016.186	-1321
1016.257	-2649
1016.328	-1860
1016.400	-1103
1016.471	-1303
1016.542	-1295
1016.613	-1577
1016.685	-1249
1016.756	-1679
1016.827	-1353
1016.898	-2138
1016.969	-1104
1017.040	-1678
1017.111	-1769
1017.182	-1865
1017.253	-1291
1017.324	-2287
1017.395	-1331
1017.466	-980
1017.537	-1841
1017.608	-1980
1017.678	-2259
1017.749	-1185
1017.820	-1145
1017.891	-1299
1017.961	-1559
1018.032	-1303
1018.103	-1962
1018.173	-1781
1018.244	-2115
1018.315	-1969
1018.385	-2027
1018.456	-2338
1018.526	-1044
1018.597	-1782
1018.667	-972
1018.738	-1780
1018.808	-1334
1018.878	-1931
1018.949	-1147
1019.019	-1752
1019.089	-1941
1019.160	-1110
1019.230	-1482
1019.300	-1343
1019.371	-1922
1019.441	-857
1019.511	-1237
1019.581	-1323
1019.651	-1392
1019.721	-1275
1019.791	-2301
1019.861	-996
1019.931	-1673
1020.001	-1414
1020.071	-1114
1020.141	-2056
1020.211	-1479
1020.281	-1503
1020.351	-1323
1020.421	-832
1020.491	-1612
1020.560	-1337
1020.630	-1199
1020.700	-1698
1020.770	-2585
1020.839	-1417
1020.909	-1965
1020.979	-1522
1021.048	-1791
1021.118	-1526
1021.187	-1406
1021.257	-1287
1021.326	-1359
1021.396	-1909
1021.465	-1599
1021.535	-1710
1021.604	-1499
1021.674	-888
1021.743	-820
1021.812	-1334
1021.882	-1678
1021.951	-1342
1022.020	-1620
1022.089	-1357
1022.159	-2148
1022.228	-1337
1022.297	-2283
1022.366	-669
1022.435	-1698
1022.504	-2298
1022.573	-1693
1022.642	-1280
1022.711	-1357
1022.781	-1449
1022.849	-1072
1022.918	-1604
1022.987	-1153
1023.056	-1242
1023.125	-1385
1023.194	-1440
1023.263	-1411
1023.331	-804
1023.400	-1705
1023.469	-1407
1023.538	-697
1023.606	-2164
1023.675	-2527
1023.744	-2092
1023.812	-1497
1023.881	-718
1023.949	-1870
1024.018	-1182
1024.086	-1575
1024.155	-1899
1024.223	-2030
1024.292	-1649
1024.360	-1385
1024.429	-1136
1024.497	-1597
1024.565	-1747
1024.634	-1084
1024.702	-1370
1024.770	-1058
1024.838	-2166
1024.907	-1342
1024.975	-1821
1025.043	-1758
1025.111	-2154
1025.179	-1323
1025.247	-478
1025.315	-1878
1025.383	-2164
1025.451	-1189
1025.519	-1466
1025.587	-1286
1025.655	-1036
1025.723	-1451
1025.791	-2231
1025.859	-1563
1025.927	-1211
1025.995	-2257
1026.062	-1789
1026.130	-1985
1026.198	-1864
1026.266	-1724
1026.333	-1413
1026.401	-995
1026.469	-924
1026.536	-1659
1026.604	-2231
1026.671	-1303
1026.739	-1403
1026.806	-1673
1026.874	-1330
1026.941	-2202
1027.009	-799
1027.076	-867
1027.144	-698
1027.211	-2110
1027.278	-1964
1027.345	-1764
1027.413	-979
1027.480	-2111
1027.547	-1263
1027.614	-2259
1027.682	-904
1027.749	-2126
1027.816	-1761
1027.883	-1854
1027.950	-1379
1028.017	-1793
1028.084	-1337
1028.151	-1684
1028.218	-1923
1028.285	-1865
1028.352	-1946
1028.419	-2342
1028.486	-1363
1028.553	-1560
1028.619	-1655
1028.686	-1656
1028.753	-1808
1028.820	-1885
1028.886	-2058
1028.953	-1486
1029.020	-1004
1029.086	-1465
1029.153	-1388
1029.220	-1946
1029.286	-713
1029.353	-1111
1029.419	-1604
1029.486	-1537
1029.552	-1436
1029.619	-1728
1029.685	-1359
1029.751	-1345
1029.818	-1001
1029.884	-1306
1029.951	-1217
1030.017	-1335
1030.083	-1138
1030.149	-1596
1030.216	-1227
1030.282	-1645
1030.348	-2099
1030.414	-1627
1030.480	-1512
1030.546	-2012
1030.612	-1693
1030.678	-2083
1030.744	-973
1030.810	-1688
1030.876	-1647
1030.942	-1815
1031.008	-1706
1031.074	-1407
1031.140	-1637
1031.206	-1526
1031.272	-1742
1031.337	-1112
1031.403	-817
1031.469	-1731
1031.534	-1593
1031.600	-2174
1031.666	-1311
1031.731	-2094
1031.797	-2626
1031.863	-2125
1031.928	-2296
1031.994	-1520
1032.059	-1121
1032.125	-1402
1032.190	-1580
1032.256	-1224
1032.321	-2147
1032.386	-1765
1032.452	-1029
1032.517	-1773
1032.582	-1673
1032.647	-1173
1032.713	-1642
1032.778	-1386
1032.843	-1594
1032.908	-2188
1032.974	-2204
1033.039	-2370
1033.104	-1463
1033.169	-2096
1033.234	-1693
1033.299	-1235
1033.364	-1119
1033.429	-1175
1033.494	-1185
1033.559	-2275
1033.624	-1271
1033.688	-1608
1033.753	-2456
1033.818	-1844
1033.883	-2114
1033.948	-2281
1034.013	-1829
1034.077	-1037
1034.142	-1718
1034.207	-1370
1034.271	-804
1034.336	-1709
1034.400	-1891
1034.465	-1975
1034.530	-952
1034.594	-1145
1034.658	-1996
1034.723	-1979
1034.787	-1232
1034.852	-1881
1034.916	-1847
1034.981	-2211
1035.045	-1611
1035.109	-2384
1035.173	-1060
1035.238	-1358
1035.302	-2207
1035.366	-1818
1035.430	-1826
1035.495	-2018
1035.559	-1900
1035.623	-2264
1035.687	-1514
1035.751	-1702
1035.815	-1396
1035.879	-1408
1035.943	-1478
1036.007	-1783
1036.071	-1164
1036.135	-1622
1036.198	-1970
1036.262	-1582
1036.326	-1311
1036.390	-2022
1036.454	-1861
1036.517	-1326
1036.581	-1512
1036.645	-1354
1036.709	-1600
1036.772	-811
1036.836	-1637
1036.900	-1826
1036.963	-2471
1037.026	-2141
1037.090	-1951
1037.154	-2113
1037.217	-1255
1037.280	-1357
1037.344	-1845
1037.407	-1828
1037.471	-2177
1037.534	-1955
1037.597	-1660
1037.661	-1951
1037.724	-1736
1037.787	-2227
1037.850	-1674
1037.913	-2278
1037.977	-2119
1038.040	-2124
1038.103	-1747
1038.166	-2840
1038.229	-2008
1038.292	-2105
1038.355	-1913
1038.418	-2041
1038.481	-1486
1038.544	-1733
1038.607	-1697
1038.670	-2383
1038.732	-981
1038.795	-2686
1038.858	-1033
1038.921	-2575
1038.984	-1917
1039.046	-2223
1039.109	-1882
1039.172	-1940
1039.234	-2156
1039.297	-2153
1039.360	-2123
1039.422	-2339
1039.485	-1874
1039.547	-2582
1039.610	-1025
1039.672	-1853
1039.734	-1944
1039.797	-1756
1039.859	-2648
1039.922	-2129
1039.984	-1995
1040.046	-1952
1040.109	-1841
1040.171	-2568
1040.233	-2457
1040.295	-1869
1040.358	-1810
1040.420	-2421
1040.482	-1458
1040.544	-2090
1040.606	-1806
1040.668	-1984
1040.730	-1872
1040.792	-2404
1040.854	-1804
1040.916	-1870
1040.978	-1899
1041.040	-1706
1041.102	-1487
1041.164	-2530
1041.225	-1230
1041.287	-2310
1041.349	-2280
1041.411	-1743
1041.472	-2729
1041.534	-1486
1041.596	-1620
1041.657	-2241
1041.719	-2353
1041.781	-2197
1041.842	-2032
1041.904	-2087
1041.965	-1728
1042.027	-1523
1042.088	-1383
1042.150	-1829
1042.211	-1981
1042.272	-2021
1042.334	-1758
1042.395	-2061
1042.456	-1240
1042.518	-2202
1042.579	-1593
1042.640	-1580
1042.701	-1943
1042.763	-1432
1042.824	-2860
1042.885	-1297
1042.946	-2420
1043.007	-2213
1043.068	-1554
1043.129	-2212
1043.190	-1774
1043.251	-1141
1043.312	-2360
1043.373	-1878
1043.434	-2075
1043.495	-2190
1043.556	-1221
1043.616	-1501
1043.677	-2124
1043.738	-2401
1043.799	-1832
1043.859	-2445
1043.920	-2195
1043.981	-2391
1044.041	-1810
1044.102	-2944
1044.162	-1965
1044.223	-2273
1044.284	-1751
1044.344	-1682
1044.405	-2162
1044.465	-2095
1044.525	-2656
1044.586	-2058
1044.646	-1457
1044.707	-1175
1044.767	-1227
1044.827	-2677
1044.887	-1950
1044.948	-2219
1045.008	-2001
1045.068	-2021
1045.128	-1354
1045.188	-1902
1045.249	-1783
1045.309	-1316
1045.369	-2106
1045.429	-2392
1045.489	-2027
1045.549	-1616
1045.609	-1914
1045.669	-1926
1045.729	-2474
1045.789	-1955
1045.848	-1413
1045.908	-1809
1045.968	-1603
1046.028	-1308
1046.088	-1722
1046.147	-1233
1046.207	-2120
1046.267	-1683
1046.326	-897
1046.386	-1090
1046.446	-1162
1046.505	-1406
1046.565	-1005
1046.624	-1055
1046.684	-807
1046.743	-868
1046.803	-994
1046.862	-961
1046.922	0
