'Start Wavelength	183.907
'End Wavelength	1046.922
'Gate Delay	5.000
'Gate Width (ms)	1.050
'Laser Output Level	0.000
'X Position	0.000
'Y Position	0.000
'Z Position	0.000
'Grid Point Number	1.000
'Shot Number	100.000
183.907	190.000
183.977	-587.000
184.047	324
184.116	296
184.186	454
184.256	242
184.325	61
184.395	-644
184.465	804
184.534	388
184.604	-379
184.674	153
184.743	-213
184.813	-45
184.883	919
184.952	414
185.022	406
185.092	621
185.161	677
185.231	12
185.301	315
185.370	641
185.440	340
185.509	327
185.579	417
185.649	-22
185.718	38
185.788	398
185.857	38
185.927	-66
185.996	1009
186.066	-669
186.136	-392
186.205	181
186.275	448
186.344	-390
186.414	71
186.483	47
186.553	-38
186.622	412
186.692	698
186.761	-26
186.831	289
186.900	-92
186.970	-137
187.039	800
187.109	215
187.178	472
187.248	156
187.317	749
187.387	849
187.456	8
187.526	112
187.595	837
187.664	953
187.734	308
187.803	168
187.873	168
187.942	-23
188.012	915
188.081	235
188.150	731
188.220	6
188.289	-70
188.358	588
188.428	476
188.497	-52
188.567	847
188.636	-446
188.705	-245
188.775	1007
188.844	318
188.913	1384
188.983	450
189.052	380
189.121	648
189.191	446
189.260	438
189.329	382
189.399	11
189.468	688
189.537	25
189.606	818
189.676	376
189.745	730
189.814	697
189.883	390
189.953	444
190.022	1283
190.091	1197
190.161	2605
190.230	715
190.299	475
190.368	296
190.437	322
190.507	-301
190.576	361
190.645	326
190.714	365
190.783	-334
190.853	953
190.922	603
190.991	229
191.060	421
191.129	572
191.198	8
191.268	202
191.337	765
191.406	979
191.475	246
191.544	547
191.613	387
191.682	264
191.752	-298
191.821	657
191.890	917
191.959	694
192.028	674
192.097	1286
192.166	-316
192.235	-237
192.304	991
192.373	758
192.442	-6
192.511	1072
192.580	442
192.650	1068
192.719	675
192.788	826
192.857	-313
192.926	576
192.995	782
193.064	1179
193.133	1832
193.202	999
193.271	1539
193.340	1927
193.409	1485
193.478	1421
193.547	2185
193.615	3044
193.684	1502
193.753	1122
193.822	1409
193.891	1571
193.960	1045
194.029	1080
194.098	1044
194.167	-205
194.236	917
194.305	843
194.374	105
194.443	444
194.512	836
194.580	1357
194.649	890
194.718	422
194.787	780
194.856	-462
194.925	858
194.994	885
195.062	330
195.131	996
195.200	411
195.269	1350
195.338	983
195.407	792
195.475	985
195.544	1600
195.613	1431
195.682	1571
195.751	1183
195.819	1832
195.888	1468
195.957	1558
196.026	1275
196.094	1895
196.163	1040
196.232	1547
196.301	1423
196.369	1157
196.438	196
196.507	1256
196.576	996
196.644	955
196.713	100
196.782	307
196.850	567
196.919	1348
196.988	985
197.056	308
197.125	1333
197.194	1415
197.262	561
197.331	910
197.400	925
197.468	908
197.537	391
197.606	608
197.674	1400
197.743	2655
197.812	678
197.880	2080
197.949	1759
198.017	2882
198.086	1689
198.155	1498
198.223	1790
198.292	1946
198.360	1456
198.429	897
198.497	1392
198.566	2102
198.635	2629
198.703	1831
198.772	1199
198.840	3152
198.909	2580
198.977	1672
199.046	1185
199.114	1362
199.183	1168
199.251	1407
199.320	1176
199.388	1269
199.457	1386
199.525	1877
199.594	439
199.662	560
199.731	946
199.799	1274
199.867	372
199.936	664
200.004	794
200.073	1591
200.141	394
200.210	692
200.278	841
200.346	1174
200.415	1849
200.483	558
200.552	1079
200.620	1089
200.688	534
200.757	785
200.825	356
200.893	1256
200.962	1193
201.030	1282
201.098	1812
201.167	1525
201.235	1513
201.303	1620
201.372	1220
201.440	1741
201.508	1260
201.577	1696
201.645	1172
201.713	969
201.781	1100
201.850	1171
201.918	1673
201.986	1606
202.055	1827
202.123	1853
202.191	1012
202.259	2011
202.327	531
202.396	883
202.464	882
202.532	2181
202.600	3838
202.669	1477
202.737	1331
202.805	673
202.873	1227
202.941	1435
203.009	1064
203.078	1393
203.146	1385
203.214	698
203.282	1242
203.350	1980
203.418	1306
203.487	1427
203.555	952
203.623	1645
203.691	1308
203.759	775
203.827	628
203.895	894
203.963	1157
204.031	1637
204.099	773
204.168	1290
204.236	744
204.304	1820
204.372	1108
204.440	1463
204.508	1663
204.576	1547
204.644	1636
204.712	897
204.780	1217
204.848	958
204.916	842
204.984	1730
205.052	1036
205.120	1734
205.188	1497
205.256	1246
205.324	1287
205.392	1799
205.460	1524
205.528	1134
205.596	1117
205.664	1614
205.732	1317
205.799	2822
205.867	4242
205.935	1660
206.003	2003
206.071	1624
206.139	1321
206.207	1477
206.275	1698
206.343	1247
206.411	1495
206.478	1782
206.546	1156
206.614	1499
206.682	867
206.750	1469
206.818	1537
206.885	1671
206.953	982
207.021	2630
207.089	1052
207.157	1317
207.225	1171
207.292	1304
207.360	1686
207.428	1864
207.496	1145
207.563	1863
207.631	1145
207.699	1401
207.767	1238
207.834	1111
207.902	1482
207.970	1825
208.038	1027
208.105	1563
208.173	1155
208.241	2204
208.309	2108
208.376	2277
208.444	3067
208.512	1932
208.579	1365
208.647	2364
208.715	1679
208.782	1055
208.850	1279
208.918	1684
208.985	1765
209.053	2190
209.120	1515
209.188	1309
209.256	1741
209.323	2023
209.391	2525
209.459	2916
209.526	1412
209.594	1198
209.661	1212
209.729	2196
209.796	2081
209.864	2593
209.932	793
209.999	2183
210.067	2180
210.134	2212
210.202	1959
210.269	3073
210.337	2161
210.404	1736
210.472	1072
210.539	1970
210.607	1783
210.674	2213
210.742	2355
210.809	1451
210.877	2170
210.944	2922
211.012	1213
211.079	3014
211.146	2010
211.214	1747
211.281	2015
211.349	2368
211.416	1807
211.484	2489
211.551	2175
211.618	2440
211.686	2212
211.753	1992
211.821	2345
211.888	2464
211.955	2757
212.023	2398
212.090	2437
212.157	2810
212.225	2387
212.292	3913
212.359	5865
212.427	10766
212.494	6166
212.561	2939
212.629	2312
212.696	2547
212.763	2859
212.831	2601
212.898	1952
212.965	2009
213.032	2005
213.100	3278
213.167	2199
213.234	3008
213.301	1967
213.369	2351
213.436	1981
213.503	1916
213.570	2053
213.638	3308
213.705	1411
213.772	1825
213.839	2437
213.906	2674
213.973	2693
214.041	1735
214.108	1968
214.175	2674
214.242	1772
214.309	2686
214.376	2317
214.444	3341
214.511	2484
214.578	3197
214.645	2244
214.712	3482
214.779	2359
214.846	2511
214.913	2745
214.980	2880
215.048	3378
215.115	2866
215.182	2317
215.249	2857
215.316	2551
215.383	2810
215.450	2094
215.517	2425
215.584	1662
215.651	2280
215.718	1701
215.785	2947
215.852	1953
215.919	3074
215.986	2772
216.053	2095
216.120	2175
216.187	2861
216.254	2506
216.321	2012
216.388	1923
216.455	2920
216.522	2555
216.589	3016
216.656	4323
216.722	4674
216.789	3427
216.856	4438
216.923	3329
216.990	4035
217.057	3070
217.124	4111
217.191	2938
217.258	4418
217.324	3557
217.391	4822
217.458	3403
217.525	3711
217.592	2259
217.659	2486
217.725	3063
217.792	3918
217.859	3610
217.926	1851
217.993	1549
218.059	3442
218.126	2299
218.193	2042
218.260	1555
218.327	2010
218.393	1875
218.460	2095
218.527	1058
218.594	2035
218.660	3951
218.727	4161
218.794	2304
218.860	2239
218.927	1429
218.994	1287
219.061	1503
219.127	2544
219.194	3760
219.261	2020
219.327	1646
219.394	2569
219.461	1839
219.527	2487
219.594	2460
219.661	2658
219.727	1135
219.794	2456
219.860	1035
219.927	2451
219.994	2228
220.060	4837
220.127	2508
220.193	3434
220.260	2897
220.326	4809
220.393	6090
220.460	6750
220.526	4952
220.593	4018
220.659	3837
220.726	4690
220.792	7572
220.859	7938
220.925	9061
220.992	11428
221.058	10315
221.125	9074
221.191	6716
221.258	4489
221.324	3035
221.391	2447
221.457	1368
221.524	2873
221.590	2897
221.657	7697
221.723	5262
221.789	5144
221.856	4586
221.922	2846
221.989	2717
222.055	2241
222.121	1527
222.188	2155
222.254	1886
222.321	1590
222.387	1601
222.453	2105
222.520	939
222.586	1902
222.652	1364
222.719	1719
222.785	2157
222.851	1364
222.918	1153
222.984	1711
223.050	1128
223.116	1658
223.183	2049
223.249	1122
223.315	559
223.382	2159
223.448	1459
223.514	1128
223.580	1099
223.647	2177
223.713	835
223.779	1132
223.845	1398
223.911	1638
223.978	973
224.044	2008
224.110	897
224.176	2439
224.242	1581
224.309	631
224.375	1842
224.441	1349
224.507	1216
224.573	750
224.639	1628
224.705	1283
224.772	1473
224.838	1411
224.904	1433
224.970	1696
225.036	1282
225.102	1403
225.168	1353
225.234	1544
225.300	955
225.366	2318
225.432	1171
225.499	1775
225.565	1981
225.631	1685
225.697	1987
225.763	3067
225.829	1995
225.895	3597
225.961	3859
226.027	3235
226.093	2745
226.159	3884
226.225	5903
226.291	12876
226.357	16244
226.423	9578
226.489	5717
226.554	4013
226.620	3835
226.686	4865
226.752	7442
226.818	12822
226.884	21269
226.950	17259
227.016	8505
227.082	5095
227.148	4538
227.214	3539
227.279	3662
227.345	3137
227.411	2714
227.477	2381
227.543	2072
227.609	3834
227.674	2414
227.740	2550
227.806	1642
227.872	2282
227.938	2519
228.003	3126
228.069	1559
228.135	1061
228.201	1955
228.267	2058
228.332	2048
228.398	2674
228.464	1141
228.530	1917
228.595	1869
228.661	911
228.727	3089
228.792	2582
228.858	2091
228.924	1580
228.990	3225
229.055	2251
229.121	2501
229.187	2139
229.252	1398
229.318	1445
229.384	1837
229.449	2707
229.515	943
229.581	1149
229.646	2223
229.712	2566
229.777	3953
229.843	3760
229.909	2871
229.974	3024
230.040	2125
230.105	2323
230.171	2054
230.236	3388
230.302	3774
230.368	3306
230.433	1687
230.499	2517
230.564	1963
230.630	1281
230.695	1475
230.761	2367
230.826	1514
230.892	3122
230.957	1584
231.023	1503
231.088	1694
231.154	1896
231.219	1880
231.284	2482
231.350	2553
231.415	1600
231.481	1557
231.546	2179
231.612	2290
231.677	1020
231.742	779
231.808	2115
231.873	1367
231.939	1110
232.004	3225
232.069	3091
232.135	1374
232.200	1703
232.265	1395
232.331	1480
232.396	1225
232.461	1192
232.527	1048
232.592	1397
232.657	1937
232.723	2853
232.788	1265
232.853	1895
232.918	1139
232.984	1119
233.049	1310
233.114	2264
233.179	2246
233.245	4124
233.310	3807
233.375	632
233.440	1344
233.506	1863
233.571	702
233.636	1183
233.701	2328
233.766	2845
233.832	2760
233.897	2338
233.962	1228
234.027	2521
234.092	2439
234.157	2270
234.222	1394
234.288	3731
234.353	7874
234.418	7447
234.483	5253
234.548	3184
234.613	1597
234.678	2279
234.743	2703
234.808	8547
234.873	5262
234.938	3405
235.004	1854
235.069	2630
235.134	1333
235.199	1918
235.264	1369
235.329	1121
235.394	1905
235.459	2954
235.524	2699
235.589	2321
235.654	1493
235.719	1365
235.784	1894
235.849	2482
235.913	5062
235.978	5601
236.043	5742
236.108	2319
236.173	1939
236.238	3467
236.303	2321
236.368	2213
236.433	3445
236.498	5789
236.563	4932
236.627	10443
236.692	26911
236.757	21887
236.822	9299
236.887	7856
236.952	4744
237.017	4077
237.081	5053
237.146	6705
237.211	15185
237.276	27670
237.341	37791
237.405	19970
237.470	9182
237.535	7006
237.600	5094
237.664	4104
237.729	2540
237.794	4727
237.859	8726
237.923	5895
237.988	2941
238.053	5401
238.118	4052
238.182	11332
238.247	8438
238.312	4660
238.376	3863
238.441	2345
238.506	3633
238.570	814
238.635	2770
238.700	2458
238.764	1902
238.829	5156
238.893	5020
238.958	3396
239.023	2550
239.087	2233
239.152	2704
239.216	1954
239.281	2080
239.346	1718
239.410	1012
239.475	2352
239.539	10373
239.604	6394
239.668	2903
239.733	2055
239.797	2381
239.862	3370
239.926	6507
239.991	3510
240.055	2137
240.120	2462
240.184	1492
240.249	1431
240.313	1774
240.378	2181
240.442	5388
240.507	8860
240.571	3000
240.635	4491
240.700	5235
240.764	2005
240.829	1676
240.893	1017
240.957	1517
241.022	5933
241.086	9851
241.151	3569
241.215	1183
241.279	3990
241.344	4152
241.408	2462
241.472	1501
241.537	3022
241.601	2416
241.665	623
241.730	2132
241.794	2128
241.858	1641
241.922	2333
241.987	1833
242.051	1870
242.115	1005
242.179	2182
242.244	1469
242.308	2747
242.372	1998
242.436	2386
242.501	1552
242.565	1615
242.629	1786
242.693	1950
242.757	2117
242.822	2026
242.886	1613
242.950	2307
243.014	2302
243.078	2783
243.142	2546
243.206	1705
243.271	2618
243.335	2234
243.399	3413
243.463	15744
243.527	31916
243.591	9922
243.655	4677
243.719	2915
243.783	3782
243.847	5444
243.911	6401
243.975	7754
244.040	4526
244.104	3553
244.168	3278
244.232	3817
244.296	5537
244.360	5421
244.424	2366
244.488	2801
244.552	1971
244.615	1932
244.679	1661
244.743	2795
244.807	1958
244.871	1957
244.935	1862
244.999	1048
245.063	2197
245.127	2570
245.191	4226
245.255	4432
245.319	2988
245.383	2201
245.446	3426
245.510	1655
245.574	2420
245.638	2870
245.702	2050
245.766	6464
245.829	2641
245.893	2171
245.957	1790
246.021	2661
246.085	2560
246.149	3515
246.212	8192
246.276	11101
246.340	5109
246.404	3571
246.467	3970
246.531	5275
246.595	4388
246.659	2384
246.722	2566
246.786	4300
246.850	4038
246.913	5310
246.977	2201
247.041	2801
247.104	2921
247.168	3497
247.232	7929
247.295	15232
247.359	7500
247.423	4477
247.486	6703
247.550	5096
247.614	2835
247.677	4448
247.741	2534
247.804	2544
247.868	2949
247.932	8147
247.995	14641
248.059	4817
248.122	2057
248.186	4981
248.249	7226
248.313	25525
248.376	23939
248.440	15414
248.503	5665
248.567	5907
248.630	8060
248.694	10054
248.757	13035
248.821	26095
248.884	14501
248.948	14537
249.011	20376
249.075	29956
249.138	24120
249.202	9812
249.265	5313
249.328	8358
249.392	5101
249.455	5043
249.519	4388
249.582	4623
249.645	8489
249.709	5583
249.772	4182
249.835	3841
249.899	4052
249.962	3657
250.025	3134
250.089	10380
250.152	13060
250.215	7054
250.279	4349
250.342	4955
250.405	4647
250.468	4746
250.532	5655
250.595	9117
250.658	32563
250.721	46481
250.785	18001
250.848	11155
250.911	6368
250.974	5293
251.038	7656
251.101	15016
251.164	6789
251.227	8909
251.290	7551
251.354	13026
251.417	44961
251.480	39549
251.543	31857
251.606	75599
251.669	53833
251.732	23956
251.795	23193
251.859	25170
251.922	49672
251.985	26533
252.048	11363
252.111	8641
252.174	7680
252.237	15685
252.300	32395
252.363	34457
252.426	59047
252.489	25467
252.552	13922
252.615	9866
252.678	11211
252.741	24006
252.804	31990
252.867	62243
252.930	36577
252.993	19875
253.056	13106
253.119	9230
253.182	7580
253.245	12836
253.308	9878
253.371	9063
253.434	8057
253.497	8102
253.559	14667
253.622	10255
253.685	13566
253.748	12294
253.811	6302
253.874	8203
253.937	6705
254.000	6046
254.062	10042
254.125	14825
254.188	14158
254.251	10931
254.314	6259
254.376	11916
254.439	12021
254.502	9940
254.565	11229
254.628	19163
254.690	10392
254.753	6104
254.816	5271
254.878	6137
254.941	11972
255.004	10271
255.067	4948
255.129	4984
255.192	2913
255.255	3018
255.317	3497
255.380	3241
255.443	1043
255.505	1215
255.568	1014
255.631	1856
255.693	1904
255.756	1753
255.819	1970
255.881	1744
255.944	1419
256.006	1887
256.069	2416
256.132	1934
256.194	3192
256.257	8810
256.319	5902
256.382	5103
256.444	2907
256.507	2235
256.569	1860
256.632	3191
256.694	4587
256.757	16475
256.819	40555
256.882	16253
256.944	6131
257.007	6242
257.069	4629
257.132	3858
257.194	3420
257.257	2633
257.319	2016
257.381	3918
257.444	12480
257.506	47894
257.569	46001
257.631	18857
257.693	10954
257.756	6628
257.818	4417
257.880	3600
257.943	3015
258.005	1757
258.067	3042
258.130	2264
258.192	3270
258.254	6579
258.317	2822
258.379	2938
258.441	7684
258.503	7386
258.566	9708
258.628	12435
258.690	2670
258.753	3677
258.815	6571
258.877	2613
258.939	2399
259.001	1746
259.064	1256
259.126	3530
259.188	4022
259.250	2259
259.312	2233
259.375	5405
259.437	3380
259.499	1904
259.561	1305
259.623	2074
259.685	1896
259.747	2129
259.809	9347
259.872	16705
259.934	27542
259.996	20884
260.058	5330
260.120	2030
260.182	2112
260.244	2072
260.306	1432
260.368	2890
260.430	1757
260.492	4696
260.554	6648
260.616	4116
260.678	13383
260.740	17008
260.802	3573
260.864	3720
260.926	1362
260.988	2809
261.050	2210
261.112	6563
261.174	19051
261.236	12764
261.298	3921
261.359	8794
261.421	10931
261.483	2549
261.545	3034
261.607	387
261.669	2036
261.731	5259
261.793	12221
261.854	3919
261.916	2800
261.978	2596
262.040	2647
262.102	2981
262.164	3875
262.225	3648
262.287	2070
262.349	6485
262.411	4394
262.472	2530
262.534	4612
262.596	10333
262.658	2772
262.719	1928
262.781	3087
262.843	10869
262.904	4476
262.966	3475
263.028	3711
263.090	24254
263.151	50158
263.213	14832
263.275	7373
263.336	4070
263.398	2926
263.459	1852
263.521	2497
263.583	6488
263.644	3267
263.706	1595
263.767	-158
263.829	967
263.891	703
263.952	976
264.014	306
264.075	3231
264.137	5346
264.198	3160
264.260	444
264.321	937
264.383	5336
264.444	10657
264.506	2313
264.567	892
264.629	3543
264.690	7365
264.752	3002
264.813	1840
264.875	537
264.936	2691
264.998	917
265.059	819
265.120	706
265.182	4845
265.243	23974
265.305	20635
265.366	4523
265.427	3063
265.489	2438
265.550	1181
265.611	1915
265.673	2074
265.734	1306
265.795	918
265.857	800
265.918	1919
265.979	6746
266.040	37557
266.102	26902
266.163	7772
266.224	5508
266.286	3714
266.347	1217
266.408	1873
266.469	1539
266.530	1277
266.592	1393
266.653	4678
266.714	6190
266.775	1904
266.836	685
266.898	741
266.959	2384
267.020	421
267.081	1285
267.142	362
267.203	336
267.264	268
267.326	2194
267.387	582
267.448	471
267.509	375
267.570	237
267.631	893
267.692	277
267.753	888
267.814	691
267.875	3993
267.936	8008
267.997	3268
268.058	2555
268.119	1048
268.180	1501
268.241	958
268.302	1098
268.363	627
268.424	450
268.485	1569
268.546	401
268.607	264
268.668	222
268.729	281
268.790	433
268.851	1500
268.912	5673
268.972	5491
269.033	1336
269.094	-18
269.155	884
269.216	889
269.277	722
269.338	488
269.398	440
269.459	487
269.520	2351
269.581	3996
269.642	3472
269.702	2779
269.763	1964
269.824	1198
269.885	1690
269.945	3907
270.006	1357
270.067	923
270.128	-85
270.188	105
270.249	622
270.310	181
270.370	836
270.431	708
270.492	187
270.553	1214
270.613	4434
270.674	7823
270.734	2161
270.795	1440
270.856	1783
270.916	1763
270.977	645
271.038	1939
271.098	2012
271.159	2781
271.219	2849
271.280	848
271.340	813
271.401	2428
271.462	6400
271.522	2431
271.583	1297
271.643	1519
271.704	749
271.764	2223
271.825	6806
271.885	24307
271.946	27476
272.006	8555
272.066	14469
272.127	21655
272.187	5070
272.248	3555
272.308	3747
272.369	15761
272.429	7443
272.489	6863
272.550	5010
272.610	6747
272.671	3338
272.731	5134
272.791	6666
272.852	3489
272.912	2701
272.972	1620
273.033	1780
273.093	3265
273.153	3417
273.214	1931
273.274	2163
273.334	11892
273.394	20836
273.455	8156
273.515	9099
273.575	19065
273.635	6998
273.696	11866
273.756	21058
273.816	7323
273.876	4313
273.936	11933
273.997	17457
274.057	3645
274.117	3129
274.177	6342
274.237	28197
274.297	21859
274.358	15205
274.418	17895
274.478	11163
274.538	4762
274.598	3128
274.658	17540
274.718	20423
274.778	6610
274.838	3569
274.898	9484
274.958	28456
275.018	23364
275.078	12917
275.138	5502
275.198	2803
275.258	1302
275.318	3062
275.378	7019
275.438	6218
275.498	4324
275.558	14284
275.618	25853
275.678	14883
275.738	9645
275.798	5856
275.858	3512
275.918	519
275.978	3042
276.038	1751
276.098	923
276.157	5799
276.217	15300
276.277	6318
276.337	4236
276.397	2165
276.457	3897
276.517	1777
276.576	2152
276.636	382
276.696	4011
276.756	9780
276.815	6111
276.875	2623
276.935	3220
276.995	1751
277.055	1300
277.114	1449
277.174	3960
277.234	12236
277.293	4313
277.353	1859
277.413	1795
277.472	1931
277.532	1092
277.592	2557
277.651	11032
277.711	16085
277.771	5948
277.830	22931
277.890	16576
277.950	14101
278.009	37037
278.069	11708
278.128	14086
278.188	16670
278.248	8197
278.307	20988
278.367	10638
278.426	2953
278.486	2778
278.545	1198
278.605	2293
278.664	1183
278.724	2450
278.783	9546
278.843	21192
278.902	5466
278.962	2996
279.021	3521
279.081	5064
279.140	4935
279.199	3314
279.259	3831
279.318	3699
279.378	4184
279.437	9712
279.496	33151
279.556	102218
279.615	72258
279.675	19269
279.734	11538
279.793	17181
279.853	20244
279.912	7979
279.971	4499
280.031	4485
280.090	7463
280.149	12176
280.208	14454
280.268	72459
280.327	63719
280.386	15029
280.445	12561
280.505	10394
280.564	5325
280.623	3821
280.682	7012
280.742	9902
280.801	2950
280.860	2061
280.919	1688
280.978	1627
281.037	1078
281.097	1088
281.156	777
281.215	1000
281.274	1858
281.333	14968
281.392	9288
281.451	2538
281.510	1425
281.569	933
281.628	197
281.688	604
281.747	1640
281.806	1476
281.865	272
281.924	1299
281.983	854
282.042	178
282.101	-23
282.160	514
282.219	126
282.278	1366
282.337	7463
282.396	4047
282.454	1858
282.513	3143
282.572	11890
282.631	5396
282.690	1050
282.749	1039
282.808	1087
282.867	1238
282.926	1029
282.985	726
283.043	-23
283.102	1008
283.161	1272
283.220	5490
283.279	13062
283.338	2837
283.396	1482
283.455	1805
283.514	1688
283.573	4488
283.631	2237
283.690	1374
283.749	698
283.808	5267
283.866	5045
283.925	1675
283.984	1135
284.043	1752
284.101	3031
284.160	1293
284.219	2658
284.277	1854
284.336	4603
284.395	18052
284.453	12234
284.512	4162
284.570	5954
284.629	4050
284.688	3158
284.746	4256
284.805	4625
284.863	6455
284.922	7262
284.981	9345
285.039	13734
285.098	27705
285.156	68231
285.215	137778
285.273	132410
285.332	67278
285.390	34384
285.449	21753
285.507	13802
285.566	11170
285.624	7422
285.683	6405
285.741	4030
285.799	3842
285.858	3630
285.916	2981
285.975	1004
286.033	1521
286.091	1415
286.150	1034
286.208	1296
286.267	2291
286.325	2953
286.383	4744
286.442	3066
286.500	1539
286.558	979
286.616	986
286.675	2776
286.733	2072
286.791	1160
286.850	3107
286.908	2993
286.966	5818
287.024	2242
287.083	897
287.141	1177
287.199	1906
287.257	2716
287.315	888
287.374	2190
287.432	6975
287.490	3659
287.548	2333
287.606	1235
287.664	2195
287.723	2109
287.781	3751
287.839	2027
287.897	2751
287.955	3163
288.013	6732
288.071	20044
288.129	73650
288.187	172169
288.245	76109
288.303	25265
288.361	14277
288.419	9841
288.477	7563
288.535	4627
288.593	3548
288.651	2470
288.709	1600
288.767	1887
288.825	978
288.883	522
288.941	2315
288.999	292
289.057	1437
289.115	178
289.173	1139
289.231	188
289.289	1316
289.346	877
289.404	1362
289.462	3355
289.520	3382
289.578	1139
289.636	59
289.694	492
289.751	867
289.809	372
289.867	570
289.925	1701
289.983	1350
290.040	837
290.098	375
290.156	742
290.214	1825
290.271	448
290.329	86
290.387	17
290.444	360
290.502	-317
290.560	-101
290.617	600
290.675	225
290.733	931
290.790	866
290.848	17
290.906	769
290.963	696
291.021	1435
291.078	1139
291.136	1205
291.194	6010
291.251	12933
291.309	2197
291.366	835
291.424	622
291.481	765
291.539	1197
291.596	803
291.654	162
291.711	197
291.769	667
291.826	3843
291.884	1770
291.941	31
291.999	252
292.056	345
292.114	616
292.171	539
292.228	476
292.286	1633
292.343	4078
292.401	4106
292.458	2963
292.515	1273
292.573	1682
292.630	2244
292.687	2219
292.745	1735
292.802	2264
292.859	6920
292.917	14171
292.974	8005
293.031	1880
293.089	1594
293.146	1059
293.203	1041
293.260	197
293.318	786
293.375	2087
293.432	298
293.489	559
293.546	1016
293.604	2039
293.661	9859
293.718	26028
293.775	11638
293.832	4458
293.889	3174
293.947	2084
294.004	2608
294.061	2218
294.118	6846
294.175	12846
294.232	14550
294.289	4886
294.346	3390
294.403	3218
294.460	2376
294.517	1625
294.574	1142
294.631	1590
294.688	3098
294.745	8193
294.802	29946
294.859	26339
294.916	9111
294.973	4214
295.030	4414
295.087	3185
295.144	2105
295.201	2166
295.258	2101
295.315	3928
295.372	11285
295.429	20812
295.486	8067
295.542	4598
295.599	11849
295.656	17472
295.713	12987
295.770	19125
295.827	6719
295.883	3434
295.940	3758
295.997	5653
296.054	5393
296.111	2253
296.167	1785
296.224	1144
296.281	1326
296.338	-44
296.394	1552
296.451	2334
296.508	9117
296.564	15887
296.621	11476
296.678	25489
296.734	33630
296.791	10757
296.848	6486
296.904	6973
296.961	14554
297.018	22878
297.074	15464
297.131	6495
297.187	4186
297.244	7826
297.301	26100
297.357	41429
297.414	13745
297.470	5705
297.527	3914
297.583	2475
297.640	3067
297.696	1554
297.753	2024
297.809	901
297.866	1035
297.922	1016
297.979	1650
298.035	1455
298.092	4338
298.148	12849
298.204	12340
298.261	6094
298.317	11802
298.374	29161
298.430	16747
298.486	7034
298.543	6046
298.599	4095
298.656	5678
298.712	10585
298.768	24432
298.824	16242
298.881	5747
298.937	2604
298.993	2554
299.050	4104
299.106	2438
299.162	1468
299.218	2818
299.275	1984
299.331	2673
299.387	7403
299.443	25964
299.500	24068
299.556	8892
299.612	3663
299.668	3978
299.724	2598
299.780	1706
299.837	2494
299.893	6355
299.949	20203
300.005	22678
300.061	19350
300.117	33287
300.173	15598
300.229	7817
300.285	8159
300.341	10009
300.397	4524
300.453	3315
300.510	2074
300.566	2376
300.622	2779
300.678	5461
300.734	15245
300.790	19096
300.845	25205
300.901	14311
300.957	18000
301.013	14592
301.069	6056
301.125	4660
301.181	4673
301.237	3049
301.293	1813
301.349	1373
301.405	956
301.461	2648
301.516	3582
301.572	3596
301.628	5865
301.684	5217
301.740	8633
301.796	15011
301.851	8976
301.907	16008
301.963	17463
302.019	30488
302.074	77330
302.130	73349
302.186	32860
302.242	13246
302.297	8337
302.353	8415
302.409	15537
302.464	13350
302.520	11641
302.576	27349
302.631	29823
302.687	16346
302.743	6225
302.798	4335
302.854	2749
302.910	4008
302.965	4713
303.021	8827
303.076	8151
303.132	10988
303.187	11960
303.243	5285
303.299	3264
303.354	2529
303.410	2112
303.465	2267
303.521	2474
303.576	1724
303.632	3983
303.687	8486
303.743	23546
303.798	20379
303.853	8373
303.909	4576
303.964	3476
304.020	6037
304.075	9387
304.130	8514
304.186	14942
304.241	15321
304.297	11565
304.352	5968
304.358	5643
304.407	2996
304.449	3297
304.463	3405
304.518	1922
304.539	2336
304.573	2965
304.629	4029
304.630	4094
304.684	7333
304.720	14521
304.739	18145
304.794	28125
304.811	24248
304.850	14508
304.902	6794
304.905	6323
304.960	4151
304.992	4573
305.015	4891
305.071	4342
305.083	4203
305.126	3625
305.173	2287
305.181	2083
305.236	2524
305.264	2764
305.292	3034
305.347	3973
305.354	3959
305.402	3920
305.445	4611
305.457	4799
305.512	5701
305.535	5911
305.567	6076
305.622	6632
305.626	6845
305.678	12709
305.716	23902
305.733	27866
305.788	31643
305.807	27931
305.843	21027
305.897	26762
305.898	26824
305.953	26001
305.988	18767
306.008	14715
306.063	8104
306.078	7230
306.118	5636
306.168	3795
306.173	3637
306.228	3086
306.259	2683
306.283	2568
306.338	3132
306.349	3235
306.393	3797
306.440	4690
306.448	4791
306.503	4274
306.530	4816
306.558	6513
306.613	13128
306.620	13924
306.668	20421
306.711	28490
306.723	29131
306.778	23032
306.801	18229
306.833	12350
306.888	6488
306.892	6146
306.943	3997
306.982	3658
306.997	3680
307.052	3560
307.072	3699
307.107	4174
307.162	4830
307.163	4846
307.217	7356
307.253	8689
307.272	8915
307.327	9233
307.343	8724
307.381	7834
307.434	8612
307.436	8880
307.491	15452
307.524	22361
307.546	25144
307.600	27508
307.614	25991
307.655	16882
307.704	8802
307.710	8636
307.765	9951
307.795	11549
307.819	13689
307.874	20374
307.885	20689
307.929	18375
307.975	16204
307.984	17053
308.038	25911
308.065	32680
308.093	52529
308.148	100700
308.156	110773
308.202	167007
308.246	202421
308.257	196908
308.312	125167
308.336	96081
308.366	74171
308.421	45203
308.426	42488
308.475	28719
308.517	20011
308.530	18879
308.585	14832
308.607	13879
308.639	13955
308.694	13591
308.697	13670
308.748	20209
308.787	26791
308.803	27152
308.857	23492
308.877	21665
308.912	20397
308.967	20886
308.967	20874
309.021	29560
309.058	36608
309.076	46185
309.130	79558
309.148	92316
309.185	141684
309.238	224389
309.239	225466
309.293	255635
309.328	251324
309.348	224430
309.402	135569
309.418	112709
309.457	81388
309.508	47844
309.511	47208
309.566	38485
309.598	34382
309.620	35569
309.674	39615
309.688	40747
309.729	41083
309.778	38801
309.783	38073
309.837	28992
309.868	24183
309.892	28211
309.946	39462
309.959	42782
310.001	57794
310.049	72353
310.055	69935
310.109	42612
310.139	27410
310.163	22150
310.218	12694
310.229	10945
310.272	9215
310.319	7716
310.326	7541
310.381	6296
310.409	5713
310.435	5756
310.489	5851
310.499	5878
310.543	5784
310.589	5628
310.598	5726
310.652	6328
310.679	6647
310.706	6143
310.760	4725
310.769	4553
310.814	4692
310.859	4659
310.868	4640
310.923	4532
310.948	4491
310.977	5192
311.031	6579
311.038	6759
311.085	5934
311.128	5026
311.139	5019
311.193	4888
311.218	4815
311.247	4584
311.301	4184
311.308	4131
311.356	4526
311.398	4808
311.410	4737
311.464	4451
311.488	4233
311.518	4551
311.572	5245
311.578	5308
311.626	7326
311.668	9168
311.680	8995
311.734	7891
311.758	7427
311.788	7317
311.842	7064
311.847	7023
311.896	9031
311.937	10736
311.950	10858
312.004	11274
312.027	11404
312.058	9854
312.112	7044
312.117	6745
312.165	5917
312.207	5184
312.297	8520
312.386	6605
312.476	6855
312.566	14610
312.656	7298
312.745	4326
312.835	5544
312.925	6178
313.015	6177
313.104	4800
313.194	5832
313.284	5544
313.374	6952
313.463	7370
313.553	5373
313.643	4386
313.732	5249
313.822	3503
313.912	5656
314.001	6010
314.091	7049
314.180	9534
314.270	9499
314.360	8429
314.449	8109
314.539	5238
314.628	4789
314.718	5119
314.808	6876
314.897	4376
314.987	5569
315.076	5792
315.166	8150
315.255	6665
315.345	7464
315.434	6038
315.524	6051
315.613	6370
315.703	10451
315.792	9062
315.881	7848
315.971	6323
316.060	12314
316.150	14630
316.239	15177
316.328	6804
316.418	4985
316.507	4085
316.597	7658
316.686	6396
316.775	8156
316.865	13963
316.954	5782
317.043	3880
317.133	5498
317.222	4132
317.311	5270
317.400	4224
317.490	6932
317.579	7564
317.668	5067
317.757	6335
317.847	8850
317.936	11462
318.025	19608
318.114	10334
318.203	9740
318.293	14250
318.382	33129
318.471	25488
318.560	31452
318.649	57349
318.738	16899
318.828	8249
318.917	11494
319.006	10202
319.095	22791
319.184	67916
319.273	47598
319.362	26274
319.451	9882
319.540	7326
319.629	16903
319.718	33507
319.807	14858
319.896	22199
319.985	84495
320.074	40472
320.163	9638
320.252	11588
320.341	10919
320.430	12826
320.519	15698
320.608	9296
320.697	7825
320.786	7873
320.875	8789
320.964	12189
321.053	20940
321.142	28228
321.230	34274
321.319	20059
321.408	52194
321.497	23338
321.586	20475
321.675	18367
321.764	21526
321.852	13296
321.941	29840
322.030	22548
322.119	20163
322.207	53023
322.296	29577
322.385	14696
322.474	18978
322.562	62273
322.651	36503
322.740	20325
322.829	27157
322.917	21712
323.006	17573
323.095	15481
323.183	11753
323.272	15725
323.361	24360
323.449	60116
323.538	24384
323.626	39255
323.715	29388
323.804	11045
323.892	35943
323.981	30208
324.069	9231
324.158	17069
324.246	21611
324.335	10219
324.424	20113
324.512	7896
324.601	10509
324.689	15697
324.778	30272
324.866	17595
324.954	7700
325.043	6094
325.131	11243
325.220	15288
325.308	18849
325.397	14519
325.485	12373
325.574	3395
325.662	4630
325.750	5651
325.839	5286
325.927	4424
326.015	5856
326.104	6294
326.192	10303
326.280	4982
326.369	5138
326.457	7691
326.545	17184
326.634	9024
326.722	4818
326.810	4328
326.898	5051
326.987	5270
327.075	13296
327.163	13364
327.251	6291
327.340	9068
327.428	16861
327.516	4524
327.604	4045
327.692	4962
327.781	5181
327.869	7404
327.957	6247
328.045	7280
328.133	4057
328.221	4662
328.309	5522
328.397	4272
328.485	7096
328.574	9058
328.662	32817
328.750	19540
328.838	6911
328.926	4052
329.014	4876
329.102	7711
329.190	18747
329.278	15938
329.366	5319
329.454	3467
329.542	5189
329.630	4277
329.718	5945
329.806	7595
329.893	8279
329.981	10885
330.069	19947
330.157	65665
330.245	173798
330.333	114207
330.421	25532
330.509	15218
330.597	42089
330.684	32660
330.772	11649
330.860	11033
330.948	15568
331.036	8238
331.123	3125
331.211	3486
331.299	6178
331.387	11378
331.475	26461
331.562	7748
331.650	3806
331.738	3202
331.825	5908
331.913	4052
332.001	3548
332.089	3920
332.176	10519
332.264	16984
332.352	17663
332.439	7004
332.527	6120
332.614	4356
332.702	5089
332.790	3758
332.877	9126
332.965	18677
333.052	7726
333.140	6570
333.228	15666
333.315	6379
333.403	4749
333.490	10306
333.578	11052
333.665	17567
333.753	13064
333.840	5052
333.928	5644
334.015	12404
334.103	19953
334.190	74404
334.278	24385
334.365	6873
334.452	4674
334.540	4021
334.627	5031
334.715	6444
334.802	12426
334.889	53394
334.977	67860
335.064	9274
335.151	4603
335.239	4797
335.326	9009
335.413	33262
335.501	62537
335.588	9644
335.675	6016
335.762	6560
335.850	12889
335.937	7050
336.024	14607
336.111	67136
336.199	33479
336.286	6236
336.373	3840
336.460	3158
336.547	4266
336.635	4974
336.722	5571
336.809	5013
336.896	8168
336.983	24340
337.070	61089
337.157	85379
337.245	45873
337.332	35375
337.419	5538
337.506	4297
337.593	6080
337.680	16495
337.767	64641
337.854	20048
337.941	20301
338.028	18223
338.115	8391
338.202	8595
338.289	13488
338.376	43947
338.463	19878
338.550	31646
338.637	44641
338.724	9683
338.811	14582
338.898	4087
338.984	4064
339.071	5379
339.158	6515
339.245	18690
339.332	13725
339.419	10116
339.506	12017
339.593	2439
339.679	4202
339.766	4254
339.853	6162
339.940	15402
340.027	5735
340.113	5348
340.200	8921
340.287	5114
340.374	7343
340.460	13900
340.547	6628
340.634	9385
340.720	37716
340.807	27836
340.894	4177
340.980	3151
341.067	3952
341.154	5200
341.240	7546
341.327	21237
341.414	7605
341.500	6136
341.587	5132
341.674	3811
341.760	12889
341.847	17476
341.933	6415
342.020	1676
342.106	2695
342.193	4189
342.279	11645
342.366	7161
342.452	14800
342.539	8310
342.625	17014
342.712	44984
342.798	21864
342.885	8561
342.971	3234
343.058	2237
343.144	2861
343.230	3591
343.317	4063
343.403	3402
343.490	2237
343.576	2578
343.662	3925
343.749	4240
343.835	7228
343.921	12121
344.008	54853
344.094	148710
344.180	41555
344.267	14902
344.353	35999
344.439	46501
344.525	23931
344.612	12558
344.698	14294
344.784	10311
344.870	4178
344.957	3647
345.043	9014
345.129	5827
345.215	13450
345.301	7687
345.387	4434
345.474	2441
345.560	3223
345.646	3787
345.732	4548
345.818	5148
345.904	4675
345.990	6138
346.076	4788
346.162	6965
346.249	4929
346.335	3306
346.421	4119
346.507	12535
346.593	56559
346.679	17578
346.765	5402
346.851	3413
346.937	4671
347.023	4195
347.108	5863
347.194	4455
347.280	3977
347.366	5493
347.452	13380
347.538	65239
347.624	52703
347.710	46619
347.796	8102
347.882	3906
347.967	3556
348.053	5770
348.139	4329
348.225	3668
348.311	4328
348.397	2488
348.482	5583
348.568	6483
348.654	2591
348.740	2562
348.825	3363
348.911	6783
348.997	26648
349.083	64944
349.168	13106
349.254	4864
349.340	4765
349.425	2952
349.511	5726
349.597	6459
349.682	13351
349.768	43115
349.854	24869
349.939	5530
350.025	3511
350.110	4718
350.196	3440
350.282	2653
350.367	2635
350.453	4721
350.538	6307
350.624	5561
350.709	7298
350.795	3104
350.880	3774
350.966	4177
351.051	5819
351.137	4306
351.222	4237
351.308	11578
351.393	44842
351.479	12924
351.564	4563
351.649	2931
351.735	4124
351.820	2991
351.906	3974
351.991	5003
352.076	23256
352.162	44186
352.247	9421
352.332	6177
352.418	12288
352.503	13368
352.588	56323
352.673	57645
352.759	12563
352.844	6385
352.929	7175
353.014	8746
353.100	5284
353.185	5759
353.270	13450
353.355	16309
353.441	6455
353.526	5211
353.611	12780
353.696	17732
353.781	10781
353.866	5615
353.952	5663
354.037	12274
354.122	32478
354.207	30163
354.292	13996
354.377	4861
354.462	4580
354.547	6595
354.632	6707
354.717	7034
354.802	6574
354.887	2983
354.972	3445
355.057	3328
355.142	3958
355.227	5209
355.312	9256
355.397	20281
355.482	50497
355.567	29227
355.652	17070
355.737	17881
355.822	46159
355.907	47555
355.991	9385
356.076	4412
356.161	4550
356.246	3813
356.331	5127
356.416	10113
356.501	63974
356.585	86390
356.670	16341
356.755	9674
356.840	12211
356.924	43756
357.009	174467
357.094	86610
357.179	20540
357.263	13297
357.348	11628
357.433	12567
357.517	11725
357.602	9238
357.687	7624
357.771	9671
357.856	38072
357.941	27991
358.025	37857
358.110	169514
358.195	104257
358.279	19337
358.364	11649
358.448	34945
358.533	101660
358.617	80536
358.702	72505
358.787	31595
358.871	17383
358.956	14935
359.040	5632
359.125	4486
359.209	5436
359.294	15279
359.378	34322
359.462	14036
359.547	8365
359.631	3978
359.716	4214
359.800	4119
359.885	8154
359.969	5452
360.053	4714
360.138	4996
360.222	7705
360.306	15758
360.391	13719
360.475	19739
360.559	52234
360.644	40991
360.728	31947
360.812	33558
360.896	113385
360.981	55559
361.065	32407
361.149	8481
361.233	8456
361.318	6828
361.402	7310
361.486	6810
361.570	4868
361.654	7116
361.739	17626
361.823	65680
361.907	118263
361.991	26508
362.075	13345
362.159	28910
362.243	21815
362.327	11994
362.411	11100
362.495	7852
362.580	6094
362.664	3630
362.748	4052
362.832	4188
362.916	5051
363.000	13434
363.084	54913
363.168	128487
363.252	39799
363.336	11944
363.420	14866
363.503	50388
363.587	75268
363.671	16352
363.755	9859
363.839	15324
363.923	8227
364.007	13907
364.091	17273
364.175	15897
364.258	82556
364.342	50039
364.426	18530
364.510	11636
364.594	15316
364.677	18612
364.761	88457
364.845	78296
364.929	29345
365.013	24858
365.096	18033
365.180	23405
365.264	20069
365.347	87767
365.431	46112
365.515	13688
365.598	6629
365.682	5894
365.766	9851
365.849	14104
365.933	7739
366.017	9776
366.100	8537
366.184	2548
366.267	4533
366.351	4036
366.435	4839
366.518	3400
366.602	3835
366.685	4294
366.769	6335
366.852	9195
366.936	19469
367.019	11862
367.103	7687
367.186	15262
367.270	6661
367.353	2121
367.436	4558
367.520	3082
367.603	6107
367.687	8795
367.770	19433
367.853	10681
367.937	25191
368.020	54365
368.104	15325
368.187	12795
368.270	20685
368.353	19717
368.437	17959
368.520	28765
368.603	25543
368.687	33026
368.770	75225
368.853	21521
368.936	17056
369.020	18729
369.103	8413
369.186	4574
369.269	6204
369.352	10597
369.436	17970
369.519	12181
369.602	6655
369.685	5720
369.768	8190
369.851	5614
369.934	4456
370.018	5866
370.101	15366
370.184	12102
370.267	8622
370.350	14836
370.433	22508
370.516	46875
370.599	61796
370.682	17892
370.765	41146
370.848	45896
370.931	83314
371.014	37698
371.097	8701
371.180	6786
371.263	4142
371.346	3397
371.429	4912
371.511	4890
371.594	10437
371.677	15679
371.760	19038
371.843	15690
371.926	57918
372.009	158238
372.091	62348
372.174	30406
372.257	75096
372.340	34779
372.423	23612
372.505	29572
372.588	13441
372.671	22366
372.754	80848
372.836	48622
372.919	26027
373.002	60914
373.085	21668
373.167	14604
373.250	35664
373.332	77424
373.415	92338
373.498	201493
373.580	88902
373.663	79235
373.746	131609
373.828	38080
373.911	16358
373.993	14404
374.076	50804
374.159	55499
374.241	22488
374.324	69758
374.406	54974
374.489	49138
374.571	160946
374.654	80585
374.736	31263
374.819	92362
374.901	134768
374.983	155715
375.066	35588
375.148	11242
375.231	35076
375.313	85063
375.395	37324
375.478	9155
375.560	6174
375.643	7890
375.725	24391
375.807	112015
375.890	96932
375.972	34255
376.054	20834
376.136	24334
376.219	14425
376.301	27808
376.383	103322
376.465	48037
376.548	29769
376.630	29002
376.712	88397
376.794	50072
376.877	7532
376.959	4028
377.041	5979
377.123	10813
377.205	15808
377.287	3285
377.369	4347
377.452	3656
377.534	5126
377.616	3451
377.698	4928
377.780	2808
377.862	4611
377.944	5002
378.026	2744
378.108	3610
378.190	3702
378.272	3786
378.354	2777
378.436	3052
378.518	6528
378.600	25661
378.682	24242
378.764	48175
378.846	46459
378.928	11989
379.010	18668
379.091	11196
379.173	5376
379.255	3692
379.337	7179
379.419	20806
379.501	71710
379.583	33878
379.664	8074
379.746	15846
379.828	49578
379.910	69129
379.991	65346
380.073	13322
380.155	7361
380.237	5322
380.318	4830
380.400	5014
380.482	10562
380.564	18775
380.645	15378
380.727	15289
380.809	10511
380.890	7195
380.972	5841
381.053	5094
381.135	6821
381.217	15026
381.298	55690
381.380	30693
381.461	19912
381.543	78306
381.624	121016
381.706	26649
381.787	12618
381.869	12948
381.951	32300
382.032	139522
382.113	110616
382.195	27659
382.276	15852
382.358	24537
382.439	80710
382.521	85203
382.602	140928
382.684	69149
382.765	114364
382.846	131055
382.928	154914
383.009	100215
383.090	71048
383.172	207926
383.253	330944
383.334	134292
383.416	128753
383.497	78383
383.578	39488
383.659	66562
383.741	191499
383.822	460122
383.903	277674
383.984	101357
384.066	161130
384.147	117089
384.228	27569
384.309	17151
384.390	13937
384.471	9437
384.553	10847
384.634	13973
384.715	16785
384.796	8955
384.877	9779
384.958	41322
385.039	63887
385.120	25120
385.201	10531
385.282	12199
385.363	11682
385.444	9977
385.525	17260
385.606	59172
385.687	61600
385.768	15820
385.849	17160
385.930	63919
386.011	132590
386.092	43377
386.173	10656
386.254	6766
386.335	8150
386.416	8064
386.496	27448
386.577	55880
386.658	21380
386.739	11457
386.820	10330
386.901	6965
386.981	8029
387.062	4822
387.143	8296
387.224	45214
387.304	50319
387.385	16148
387.466	9507
387.547	12404
387.627	9076
387.708	13545
387.789	74076
387.869	107587
387.950	32343
388.031	5246
388.111	5171
388.192	13514
388.273	21942
388.353	13920
388.434	9288
388.514	13681
388.595	65568
388.676	104633
388.756	56460
388.837	49534
388.917	37179
388.998	7107
389.078	6943
389.159	5418
389.239	5243
389.320	9233
389.400	8792
389.480	14598
389.561	49176
389.641	29733
389.722	9086
389.802	16828
389.883	19266
389.963	55627
390.043	39682
390.124	11899
390.204	15812
390.284	60185
390.365	42920
390.445	35445
390.525	94861
390.605	95380
390.686	37968
390.766	11415
390.846	7147
390.927	4393
391.007	4870
391.087	6046
391.167	6314
391.247	3849
391.328	6721
391.408	11797
391.488	10752
391.568	2338
391.648	7121
391.728	11757
391.808	10418
391.888	11017
391.969	23075
392.049	48411
392.129	22341
392.209	17637
392.289	55554
392.369	33400
392.449	25571
392.529	15950
392.609	10791
392.689	11589
392.769	47275
392.849	48285
392.929	23819
393.009	67299
393.089	51765
393.169	15485
393.248	29805
393.328	164401
393.408	224092
393.488	49247
393.568	14794
393.648	9968
393.728	7878
393.807	6993
393.887	8724
393.967	8400
394.047	12325
394.127	17931
394.206	32628
394.286	94680
394.366	346775
394.446	446340
394.525	165851
394.605	48174
394.685	27432
394.764	39270
394.844	62992
394.924	48080
395.003	18268
395.083	11964
395.163	11331
395.242	9614
395.322	10747
395.402	7480
395.481	11555
395.561	23117
395.640	68986
395.720	52338
395.799	71012
395.879	73949
395.958	57056
396.038	149845
396.117	442498
396.197	546838
396.276	261861
396.356	93821
396.435	53672
396.515	31039
396.594	24822
396.673	26476
396.753	45538
396.832	173280
396.912	181897
396.991	65140
397.070	15837
397.150	9123
397.229	7575
397.308	5852
397.388	7356
397.467	6055
397.546	5607
397.625	2587
397.705	8002
397.784	9341
397.863	5279
397.942	3818
398.022	4620
398.101	14629
398.180	59418
398.259	36576
398.338	10351
398.417	7310
398.497	3645
398.576	4450
398.655	3017
398.734	2940
398.813	3139
398.892	13118
398.971	62697
399.050	35581
399.129	5207
399.208	2376
399.287	3671
399.366	3085
399.445	4109
399.524	2492
399.603	2862
399.682	6630
399.761	18355
399.840	62320
399.919	60208
399.998	8812
400.077	2818
400.156	1714
400.235	5383
400.313	2767
400.392	4077
400.471	23113
400.550	49051
400.629	14335
400.708	5957
400.786	4290
400.865	13457
400.944	17347
401.023	10314
401.102	1454
401.180	2155
401.259	1907
401.338	3309
401.416	4431
401.495	5553
401.574	3480
401.652	3298
401.731	4755
401.810	4382
401.888	1890
401.967	1843
402.046	2789
402.124	5151
402.203	7026
402.281	4286
402.360	4482
402.438	17036
402.517	14997
402.596	5290
402.674	4532
402.753	2868
402.831	1767
402.910	3388
402.988	6697
403.066	28055
403.145	18600
403.223	10526
403.302	23733
403.380	17527
403.459	14882
403.537	7042
403.615	3474
403.694	822
403.772	2169
403.850	1609
403.929	1509
404.007	1819
404.085	5121
404.164	4316
404.242	4673
404.320	13664
404.398	52526
404.477	66343
404.555	111245
404.633	114868
404.711	50551
404.789	32750
404.868	7730
404.946	4233
405.024	2254
405.102	1767
405.180	1780
405.258	1715
405.336	2599
405.415	1986
405.493	5365
405.571	5263
405.649	2337
405.727	2518
405.805	4884
405.883	4231
405.961	3296
406.039	5551
406.117	2228
406.195	5124
406.273	19157
406.351	94270
406.429	68504
406.507	12563
406.585	4514
406.663	4300
406.740	5784
406.818	5293
406.896	2277
406.974	3641
407.052	6126
407.130	49298
407.208	90172
407.285	21696
407.363	3521
407.441	2941
407.519	2905
407.596	3272
407.674	6944
407.752	14791
407.830	19089
407.907	11398
407.985	3126
408.063	3188
408.141	1510
408.218	5182
408.296	4174
408.373	2330
408.451	3287
408.529	4559
408.606	1529
408.684	2123
408.762	1049
408.839	935
408.917	1141
408.994	1064
409.072	943
409.149	1479
409.227	2183
409.304	3205
409.382	1373
409.459	568
409.537	2141
409.614	2996
409.692	1451
409.769	1471
409.846	2348
409.924	3544
410.001	2920
410.079	3616
410.156	2131
410.233	3089
410.311	1161
410.388	1468
410.465	2356
410.543	3682
410.620	2260
410.697	2715
410.775	3810
410.852	932
410.929	2667
411.006	6110
411.083	2306
411.161	8349
411.238	9822
411.315	5115
411.392	1633
411.469	4206
411.547	5634
411.624	2271
411.701	2193
411.778	3388
411.855	8091
411.932	5299
412.009	1885
412.086	2437
412.163	2071
412.240	3257
412.317	4518
412.394	4967
412.471	1844
412.548	1532
412.625	1652
412.702	2844
412.779	6966
412.856	6062
412.933	1446
413.010	2501
413.087	3578
413.164	22188
413.241	42445
413.318	12070
413.395	5717
413.471	9220
413.548	4602
413.625	2896
413.702	2793
413.779	3202
413.855	1038
413.932	794
414.009	607
414.086	1290
414.162	1313
414.239	4078
414.316	18917
414.393	58246
414.469	25042
414.546	3162
414.623	1398
414.699	2075
414.776	2410
414.853	2926
414.929	2578
415.006	2530
415.082	2447
415.159	2199
415.236	2574
415.312	2853
415.389	5117
415.465	8826
415.542	4488
415.618	2339
415.695	5895
415.771	3632
415.848	2141
415.924	2629
416.000	1367
416.077	2447
416.153	630
416.230	519
416.306	280
416.383	1129
416.459	1390
416.535	1498
416.612	419
416.688	1490
416.764	1455
416.841	825
416.917	1446
416.993	1612
417.069	2038
417.146	4878
417.222	9803
417.298	5904
417.374	1857
417.451	3530
417.527	2776
417.603	4696
417.679	2313
417.755	2678
417.831	1189
417.908	990
417.984	1027
418.060	833
418.136	5913
418.212	11252
418.288	3502
418.364	1364
418.440	961
418.516	4660
418.592	4912
418.668	11361
418.744	18205
418.820	15632
418.896	3941
418.972	1436
419.048	1845
419.124	7831
419.200	6854
419.276	1613
419.352	575
419.428	1626
419.504	1249
419.579	3391
419.655	2313
419.731	2452
419.807	9443
419.883	20709
419.959	17025
420.034	4647
420.110	5003
420.186	33316
420.262	32196
420.337	5908
420.413	3581
420.489	2132
420.565	1486
420.640	1297
420.716	2211
420.792	966
420.867	1478
420.943	1358
421.019	3858
421.094	4298
421.170	1592
421.245	746
421.321	1193
421.397	1123
421.472	2078
421.548	6638
421.623	7303
421.699	3836
421.774	2588
421.850	1819
421.925	5581
422.001	5741
422.076	1677
422.152	2324
422.227	5228
422.302	5546
422.378	4997
422.453	9004
422.529	16875
422.604	70969
422.679	196522
422.755	127458
422.830	30278
422.905	9020
422.981	4327
423.056	2731
423.131	1754
423.207	1999
423.282	2430
423.357	9756
423.432	6806
423.508	4614
423.583	15221
423.658	15661
423.733	4056
423.808	3799
423.883	4391
423.959	4295
424.034	2451
424.109	2632
424.184	655
424.259	1570
424.334	454
424.409	1137
424.484	293
424.559	2732
424.634	1001
424.709	3539
424.784	4610
424.859	3308
424.934	3633
425.009	21176
425.084	43449
425.159	18872
425.234	2727
425.309	1019
425.384	7990
425.459	18314
425.534	5918
425.609	2001
425.683	958
425.758	1277
425.833	1208
425.908	3911
425.983	11150
426.058	44058
426.132	23195
426.207	4240
426.282	4718
426.357	4424
426.431	2588
426.506	2139
426.581	1930
426.655	2554
426.730	1667
426.805	2065
426.879	2571
426.954	2396
427.029	4606
427.103	29007
427.178	86023
427.253	48283
427.327	6074
427.402	5167
427.476	19133
427.551	11513
427.625	2181
427.700	2832
427.774	1002
427.849	2588
427.923	758
427.998	1169
428.072	1282
428.147	4561
428.221	13054
428.296	25568
428.370	11938
428.444	2551
428.519	5369
428.593	12191
428.667	11647
428.742	12258
428.816	9867
428.890	20289
428.965	33671
429.039	17634
429.113	15478
429.188	7689
429.262	1674
429.336	4031
429.410	18669
429.485	13925
429.559	10414
429.633	10769
429.707	2280
429.781	5245
429.855	26517
429.930	44134
430.004	32247
430.078	59079
430.152	49265
430.226	31771
430.300	34490
430.374	6129
430.448	3702
430.522	14256
430.596	57851
430.670	36753
430.744	41359
430.818	90544
430.892	26216
430.966	4825
431.040	2178
431.114	613
431.188	261
431.262	996
431.336	795
431.410	4651
431.484	16806
431.557	14776
431.631	2086
431.705	1216
431.779	1769
431.853	14368
431.927	12553
432.000	2508
432.074	771
432.148	2412
432.222	2490
432.295	1861
432.369	1083
432.443	3389
432.516	24321
432.590	84322
432.664	38616
432.737	5807
432.811	226
432.885	1126
432.958	830
433.032	1414
433.106	356
433.179	777
433.253	983
433.326	702
433.400	-405
433.473	852
433.547	-23
433.620	1479
433.694	3635
433.767	4789
433.841	790
433.914	848
433.988	823
434.061	1039
434.134	294
434.208	269
434.281	99
434.355	698
434.428	570
434.501	1212
434.575	543
434.648	770
434.721	-140
434.795	481
434.868	41
434.941	296
435.014	-452
435.088	715
435.161	857
435.234	3426
435.307	4437
435.381	1676
435.454	203
435.527	1499
435.600	540
435.673	717
435.746	-292
435.819	828
435.892	956
435.966	602
436.039	-117
436.112	1187
436.185	-1081
436.258	220
436.331	-280
436.404	340
436.477	-255
436.550	390
436.623	-101
436.696	780
436.769	973
436.842	1020
436.915	504
436.987	3173
437.060	901
437.133	668
437.206	514
437.279	926
437.352	879
437.425	1242
437.498	1127
437.570	5186
437.643	5313
437.716	1449
437.789	693
437.861	2735
437.934	12735
438.007	6747
438.080	1175
438.152	1868
438.225	4657
438.298	29303
438.370	109675
438.443	58655
438.516	14602
438.588	3308
438.661	591
438.734	1622
438.806	1219
438.879	3073
438.951	2221
439.024	6688
439.096	1737
439.169	1477
439.241	383
439.314	520
439.386	1629
439.459	3744
439.531	5288
439.604	2422
439.676	1052
439.749	863
439.821	428
439.893	1318
439.966	309
440.038	2140
440.110	2081
440.183	1155
440.255	206
440.327	3088
440.400	11339
440.472	67126
440.544	58045
440.617	8277
440.689	4906
440.761	6396
440.833	9509
440.905	7481
440.978	492
441.050	479
441.122	120
441.194	379
441.266	736
441.338	1553
441.411	2572
441.483	19860
441.555	40016
441.627	9546
441.699	3369
441.771	3582
441.843	906
441.915	277
441.987	70
442.059	634
442.131	1197
442.203	3486
442.275	2348
442.347	3477
442.419	1072
442.491	3767
442.563	10508
442.635	8446
442.706	13737
442.778	15631
442.850	2809
442.922	791
442.994	853
443.066	3402
443.137	1717
443.209	1308
443.281	1179
443.353	3596
443.425	7758
443.496	20632
443.568	20458
443.640	9262
443.711	2018
443.783	1676
443.855	368
443.926	360
443.998	988
444.070	2629
444.141	1863
444.213	3836
444.285	4772
444.356	3389
444.428	2669
444.499	1440
444.571	152
444.642	837
444.714	1102
444.785	4001
444.857	3877
444.928	11009
445.000	6148
445.071	6025
445.143	7096
445.214	2908
445.285	4062
445.357	14600
445.428	20554
445.500	43290
445.571	33520
445.642	13063
445.714	8013
445.785	17904
445.856	5357
445.928	5042
445.999	4693
446.070	3566
446.141	3095
446.213	5444
446.284	1874
446.355	2273
446.426	1024
446.497	1397
446.569	2915
446.640	6082
446.711	4723
446.782	2458
446.853	1731
446.924	1294
446.995	1248
447.066	1788
447.138	4010
447.209	3387
447.280	77
447.351	808
447.422	40
447.493	1351
447.564	2133
447.635	3807
447.706	1513
447.777	777
447.847	634
447.918	970
447.989	972
448.060	2463
448.131	6368
448.202	8186
448.273	5364
448.344	2435
448.414	1109
448.485	1931
448.556	320
448.627	1253
448.698	516
448.768	923
448.839	23
448.910	3350
448.981	2769
449.051	2324
449.122	383
449.193	43
449.263	854
449.334	670
449.405	1091
449.475	7327
449.546	5023
449.616	4755
449.687	4396
449.758	2290
449.828	363
449.899	775
449.969	269
450.040	549
450.110	611
450.181	1584
450.251	817
450.322	951
450.392	1328
450.463	1416
450.533	574
450.604	1461
450.674	395
450.744	1508
450.815	48
450.885	1353
450.955	1088
451.026	809
451.096	881
451.166	1450
451.237	3457
451.307	11417
451.377	4724
451.447	1873
451.518	179
451.588	1186
451.658	832
451.728	2885
451.799	11234
451.869	15140
451.939	3656
452.009	1233
452.079	799
452.149	1357
452.219	2149
452.289	13572
452.360	10373
452.430	2564
452.500	1272
452.570	2629
452.640	2114
452.710	6076
452.780	12812
452.850	9888
452.920	12094
452.990	3618
453.060	1708
453.129	3904
453.199	4459
453.269	11892
453.339	33507
453.409	55158
453.479	45301
453.549	72703
453.619	78585
453.688	34165
453.758	5784
453.828	2827
453.898	2060
453.968	2465
454.037	1364
454.087	1275
454.107	1234
454.168	1011
454.177	972
454.247	1256
454.249	1251
454.316	1053
454.330	1197
454.386	1732
454.411	3295
454.456	5821
454.492	8689
454.525	11240
454.574	6106
454.595	3869
454.655	1843
454.665	1534
454.734	1804
454.736	1839
454.804	2812
454.817	4453
454.873	11052
454.898	12612
454.943	15282
454.979	9427
455.013	4112
455.060	3101
455.082	2774
455.141	2589
455.152	2566
455.221	7653
455.222	7808
455.291	19006
455.303	18939
455.360	17866
455.384	26128
455.430	38950
455.465	30709
455.499	23142
455.546	16009
455.569	12842
455.627	9376
455.638	8798
455.707	1612
455.708	1617
455.777	1311
455.789	1381
455.846	1697
455.869	1746
455.916	1810
455.950	1579
455.985	1316
456.031	1696
456.054	1876
456.112	1096
456.124	964
456.193	1035
456.193	1027
456.262	774
456.274	978
456.332	1883
456.355	1807
456.401	1535
456.436	1730
456.470	1935
456.516	1013
456.540	563
456.597	938
456.609	993
456.678	396
456.678	389
456.747	727
456.759	696
456.817	537
456.840	567
456.886	598
456.920	673
456.955	786
457.001	804
457.024	843
457.082	1775
457.093	1942
457.162	2182
457.163	2191
457.232	1990
457.243	2043
457.301	1890
457.324	1414
457.370	839
457.405	1211
457.439	1572
457.485	1566
457.508	1483
457.566	990
457.577	953
457.646	905
457.647	923
457.715	2012
457.727	1956
457.784	1508
457.808	1622
457.853	2013
457.889	2475
457.922	2712
457.969	2373
457.991	2287
458.050	2360
458.060	2393
458.129	2994
458.130	3005
458.198	2657
458.211	2565
458.267	1835
458.292	1298
458.336	835
458.372	1302
458.405	1846
458.453	1632
458.474	1579
458.533	2723
458.543	2838
458.611	3369
458.614	3436
458.680	4304
458.694	3899
458.749	2714
458.775	2543
458.818	2167
458.855	1683
458.887	1429
458.936	1604
458.955	1661
459.016	1228
459.024	1203
459.093	2191
459.097	2178
459.162	1510
459.177	1585
459.230	2136
459.257	2332
459.299	2497
459.338	2839
459.368	3026
459.418	3081
459.437	2949
459.499	2658
459.505	2668
459.574	1259
459.579	1277
459.643	1838
459.659	1847
459.711	1450
459.740	1588
459.780	2110
459.820	2151
459.849	2082
459.900	2150
459.917	2248
459.981	2980
459.986	2969
460.054	2421
460.061	2377
460.123	2370
460.141	2407
460.191	3108
460.222	3462
460.260	3806
460.302	4763
460.328	4671
460.382	3593
460.397	3529
460.462	2958
460.465	2934
460.534	3322
460.543	3227
460.602	4948
460.623	6224
460.671	10666
460.703	15436
460.739	16930
460.783	17253
460.808	15987
460.864	5342
460.876	4134
460.944	2400
460.945	2382
461.013	2901
461.024	2890
461.081	2253
461.104	2401
461.150	2764
461.184	2601
461.218	2458
461.264	2210
461.286	2179
461.345	2119
461.355	2028
461.423	1875
461.425	1857
461.491	1798
461.505	1967
461.559	3341
461.585	3771
461.628	6171
461.665	8826
461.696	10179
461.745	14463
461.764	13771
461.825	6094
461.832	5840
461.901	3153
461.905	3125
461.969	2571
461.985	2532
462.037	2933
462.065	2990
462.105	2504
462.145	2024
462.173	3052
462.225	5288
462.241	5718
462.305	8016
462.310	7894
462.378	6668
462.385	6135
462.446	2742
462.465	2171
462.514	2891
462.545	3542
462.582	3311
462.625	2818
462.650	2620
462.705	2178
462.718	2139
462.785	2098
462.786	2116
462.854	3211
462.865	3414
462.922	4097
462.945	4467
462.990	3821
463.025	2986
463.058	2971
463.104	2579
463.126	2369
463.184	2286
463.194	2276
463.262	1885
463.264	1907
463.330	3208
463.344	3272
463.398	3479
463.424	3832
463.466	3251
463.504	2515
463.533	2884
463.583	3492
463.601	3497
463.663	3396
463.669	3431
463.737	4289
463.743	4347
463.805	5763
463.823	6266
463.873	9013
463.903	10523
463.940	11712
463.982	13959
464.008	12333
464.062	6852
464.076	6315
464.142	3672
464.144	3644
464.211	3005
464.221	3008
464.279	2781
464.301	2664
464.347	3107
464.381	3536
464.414	3745
464.461	3949
464.482	4369
464.540	5655
464.550	5553
464.617	4147
464.620	4113
464.685	5145
464.699	5313
464.753	5948
464.779	6351
464.820	6823
464.859	7323
464.888	7096
464.938	6538
464.956	6528
465.018	6224
465.023	6167
465.091	5683
465.098	5597
465.158	4979
465.177	4865
465.226	5026
465.257	5014
465.293	5684
465.336	6637
465.361	6767
465.416	6827
465.428	7033
465.495	8412
465.496	8448
465.563	12539
465.575	13320
465.631	15642
465.654	16801
465.698	12213
465.734	7607
465.765	6500
465.813	4879
465.833	4947
465.893	5683
465.900	5656
465.968	5254
465.972	5229
466.035	5043
466.052	4966
466.102	5074
466.131	5187
466.170	5691
466.210	6098
466.237	6088
466.290	6233
466.304	6426
466.369	7069
466.372	7060
466.439	6614
466.449	6537
466.506	6814
466.528	6940
466.573	9083
466.607	10603
466.641	13747
466.687	18234
466.708	20789
466.766	27876
466.775	26257
466.842	13825
466.845	13207
466.909	8791
466.925	7812
466.977	7337
467.004	7117
467.044	7740
467.083	8343
467.111	8847
467.163	9775
467.178	10076
467.242	11328
467.245	11285
467.312	10160
467.321	10005
467.379	9640
467.400	9487
467.446	9411
467.480	9340
467.559	8819
467.638	8034
467.717	6894
467.796	7925
467.875	9163
467.955	7649
468.034	9639
468.113	19760
468.192	29595
468.271	11540
468.350	6049
468.429	6869
468.508	6015
468.588	6247
468.667	6841
468.746	7216
468.825	6321
468.904	6364
468.983	7104
469.062	9313
469.141	11869
469.220	6609
469.299	6201
469.378	6485
469.456	9036
469.535	8380
469.614	6761
469.693	6731
469.772	8970
469.851	10717
469.930	8446
470.009	7255
470.088	6921
470.166	7930
470.245	9821
470.324	11482
470.403	8784
470.482	7217
470.560	5464
470.639	6875
470.718	8456
470.797	6252
470.875	6991
470.954	9283
471.033	10986
471.111	5220
471.190	5235
471.269	4851
471.347	5130
471.426	5745
471.505	6134
471.583	6800
471.662	6027
471.740	5773
471.819	6716
471.898	5016
471.976	5944
472.055	6285
472.133	6428
472.212	7726
472.290	7688
472.369	5877
472.447	5509
472.526	4640
472.604	5920
472.683	6285
472.761	5926
472.839	5731
472.918	5980
472.996	6071
473.075	5846
473.153	6740
473.231	5101
473.310	5578
473.388	6246
473.466	5999
473.545	7032
473.623	9675
473.701	9905
473.780	5893
473.858	5156
473.936	7086
474.014	5525
474.093	5921
474.171	7077
474.249	10460
474.327	8439
474.405	5542
474.484	5564
474.562	5665
474.640	5879
474.718	5611
474.796	6249
474.874	5608
474.952	4952
475.030	4824
475.108	5480
475.187	6574
475.265	6482
475.343	6689
475.421	7268
475.499	5495
475.577	5821
475.655	6979
475.733	10980
475.811	17755
475.889	16701
475.966	14569
476.044	4502
476.122	4541
476.200	5422
476.278	4366
476.356	4767
476.434	4993
476.512	4436
476.590	5017
476.667	5177
476.745	4675
476.823	5436
476.901	4998
476.979	4298
477.056	5767
477.134	5028
477.212	5973
477.290	4634
477.367	4475
477.445	4465
477.523	4054
477.601	3434
477.678	4227
477.756	5495
477.834	5852
477.911	4285
477.989	4444
478.066	3386
478.144	4757
478.222	5162
478.299	3986
478.377	5432
478.454	4333
478.532	3477
478.609	4257
478.687	5247
478.764	3535
478.842	3790
478.919	5277
478.997	5219
479.074	3679
479.152	4578
479.229	6238
479.307	4435
479.384	3116
479.461	3623
479.539	4222
479.616	4686
479.694	4005
479.771	4528
479.848	4838
479.926	4280
480.003	7736
480.080	3957
480.157	3597
480.235	3003
480.312	4019
480.389	3008
480.467	5928
480.544	9099
480.621	4278
480.698	4720
480.775	4847
480.853	4207
480.930	3647
481.007	4920
481.084	4300
481.161	4261
481.238	5031
481.315	3206
481.392	3222
481.470	3076
481.547	3338
481.624	2925
481.701	3800
481.778	4039
481.855	4591
481.932	5893
482.009	9172
482.086	7661
482.163	3383
482.240	3774
482.317	5276
482.393	5006
482.470	4402
482.547	4627
482.624	3257
482.701	3107
482.778	3229
482.855	2368
482.932	2849
483.009	3154
483.085	3491
483.162	4539
483.239	4144
483.316	2589
483.393	3090
483.469	3381
483.546	3182
483.623	3975
483.699	3677
483.776	3492
483.853	4472
483.930	5550
484.006	14727
484.083	26453
484.160	18742
484.236	27353
484.313	23145
484.389	15625
484.466	14390
484.543	11917
484.619	12230
484.696	13619
484.772	12747
484.849	14680
484.925	11830
485.002	12246
485.078	12657
485.155	13301
485.231	11687
485.308	11403
485.384	11836
485.461	13304
485.537	18899
485.614	24503
485.690	12881
485.766	11277
485.843	11414
485.919	16218
485.995	18922
486.072	11169
486.148	9943
486.224	9392
486.301	10361
486.377	11281
486.453	11838
486.530	11700
486.606	14795
486.682	18523
486.758	19035
486.835	22033
486.911	17069
486.987	24780
487.063	31553
487.139	42035
487.215	31236
487.292	15585
487.368	11865
487.444	11936
487.520	13543
487.596	11177
487.672	12161
487.748	16371
487.824	21223
487.900	13896
487.976	10504
488.052	11152
488.128	13736
488.204	12033
488.280	10834
488.356	11773
488.432	18903
488.508	32612
488.584	15630
488.660	10745
488.736	10246
488.812	10836
488.888	14416
488.964	17016
489.039	35216
489.115	61562
489.191	43528
489.267	11870
489.343	10245
489.418	7720
489.494	8436
489.570	6829
489.646	9229
489.722	8703
489.797	8842
489.873	10057
489.949	22618
490.024	23789
490.100	8562
490.176	8010
490.251	9627
490.327	14450
490.403	9564
490.478	7528
490.554	7011
490.629	7556
490.705	7346
490.781	6740
490.856	7766
490.932	8578
491.007	9319
491.083	8162
491.158	7276
491.234	8624
491.309	16251
491.385	20221
491.460	8115
491.536	8870
491.611	8209
491.686	8425
491.762	10603
491.837	23020
491.913	41150
491.988	52744
492.063	81016
492.139	23763
492.214	11321
492.289	6686
492.365	5558
492.440	7159
492.515	7130
492.590	6852
492.666	4935
492.741	7152
492.816	11194
492.891	7187
492.967	6499
493.042	6439
493.117	7161
493.192	8549
493.267	12688
493.342	51000
493.418	93111
493.493	20175
493.568	5545
493.643	5999
493.718	7234
493.793	10341
493.868	12829
493.943	8774
494.018	5819
494.093	5238
494.168	5484
494.243	4276
494.318	5210
494.393	4844
494.468	3942
494.543	4598
494.618	5569
494.693	4713
494.768	3760
494.842	4720
494.917	4147
494.992	5405
495.067	4894
495.142	4453
495.217	5197
495.292	5842
495.366	6177
495.441	7986
495.516	9994
495.591	13350
495.665	41624
495.740	129233
495.815	69828
495.890	9603
495.964	5156
496.039	6784
496.114	6060
496.188	5748
496.263	6495
496.338	5027
496.412	6062
496.487	8375
496.561	8504
496.636	9019
496.710	6780
496.785	7202
496.860	8676
496.934	7738
497.009	7244
497.083	7059
497.158	7396
497.232	8279
497.307	10144
497.381	9803
497.455	10148
497.530	13481
497.604	10335
497.679	11026
497.753	15545
497.827	22328
497.902	23233
497.976	23269
498.050	38556
498.125	142212
498.199	203019
498.273	44249
498.348	28857
498.422	23350
498.496	20259
498.570	18500
498.645	13524
498.719	12193
498.793	13558
498.867	18309
498.941	23211
499.016	49631
499.090	166027
499.164	88709
499.238	10770
499.312	7670
499.386	9616
499.460	9541
499.534	6759
499.609	9244
499.683	12296
499.757	13241
499.831	20494
499.905	92321
499.979	123975
500.053	19695
500.127	16706
500.201	14669
500.275	7856
500.349	6512
500.422	8316
500.496	12121
500.570	25692
500.644	52689
500.718	115144
500.792	39946
500.866	7991
500.940	8375
501.013	7697
501.087	6341
501.161	12215
501.235	18076
501.309	26697
501.382	81522
501.456	101214
501.530	22073
501.603	28676
501.677	15589
501.751	4747
501.825	7188
501.898	9547
501.972	30900
502.046	29575
502.119	6795
502.193	14280
502.266	36209
502.340	24869
502.413	12852
502.487	32910
502.561	21133
502.634	7687
502.708	6302
502.781	5206
502.855	4087
502.928	2618
503.002	3441
503.075	2444
503.149	4174
503.222	2884
503.295	4143
503.369	4638
503.442	6102
503.516	18844
503.589	61223
503.662	52759
503.736	13928
503.809	26608
503.882	27694
503.956	28958
504.029	37402
504.102	12891
504.175	12764
504.249	4961
504.322	3936
504.395	4199
504.468	3308
504.542	3398
504.615	3519
504.688	2329
504.761	2070
504.834	4923
504.907	5045
504.980	11428
505.053	5214
505.127	4839
505.200	7799
505.273	4543
505.346	3482
505.419	1869
505.492	3021
505.565	2364
505.638	2582
505.711	1769
505.784	1704
505.857	1141
505.930	3691
506.003	1731
506.076	4091
506.149	2992
506.221	4088
506.294	5597
506.367	8592
506.440	43402
506.513	36668
506.586	6652
506.659	3569
506.731	3450
506.804	2723
506.877	6227
506.950	4745
507.022	2836
507.095	2822
507.168	5506
507.241	4443
507.313	1398
507.386	2010
507.459	5927
507.531	3610
507.604	3157
507.677	2624
507.749	917
507.822	4679
507.894	9054
507.967	13102
508.040	6638
508.112	5137
508.185	4938
508.257	4233
508.330	7950
508.402	4899
508.475	4516
508.547	5363
508.620	4329
508.692	6109
508.765	5593
508.837	3263
508.909	3870
508.982	3656
509.054	5384
509.127	3502
509.199	3589
509.271	3083
509.344	2825
509.416	3142
509.488	3340
509.560	3523
509.633	3685
509.705	5283
509.777	3932
509.849	6783
509.922	5361
509.994	4437
510.066	4157
510.138	3225
510.210	10262
510.283	9505
510.355	7644
510.427	6162
510.499	5837
510.571	5121
510.643	5279
510.715	8066
510.787	8325
510.859	6623
510.931	6029
511.003	8431
511.076	8373
511.148	5416
511.219	4511
511.291	6895
511.363	9419
511.435	4998
511.507	3232
511.579	3891
511.651	4788
511.723	4514
511.795	3375
511.867	3340
511.939	4411
512.010	8440
512.082	9154
512.154	4285
512.226	5219
512.298	7283
512.369	12066
512.441	9136
512.513	8553
512.585	6140
512.656	6226
512.728	7001
512.800	6202
512.871	5082
512.943	5133
513.015	4057
513.086	5101
513.158	5296
513.230	5278
513.301	8570
513.373	12346
513.444	6616
513.516	4933
513.588	5073
513.659	5862
513.731	6600
513.802	5653
513.874	12241
513.945	26603
514.016	11643
514.088	5120
514.159	4328
514.231	6732
514.302	11316
514.374	8452
514.445	6206
514.516	12128
514.588	11143
514.659	6429
514.730	9391
514.802	10315
514.873	7349
514.944	10506
515.016	6978
515.087	6955
515.158	7581
515.229	13524
515.301	7757
515.372	12396
515.443	8117
515.514	5867
515.585	4088
515.656	4795
515.728	4771
515.799	3933
515.870	4948
515.941	5196
516.012	5314
516.083	6880
516.154	7777
516.225	12127
516.296	11069
516.367	8006
516.438	9046
516.509	12005
516.580	15455
516.651	37580
516.722	160957
516.793	115362
516.864	19528
516.935	17641
517.006	17011
517.077	23358
517.148	47734
517.219	145344
517.289	329018
517.360	99175
517.431	34745
517.502	8859
517.573	7253
517.643	6078
517.714	7881
517.785	9583
517.856	8255
517.926	11667
517.997	13669
518.068	16570
518.138	24231
518.209	29570
518.280	91826
518.350	438035
518.421	264634
518.492	28692
518.562	11837
518.633	9384
518.703	6265
518.774	8485
518.845	9482
518.915	9929
518.986	7415
519.056	9587
519.127	17210
519.197	26753
519.268	53290
519.338	47082
519.408	9647
519.479	12556
519.549	10100
519.620	6733
519.690	4242
519.760	4741
519.831	4754
519.901	4964
519.971	3918
520.042	4252
520.112	4898
520.182	5750
520.253	7943
520.323	4236
520.393	5770
520.463	13544
520.534	5970
520.604	17597
520.674	9383
520.744	6848
520.814	16361
520.885	20728
520.955	14276
521.025	55886
521.095	35302
521.165	6422
521.235	4162
521.305	3625
521.375	3305
521.445	3438
521.515	5851
521.585	7510
521.655	7000
521.725	6206
521.795	5319
521.865	1654
521.935	5846
522.005	4709
522.075	2920
522.145	3785
522.215	3029
522.285	6994
522.355	7250
522.424	14437
522.494	16318
522.564	9025
522.634	13914
522.704	55298
522.774	30298
522.843	5755
522.913	4625
522.983	5406
523.053	4460
523.122	4313
523.192	5100
523.262	24779
523.331	35695
523.401	7324
523.471	2882
523.540	3856
523.610	1992
523.680	2043
523.749	2108
523.819	2516
523.888	3677
523.958	1972
524.027	1610
524.097	2665
524.166	1805
524.236	2232
524.305	3979
524.375	2729
524.444	2317
524.514	3188
524.583	2171
524.653	3062
524.722	4516
524.791	2079
524.861	3192
524.930	1980
524.999	2231
525.069	5257
525.138	3456
525.207	3343
525.277	2354
525.346	2664
525.415	2188
525.484	1822
525.554	2046
525.623	1768
525.692	1835
525.761	2016
525.830	1968
525.900	1858
525.969	2933
526.038	4151
526.107	2288
526.176	8651
526.245	8014
526.314	7020
526.383	10612
526.452	7428
526.522	13662
526.591	23257
526.660	26172
526.729	14478
526.797	11145
526.867	20226
526.935	119165
527.004	125732
527.073	47928
527.142	6282
527.211	3243
527.280	4238
527.349	4750
527.418	1249
527.487	2849
527.555	1787
527.624	1518
527.693	388
527.762	1333
527.831	686
527.899	1759
527.968	2292
528.037	334
528.106	3195
528.174	7076
528.243	6112
528.312	7290
528.380	13650
528.449	3899
528.518	2783
528.586	386
528.655	2459
528.723	491
528.792	868
528.861	800
528.929	-192
528.998	1525
529.066	307
529.135	1241
529.203	1
529.272	-1042
529.340	1574
529.409	1747
529.477	395
529.545	1118
529.614	4178
529.682	1280
529.751	3580
529.819	3867
529.887	2640
529.956	771
530.024	1935
530.092	168
530.161	2894
530.229	5004
530.297	2288
530.365	1687
530.434	1039
530.502	-649
530.570	1401
530.638	-1519
530.707	1602
530.775	2761
530.843	129
530.911	1284
530.979	819
531.047	192
531.115	1711
531.183	745
531.252	494
531.320	1197
531.388	828
531.456	1409
531.524	-524
531.592	1336
531.660	2255
531.728	407
531.796	804
531.864	803
531.932	1123
532.000	639
532.067	1650
532.135	1572
532.203	3043
532.271	2620
532.339	5768
532.407	20724
532.475	17486
532.542	5045
532.610	5471
532.678	6244
532.746	28140
532.814	112738
532.881	40101
532.949	4047
533.017	3213
533.084	1498
533.152	600
533.220	1979
533.287	2360
533.355	1540
533.423	1858
533.490	1111
533.558	1325
533.625	1461
533.693	1564
533.761	1696
533.828	1502
533.896	813
533.963	6226
534.031	10221
534.098	11441
534.166	6306
534.233	1559
534.300	2201
534.368	2781
534.435	1787
534.503	2241
534.570	2215
534.637	1001
534.705	1744
534.772	1554
534.840	1798
534.907	3981
534.974	5603
535.041	1625
535.109	1805
535.176	969
535.243	1249
535.310	891
535.378	825
535.445	1520
535.512	787
535.579	1414
535.646	316
535.714	768
535.781	2238
535.848	2867
535.915	2494
535.982	3086
536.049	1860
536.116	3872
536.183	1857
536.250	2197
536.317	1521
536.384	3589
536.451	6103
536.518	6779
536.585	2838
536.652	5796
536.719	7866
536.786	7490
536.853	3886
536.920	7277
536.987	13160
537.053	11685
537.120	41748
537.187	59479
537.254	4730
537.321	2089
537.388	2692
537.454	1024
537.521	237
537.588	260
537.654	2847
537.721	3311
537.788	3481
537.855	1400
537.921	1906
537.988	2342
538.055	3265
538.121	1719
538.188	2595
538.254	4750
538.321	12920
538.388	9525
538.454	3010
538.521	1551
538.587	1599
538.654	1487
538.720	1121
538.787	1687
538.853	2097
538.920	2370
538.986	3416
539.053	1772
539.119	2363
539.185	2394
539.252	3629
539.318	6607
539.385	5693
539.451	2855
539.517	4639
539.583	4363
539.650	9279
539.716	38603
539.782	15637
539.849	3538
539.915	2956
539.981	2487
540.047	4188
540.114	4279
540.180	3942
540.246	3614
540.312	4610
540.378	11859
540.444	16067
540.510	10783
540.576	42019
540.643	20570
540.709	2409
540.775	2630
540.841	2715
540.907	3838
540.973	7482
541.039	7088
541.105	9296
541.171	4230
541.237	2256
541.303	2765
541.369	4371
541.435	5088
541.500	10982
541.566	8805
541.632	2969
541.698	1904
541.764	3403
541.830	1691
541.896	1713
541.961	2319
542.027	1936
542.093	2587
542.159	2850
542.224	2273
542.290	5809
542.356	10157
542.421	15518
542.487	6229
542.553	3404
542.618	3966
542.684	3866
542.750	2863
542.815	4661
542.881	6676
542.947	30869
543.012	36594
543.078	4371
543.143	3062
543.209	3178
543.274	3354
543.340	4155
543.405	9318
543.471	24337
543.536	6612
543.602	2547
543.667	777
543.732	3312
543.798	1461
543.863	2973
543.928	1580
543.994	1273
544.059	2828
544.124	2881
544.190	1847
544.255	3673
544.320	3468
544.386	1994
544.451	5381
544.516	6895
544.581	5641
544.646	15450
544.712	41937
544.777	9723
544.842	3830
544.907	3777
544.972	3759
545.037	2355
545.102	4032
545.168	3294
545.233	4656
545.298	4340
545.363	4856
545.428	5222
545.493	11417
545.558	29153
545.623	15922
545.688	4047
545.753	3331
545.818	3151
545.883	3494
545.947	2823
546.012	3833
546.077	3203
546.142	3572
546.207	3004
546.272	5094
546.337	6024
546.401	4302
546.466	3795
546.531	2055
546.596	4163
546.661	4287
546.725	4170
546.790	2896
546.855	2086
546.919	1529
546.984	2721
547.049	2536
547.113	2974
547.178	2036
547.243	4203
547.307	3871
547.372	3074
547.436	5476
547.501	4027
547.565	3409
547.630	5335
547.695	5587
547.759	4688
547.823	4552
547.888	3281
547.952	2849
548.017	3169
548.081	4306
548.146	5059
548.210	6363
548.274	2701
548.339	3653
548.403	3357
548.468	2592
548.532	2941
548.596	3761
548.660	2695
548.725	3151
548.789	4526
548.853	5583
548.917	4122
548.982	5515
549.046	7267
549.110	2252
549.174	3379
549.238	3489
549.303	1296
549.367	3733
549.431	2507
549.495	1859
549.559	2956
549.623	3892
549.687	3645
549.751	6830
549.815	4908
549.879	4323
549.943	2134
550.007	3580
550.071	3683
550.135	6360
550.199	5141
550.263	3162
550.327	4883
550.391	5513
550.455	4130
550.519	3402
550.582	3964
550.646	5454
550.710	8186
550.774	4556
550.838	3862
550.901	3925
550.965	4167
551.029	3579
551.093	6032
551.156	5692
551.220	12040
551.284	16988
551.347	7622
551.411	13942
551.475	22392
551.538	7276
551.602	3773
551.666	3991
551.729	1995
551.793	3550
551.856	3894
551.920	4195
551.983	4461
552.047	2774
552.110	3236
552.174	3066
552.237	2498
552.301	3605
552.364	3913
552.428	2991
552.491	3437
552.554	4323
552.618	3021
552.681	4508
552.745	3728
552.808	7672
552.871	13544
552.934	8440
552.998	5429
553.061	4437
553.124	4815
553.187	4689
553.251	4485
553.314	5632
553.377	7015
553.440	9134
553.503	27619
553.567	74059
553.630	20634
553.693	5237
553.756	3789
553.819	3799
553.882	2912
553.945	3938
554.008	3386
554.071	2111
554.134	3721
554.197	2609
554.260	2586
554.323	4572
554.386	3665
554.449	3255
554.512	3483
554.575	2930
554.638	2672
554.701	3507
554.764	3494
554.827	2819
554.889	1719
554.952	2698
555.015	1756
555.078	1932
555.141	3452
555.203	2527
555.266	2581
555.329	2379
555.391	2963
555.454	3449
555.517	3267
555.580	3165
555.642	1599
555.705	2255
555.768	3046
555.830	3173
555.893	2557
555.955	2193
556.018	2237
556.080	3078
556.143	2708
556.206	2689
556.268	3932
556.330	4464
556.393	3441
556.455	3079
556.518	4486
556.580	7121
556.643	3267
556.705	2583
556.767	1806
556.830	3012
556.892	2726
556.955	7316
557.017	7258
557.079	3252
557.142	2775
557.204	3996
557.266	9628
557.328	11455
557.391	3232
557.453	2251
557.515	3455
557.577	3858
557.639	4848
557.701	3022
557.764	1662
557.826	1981
557.888	2822
557.950	2524
558.012	2532
558.074	2495
558.136	2949
558.198	7661
558.260	5359
558.322	3360
558.384	3008
558.446	5200
558.508	3595
558.570	5652
558.632	10312
558.694	22126
558.756	12102
558.818	13585
558.880	40112
558.942	20806
559.003	8655
559.065	6821
559.127	4194
559.189	2499
559.251	3550
559.312	3472
559.374	5339
559.436	19887
559.498	17797
559.559	4467
559.621	3706
559.683	3809
559.744	5545
559.806	11255
559.868	19655
559.929	6708
559.991	5138
560.052	4599
560.114	8202
560.176	7067
560.237	6806
560.299	10790
560.360	5644
560.422	3551
560.483	4232
560.545	3084
560.606	2439
560.667	2184
560.729	2368
560.790	2607
560.852	2859
560.913	3040
560.974	3191
561.036	2594
561.097	3282
561.158	4077
561.220	4392
561.281	3517
561.342	4457
561.403	5226
561.465	5824
561.526	15297
561.587	29059
561.648	9252
561.709	4289
561.771	3989
561.832	3558
561.893	3324
561.954	3350
562.015	2670
562.076	3008
562.137	3872
562.198	3403
562.259	3098
562.320	3296
562.381	4713
562.442	6014
562.503	6180
562.564	4458
562.625	3841
562.686	4024
562.747	4506
562.808	3735
562.869	4028
562.930	5043
562.991	4210
563.051	4722
563.112	3434
563.173	4624
563.234	4063
563.294	4703
563.355	4594
563.416	3852
563.477	4034
563.537	3589
563.598	4438
563.659	4290
563.720	3712
563.780	3988
563.841	5038
563.901	3785
563.962	3825
564.023	5202
564.083	4882
564.144	3620
564.204	4170
564.265	4427
564.325	4985
564.386	7982
564.446	9891
564.507	4142
564.567	4101
564.628	3567
564.688	4356
564.749	4851
564.809	5333
564.869	5549
564.930	5308
564.990	5258
565.050	3727
565.111	4364
565.171	4132
565.231	4635
565.292	5285
565.352	4112
565.412	4991
565.472	5183
565.532	5096
565.593	5119
565.653	4759
565.713	4768
565.773	5664
565.833	5659
565.893	8863
565.953	5828
566.013	5730
566.074	5720
566.134	6030
566.194	8371
566.254	11827
566.314	9039
566.374	6414
566.434	6012
566.494	6506
566.554	6104
566.614	6993
566.673	6548
566.733	7300
566.793	7946
566.853	8744
566.913	8140
566.973	9328
567.033	9930
567.092	8921
567.152	8758
567.212	8643
567.272	8758
567.331	9589
567.391	10143
567.451	10742
567.511	12165
567.570	13187
567.630	10077
567.690	9541
567.749	9587
567.809	10779
567.868	12726
567.928	12969
567.988	15346
568.047	18506
568.107	22477
568.166	30248
568.226	44158
568.285	64162
568.345	62650
568.404	51687
568.464	45082
568.523	38577
568.582	38991
568.642	43103
568.701	50340
568.761	68434
568.820	105852
568.879	118804
568.939	92581
568.998	69704
569.057	53538
569.116	42044
569.176	34203
569.235	27500
569.294	23353
569.353	20670
569.413	18134
569.472	15650
569.531	14222
569.590	12825
569.649	12198
569.708	10523
569.767	10638
569.827	11775
569.886	8748
569.945	9145
570.004	7709
570.063	7437
570.122	8091
570.181	8630
570.240	7385
570.299	8008
570.358	9298
570.417	7101
570.475	5965
570.534	6022
570.593	6827
570.652	7133
570.711	6796
570.770	6261
570.829	7758
570.887	6237
570.946	6696
571.005	5435
571.064	4825
571.122	5299
571.181	6145
571.240	5387
571.299	3786
571.357	5251
571.416	5372
571.475	5909
571.533	5944
571.592	4983
571.650	4678
571.709	4136
571.768	4423
571.826	4932
571.885	4562
571.943	4018
572.002	4756
572.060	4440
572.119	3959
572.177	3935
572.236	4065
572.294	4111
572.352	4076
572.411	3921
572.469	4530
572.528	4914
572.586	4811
572.644	3928
572.703	6627
572.761	4907
572.819	3421
572.877	3773
572.936	4541
572.994	4132
573.052	4048
573.110	3358
573.169	3858
573.227	4197
573.285	3910
573.343	4572
573.401	3387
573.459	4327
573.517	4805
573.576	3528
573.634	4241
573.692	4732
573.750	3719
573.808	3430
573.866	3832
573.924	4424
573.982	4085
574.040	3984
574.098	3813
574.155	3882
574.213	3806
574.271	3835
574.329	3641
574.387	4057
574.445	3110
574.503	3261
574.560	2754
574.618	4392
574.676	3886
574.734	3551
574.792	3807
574.849	3151
574.907	3728
574.965	3853
575.022	2449
575.080	3305
575.138	4194
575.195	4717
575.253	3499
575.311	5290
575.368	4527
575.426	3625
575.483	3544
575.541	3710
575.598	3207
575.656	3499
575.713	3727
575.771	4660
575.828	2867
575.886	3514
575.943	4199
576.001	4101
576.058	3497
576.115	4037
576.173	4429
576.230	5142
576.287	5194
576.345	5623
576.402	3977
576.459	3856
576.517	3580
576.574	4542
576.631	4788
576.688	3990
576.746	4308
576.803	3935
576.860	3892
576.917	5119
576.974	4697
577.031	3711
577.089	4270
577.146	4071
577.203	4647
577.260	4442
577.317	4053
577.374	5018
577.431	5186
577.488	4139
577.545	4205
577.602	4940
577.659	3825
577.716	5158
577.773	5539
577.830	4883
577.886	4760
577.943	4884
578.000	4686
578.057	5265
578.114	5314
578.171	7231
578.227	8034
578.284	8087
578.341	6915
578.398	5816
578.454	5584
578.511	5686
578.568	6228
578.625	5873
578.681	4834
578.738	4630
578.794	4129
578.851	4294
578.908	4690
578.964	5747
579.021	5635
579.077	5806
579.134	5500
579.190	4947
579.247	5441
579.303	5055
579.360	4402
579.416	5059
579.473	4891
579.529	3505
579.586	5356
579.642	4910
579.698	5461
579.755	5705
579.811	5866
579.867	6439
579.924	5656
579.980	5406
580.036	7470
580.093	8366
580.149	11262
580.205	13744
580.261	10885
580.317	9268
580.374	7485
580.430	7600
580.486	7321
580.542	5927
580.598	5937
580.619	6148
580.654	6501
580.692	5613
580.710	5150
580.765	5753
580.767	5754
580.823	6716
580.838	6418
580.879	5595
580.911	5911
580.935	6104
580.984	5645
580.991	5572
581.047	6786
581.057	6698
581.103	6214
581.130	6826
581.159	7439
581.203	8047
581.215	8173
581.270	7943
581.276	7880
581.326	7003
581.349	6992
581.382	6951
581.422	7190
581.438	7281
581.494	7682
581.494	7696
581.550	7026
581.567	7246
581.606	7745
581.640	7736
581.661	7661
581.713	8041
581.717	8067
581.773	7969
581.786	7932
581.829	7697
581.859	7781
581.885	7856
581.932	8543
581.940	8631
581.996	8564
582.004	8636
582.052	8946
582.077	9000
582.107	9022
582.150	8985
582.163	8965
582.219	8986
582.223	9031
582.274	9357
582.296	9666
582.330	10185
582.368	10715
582.386	10906
582.441	10026
582.441	10012
582.497	11231
582.514	11332
582.552	11496
582.587	12021
582.608	12232
582.659	12524
582.663	12525
582.719	11396
582.732	11463
582.774	11849
582.805	12170
582.830	12389
582.877	12736
582.885	12805
582.941	13227
582.950	13352
582.996	13971
583.023	14267
583.052	14816
583.095	16001
583.107	16402
583.162	18362
583.168	18655
583.218	20696
583.240	20602
583.273	19958
583.313	19357
583.328	19055
583.384	17968
583.385	17934
583.439	17301
583.458	17298
583.494	17413
583.531	17726
583.549	17914
583.603	17731
583.605	17735
583.660	17676
583.676	17985
583.715	18794
583.748	18819
583.770	18899
583.820	19376
583.825	19424
583.881	20603
583.893	20625
583.936	20738
583.965	20771
583.991	20821
584.038	21078
584.046	21171
584.101	21378
584.110	21454
584.156	21920
584.183	22112
584.211	22396
584.255	23177
584.266	23398
584.321	24007
584.328	23941
584.376	23888
584.400	24456
584.431	25177
584.472	25245
584.486	25351
584.541	26669
584.545	26650
584.596	26871
584.617	26942
584.651	27198
584.689	28418
584.706	29226
584.761	29844
584.762	29809
584.816	30713
584.834	30764
584.871	31161
584.906	31896
584.926	32544
584.978	32930
584.980	33005
585.035	34339
585.051	34778
585.090	36260
585.123	36889
585.145	37339
585.195	37984
585.200	38194
585.254	40325
585.267	40826
585.309	43136
585.340	44935
585.364	46004
585.412	46164
585.419	46057
585.473	44531
585.484	44258
585.528	46004
585.556	47237
585.583	49187
585.628	52263
585.637	54035
585.692	65419
585.700	67216
585.747	76992
585.772	79966
585.801	73230
585.845	61522
585.856	60438
585.910	57389
585.917	56842
585.965	57672
585.989	57911
586.019	58927
586.061	60178
586.074	60843
586.128	62833
586.133	62857
586.183	65418
586.205	66238
586.237	68037
586.277	69191
586.292	69704
586.346	72104
586.349	71993
586.401	74197
586.421	74682
586.455	76559
586.493	78886
586.509	81447
586.564	89175
586.565	89125
586.618	104684
586.637	109137
586.672	106360
586.709	100055
586.727	98404
586.781	96265
586.781	96586
586.835	100719
586.853	101780
586.889	104740
586.925	106507
586.944	108402
586.996	113359
586.998	113878
587.052	119097
587.068	120111
587.106	125101
587.140	129001
587.161	131418
587.212	136293
587.215	137165
587.269	145716
587.284	147466
587.323	153650
587.356	157792
587.377	161774
587.427	169983
587.431	171334
587.485	182443
587.499	184755
587.539	194570
587.571	200903
587.593	207328
587.643	219631
587.648	221780
587.702	237796
587.715	240843
587.755	255958
587.786	266281
587.810	277387
587.858	297119
587.864	300827
587.917	328466
587.930	333398
587.971	360029
588.001	378377
588.025	396766
588.073	429087
588.079	435704
588.133	482827
588.145	491669
588.187	538892
588.217	568710
588.241	603827
588.288	669081
588.295	682359
588.348	775293
588.360	792367
588.402	888235
588.431	951498
588.456	1024908
588.503	1156885
588.510	1185734
588.564	1389692
588.575	1427990
588.617	1646271
588.646	1788548
588.671	1945197
588.718	2230131
588.725	2278572
588.778	2605914
588.789	2664758
588.832	2706048
588.861	2716298
588.886	2522481
588.932	2100521
588.939	2063744
588.993	1681743
589.004	1613238
589.047	2161813
589.075	2514023
589.100	2693043
589.147	2967158
589.154	2956410
589.207	2793038
589.218	2752040
589.261	2614177
589.290	2510837
589.314	2528641
589.361	2547892
589.368	2579034
589.421	2769977
589.433	2802540
589.475	2772146
589.504	2735145
589.528	2513308
589.576	2005118
589.582	2046218
589.635	2360084
589.647	2419331
589.689	2698370
589.718	2865574
589.742	2691350
589.790	2315412
589.795	2280756
589.849	1877032
589.861	1776682
589.902	1564209
589.932	1396745
589.955	1312107
590.004	1118401
590.009	1109672
590.062	963754
590.075	924048
590.115	848390
590.146	783525
590.168	754594
590.218	679418
590.222	677646
590.275	616335
590.289	597578
590.328	564556
590.360	533342
590.381	519091
590.431	477733
590.435	478041
590.488	446841
590.503	436191
590.541	417866
590.574	398309
590.594	391307
590.645	367445
590.647	368340
590.700	347136
590.716	339290
590.753	329316
590.787	317068
590.806	313034
590.859	296487
590.859	297656
590.912	284765
590.930	279217
590.965	272784
591.001	263957
591.018	262375
591.071	253767
591.072	252489
591.124	245613
591.143	241694
591.177	237902
591.214	231377
591.230	230897
591.283	225676
591.285	224393
591.336	218705
591.356	215049
591.389	213081
591.427	208473
591.442	207099
591.495	198192
591.498	196600
591.547	192746
591.569	189623
591.600	188311
591.640	184502
591.653	184417
591.706	180282
591.711	178968
591.759	177207
591.782	175048
591.811	176346
591.853	176085
591.864	175424
591.917	167830
591.924	165918
591.969	163874
591.995	161428
592.022	160919
592.066	157941
592.075	158794
592.127	159316
592.137	158637
592.180	160515
592.208	160456
592.233	157809
592.279	150483
592.285	150570
592.338	145095
592.350	143136
592.390	143095
592.421	141830
592.443	141447
592.491	138378
592.495	138921
592.548	136956
592.562	135738
592.600	135339
592.633	133741
592.653	133664
592.704	130990
592.705	131706
592.775	129296
592.846	127261
592.916	126382
592.987	125663
593.058	123257
593.128	116887
593.199	114230
593.270	113240
593.341	110284
593.411	109467
593.482	108714
593.553	107545
593.623	103117
593.694	102973
593.764	103453
593.835	100549
593.906	99922
593.976	95944
594.047	97349
594.117	100424
594.188	101157
594.258	91900
594.329	90080
594.399	90593
594.470	87946
594.540	86571
594.611	85551
594.681	83189
594.751	85368
594.822	84239
594.892	83962
594.963	85877
595.033	84839
595.103	83103
595.174	84853
595.244	93025
595.314	109017
595.384	83678
595.455	77292
595.525	79029
595.595	78641
595.665	78876
595.736	76994
595.806	75755
595.876	74497
595.946	73906
596.016	72205
596.087	73531
596.157	71893
596.227	72167
596.297	72990
596.367	73424
596.437	74658
596.507	82695
596.577	95927
596.647	75945
596.717	70399
596.787	70138
596.857	68847
596.927	68235
596.997	69150
597.067	69436
597.137	78084
597.207	77022
597.277	71552
597.347	69702
597.417	69622
597.487	70342
597.557	70509
597.626	69898
597.696	70656
597.766	74410
597.836	85722
597.906	73749
597.975	65970
598.045	65179
598.115	64840
598.185	64241
598.254	65651
598.324	67661
598.394	67325
598.464	65546
598.533	65347
598.603	63653
598.672	63690
598.742	63468
598.812	63721
598.881	61404
598.951	61061
599.020	59422
599.090	60944
599.159	61160
599.229	60489
599.299	58915
599.368	59357
599.437	59591
599.507	57535
599.576	60867
599.646	63896
599.715	68821
599.785	59005
599.854	59689
599.924	62749
599.993	61329
600.062	57845
600.132	57970
600.201	57439
600.270	61377
600.340	60049
600.409	59318
600.478	58614
600.547	59615
600.617	59687
600.686	58145
600.755	57802
600.824	58673
600.894	57068
600.963	54408
601.032	54181
601.101	53218
601.170	53320
601.239	53664
601.308	54657
601.378	54417
601.447	53485
601.516	54078
601.585	54579
601.654	55719
601.723	54591
601.792	54656
601.861	57336
601.930	67383
601.999	63546
602.068	55254
602.137	54854
602.206	55239
602.275	54002
602.343	60656
602.412	61818
602.481	54324
602.550	53023
602.619	53570
602.688	55485
602.756	54125
602.825	53858
602.894	51823
602.963	52966
603.032	54253
603.100	52021
603.169	52248
603.238	52274
603.307	53039
603.375	50290
603.444	51646
603.513	51081
603.581	51316
603.650	51968
603.719	49139
603.787	48467
603.856	50756
603.924	50896
603.993	53030
604.061	49968
604.130	51228
604.198	51328
604.267	52438
604.335	51323
604.404	50806
604.472	51420
604.541	51465
604.609	51057
604.678	52202
604.746	51668
604.815	52440
604.883	52101
604.951	51306
605.020	50313
605.088	51758
605.156	50981
605.225	49930
605.293	48840
605.361	51262
605.429	50256
605.498	51621
605.566	51145
605.634	52392
605.702	52479
605.771	51844
605.839	51438
605.907	50706
605.975	51163
606.043	50470
606.111	50460
606.180	52812
606.248	59632
606.316	70491
606.384	54854
606.452	58112
606.520	60826
606.588	54239
606.656	46762
606.724	45369
606.792	44019
606.860	43063
606.928	40873
606.996	40805
607.064	40578
607.132	41376
607.200	40995
607.267	41171
607.335	41007
607.403	42733
607.471	41504
607.539	41164
607.607	41585
607.674	40317
607.742	40599
607.810	43407
607.878	41307
607.946	40566
608.013	41176
608.081	42963
608.149	43825
608.216	40169
608.284	41781
608.352	41519
608.419	43073
608.487	50256
608.555	47254
608.622	40699
608.690	41409
608.757	41533
608.825	43822
608.893	44182
608.960	48196
609.028	56295
609.095	54453
609.163	47067
609.230	42610
609.298	42902
609.365	40039
609.432	42993
609.500	43558
609.567	46084
609.635	47944
609.702	50447
609.769	49961
609.837	50674
609.904	49249
609.971	51439
610.039	58352
610.106	75196
610.173	123862
610.241	250405
610.308	390508
610.375	291443
610.442	105994
610.509	62331
610.577	51668
610.644	47747
610.711	46510
610.778	46349
610.845	45827
610.912	47469
610.980	53141
611.047	75529
611.114	65348
611.181	44673
611.248	41574
611.315	42684
611.382	40963
611.449	42434
611.516	42815
611.583	43109
611.650	41352
611.717	42773
611.784	41487
611.851	45071
611.918	50260
611.984	53257
612.051	61124
612.118	103187
612.185	234174
612.252	251075
612.319	72665
612.386	50693
612.452	46145
612.519	48712
612.586	56512
612.653	51880
612.719	44680
612.786	44100
612.853	41087
612.919	41056
612.986	40384
613.053	40308
613.120	39571
613.186	39284
613.253	40527
613.319	38967
613.386	39620
613.453	40394
613.519	44892
613.586	51843
613.652	75124
613.719	62229
613.785	59399
613.852	42491
613.918	41131
613.985	44301
614.051	55018
614.118	96645
614.184	121985
614.250	50880
614.317	40630
614.383	38384
614.449	38679
614.516	38799
614.582	40648
614.648	39884
614.715	38224
614.781	40666
614.847	41143
614.914	42401
614.980	43602
615.046	41705
615.112	42691
615.179	46719
615.245	53087
615.311	71797
615.377	123861
615.443	189818
615.509	128614
615.575	78354
615.642	60691
615.708	57854
615.774	59606
615.840	67447
615.906	85608
615.972	131465
616.038	260167
616.104	414807
616.170	457828
616.236	478602
616.302	148188
616.368	82113
616.434	65493
616.500	60354
616.565	57275
616.631	59261
616.697	54825
616.763	52562
616.829	58157
616.895	81881
616.961	93712
617.026	68381
617.092	48812
617.158	46930
617.224	44107
617.289	44688
617.355	42759
617.421	44445
617.487	44675
617.552	43125
617.618	40688
617.684	40739
617.749	41702
617.815	40487
617.880	39388
617.946	40170
618.012	40845
618.077	42136
618.143	41890
618.208	42121
618.274	42133
618.339	44194
618.405	41931
618.470	42318
618.536	42372
618.601	45640
618.667	45437
618.732	43958
618.798	43038
618.863	41904
618.928	41690
618.994	44952
619.059	48344
619.124	63182
619.190	54808
619.255	41793
619.320	40920
619.386	41510
619.451	39191
619.516	40556
619.581	40153
619.647	41630
619.712	40992
619.777	40922
619.842	41359
619.907	43805
619.972	43239
620.038	43613
620.103	40632
620.168	40696
620.233	38847
620.298	39749
620.363	39421
620.428	40650
620.493	40305
620.558	40018
620.623	39219
620.688	40017
620.753	39359
620.818	39846
620.883	39269
620.948	39850
621.013	39794
621.078	41329
621.143	40223
621.207	43133
621.272	43084
621.337	46229
621.402	46578
621.467	52620
621.532	59836
621.596	52763
621.661	47235
621.726	44739
621.791	44936
621.855	48145
621.920	51847
621.985	49455
622.049	52490
622.114	50504
622.179	48878
622.243	52279
622.308	50769
622.373	50359
622.437	50017
622.502	49278
622.566	48252
622.631	49383
622.695	49692
622.760	49392
622.824	49336
622.889	51104
622.953	54680
623.018	71179
623.082	81028
623.147	51403
623.211	50728
623.276	51374
623.340	48187
623.404	45801
623.469	46838
623.533	46253
623.597	46132
623.662	46173
623.726	45810
623.790	44703
623.854	44929
623.919	47105
623.983	45568
624.047	46110
624.111	45229
624.176	46446
624.240	50018
624.304	56202
624.368	45601
624.432	45655
624.496	46441
624.560	49485
624.625	53244
624.689	47202
624.753	45465
624.817	42915
624.881	43883
624.945	44098
625.009	43486
625.073	43413
625.137	48104
625.201	55305
625.265	60189
625.329	45647
625.393	47400
625.456	45719
625.520	43801
625.584	48560
625.648	53625
625.712	68453
625.776	127660
625.839	167683
625.903	92348
625.967	48290
626.031	62066
626.095	101497
626.158	57531
626.222	41045
626.286	38560
626.349	38651
626.413	38342
626.477	43622
626.540	39623
626.604	38143
626.668	37849
626.731	38375
626.795	39112
626.858	40404
626.922	38717
626.986	38116
627.049	37403
627.113	37316
627.176	35601
627.240	36416
627.303	36170
627.366	37376
627.430	37648
627.493	36719
627.557	39048
627.620	37987
627.684	37464
627.747	36262
627.810	35414
627.874	35736
627.937	33789
628.000	36455
628.064	37528
628.127	33966
628.190	34346
628.253	35801
628.317	33947
628.380	33616
628.443	32994
628.506	36359
628.569	33462
628.632	31713
628.696	31693
628.759	32487
628.822	31919
628.885	31717
628.948	31781
629.011	32933
629.074	32936
629.137	31284
629.200	32020
629.263	35534
629.326	30448
629.389	31487
629.452	31597
629.515	33083
629.578	30938
629.641	33377
629.704	32560
629.767	34610
629.830	31832
629.892	31572
629.955	30477
630.018	32265
630.081	32837
630.144	40385
630.207	35093
630.269	35466
630.332	32239
630.395	32804
630.458	29280
630.520	29615
630.583	30428
630.646	28704
630.708	28751
630.771	28865
630.834	28194
630.896	28535
630.959	27710
631.021	27980
631.084	28724
631.146	29994
631.209	31874
631.272	28482
631.334	27836
631.397	28091
631.459	26876
631.522	27846
631.584	28157
631.646	27903
631.709	28005
631.771	35037
631.834	31387
631.896	28006
631.958	25709
632.021	26440
632.083	26569
632.145	28037
632.208	26121
632.270	28986
632.332	24864
632.395	25054
632.457	27250
632.519	26716
632.581	26387
632.643	25794
632.706	26687
632.768	25261
632.830	26291
632.892	25690
632.954	25255
633.016	26627
633.078	25486
633.141	25570
633.203	25071
633.265	26031
633.327	24639
633.389	25165
633.451	27170
633.513	32340
633.575	31688
633.637	29861
633.698	29434
633.760	26391
633.822	25551
633.884	25234
633.946	24370
634.008	26028
634.070	25698
634.132	32596
634.193	29034
634.255	25609
634.317	24275
634.379	24662
634.441	23927
634.502	24905
634.564	23123
634.626	23045
634.687	22830
634.749	23332
634.811	24060
634.873	22191
634.934	22904
634.996	23739
635.057	22457
635.119	23057
635.181	22609
635.242	22908
635.304	21464
635.365	23543
635.427	21915
635.488	23396
635.550	21557
635.611	23457
635.673	21142
635.734	24418
635.796	23803
635.857	25102
635.918	22220
635.980	23422
636.041	22880
636.102	23541
636.164	22610
636.225	23521
636.286	22151
636.348	23317
636.409	20413
636.470	20895
636.531	21593
636.593	24225
636.654	23316
636.715	20874
636.776	19896
636.838	20088
636.899	20367
636.960	20782
637.021	19833
637.082	20597
637.143	20501
637.204	19292
637.265	19587
637.326	19985
637.387	19103
637.448	19169
637.509	19997
637.570	19291
637.631	19379
637.692	19139
637.753	18283
637.814	18448
637.875	18693
637.936	19848
637.997	19094
638.058	19073
638.119	20020
638.179	19338
638.240	18572
638.301	19286
638.362	17814
638.423	19756
638.483	20296
638.544	17487
638.605	18505
638.666	18508
638.726	17966
638.787	18890
638.848	18047
638.908	18002
638.969	17755
639.030	18404
639.090	18029
639.151	18045
639.211	19465
639.272	23407
639.332	35859
639.393	28424
639.453	18057
639.514	18216
639.574	17686
639.635	16932
639.695	18161
639.756	16584
639.816	18077
639.877	20869
639.937	27646
639.997	40236
640.058	23708
640.118	18067
640.178	17014
640.239	15714
640.299	15954
640.359	16713
640.420	16342
640.480	16806
640.540	15964
640.600	16274
640.661	16439
640.721	17231
640.781	21607
640.841	20083
640.901	17345
640.961	16707
641.021	16924
641.082	18994
641.142	23922
641.202	22032
641.262	14979
641.322	16553
641.382	15028
641.442	15615
641.502	15657
641.562	17054
641.622	14408
641.682	15409
641.742	15361
641.802	16348
641.861	16296
641.921	17766
641.981	17440
642.041	18965
642.101	23118
642.161	19888
642.221	14603
642.280	15056
642.340	14390
642.400	14521
642.460	16814
642.519	15040
642.579	15454
642.639	16985
642.698	13411
642.758	16842
642.818	14029
642.877	15566
642.937	17296
642.997	18062
643.056	26072
643.116	19326
643.175	16246
643.235	14995
643.294	15109
643.354	16005
643.414	15919
643.473	17948
643.532	16657
643.592	17492
643.651	21381
643.711	31298
643.770	47889
643.830	96106
643.889	259242
643.948	109077
644.008	22424
644.067	17046
644.126	15509
644.186	14451
644.245	15157
644.304	13041
644.363	14925
644.423	13546
644.482	13409
644.541	14377
644.600	11938
644.659	15017
644.719	14327
644.778	17735
644.837	18463
644.896	26419
644.955	50560
645.014	35655
645.073	23418
645.132	16957
645.191	15319
645.250	13522
645.309	14549
645.368	14294
645.427	14397
645.486	14365
645.545	18798
645.604	14464
645.663	13477
645.722	13727
645.781	14423
645.840	13268
645.898	14121
645.957	17738
646.016	17525
646.075	26797
646.134	40921
646.192	88330
646.251	187646
646.310	50050
646.369	16694
646.427	14365
646.486	13251
646.545	13700
646.603	13377
646.662	13529
646.721	13198
646.779	12446
646.838	11387
646.896	12579
646.955	12823
647.014	15583
647.072	18316
647.131	30925
647.189	28093
647.248	12879
647.306	12118
647.365	12672
647.423	10890
647.481	13545
647.540	11074
647.598	12175
647.657	10703
647.715	12943
647.773	11020
647.832	12162
647.890	11303
647.948	12392
648.007	12927
648.065	12491
648.123	12449
648.181	15639
648.240	18382
648.298	19540
648.356	12646
648.414	13556
648.472	13347
648.531	13203
648.589	11170
648.647	12177
648.705	12434
648.763	11971
648.821	11535
648.879	12003
648.937	12051
648.995	12009
649.053	12542
649.111	14737
649.169	17549
649.227	22190
649.285	32034
649.343	81986
649.401	75682
649.459	43984
649.516	42570
649.574	23183
649.632	37710
649.690	58060
649.748	28910
649.806	29319
649.863	50949
649.921	33950
649.979	26444
650.037	14241
650.094	10579
650.152	12231
650.210	11047
650.268	13326
650.325	11792
650.383	12722
650.440	11205
650.498	11264
650.556	11416
650.613	10945
650.671	11087
650.728	10408
650.786	10919
650.843	10605
650.901	9873
650.958	10668
651.016	9962
651.073	11159
651.131	9432
651.188	10190
651.246	10906
651.303	10562
651.360	10790
651.418	10639
651.475	10459
651.532	9035
651.590	10726
651.647	9521
651.704	10322
651.762	10222
651.819	10711
651.876	11020
651.933	10410
651.990	11300
652.048	8341
652.105	10086
652.162	10226
652.219	9843
652.276	10210
652.333	10560
652.390	8841
652.448	10448
652.505	10896
652.562	12366
652.619	12043
652.676	20549
652.733	26450
652.790	11029
652.847	8722
652.904	9996
652.961	8586
653.017	8988
653.074	9949
653.131	10398
653.188	8515
653.245	9841
653.302	9572
653.359	9668
653.415	10447
653.472	9058
653.529	9145
653.586	8232
653.642	9355
653.699	8962
653.756	8773
653.813	9425
653.869	10090
653.926	8847
653.983	7851
654.039	9708
654.096	8918
654.152	10290
654.209	8060
654.266	9828
654.322	8456
654.379	10588
654.435	11238
654.492	11346
654.548	13687
654.605	20113
654.661	14989
654.717	9800
654.774	10770
654.830	10141
654.887	9558
654.943	10405
655.000	9932
655.056	10236
655.112	10073
655.168	9144
655.225	9931
655.281	10106
655.337	11282
655.394	16933
655.450	14259
655.506	12176
655.562	16341
655.618	19298
655.675	8327
655.731	9826
655.787	8598
655.843	9907
655.899	8236
655.955	9875
656.011	8974
656.067	8102
656.123	8915
656.179	10449
656.235	10288
656.291	8400
656.347	9167
656.403	9956
656.459	9438
656.515	9397
656.571	10703
656.627	10682
656.683	8852
656.739	10256
656.795	9121
656.850	9477
656.906	10746
656.962	10453
657.018	8111
657.074	9812
657.129	9631
657.185	9959
657.241	10412
657.297	9872
657.352	9453
657.408	9039
657.464	9557
657.519	9835
657.575	7397
657.630	9262
657.686	8499
657.742	8894
657.797	9296
657.853	8672
657.908	10072
657.964	8329
658.019	8270
658.075	9871
658.130	8847
658.186	8532
658.241	8933
658.297	8362
658.352	7663
658.407	9214
658.463	7697
658.518	8059
658.573	8669
658.629	8765
658.684	8318
658.739	8650
658.795	7439
658.850	9333
658.905	7835
658.960	8897
659.016	7829
659.071	7979
659.126	9749
659.181	10251
659.236	13501
659.291	18049
659.346	12715
659.401	11832
659.457	13475
659.512	20467
659.567	12994
659.622	9837
659.677	8508
659.732	7972
659.787	7996
659.842	8874
659.897	10828
659.952	9321
660.007	9061
660.061	8707
660.116	7902
660.171	8516
660.226	8229
660.281	8714
660.336	7499
660.391	8658
660.445	7081
660.500	8766
660.555	9157
660.610	8383
660.664	8105
660.719	7816
660.774	8583
660.828	8128
660.883	8472
660.938	9118
660.992	7778
661.047	9252
661.101	7231
661.156	8669
661.211	8110
661.265	8205
661.320	8364
661.374	8315
661.429	7871
661.483	9118
661.538	8372
661.592	7567
661.647	8550
661.701	8913
661.755	8852
661.810	9398
661.864	8170
661.919	8059
661.973	9275
662.027	8613
662.081	7071
662.136	8265
662.190	8609
662.244	9160
662.299	7938
662.353	8129
662.407	8147
662.461	8722
662.515	8648
662.569	9231
662.624	9365
662.678	8630
662.732	8934
662.786	8192
662.840	8677
662.894	8229
662.948	8080
663.002	8246
663.056	7676
663.110	7775
663.164	8230
663.218	8189
663.272	7823
663.326	8660
663.380	8799
663.434	9177
663.488	7908
663.542	8776
663.595	8424
663.649	8748
663.703	7962
663.757	7906
663.811	7680
663.864	7516
663.918	8092
663.972	7841
664.026	7998
664.079	8011
664.133	7815
664.187	8401
664.240	6940
664.294	7927
664.348	8367
664.401	8011
664.455	7675
664.508	7490
664.562	7847
664.615	8604
664.669	6757
664.722	8297
664.776	8412
664.829	7728
664.883	7829
664.936	8702
664.990	8159
665.043	9022
665.097	8581
665.150	10845
665.203	8795
665.257	8615
665.310	8689
665.363	9547
665.417	8364
665.470	9242
665.523	9073
665.576	8897
665.630	8281
665.683	8991
665.736	8129
665.789	9225
665.842	8452
665.895	8412
665.949	8733
666.002	7149
666.055	8525
666.108	8804
666.161	8884
666.214	9517
666.267	8820
666.320	10182
666.373	9050
666.426	9120
666.479	7867
666.532	9870
666.585	8502
666.638	10521
666.691	9359
666.744	9815
666.796	8562
666.849	9948
666.902	9247
666.955	7908
667.008	8332
667.060	8491
667.113	7343
667.166	8845
667.219	7880
667.271	7973
667.324	8758
667.377	8694
667.430	9437
667.482	10312
667.535	10820
667.587	9550
667.640	9268
667.693	10700
667.745	13367
667.798	18204
667.850	10042
667.903	8561
667.955	8776
668.008	8041
668.060	9765
668.113	9802
668.165	9249
668.218	10296
668.270	9210
668.322	9693
668.375	9660
668.427	9688
668.479	8520
668.532	9826
668.584	8675
668.636	8636
668.689	8881
668.741	8401
668.793	9125
668.845	9012
668.898	9450
668.950	8904
669.002	9595
669.054	9344
669.106	8665
669.158	10157
669.211	9523
669.263	9856
669.315	12311
669.367	15267
669.419	11443
669.471	12520
669.523	11833
669.575	14668
669.627	14086
669.679	11136
669.731	10078
669.783	11968
669.835	11260
669.886	11470
669.938	11728
669.990	11417
670.042	11216
670.094	12431
670.146	13510
670.197	13898
670.249	16764
670.301	19476
670.353	25218
670.404	33689
670.456	47533
670.508	72622
670.560	118810
670.611	203799
670.663	355411
670.715	721965
670.766	1135901
670.818	650035
670.869	164129
670.921	72514
670.972	45411
671.024	33542
671.075	25333
671.127	21025
671.178	17155
671.230	16717
671.281	14740
671.333	13398
671.384	13242
671.436	13638
671.487	12393
671.538	13291
671.590	11402
671.641	13842
671.692	13948
671.744	17340
671.795	17216
671.846	12929
671.897	10563
671.949	11218
672.000	9635
672.051	10567
672.102	9595
672.153	9995
672.204	9240
672.256	9974
672.307	8382
672.358	9468
672.409	9190
672.460	8929
672.511	8442
672.562	7912
672.613	8962
672.664	7953
672.715	8295
672.766	8505
672.817	8338
672.868	7752
672.919	8067
672.970	8105
673.021	8354
673.071	7686
673.122	7229
673.173	8160
673.224	7786
673.275	7738
673.326	7086
673.376	7387
673.427	6658
673.478	8176
673.528	7539
673.579	7495
673.630	7163
673.680	7844
673.731	7096
673.782	6793
673.832	6824
673.883	7373
673.934	7210
673.984	7473
674.035	6609
674.085	7961
674.136	7327
674.186	8447
674.237	8177
674.287	11576
674.338	9339
674.388	6629
674.438	6663
674.489	6681
674.539	6637
674.589	7430
674.640	7469
674.690	7867
674.740	7212
674.791	8435
674.841	7388
674.891	8368
674.942	7105
674.992	7151
675.042	6156
675.092	6353
675.142	6229
675.193	6941
675.243	5931
675.293	6728
675.343	6755
675.393	7099
675.443	7357
675.493	6662
675.543	6254
675.593	7916
675.643	5963
675.693	7397
675.743	6991
675.793	6848
675.843	5935
675.893	7188
675.943	6644
675.993	7160
676.043	6517
676.093	6909
676.142	5325
676.192	7072
676.242	6843
676.292	5753
676.341	6059
676.391	6799
676.441	6487
676.491	5808
676.540	6626
676.590	6217
676.640	5920
676.689	6833
676.739	5550
676.789	6131
676.838	5372
676.888	5941
676.937	5701
676.987	6361
677.037	5207
677.086	4791
677.136	5308
677.185	5491
677.235	5870
677.284	5505
677.333	5411
677.383	5132
677.432	4700
677.482	5052
677.531	5475
677.580	5187
677.630	5002
677.679	5346
677.728	5767
677.778	5481
677.827	5120
677.876	4817
677.925	4770
677.975	5489
678.024	5403
678.073	5521
678.122	6865
678.171	6304
678.220	5722
678.269	6206
678.319	7232
678.368	5791
678.417	5823
678.466	6230
678.515	5962
678.564	5831
678.613	6160
678.662	5807
678.711	6245
678.760	6001
678.809	5795
678.857	6195
678.906	5845
678.955	6426
679.004	6342
679.053	5411
679.102	5475
679.151	6793
679.199	5327
679.248	6109
679.297	6258
679.346	6645
679.394	5185
679.443	5937
679.492	5818
679.540	6208
679.589	4746
679.638	5892
679.686	4685
679.735	5083
679.784	5353
679.832	6141
679.881	5253
679.929	5132
679.978	4363
680.026	5161
680.075	4876
680.123	4732
680.172	5062
680.220	5303
680.268	5527
680.317	4872
680.365	4602
680.414	4878
680.462	5061
680.510	6429
680.559	5292
680.607	5025
680.655	4326
680.703	5254
680.752	5416
680.800	4909
680.848	4564
680.896	5170
680.945	6051
680.993	4909
681.041	4707
681.089	4934
681.137	4181
681.185	5233
681.233	5176
681.258	5074
681.281	4954
681.329	4808
681.377	5268
681.380	5309
681.425	5618
681.473	5531
681.502	5744
681.521	5841
681.569	5675
681.617	5320
681.624	5409
681.665	5801
681.713	5067
681.745	4442
681.761	4110
681.809	5370
681.857	5552
681.867	5470
681.904	5086
681.952	5795
681.989	6072
682.000	6121
682.048	6025
682.096	5125
682.111	5343
682.143	5744
682.191	5666
682.233	6175
682.239	6230
682.286	5218
682.334	5075
682.354	4990
682.382	4798
682.430	5027
682.476	5144
682.477	5124
682.525	5903
682.572	5749
682.598	6112
682.620	6388
682.667	5670
682.715	6678
682.720	6641
682.763	6057
682.810	6293
682.841	6125
682.857	6008
682.905	6030
682.952	6720
682.963	6686
683.000	6493
683.047	5923
683.085	6829
683.095	7045
683.142	6524
683.190	6517
683.206	6349
683.237	6020
683.284	6947
683.328	6824
683.332	6790
683.379	7481
683.426	5939
683.449	6448
683.473	6953
683.521	6650
683.568	6496
683.571	6494
683.615	6170
683.662	7031
683.693	6592
683.709	6332
683.757	6406
683.804	6418
683.814	6599
683.851	7088
683.898	7303
683.936	7105
683.945	7045
683.992	7587
684.039	6936
684.057	7242
684.086	7710
684.133	7807
684.179	6696
684.180	6643
684.227	7916
684.274	7246
684.300	7872
684.321	8370
684.368	7548
684.415	7968
684.422	7956
684.462	7743
684.509	7850
684.543	8022
684.556	8071
684.603	7835
684.649	7419
684.665	7522
684.696	7710
684.743	7889
684.786	8132
684.790	8136
684.837	8033
684.883	8818
684.908	8911
684.930	9053
684.977	9218
685.023	8741
685.029	8706
685.070	8045
685.117	8039
685.150	7771
685.164	7754
685.210	9151
685.257	9408
685.272	9461
685.303	9367
685.350	8819
685.393	8727
685.396	8719
685.443	9411
685.490	9518
685.514	9512
685.536	9443
685.583	9647
685.629	9066
685.636	9125
685.675	9400
685.722	9433
685.757	9220
685.768	9150
685.815	9693
685.861	9472
685.878	9550
685.908	9653
685.954	9065
686.000	9709
686.000	9715
686.047	10086
686.093	10481
686.121	10526
686.139	10469
686.185	9764
686.232	9555
686.242	9594
686.278	9722
686.324	9147
686.363	9503
686.370	9569
686.416	9601
686.463	10205
686.484	10072
686.509	9907
686.555	9882
686.601	9394
686.606	9469
686.647	10100
686.693	9440
686.727	9685
686.739	9778
686.785	9803
686.831	10225
686.848	10181
686.877	10116
686.923	9758
686.969	10123
686.969	10123
687.015	10092
687.061	9300
687.090	10119
687.107	10559
687.153	10021
687.199	9837
687.211	9760
687.245	9681
687.291	10022
687.332	10004
687.336	10011
687.382	10804
687.428	10444
687.453	10428
687.474	10238
687.520	10335
687.565	10258
687.574	10217
687.611	10389
687.657	10208
687.695	10540
687.702	10594
687.748	11201
687.794	10696
687.816	10907
687.839	10964
687.885	11124
687.931	10260
687.937	10207
687.976	10150
688.022	10434
688.058	10623
688.067	10651
688.113	10736
688.158	10299
688.179	10396
688.204	10604
688.249	10514
688.295	11194
688.300	11179
688.340	11124
688.386	12000
688.421	11449
688.431	11289
688.477	11586
688.522	11441
688.542	11596
688.567	11815
688.613	11436
688.658	11828
688.663	11772
688.703	11303
688.749	11265
688.784	11447
688.794	11504
688.839	11614
688.884	11598
688.905	11417
688.930	11209
688.975	11729
689.020	11738
689.026	11618
689.065	10982
689.110	11779
689.146	11525
689.155	11462
689.201	11354
689.246	11506
689.267	11664
689.291	11900
689.336	11863
689.381	12213
689.388	12099
689.426	11670
689.471	12789
689.509	12947
689.516	12948
689.561	12635
689.606	12310
689.630	12457
689.651	12550
689.696	11881
689.741	12064
689.750	12000
689.785	12150
689.830	12686
689.871	12608
689.875	12579
689.920	12339
689.965	12461
689.992	12141
690.010	12118
690.054	12653
690.099	13036
690.112	12947
690.144	12526
690.189	12867
690.233	12534
690.233	12549
690.278	13160
690.323	13280
690.354	13493
690.367	13585
690.412	13763
690.457	13669
690.474	13769
690.501	14049
690.546	14527
690.590	14465
690.595	14550
690.635	15566
690.680	15816
690.716	16166
690.724	16489
690.769	18035
690.813	20020
690.836	20974
690.857	22981
690.902	28090
690.946	33121
690.957	34474
690.991	46354
691.035	63248
691.077	81899
691.080	82456
691.124	83804
691.168	81933
691.198	81732
691.213	75521
691.257	58426
691.301	40955
691.318	34423
691.346	31166
691.390	25980
691.434	21204
691.439	20589
691.478	19161
691.522	18230
691.559	17230
691.567	17195
691.611	17192
691.655	16449
691.680	16289
691.699	16345
691.743	16428
691.787	16592
691.800	16359
691.831	15605
691.875	15335
691.919	15093
691.921	15061
691.964	15383
692.008	15245
692.041	15361
692.052	15343
692.096	15192
692.139	15272
692.162	14989
692.183	14870
692.227	15065
692.271	14998
692.282	15017
692.315	15157
692.359	14857
692.402	15350
692.403	15380
692.447	15025
692.490	15421
692.523	15233
692.534	15154
692.578	15617
692.622	15100
692.643	15310
692.666	15724
692.709	15362
692.753	15592
692.763	15609
692.797	15696
692.840	15818
692.884	15989
692.884	16021
692.928	16315
692.971	16474
693.004	16686
693.015	16718
693.059	16656
693.102	16716
693.124	16558
693.146	16731
693.189	17301
693.233	17707
693.245	17875
693.276	18700
693.320	19847
693.363	20387
693.365	20383
693.407	21823
693.450	23464
693.485	24563
693.493	25271
693.537	29183
693.580	32995
693.605	35149
693.624	39606
693.667	50623
693.710	61943
693.725	66083
693.753	88633
693.797	125571
693.840	164608
693.845	168408
693.883	172757
693.926	172482
693.966	174143
693.970	170511
694.013	130016
694.056	90663
694.086	63490
694.099	59955
694.142	49048
694.185	37687
694.206	32528
694.229	31040
694.272	27705
694.315	24846
694.326	23968
694.358	23154
694.401	22321
694.444	21260
694.446	21180
694.487	20749
694.530	19885
694.566	19310
694.573	19269
694.616	18603
694.659	17969
694.686	17448
694.702	17367
694.745	17537
694.787	17302
694.806	17271
694.830	17286
694.873	17113
694.916	16880
694.926	16801
694.959	16749
695.002	16554
695.044	16525
695.046	16495
695.087	16818
695.130	16575
695.166	16666
695.172	16735
695.215	16911
695.258	17037
695.286	17013
695.301	16985
695.343	17211
695.386	16912
695.406	16815
695.428	16749
695.471	16712
695.514	16481
695.526	16411
695.556	16639
695.599	17012
695.641	17183
695.646	17159
695.684	16778
695.726	16326
695.766	16071
695.769	16134
695.811	16245
695.854	16625
695.886	16818
695.896	16748
695.938	16348
695.981	15760
696.005	15442
696.023	15659
696.065	16008
696.108	16545
696.125	16673
696.150	16676
696.192	16691
696.235	16615
696.245	16605
696.277	16947
696.319	17008
696.361	17428
696.365	17402
696.404	17751
696.446	18361
696.485	18611
696.488	18611
696.530	18160
696.572	17659
696.604	17282
696.614	17267
696.656	17031
696.698	16748
696.724	16501
696.740	16558
696.783	16746
696.825	16746
696.844	16798
696.867	16789
696.909	16657
696.951	16328
696.964	16257
696.992	16370
697.034	16369
697.076	16370
697.083	16322
697.118	16425
697.160	16542
697.202	16810
697.203	16772
697.244	16624
697.286	16598
697.323	16384
697.327	16409
697.369	16288
697.411	16253
697.442	16157
697.453	16289
697.494	16692
697.536	17081
697.562	17267
697.578	17211
697.620	16980
697.661	16698
697.682	16544
697.703	16680
697.744	16798
697.786	17075
697.801	17077
697.828	17333
697.869	17722
697.911	18058
697.921	18107
697.952	18004
697.994	17794
698.035	17607
698.040	17537
698.077	17326
698.118	17025
698.160	16728
698.160	16683
698.201	17103
698.243	17517
698.279	17830
698.284	17861
698.325	17717
698.367	17579
698.399	17414
698.408	17386
698.449	17084
698.491	16732
698.518	16473
698.532	16616
698.573	16915
698.614	17260
698.638	17374
698.656	17527
698.697	17809
698.738	18085
698.757	18181
698.779	18080
698.820	17765
698.862	17464
698.877	17312
698.903	17464
698.944	17628
698.985	17785
698.996	17787
699.026	17952
699.067	18117
699.116	18270
699.235	16607
699.354	17253
699.474	17803
699.593	17670
699.713	17480
699.832	17030
699.951	17776
700.070	17583
700.190	16703
700.309	17317
700.428	17922
700.547	17780
700.667	17419
700.786	17323
700.905	17792
701.024	17203
701.143	16079
701.262	16300
701.381	16010
701.500	16431
701.619	17234
701.738	16080
701.857	16222
701.976	16612
702.095	15906
702.214	16000
702.333	16714
702.452	16830
702.571	15915
702.690	15842
702.809	15912
702.928	15416
703.047	15820
703.165	14862
703.284	15397
703.403	15892
703.522	15663
703.640	15941
703.759	16207
703.878	17791
703.997	15460
704.115	16173
704.234	15403
704.353	14875
704.471	15958
704.590	14733
704.708	15369
704.827	14393
704.946	15671
705.064	14813
705.183	15570
705.301	16523
705.420	21069
705.538	19490
705.656	18993
705.775	19181
705.893	26530
706.012	37635
706.130	19162
706.249	18379
706.367	18532
706.485	18973
706.604	17570
706.722	17579
706.840	18297
706.958	18550
707.077	18584
707.195	17017
707.313	17151
707.431	16608
707.549	16735
707.668	16581
707.786	17370
707.904	16411
708.022	16727
708.140	15889
708.258	16139
708.376	16445
708.494	16661
708.612	16671
708.730	20626
708.848	19896
708.966	19444
709.084	18804
709.202	18418
709.320	18278
709.438	18899
709.556	18335
709.674	18464
709.791	19541
709.909	17286
710.027	18329
710.145	18851
710.263	18045
710.380	17875
710.498	17655
710.616	17675
710.733	16840
710.851	17601
710.969	16973
711.086	17739
711.204	17363
711.322	16438
711.439	16708
711.557	17588
711.674	16187
711.792	16937
711.909	17793
712.027	19286
712.144	16520
712.262	17477
712.379	17613
712.497	20272
712.614	22090
712.732	20317
712.849	17958
712.966	19101
713.084	20041
713.201	19713
713.318	19640
713.436	19321
713.553	18373
713.670	18858
713.787	19751
713.905	19180
714.022	17696
714.139	18606
714.256	18398
714.373	18810
714.490	18776
714.608	21212
714.725	36078
714.842	46395
714.959	19240
715.076	17563
715.193	17402
715.310	17753
715.427	17525
715.544	16510
715.661	16313
715.778	16514
715.895	18042
716.011	17679
716.128	17837
716.245	16913
716.362	17239
716.479	17006
716.596	17101
716.713	17508
716.829	16677
716.946	17187
717.063	15717
717.180	16237
717.296	16181
717.413	15330
717.530	16001
717.646	15690
717.763	15698
717.880	15354
717.996	15203
718.113	15099
718.229	15603
718.346	15014
718.462	14395
718.579	15661
718.695	18756
718.812	17654
718.928	15755
719.045	14854
719.161	13863
719.277	14268
719.394	14742
719.510	15031
719.626	14852
719.743	15787
719.859	15955
719.975	15974
720.092	17921
720.208	26332
720.324	16747
720.440	14428
720.557	15082
720.673	17066
720.789	18874
720.905	25568
721.021	18093
721.137	14571
721.253	14937
721.369	13980
721.486	14771
721.602	15343
721.718	14206
721.834	13258
721.950	13395
722.066	13989
722.181	13265
722.297	13312
722.413	13269
722.529	14835
722.645	13177
722.761	13014
722.877	13600
722.993	12952
723.108	12885
723.224	13146
723.340	13187
723.456	12251
723.571	12576
723.687	11890
723.803	12878
723.918	11930
724.034	12469
724.150	12511
724.265	12243
724.381	14708
724.497	17965
724.612	11982
724.728	11592
724.843	12614
724.959	12901
725.074	14021
725.190	16886
725.305	12724
725.421	12350
725.536	12132
725.651	10806
725.767	11127
725.882	11192
725.997	11553
726.113	11687
726.228	10606
726.343	11100
726.459	11201
726.574	11316
726.689	11802
726.804	10860
726.920	11878
727.035	11079
727.150	10904
727.265	11183
727.380	12018
727.495	11018
727.610	11038
727.725	10767
727.841	12424
727.956	17898
728.071	18605
728.186	11545
728.301	10888
728.416	11827
728.531	10124
728.645	10861
728.760	10403
728.875	10754
728.990	10815
729.105	10841
729.220	10759
729.335	10424
729.449	10479
729.564	10738
729.679	10369
729.794	10804
729.908	10846
730.023	10529
730.138	9366
730.253	9744
730.367	10619
730.482	9629
730.596	11019
730.711	10590
730.826	10491
730.940	9987
731.055	9798
731.169	10420
731.284	9233
731.398	9569
731.513	10271
731.627	9767
731.742	10054
731.856	10494
731.970	9501
732.085	10312
732.199	10550
732.313	9896
732.428	11001
732.542	14143
732.656	13333
732.771	9567
732.885	9631
732.999	9280
733.113	9552
733.227	9534
733.342	9745
733.456	9791
733.570	9627
733.684	9298
733.798	8983
733.912	9526
734.026	9328
734.140	9115
734.254	9574
734.368	10268
734.482	11989
734.596	9627
734.710	9491
734.824	9036
734.938	8788
735.052	9492
735.166	9408
735.280	9743
735.393	8777
735.507	8672
735.621	9606
735.735	11578
735.849	9508
735.962	9154
736.076	10044
736.190	9510
736.303	9035
736.417	9868
736.531	8341
736.644	8903
736.758	8587
736.872	8127
736.985	8689
737.099	9316
737.212	8518
737.326	8466
737.439	8776
737.553	9428
737.666	8405
737.780	7670
737.893	8192
738.007	8381
738.120	8632
738.233	8702
738.347	8949
738.460	8437
738.573	9609
738.687	8817
738.800	9252
738.913	8841
739.026	9152
739.140	8623
739.253	9320
739.366	8401
739.479	8369
739.592	8016
739.705	9554
739.818	8448
739.932	8801
740.045	7649
740.158	9154
740.271	7979
740.384	8403
740.497	8831
740.610	8703
740.723	8669
740.836	8741
740.949	8090
741.062	9080
741.174	9161
741.287	8402
741.400	8733
741.513	8374
741.626	8964
741.739	8658
741.851	9070
741.964	8235
742.077	8087
742.189	8924
742.302	8412
742.415	9226
742.527	9262
742.640	8047
742.753	8271
742.865	7207
742.978	7442
743.090	8777
743.203	7439
743.316	9021
743.428	7996
743.541	9176
743.653	8011
743.766	8391
743.878	8688
743.990	8588
744.103	9145
744.215	8060
744.327	8341
744.440	9606
744.552	9690
744.664	8505
744.777	7810
744.889	7644
745.001	8551
745.113	8252
745.226	8808
745.338	7712
745.450	8106
745.562	8325
745.674	7361
745.786	8520
745.898	9022
746.010	8290
746.122	8083
746.234	7970
746.347	8547
746.459	7878
746.570	7937
746.682	8655
746.794	9066
746.906	8690
747.018	7979
747.130	8295
747.242	8697
747.354	8175
747.466	8935
747.577	8443
747.689	7747
747.801	8526
747.913	7431
748.024	7874
748.136	7712
748.248	7507
748.359	8474
748.471	8308
748.583	8092
748.694	9101
748.806	9310
748.918	8258
749.029	7422
749.141	8517
749.252	8367
749.364	9286
749.475	9529
749.587	8738
749.698	8416
749.809	9019
749.921	8319
750.032	8173
750.144	8691
750.255	7720
750.366	8323
750.478	7934
750.589	8751
750.700	7719
750.811	8685
750.923	8561
751.034	9912
751.145	10910
751.256	8613
751.367	8419
751.479	7936
751.590	8468
751.701	8670
751.812	8075
751.923	7861
752.034	8682
752.145	7495
752.256	8913
752.367	8022
752.478	8640
752.589	9043
752.700	8202
752.811	8815
752.922	8100
753.032	8360
753.143	9487
753.254	7838
753.365	7943
753.476	8636
753.586	8794
753.697	8807
753.808	9364
753.919	8809
754.029	8054
754.140	9000
754.251	8862
754.361	8388
754.472	9425
754.582	9115
754.693	9391
754.804	9133
754.914	8860
755.025	8791
755.135	8869
755.246	9274
755.356	8074
755.466	9455
755.577	9599
755.687	9443
755.798	9188
755.908	9660
756.018	9557
756.129	9721
756.239	9775
756.349	10044
756.460	9816
756.570	9813
756.680	9942
756.790	10305
756.900	10444
757.011	9650
757.121	10698
757.231	9843
757.341	10450
757.451	11133
757.561	10599
757.671	9729
757.781	9666
757.891	10815
758.001	10420
758.111	10688
758.221	10686
758.331	11286
758.441	11231
758.551	11748
758.661	11920
758.771	11196
758.880	12168
758.990	11169
759.100	11197
759.210	11812
759.320	12248
759.429	11849
759.539	12320
759.649	13276
759.758	13173
759.868	12862
759.978	12827
760.087	13542
760.197	14248
760.307	14359
760.416	14180
760.526	14191
760.635	14194
760.745	14603
760.854	16052
760.964	15243
761.073	16619
761.182	16058
761.292	16769
761.401	17254
761.511	16642
761.620	17751
761.729	18132
761.839	18027
761.948	20089
762.057	19095
762.166	19603
762.276	19353
762.385	21834
762.494	21344
762.603	22809
762.712	22767
762.822	24035
762.931	25182
763.040	25672
763.149	26956
763.258	26994
763.367	29272
763.476	31267
763.585	32129
763.694	34647
763.803	34936
763.912	37451
764.021	39001
764.130	41531
764.238	43960
764.347	47087
764.456	50006
764.565	54917
764.674	59131
764.783	63704
764.891	70696
765.000	79391
765.109	91420
765.217	102448
765.326	117654
765.435	139684
765.543	167924
765.652	205647
765.761	262907
765.869	344090
765.978	467694
766.086	664732
766.195	962794
766.303	1321945
766.412	1247499
766.520	1120610
766.629	1293804
766.737	966391
766.846	677948
766.954	485264
767.062	361237
767.171	278841
767.279	217082
767.387	175679
767.496	146793
767.604	126947
767.712	109094
767.820	98079
767.928	89045
768.037	82576
768.145	77088
768.253	75947
768.361	72226
768.469	70862
768.577	72423
768.685	75720
768.793	80814
768.901	88081
769.009	99350
769.117	119659
769.225	151105
769.333	200085
769.441	290913
769.549	453454
769.657	763605
769.765	1178451
769.873	1114019
769.981	1120424
770.088	807800
770.196	499583
770.304	333637
770.412	239953
770.519	181892
770.627	143961
770.735	118585
770.842	98567
770.950	84549
771.058	74979
771.165	66395
771.273	59125
771.380	54811
771.488	48992
771.595	44459
771.703	42964
771.810	40025
771.918	36032
772.025	34535
772.133	32111
772.240	30304
772.348	29850
772.455	27148
772.562	26707
772.670	24804
772.777	24412
772.884	23832
772.991	21977
773.099	20903
773.206	21128
773.313	20223
773.420	20181
773.528	18931
773.635	18151
773.742	18143
773.849	17964
773.956	16687
774.063	16336
774.170	15496
774.277	15802
774.384	15464
774.491	15407
774.598	15105
774.705	14246
774.812	14660
774.919	14436
775.026	14295
775.133	13171
775.239	12894
775.346	12428
775.453	13274
775.560	12509
775.667	12057
775.773	12057
775.880	12410
775.987	11711
776.093	11847
776.200	11158
776.307	11283
776.413	12362
776.520	9987
776.627	11762
776.733	10919
776.840	9832
776.946	11490
777.053	11093
777.159	10912
777.266	10290
777.372	11492
777.478	10242
777.585	9775
777.691	9396
777.798	9276
777.904	10210
778.010	10884
778.117	10656
778.223	8836
778.329	8969
778.435	9161
778.542	8659
778.648	8233
778.754	7846
778.860	8664
778.966	8676
779.072	8578
779.178	9528
779.284	8339
779.391	9693
779.497	9603
779.603	13827
779.708	19630
779.815	41403
779.920	137416
780.026	316881
780.132	81301
780.238	17280
780.344	11727
780.450	10695
780.556	9479
780.661	8578
780.767	7596
780.873	7918
780.979	7447
781.085	7058
781.190	6988
781.296	6806
781.402	6617
781.507	7243
781.613	6746
781.719	6612
781.824	6162
781.930	7223
782.035	6594
782.141	6929
782.246	6996
782.352	5678
782.457	6547
782.563	6887
782.668	6077
782.773	6773
782.879	5136
782.984	6940
783.090	7254
783.195	6684
783.300	6804
783.405	6411
783.511	5391
783.616	6152
783.721	6176
783.826	5024
783.932	5279
784.037	6138
784.142	5484
784.247	5962
784.352	5865
784.457	5416
784.562	6036
784.667	5119
784.772	5539
784.877	5698
784.982	5336
785.087	5513
785.192	4858
785.297	4276
785.402	5010
785.507	4449
785.611	4973
785.716	4864
785.821	4556
785.926	5205
786.031	4126
786.135	4976
786.240	5472
786.345	5117
786.450	4693
786.554	5020
786.659	4818
786.763	4169
786.868	4573
786.973	5451
787.077	4290
787.182	4169
787.286	4096
787.391	4601
787.495	4851
787.600	4827
787.704	4924
787.809	4894
787.913	4466
788.017	4861
788.122	5308
788.226	5213
788.330	3361
788.435	5543
788.539	5148
788.643	4436
788.747	4634
788.852	4793
788.956	4004
789.060	5607
789.164	4416
789.268	4346
789.372	4314
789.476	4601
789.580	4346
789.684	4382
789.788	3911
789.892	3580
789.996	4656
790.100	4766
790.204	4106
790.308	4252
790.412	3949
790.516	5776
790.620	4767
790.724	4338
790.828	4430
790.931	4220
791.035	4596
791.139	4658
791.242	3777
791.346	4262
791.450	4234
791.554	4593
791.657	4156
791.761	4938
791.864	4147
791.968	4155
792.072	4873
792.175	3879
792.279	4349
792.382	3898
792.486	4615
792.589	3669
792.693	3384
792.796	3777
792.899	4306
793.003	5026
793.106	3175
793.209	3924
793.313	4979
793.416	3339
793.519	4446
793.623	4639
793.726	5323
793.829	3887
793.932	4049
794.035	3993
794.138	4505
794.242	4952
794.345	6656
794.448	10941
794.551	23461
794.654	74508
794.757	187887
794.860	54895
794.963	8735
795.066	5863
795.169	5542
795.272	5125
795.375	5009
795.477	4413
795.580	4458
795.683	1985
795.786	4743
795.889	2745
795.991	4411
796.094	4664
796.197	3359
796.300	3753
796.402	3511
796.505	3076
796.608	2688
796.710	3085
796.813	2770
796.915	3743
797.018	3745
797.120	3499
797.223	2726
797.326	3131
797.428	3616
797.530	3411
797.633	3201
797.735	3410
797.838	3630
797.940	4499
798.042	2981
798.145	2328
798.247	4035
798.349	3308
798.452	3135
798.554	3285
798.656	2248
798.758	3790
798.860	3078
798.962	3599
799.065	2791
799.167	2512
799.269	3829
799.371	3686
799.473	3250
799.575	2975
799.677	3590
799.779	3972
799.881	2795
799.983	3309
800.085	3068
800.187	2849
800.289	2252
800.390	3289
800.492	2951
800.594	3816
800.696	2372
800.798	3079
800.899	2131
801.001	2032
801.103	2398
801.205	3012
801.306	2586
801.408	1523
801.509	2841
801.611	3214
801.713	2755
801.814	2231
801.916	2579
802.017	2863
802.119	2533
802.220	2856
802.322	739
802.423	3307
802.525	2844
802.626	3650
802.727	2669
802.829	2559
802.930	884
803.031	3407
803.133	2326
803.234	2627
803.335	2884
803.436	1920
803.538	2337
803.639	1556
803.740	2688
803.841	2815
803.942	2249
804.043	1913
804.144	2128
804.245	2379
804.346	1557
804.447	2262
804.548	2783
804.649	3539
804.750	1873
804.851	2476
804.952	2955
805.053	2940
805.154	1499
805.255	2829
805.355	1440
805.456	2094
805.557	2340
805.658	1943
805.758	2321
805.859	2167
805.960	2181
806.061	2225
806.161	2492
806.262	2442
806.362	1470
806.463	2061
806.564	2349
806.664	2143
806.765	1779
806.865	1879
806.966	2756
807.066	2248
807.166	2983
807.267	3100
807.367	2518
807.468	3035
807.568	1209
807.668	2428
807.769	2414
807.869	1938
807.969	2698
808.069	2860
808.170	2395
808.270	2519
808.370	2050
808.470	2434
808.570	866
808.670	2478
808.770	2064
808.870	1730
808.970	2669
809.070	1763
809.170	1512
809.271	2030
809.370	1291
809.470	2199
809.570	1739
809.670	2145
809.770	2110
809.870	1945
809.970	2290
810.070	2154
810.169	2349
810.269	1231
810.369	2808
810.469	2082
810.568	1211
810.668	1988
810.768	1992
810.867	2437
810.967	2083
811.066	1523
811.166	1670
811.265	2824
811.365	2171
811.464	2192
811.564	2501
811.663	2450
811.763	1462
811.862	1425
811.962	2394
812.061	1691
812.160	1550
812.260	2207
812.359	2269
812.458	3132
812.557	4673
812.657	8802
812.756	4761
812.855	2103
812.954	1735
813.053	2117
813.153	2220
813.252	1708
813.351	2566
813.450	2510
813.549	1601
813.648	3139
813.747	2030
813.846	2822
813.945	1627
814.044	2367
814.143	2487
814.242	2190
814.341	2438
814.439	2868
814.538	2193
814.637	2467
814.736	2941
814.835	2764
814.933	1970
815.032	2945
815.131	2216
815.229	2471
815.328	2834
815.427	3044
815.525	2606
815.624	3029
815.722	2810
815.821	2306
815.919	2751
816.018	2100
816.116	3707
816.215	2922
816.313	2944
816.412	3048
816.510	3246
816.609	4446
816.707	4408
816.805	3034
816.904	3296
817.002	4510
817.100	5378
817.198	6097
817.296	5977
817.395	7164
817.493	8342
817.591	8859
817.689	11378
817.787	14920
817.885	23109
817.983	38629
818.081	75135
818.179	158965
818.277	348998
818.375	373796
818.473	167603
818.571	70626
818.669	41223
818.767	33141
818.865	31579
818.963	36091
819.061	46895
819.158	73685
819.256	136967
819.354	268714
819.452	493504
819.549	421787
819.647	206720
819.745	99867
819.842	55963
819.940	37415
820.038	26767
820.135	21244
820.233	16874
820.330	12607
820.428	11826
820.525	9804
820.623	8343
820.720	7439
820.818	7166
820.915	6427
821.012	5824
821.110	4373
821.207	4835
821.304	3939
821.402	4039
821.499	4998
821.596	4072
821.693	4309
821.791	4343
821.888	3760
821.985	4803
822.082	3184
822.179	3283
822.276	2832
822.373	2582
822.470	2351
822.567	3385
822.664	1979
822.761	2821
822.858	2088
822.955	2385
823.052	2005
823.149	2514
823.246	2046
823.343	2267
823.440	1680
823.536	2113
823.633	1804
823.730	1956
823.827	2347
823.923	1784
824.020	2267
824.117	1457
824.213	644
824.310	1712
824.407	1686
824.503	2439
824.600	2293
824.696	1918
824.793	1870
824.889	1255
824.986	1806
825.082	1619
825.179	1793
825.275	1443
825.371	1184
825.468	1719
825.564	1299
825.660	2140
825.757	1468
825.853	1833
825.949	1933
826.045	1665
826.142	1952
826.238	1295
826.334	1673
826.430	820
826.526	2104
826.622	780
826.718	2276
826.814	1461
826.910	2302
827.006	1993
827.102	1687
827.198	1938
827.294	1389
827.390	1620
827.486	1624
827.582	1033
827.678	935
827.774	1033
827.869	864
827.965	1797
828.061	1714
828.157	1140
828.252	966
828.348	475
828.444	1459
828.539	629
828.635	808
828.731	1540
828.826	525
828.922	2026
829.017	337
829.113	1268
829.208	359
829.304	353
829.399	1711
829.495	688
829.590	301
829.685	1399
829.781	1774
829.876	1112
829.971	754
830.066	873
830.162	918
830.257	75
830.352	860
830.447	1688
830.543	1528
830.638	-162
830.733	1810
830.828	174
830.923	2389
831.018	883
831.113	1344
831.208	388
831.303	110
831.398	1753
831.493	1304
831.588	1566
831.683	-195
831.778	1061
831.873	1173
831.967	1480
832.062	548
832.157	22
832.252	1561
832.346	846
832.441	1464
832.536	1105
832.631	1878
832.725	2871
832.820	1495
832.914	693
833.009	646
833.104	488
833.198	1299
833.293	278
833.387	974
833.482	968
833.576	1301
833.670	1001
833.765	1335
833.859	530
833.954	1050
834.048	1080
834.142	1580
834.237	762
834.331	890
834.425	979
834.519	1217
834.613	1159
834.708	1373
834.802	802
834.896	499
834.990	1000
835.084	1590
835.178	846
835.272	587
835.366	615
835.460	1267
835.554	782
835.648	748
835.742	380
835.836	802
835.930	238
836.024	1090
836.117	1754
836.211	705
836.305	1833
836.399	1229
836.493	102
836.586	1234
836.680	632
836.774	1257
836.867	1790
836.961	835
837.055	442
837.148	647
837.242	632
837.335	334
837.429	1014
837.522	1028
837.616	998
837.709	1722
837.803	544
837.896	825
837.989	-3
838.083	1397
838.176	1385
838.269	2152
838.363	1016
838.456	1546
838.549	926
838.642	2138
838.735	3188
838.829	2406
838.922	-413
839.015	652
839.108	560
839.201	1518
839.294	1376
839.387	329
839.480	270
839.573	591
839.666	1379
839.759	1187
839.852	-81
839.945	422
840.038	622
840.131	352
840.223	731
840.316	610
840.409	698
840.502	578
840.594	1665
840.687	-93
840.780	1477
840.873	747
840.965	1052
841.058	837
841.150	833
841.243	1096
841.336	801
841.428	478
841.521	-101
841.613	-306
841.706	1067
841.798	220
841.890	151
841.983	1004
842.075	1180
842.167	1212
842.260	502
842.352	655
842.444	425
842.537	1804
842.629	2582
842.721	1326
842.813	660
842.905	283
842.997	960
843.090	261
843.182	1261
843.274	1905
843.366	3435
843.458	5176
843.550	4508
843.642	1006
843.734	736
843.826	140
843.918	1168
844.009	1718
844.101	829
844.193	858
844.285	489
844.377	1078
844.469	1092
844.560	169
844.652	814
844.744	1368
844.835	663
844.927	904
845.019	-83
845.110	1060
845.202	207
845.293	134
845.385	93
845.476	1148
845.568	1544
845.659	174
845.751	733
845.842	419
845.934	629
846.025	251
846.116	448
846.208	1259
846.299	802
846.390	462
846.482	131
846.573	1273
846.664	419
846.755	1471
846.846	1255
846.937	603
847.029	380
847.120	1416
847.211	242
847.302	800
847.393	542
847.484	702
847.575	639
847.666	710
847.757	296
847.847	844
847.938	898
848.029	443
848.120	260
848.211	1315
848.302	684
848.392	179
848.483	1429
848.574	-20
848.664	156
848.755	-63
848.846	611
848.936	45
849.027	468
849.118	518
849.208	250
849.299	347
849.389	385
849.480	1085
849.570	794
849.661	1593
849.751	931
849.841	1426
849.932	877
850.022	76
850.112	483
850.203	420
850.293	542
850.383	906
850.474	97
850.564	419
850.654	940
850.744	35
850.834	1228
850.924	330
851.014	668
851.104	706
851.194	1060
851.284	344
851.374	1390
851.464	1174
851.554	442
851.644	925
851.734	1433
851.824	1871
851.914	2875
852.004	6080
852.094	8804
852.183	2954
852.273	1219
852.363	852
852.452	-726
852.542	566
852.632	109
852.721	703
852.811	678
852.901	669
852.990	648
853.080	349
853.169	517
853.259	623
853.348	-77
853.438	-75
853.527	665
853.617	716
853.706	1342
853.795	-366
853.885	1941
853.974	1852
854.063	4360
854.152	5646
854.242	3490
854.331	759
854.420	25
854.509	732
854.598	258
854.687	-2
854.777	137
854.866	709
854.955	210
855.044	462
855.133	299
855.222	660
855.311	531
855.400	-163
855.488	819
855.577	-798
855.666	504
855.755	482
855.844	774
855.933	801
856.021	619
856.110	1002
856.199	-375
856.288	690
856.376	830
856.465	305
856.554	378
856.642	136
856.731	940
856.819	790
856.908	795
856.996	812
857.085	259
857.173	113
857.262	662
857.350	747
857.438	554
857.527	728
857.615	-24
857.703	1000
857.792	875
857.880	630
857.968	164
858.056	569
858.145	559
858.233	334
858.321	187
858.409	541
858.497	-47
858.585	139
858.673	24
858.761	49
858.849	1050
858.937	247
859.025	284
859.113	215
859.201	-39
859.289	411
859.377	-6
859.465	825
859.552	700
859.640	613
859.728	146
859.816	517
859.903	663
859.991	-27
860.079	544
860.166	413
860.254	1259
860.342	-101
860.429	-30
860.517	-449
860.604	-192
860.692	505
860.779	-380
860.867	-2
860.954	82
861.042	824
861.129	793
861.216	808
861.304	-230
861.391	9
861.478	276
861.565	80
861.653	992
861.740	-526
861.827	-63
861.914	-138
862.001	126
862.089	-15
862.176	-389
862.263	-92
862.350	22
862.437	-425
862.524	448
862.611	-18
862.698	830
862.785	151
862.871	-272
862.958	-479
863.045	-318
863.132	667
863.219	-27
863.306	-687
863.392	-115
863.479	83
863.566	-212
863.652	-135
863.739	-150
863.826	145
863.912	-107
863.999	-105
864.086	632
864.172	-665
864.259	-562
864.345	295
864.432	295
864.518	639
864.604	284
864.691	-326
864.777	-125
864.863	1094
864.950	-52
865.036	124
865.122	617
865.209	294
865.295	599
865.381	-39
865.467	158
865.553	189
865.639	-12
865.726	-302
865.812	165
865.898	1560
865.984	1428
866.070	2611
866.156	4362
866.242	1260
866.328	-19
866.414	-808
866.499	-248
866.585	-406
866.671	621
866.757	599
866.843	275
866.928	150
867.014	64
867.100	369
867.186	-170
867.271	-307
867.357	945
867.442	557
867.528	802
867.614	219
867.699	-337
867.785	121
867.870	255
867.956	-515
868.041	419
868.127	367
868.212	-311
868.297	1161
868.383	-93
868.468	1480
868.553	1484
868.639	1418
868.724	2120
868.809	3596
868.894	444
868.979	665
869.065	-337
869.150	72
869.235	1
869.320	-116
869.405	234
869.490	-59
869.575	-457
869.660	232
869.745	-73
869.830	-23
869.915	-397
870.000	-941
870.085	-271
870.169	-205
870.254	209
870.339	-98
870.424	206
870.509	152
870.593	477
870.678	169
870.763	-159
870.847	8
870.932	-550
871.016	27
871.101	-453
871.186	122
871.270	-161
871.355	-939
871.439	-618
871.523	-371
871.608	-279
871.692	-519
871.777	26
871.861	497
871.945	-1049
872.030	-491
872.114	-555
872.198	-190
872.282	-506
872.367	-380
872.451	-272
872.535	280
872.619	-390
872.703	650
872.787	-836
872.871	-147
872.955	-388
873.039	-435
873.123	105
873.207	-207
873.291	95
873.375	-603
873.459	109
873.543	-210
873.627	-436
873.711	23
873.794	-187
873.878	-810
873.962	-535
874.045	-524
874.129	-792
874.137	-791
874.213	-785
874.245	-836
874.296	-916
874.352	-54
874.380	365
874.460	132
874.464	122
874.547	-864
874.568	-793
874.631	-574
874.676	-439
874.714	-325
874.784	138
874.798	224
874.881	810
874.892	639
874.965	-507
874.999	-300
875.048	0
875.107	180
875.131	245
875.215	-15
875.215	-15
875.298	510
875.323	220
875.381	-505
875.430	-617
875.465	-662
875.538	-256
875.548	-209
875.631	-28
875.646	-32
875.714	-17
875.753	-294
875.798	-600
875.861	-470
875.881	-433
875.964	-91
875.968	-122
876.047	-708
876.076	-524
876.130	-196
876.183	-528
876.213	-671
876.291	293
876.296	357
876.379	19
876.398	14
876.462	-53
876.506	85
876.545	166
876.613	-204
876.628	-252
876.711	-298
876.721	-270
876.794	-69
876.828	-323
876.877	-691
876.935	-194
876.960	-46
877.043	-709
877.043	-707
877.125	41
877.150	104
877.208	173
877.258	145
877.291	131
877.365	-502
877.374	-587
877.456	660
877.472	460
877.539	-331
877.579	-143
877.622	108
877.687	-265
877.704	-395
877.787	-105
877.794	-116
877.869	-151
877.901	39
877.952	175
878.008	-213
878.034	-309
878.115	-611
878.117	-620
878.199	-371
878.222	-346
878.282	-73
878.329	-233
878.364	-376
878.437	-431
878.447	-469
878.529	-79
878.544	-46
878.611	190
878.651	61
878.694	0
878.758	-216
878.776	-288
878.858	-21
878.865	13
878.941	68
878.972	-336
879.023	-682
879.078	-370
879.105	-210
879.185	278
879.187	281
879.269	98
879.292	-118
879.351	-545
879.399	-112
879.433	114
879.506	-678
879.516	-741
879.598	-455
879.613	-318
879.680	22
879.720	-348
879.762	-580
879.827	-72
879.844	-2
879.926	-445
879.933	-456
880.007	-284
880.040	-184
880.089	-173
880.147	-51
880.171	38
880.253	-30
880.254	-31
880.335	-227
880.360	-127
880.417	310
880.467	936
880.499	1530
880.574	2053
880.580	1970
880.662	955
880.680	592
880.744	-97
880.787	-205
880.825	-213
880.893	-285
880.907	-289
880.989	-89
881.000	-38
881.070	73
881.106	100
881.152	85
881.213	-416
881.233	-505
881.315	-145
881.319	-126
881.396	34
881.426	-180
881.478	-405
881.532	-184
881.559	-90
881.639	-349
881.641	-366
881.722	-467
881.745	-533
881.803	-231
881.852	-353
881.885	-451
881.958	-73
881.966	-32
882.047	206
882.064	224
882.129	91
882.171	48
882.210	140
882.277	606
882.291	651
882.372	-118
882.383	-69
882.454	370
882.489	75
882.535	-251
882.596	-63
882.616	-94
882.697	-401
882.702	-427
882.778	-274
882.808	-143
882.859	-269
882.914	-387
882.940	-203
883.020	-16
883.021	-19
883.102	-89
883.127	-259
883.183	-501
883.233	-502
883.264	-394
883.339	144
883.345	155
883.426	-241
883.445	-345
883.507	-473
883.551	-484
883.587	-408
883.657	88
883.668	135
883.749	-270
883.763	-293
883.830	-529
883.869	-513
883.910	-487
883.975	-412
883.991	-291
884.072	-87
884.081	-70
884.152	-451
884.187	-678
884.233	-617
884.292	-70
884.314	-40
884.394	-124
884.398	-154
884.475	-519
884.504	-468
884.555	-583
884.610	-910
884.636	-795
884.716	-70
884.716	-69
884.797	-388
884.821	-455
884.877	-649
884.927	-684
884.958	-284
885.033	500
885.038	437
885.118	-753
885.139	-1061
885.199	-798
885.244	-342
885.279	-171
885.350	76
885.359	109
885.439	-131
885.456	-80
885.520	-232
885.561	-451
885.600	-260
885.667	316
885.680	301
885.760	-365
885.773	-384
885.840	-366
885.878	-472
885.920	-233
885.984	232
886.000	166
886.080	-497
886.089	-544
886.160	-519
886.195	-428
886.240	-247
886.300	-271
886.320	-264
886.400	12
886.406	28
886.480	111
886.511	104
886.560	256
886.616	368
886.640	274
886.720	24
886.722	16
886.800	-0
886.827	-6
886.879	6
886.932	0
886.959	57
887.038	197
887.039	196
887.119	-101
887.143	-245
887.198	-249
887.248	-143
887.278	-73
887.354	-137
887.358	-128
887.437	166
887.459	250
887.517	54
887.564	-112
887.596	-140
887.669	-349
887.676	-376
887.755	-489
887.774	-551
887.835	-61
887.880	329
887.914	184
887.985	-202
887.994	-149
888.073	479
888.090	578
888.153	-24
888.195	-453
888.232	-257
888.300	174
888.311	109
888.391	-319
888.405	-411
888.470	-302
888.510	-237
888.549	-156
888.615	-11
888.628	-91
888.708	-510
888.720	-590
888.787	-450
888.825	-371
888.866	-415
888.930	-398
888.945	-434
889.024	-701
889.035	-726
889.103	-539
889.140	-450
889.182	-173
889.245	244
889.261	212
889.340	63
889.349	47
889.419	9
889.454	-5
889.498	-201
889.559	-470
889.577	-458
889.656	-382
889.664	-370
889.735	-270
889.768	-216
889.814	109
889.873	545
889.978	-312
890.083	-447
890.187	-283
890.292	-281
890.397	-1402
890.501	395
890.606	534
890.710	234
890.815	-649
890.919	-283
891.024	331
891.128	786
891.233	-42
891.337	-432
891.442	-325
891.546	-367
891.650	-396
891.755	-444
891.859	-476
891.963	-6
892.068	-39
892.172	-192
892.276	-876
892.380	-356
892.484	-293
892.589	-11
892.693	-558
892.797	-372
892.901	-546
893.005	-714
893.109	-671
893.213	-453
893.317	-500
893.421	-159
893.525	-414
893.629	-929
893.733	-592
893.837	-291
893.941	-715
894.045	1073
894.148	-676
894.252	-474
894.356	-294
894.460	-510
894.564	-565
894.667	-627
894.771	-342
894.875	-527
894.978	-325
895.082	-383
895.186	-198
895.289	-72
895.393	-186
895.496	65
895.600	51
895.703	-806
895.807	140
895.910	-735
896.014	-706
896.117	-599
896.221	221
896.324	-853
896.427	-112
896.531	659
896.634	-602
896.737	12
896.840	-570
896.944	-937
897.047	423
897.150	82
897.253	113
897.356	-45
897.460	-1056
897.563	-331
897.666	-244
897.769	-249
897.872	-690
897.975	-672
898.078	-518
898.181	-112
898.284	-235
898.387	415
898.490	-443
898.593	201
898.695	-892
898.798	-1340
898.901	-426
899.004	484
899.107	-642
899.209	-71
899.312	-760
899.415	-372
899.518	-325
899.620	-586
899.723	-1017
899.826	448
899.928	124
900.031	-831
900.133	122
900.236	-672
900.338	-868
900.441	-318
900.543	-382
900.646	-791
900.748	-1460
900.851	-700
900.953	-504
901.055	-523
901.158	-926
901.260	-834
901.362	-541
901.465	-687
901.567	-299
901.669	-414
901.771	-347
901.873	18
901.976	-264
902.078	-725
902.180	-349
902.282	-148
902.384	-795
902.486	384
902.588	-376
902.690	-554
902.792	-711
902.894	291
902.996	-683
903.098	-370
903.200	-116
903.302	477
903.404	-725
903.505	-564
903.607	-211
903.709	11
903.811	-6
903.913	-399
904.014	105
904.116	-227
904.218	-1081
904.319	-1082
904.421	-722
904.523	-364
904.624	-189
904.726	-885
904.827	-795
904.929	-817
905.030	-210
905.132	-279
905.233	-1004
905.335	-809
905.436	-558
905.537	22
905.639	-210
905.740	-504
905.841	-355
905.943	-1078
906.044	-943
906.145	-542
906.247	-461
906.348	-1325
906.449	115
906.550	-661
906.651	-824
906.752	-585
906.854	-1016
906.955	-495
907.056	-950
907.157	-1082
907.258	-928
907.359	-864
907.460	-358
907.561	-513
907.662	-422
907.762	264
907.863	-764
907.964	-94
908.065	-802
908.166	-430
908.267	-960
908.367	-419
908.468	-638
908.569	-712
908.670	-124
908.770	-940
908.871	-542
908.971	-1102
909.072	-152
909.173	-417
909.273	-16
909.374	-1028
909.474	-628
909.575	-10
909.675	-641
909.776	-153
909.876	-153
909.977	-252
910.077	-834
910.177	-1638
910.278	-957
910.378	-1134
910.478	-1327
910.579	-503
910.679	-781
910.779	386
910.879	-132
910.980	-1346
911.080	-137
911.180	-1150
911.280	-905
911.380	-635
911.480	-909
911.580	-1430
911.680	-1290
911.780	-568
911.880	-1054
911.980	-857
912.080	-808
912.180	-1289
912.280	-548
912.380	-253
912.480	-1016
912.580	-594
912.679	-962
912.779	-518
912.879	-296
912.979	-869
913.078	-608
913.178	-557
913.278	-536
913.377	-1134
913.477	-646
913.577	-184
913.676	-746
913.776	-1011
913.875	-1236
913.975	-35
914.074	-375
914.174	-425
914.273	-883
914.373	-167
914.472	-914
914.572	-243
914.671	-966
914.770	-702
914.870	-548
914.969	-1000
915.068	-525
915.167	-493
915.267	-109
915.366	-829
915.465	-524
915.564	-1162
915.663	-756
915.763	-1338
915.862	-953
915.961	-723
916.060	-241
916.159	-841
916.258	-709
916.357	-727
916.456	-231
916.555	-1130
916.654	-748
916.752	-952
916.851	-618
916.950	-376
917.049	-998
917.148	-792
917.247	-1278
917.345	-551
917.444	-844
917.543	-1312
917.642	-502
917.740	-751
917.839	-702
917.937	-430
918.036	-258
918.135	-561
918.233	-810
918.332	-448
918.430	-399
918.529	-738
918.627	-599
918.726	-741
918.824	-616
918.923	-965
919.021	-889
919.119	-704
919.218	-733
919.316	-776
919.414	-959
919.512	-137
919.611	-465
919.709	-1178
919.807	-524
919.905	-943
920.003	-573
920.102	-446
920.200	-1352
920.298	-743
920.396	-289
920.494	-314
920.592	-859
920.690	-810
920.788	-376
920.886	-258
920.984	-1093
921.082	-700
921.180	-363
921.277	-814
921.375	-1095
921.473	-1215
921.571	-1072
921.669	-876
921.766	-1092
921.864	-523
921.962	144
922.060	-668
922.157	-542
922.255	-468
922.352	-636
922.450	-584
922.548	-686
922.645	-376
922.743	-947
922.840	-761
922.938	-849
923.035	-471
923.133	-344
923.230	-390
923.327	-968
923.425	-439
923.522	-618
923.619	-1278
923.717	-1413
923.814	75
923.911	-698
924.008	-95
924.106	69
924.203	-210
924.300	-1034
924.397	-808
924.494	-573
924.591	-332
924.688	-461
924.786	-194
924.883	-700
924.979	-297
925.077	660
925.173	-860
925.270	-820
925.367	9
925.464	74
925.561	-479
925.658	-231
925.755	-310
925.852	-1517
925.948	-469
926.045	-513
926.142	-328
926.239	-605
926.335	-394
926.432	70
926.529	-1125
926.625	-522
926.722	-418
926.818	-710
926.915	-1167
927.011	-1341
927.108	-914
927.204	-909
927.301	174
927.397	-678
927.494	-807
927.590	-665
927.687	-685
927.783	-751
927.879	-1214
927.976	-545
928.072	-590
928.168	-884
928.264	137
928.361	-985
928.457	-1147
928.553	-405
928.649	-1112
928.745	-817
928.841	-644
928.937	-1322
929.033	-67
929.129	-620
929.225	-646
929.321	-1019
929.417	-1051
929.513	-935
929.609	-1204
929.705	-1144
929.801	-865
929.897	-707
929.993	-455
930.089	-149
930.184	-711
930.280	-1101
930.376	-802
930.471	-1406
930.567	-259
930.663	-829
930.758	-579
930.854	-837
930.950	-1355
931.045	-761
931.141	22
931.236	-565
931.332	-954
931.427	-1035
931.523	-1007
931.618	-666
931.714	-837
931.809	-530
931.905	-1152
932.000	-1554
932.095	-605
932.191	-907
932.286	-1014
932.381	-795
932.476	-625
932.572	-416
932.667	-36
932.762	-784
932.857	-1027
932.952	-107
933.047	-466
933.142	-485
933.237	213
933.332	-1385
933.427	-177
933.522	-692
933.617	-390
933.712	-953
933.807	-830
933.902	-962
933.997	-716
934.092	-274
934.187	-701
934.282	-484
934.376	-560
934.471	-697
934.566	-734
934.661	-723
934.755	-459
934.850	-126
934.945	-507
935.039	-610
935.134	-812
935.228	-1021
935.323	-1074
935.417	-216
935.512	-910
935.606	-318
935.701	-1137
935.795	-963
935.890	-1116
935.984	397
936.079	-751
936.173	-947
936.267	-989
936.362	-1731
936.456	-818
936.550	-443
936.644	-282
936.738	-686
936.833	-1084
936.927	-869
937.021	-640
937.115	-804
937.209	-964
937.303	-1263
937.397	-792
937.491	-941
937.585	-829
937.679	-1059
937.773	-889
937.867	-1422
937.961	-446
938.055	-895
938.149	56
938.243	-570
938.337	-514
938.430	-1511
938.524	-563
938.618	-917
938.712	-629
938.805	-1337
938.899	-1169
938.993	-1850
939.086	-948
939.180	-257
939.274	-739
939.367	-1002
939.461	-322
939.554	-938
939.648	-936
939.741	-898
939.835	-714
939.928	-652
940.022	-353
940.115	-667
940.208	-1060
940.302	-433
940.395	-477
940.488	-1608
940.582	-1253
940.675	-1192
940.768	-946
940.861	-853
940.954	-430
941.048	-1016
941.141	-199
941.234	-639
941.327	-1135
941.420	71
941.513	-491
941.606	-1216
941.699	-372
941.792	-1829
941.885	-400
941.978	-1881
942.071	-949
942.164	-826
942.257	-360
942.349	-1033
942.442	-1204
942.535	-773
942.628	-852
942.721	-438
942.813	-1288
942.906	-523
942.999	-748
943.091	-999
943.184	-868
943.277	-1452
943.369	-777
943.462	-1025
943.554	-570
943.647	-1166
943.739	-569
943.832	-983
943.924	-1158
944.017	-912
944.109	-1062
944.201	-259
944.294	-1231
944.386	-1499
944.478	-1320
944.571	-662
944.663	-1003
944.755	-1225
944.847	-563
944.940	-1098
945.032	-616
945.124	-840
945.216	-177
945.308	-329
945.400	-496
945.492	-1558
945.584	-776
945.676	-1436
945.768	-336
945.860	-322
945.952	-1058
946.044	-254
946.136	-915
946.228	-656
946.320	-565
946.412	-1266
946.503	-875
946.595	-368
946.687	-1288
946.779	-1060
946.870	-1161
946.962	-814
947.054	-613
947.145	-822
947.237	-509
947.329	-864
947.420	-626
947.512	-832
947.603	-1225
947.695	-1223
947.786	-596
947.878	-1159
947.969	-798
948.061	-1605
948.152	-889
948.243	-1285
948.335	-1181
948.426	-1296
948.517	-889
948.609	-1682
948.700	-324
948.791	-1500
948.882	-517
948.973	-603
949.065	-1335
949.156	-1228
949.247	-1175
949.338	-1028
949.429	-1054
949.520	-806
949.611	-1221
949.702	-1066
949.793	-1206
949.884	-323
949.975	-1021
950.066	-1128
950.157	-476
950.247	-1144
950.338	-704
950.429	-2192
950.520	-544
950.611	-308
950.701	-1542
950.792	-970
950.883	-983
950.973	-748
951.064	-991
951.155	-1368
951.245	-116
951.336	-598
951.427	-1954
951.517	-692
951.608	-731
951.698	-911
951.788	-610
951.879	-2077
951.969	-1437
952.060	-971
952.150	-983
952.240	-1112
952.331	-1530
952.421	-189
952.511	-1256
952.602	-1211
952.692	-1496
952.782	-1459
952.872	-997
952.962	-1063
953.052	-1009
953.143	-1988
953.233	-806
953.323	-1616
953.413	-2024
953.503	-1233
953.593	-819
953.683	-1728
953.773	-1330
953.863	-1447
953.953	-1474
954.042	-1054
954.132	-1020
954.222	-1022
954.312	-1941
954.402	-777
954.492	-1250
954.581	-560
954.671	-975
954.761	-1234
954.850	-752
954.940	-1896
955.030	-792
955.119	-918
955.209	-993
955.298	-752
955.388	-1038
955.477	-704
955.567	-1599
955.656	-1239
955.746	-1091
955.835	-955
955.925	-1040
956.014	-1085
956.103	-1501
956.193	-1019
956.282	-763
956.371	-596
956.461	-724
956.550	-834
956.639	-1332
956.728	-941
956.817	-1184
956.906	-1394
956.995	-84
957.085	-839
957.174	-1309
957.263	-1149
957.352	-1210
957.441	-1020
957.530	-1385
957.619	-1214
957.708	-837
957.796	-1273
957.885	-1125
957.974	-1951
958.063	-1014
958.152	-2378
958.241	-1098
958.329	-808
958.418	-1589
958.507	-1268
958.596	-678
958.684	-966
958.773	-854
958.861	-1091
958.950	-725
959.039	-924
959.127	-589
959.216	-918
959.304	-1067
959.393	-1176
959.481	-822
959.570	-355
959.658	-959
959.746	-1117
959.835	-1193
959.923	-771
960.011	-1111
960.100	-896
960.188	-1525
960.276	-1479
960.365	-2041
960.453	-1615
960.541	-1524
960.629	-1568
960.717	-1406
960.805	-1230
960.893	-679
960.981	-1541
961.069	-648
961.158	-1696
961.245	-561
961.333	-1584
961.421	-1190
961.509	-1093
961.597	-863
961.685	-936
961.773	-1114
961.861	-1071
961.949	-334
962.036	-1768
962.124	-1064
962.212	-547
962.299	-1807
962.387	-1075
962.475	-1403
962.562	-1128
962.650	-1457
962.738	-1377
962.825	-1293
962.913	-1242
963.000	-1544
963.088	-904
963.175	-1544
963.263	-1793
963.350	-492
963.438	-869
963.525	-761
963.612	-865
963.700	-1169
963.787	185
963.874	12
963.962	-967
964.049	-2019
964.136	-1124
964.223	-1619
964.310	-1708
964.398	-664
964.485	-838
964.572	-1728
964.659	-1005
964.746	-599
964.833	-1244
964.920	-707
965.007	-1888
965.094	-600
965.181	-1822
965.268	-1064
965.355	-1144
965.441	-942
965.528	-1648
965.615	-854
965.702	-1719
965.789	-1217
965.875	-2085
965.962	-1034
966.049	-2063
966.136	-1292
966.222	-1492
966.309	-1372
966.395	-1236
966.482	-834
966.569	-1864
966.655	-1851
966.742	-991
966.828	-756
966.915	-1546
967.001	-684
967.087	-1518
967.174	-1226
967.260	-1157
967.347	-1138
967.433	-775
967.519	-862
967.605	-200
967.692	-1541
967.778	-1354
967.864	-2117
967.950	-1861
968.036	-1819
968.123	-983
968.209	-1595
968.295	-1859
968.381	-236
968.467	-807
968.553	-1625
968.639	-1312
968.725	-1826
968.811	-1374
968.897	-1387
968.983	-911
969.069	-2006
969.154	-872
969.240	-478
969.326	-1196
969.412	-1049
969.497	-2013
969.583	-1548
969.669	-1237
969.755	-1443
969.840	-1067
969.926	-1717
970.012	-1691
970.097	-1300
970.183	-1409
970.268	-1259
970.354	-1007
970.439	-2396
970.525	-563
970.610	-1705
970.696	-1394
970.781	-1319
970.866	-1908
970.952	-1290
971.037	-1316
971.122	-1281
971.208	-1523
971.293	-1857
971.378	-1736
971.463	-1418
971.549	-275
971.634	-1434
971.719	-2372
971.804	-856
971.889	-979
971.974	-1263
972.059	-707
972.144	-2190
972.229	-774
972.314	-1995
972.399	-1493
972.484	-2044
972.569	-1617
972.654	-1198
972.739	-1014
972.824	-950
972.908	-1180
972.993	-1889
973.078	-1136
973.163	-1975
973.247	-1066
973.332	-1863
973.417	-671
973.501	-1386
973.586	-1351
973.671	-1075
973.755	-1674
973.840	-1347
973.924	-1500
974.009	-1109
974.093	-1324
974.178	-982
974.262	-1472
974.346	-1384
974.431	-1109
974.515	-1361
974.600	-1481
974.684	-991
974.768	-1901
974.852	-1425
974.937	-1675
975.021	-1437
975.105	-1708
975.189	-1885
975.273	-725
975.358	-1108
975.442	-1905
975.526	-756
975.610	-1769
975.694	-1462
975.778	-1370
975.862	-1523
975.946	-2070
976.030	-638
976.114	-1408
976.198	-1464
976.281	-1426
976.365	-1241
976.449	-2038
976.533	-1420
976.617	-1949
976.700	-878
976.784	-1405
976.868	-1726
976.951	-936
977.035	-1304
977.119	-1409
977.202	-1498
977.286	-1773
977.369	-1493
977.453	-1544
977.536	-1895
977.620	-1871
977.703	-1592
977.787	-1797
977.870	-290
977.953	-1002
978.037	-2034
978.120	-1331
978.203	-609
978.287	-891
978.370	-1144
978.453	-1747
978.536	-1728
978.620	-750
978.703	-1371
978.786	-1843
978.869	-1163
978.952	-1808
979.035	-866
979.118	-1674
979.201	-1520
979.284	-1343
979.367	-2082
979.450	-1271
979.533	-782
979.616	-1739
979.699	-2147
979.782	-887
979.865	-1835
979.948	-1504
980.030	-1179
980.113	-1436
980.196	-1763
980.279	-1703
980.361	-1605
980.444	-1437
980.526	-758
980.609	-1974
980.692	-1427
980.774	-1498
980.857	-2465
980.939	-1980
981.022	-1794
981.104	-1824
981.187	-1656
981.269	-734
981.352	-1511
981.434	-1926
981.516	-1596
981.599	-1384
981.681	-1080
981.763	-334
981.846	-1394
981.928	-1188
982.010	-829
982.092	-1333
982.174	-1469
982.256	-1929
982.339	-1699
982.421	-1120
982.503	-1388
982.585	-1821
982.667	-1767
982.749	-1672
982.831	-1016
982.913	-1776
982.995	-722
983.077	-2481
983.158	-1237
983.240	-1533
983.322	-860
983.404	-904
983.486	-2362
983.568	-1453
983.649	-1476
983.731	-1387
983.813	-1263
983.894	-1468
983.976	-1989
984.058	-1667
984.139	-1294
984.221	-2002
984.302	-533
984.384	-1849
984.465	-2047
984.547	-1187
984.628	-2357
984.710	-1320
984.791	-2450
984.872	-998
984.954	-1475
985.035	-1796
985.116	-1721
985.198	-1798
985.279	-1705
985.360	-1248
985.441	-1296
985.522	-1064
985.604	-920
985.685	-2585
985.766	-520
985.847	-431
985.928	-1254
986.009	-1536
986.090	-1852
986.171	-1128
986.252	-1605
986.333	-1407
986.414	-2096
986.495	-1986
986.576	-2349
986.656	-1402
986.737	-579
986.818	-1167
986.899	-1435
986.980	-2226
987.060	-617
987.141	-1512
987.222	-1484
987.302	-1214
987.383	-1204
987.464	-1720
987.544	-1438
987.625	-1554
987.705	-1515
987.786	-1915
987.866	-1753
987.947	-1475
988.027	-1021
988.108	-1850
988.188	-1248
988.268	-1396
988.349	-1362
988.429	-1785
988.509	-1145
988.589	-1199
988.670	-2819
988.750	-200
988.830	-1060
988.910	-1596
988.990	-1238
989.070	-1684
989.151	-1160
989.231	-2861
989.311	-1252
989.391	-2329
989.471	-1687
989.551	-2564
989.631	-1829
989.711	-953
989.791	-1802
989.870	-2086
989.950	-809
990.030	-1774
990.110	-1560
990.190	-2080
990.269	-811
990.349	-1338
990.429	-1382
990.509	-1084
990.588	-1771
990.668	-1532
990.747	-1124
990.827	-1561
990.907	-988
990.986	-1676
991.066	-1308
991.145	-1528
991.225	-972
991.304	-2143
991.383	-960
991.463	-1375
991.542	-780
991.622	-1828
991.701	-856
991.780	-2455
991.859	-1804
991.939	-1324
992.018	-1883
992.097	-1141
992.176	-1862
992.256	-2144
992.335	-1845
992.414	-979
992.493	-1646
992.572	-1469
992.651	-676
992.730	-993
992.809	-925
992.888	-1785
992.967	-2004
993.046	-1244
993.125	-1080
993.203	-1964
993.282	-793
993.361	-1595
993.440	-899
993.519	-1980
993.597	-1148
993.676	-1555
993.755	-1116
993.834	-570
993.912	-1894
993.991	-114
994.069	-1430
994.148	-1484
994.226	-1360
994.305	-1301
994.384	-1691
994.462	-1398
994.540	-1834
994.619	-1540
994.697	-1331
994.776	-1896
994.854	-773
994.932	-1905
995.011	-567
995.089	-1596
995.167	-2183
995.245	-1114
995.324	-1889
995.402	-997
995.480	-944
995.558	-651
995.636	-2357
995.714	-2249
995.792	-736
995.870	-1797
995.948	-884
996.026	-1076
996.104	-1689
996.182	-613
996.260	-2215
996.338	-1380
996.416	-1621
996.494	-2241
996.572	-1247
996.649	-2071
996.727	-1795
996.805	-1560
996.883	-1288
996.960	-1854
997.038	-1497
997.116	-1081
997.193	-2786
997.271	-771
997.348	-1908
997.426	-944
997.504	-1931
997.581	-1023
997.658	-985
997.736	-1423
997.813	-1832
997.891	-858
997.968	-2113
998.046	-1912
998.123	-1136
998.200	-825
998.277	-1879
998.355	-1393
998.432	-2626
998.509	-1384
998.586	-1429
998.663	-1082
998.741	-1055
998.818	-1020
998.895	-1674
998.972	-1151
999.049	-1741
999.126	-2011
999.203	-1494
999.280	-1408
999.357	-1679
999.434	-1721
999.511	-1643
999.587	-1282
999.664	-1690
999.741	-1231
999.818	-1678
999.895	-1915
999.971	-1689
1000.048	-1556
1000.125	-189
1000.202	-1182
1000.278	-1490
1000.355	-1065
1000.431	-1057
1000.508	-1970
1000.584	-1406
1000.661	-2075
1000.738	-1889
1000.814	-1612
1000.890	-1219
1000.967	-1722
1001.043	-1342
1001.120	-1846
1001.196	-1225
1001.272	-1244
1001.349	-1129
1001.425	-1197
1001.501	-1244
1001.577	-2150
1001.654	-1470
1001.730	-1913
1001.806	-2120
1001.882	-1890
1001.958	-1702
1002.034	-1111
1002.110	-1393
1002.186	-1075
1002.262	-1627
1002.338	-1905
1002.414	-1359
1002.490	-689
1002.566	-1358
1002.642	-2364
1002.718	-1178
1002.794	-2148
1002.870	-1711
1002.945	-1907
1003.021	-2077
1003.097	-1489
1003.173	-1316
1003.248	-1298
1003.324	-1529
1003.400	-1824
1003.475	-1112
1003.551	-2255
1003.626	-1159
1003.702	-1516
1003.777	-1723
1003.853	-1212
1003.928	-1540
1004.004	-1277
1004.079	-1048
1004.155	-1501
1004.230	-2471
1004.305	-478
1004.381	-1903
1004.456	-1683
1004.531	-1595
1004.607	-1148
1004.682	-1983
1004.757	-1173
1004.832	-1395
1004.907	-1482
1004.982	-1942
1005.057	-981
1005.133	-2114
1005.208	-1825
1005.283	-1611
1005.358	-891
1005.433	-1926
1005.508	-1428
1005.583	-2376
1005.657	-1739
1005.732	-714
1005.807	-1022
1005.882	-1552
1005.957	-1895
1006.032	-1666
1006.106	-1357
1006.181	-1491
1006.256	-1166
1006.331	-2222
1006.405	-1991
1006.480	-1363
1006.554	-1474
1006.629	-1435
1006.704	-2303
1006.778	-1646
1006.853	-1490
1006.927	-1434
1007.002	-1618
1007.076	-2481
1007.150	-1770
1007.225	-1893
1007.299	-1172
1007.373	-2304
1007.448	-1699
1007.522	-385
1007.596	-1536
1007.671	-1502
1007.745	-1350
1007.819	-2776
1007.893	-1757
1007.967	-1769
1008.041	-2449
1008.115	-911
1008.190	-1907
1008.264	-968
1008.338	-2405
1008.412	-1982
1008.486	-890
1008.560	-2033
1008.633	-1511
1008.707	-1755
1008.781	-1633
1008.855	-1715
1008.929	-2046
1009.003	-1582
1009.076	-1731
1009.150	-1871
1009.224	-2291
1009.298	-1071
1009.371	-2664
1009.445	-2014
1009.519	-1918
1009.592	-2223
1009.666	-1544
1009.739	-1230
1009.813	-2023
1009.886	-133
1009.960	-2097
1010.033	-1257
1010.107	-879
1010.180	-2396
1010.253	-2026
1010.327	-1819
1010.400	-1617
1010.473	-1848
1010.547	-1352
1010.620	-1757
1010.693	-1191
1010.766	-1463
1010.840	-1250
1010.913	-1812
1010.986	-1894
1011.059	-1635
1011.132	-2390
1011.205	-1653
1011.278	-1597
1011.351	-1646
1011.424	-2103
1011.497	-1737
1011.570	-1762
1011.643	-1250
1011.716	-2001
1011.789	-1523
1011.862	-1968
1011.934	-746
1012.007	-1748
1012.080	-1826
1012.153	-1650
1012.225	-984
1012.298	-1910
1012.371	-2033
1012.443	-800
1012.516	-2763
1012.588	-2096
1012.661	-2119
1012.733	-2537
1012.806	-1079
1012.879	-1451
1012.951	-1750
1013.023	-2215
1013.096	-1580
1013.168	-2075
1013.241	-661
1013.313	-1877
1013.385	-2003
1013.458	-2217
1013.530	-1725
1013.602	-1778
1013.674	-812
1013.746	-1867
1013.819	-2822
1013.891	-941
1013.963	-1779
1014.035	-2053
1014.107	-1483
1014.179	-1470
1014.251	-2285
1014.323	-1901
1014.395	-2161
1014.467	-1507
1014.539	-1057
1014.611	-2135
1014.683	-1381
1014.754	-1890
1014.826	-2850
1014.898	-1074
1014.970	-2366
1015.042	-1415
1015.113	-1664
1015.185	-1688
1015.257	-2457
1015.328	-1397
1015.400	-1832
1015.471	-2184
1015.543	-2828
1015.615	-1624
1015.686	-2502
1015.757	-2380
1015.829	-1988
1015.901	-2159
1015.972	-1937
1016.043	-2253
1016.115	-1666
1016.186	-2239
1016.257	-1450
1016.328	-2502
1016.400	-1579
1016.471	-1942
1016.542	-1468
1016.613	-2864
1016.685	-2132
1016.756	-1451
1016.827	-734
1016.898	-2280
1016.969	-1210
1017.040	-2624
1017.111	-2081
1017.182	-2575
1017.253	-1678
1017.324	-2257
1017.395	-1868
1017.466	-1892
1017.537	-1767
1017.608	-1966
1017.678	-889
1017.749	-1387
1017.820	-1539
1017.891	-1889
1017.961	-2036
1018.032	-2093
1018.103	-1496
1018.173	-2086
1018.244	-2186
1018.315	-2316
1018.385	-1542
1018.456	-2425
1018.526	-2063
1018.597	-2645
1018.667	-1767
1018.738	-1750
1018.808	-1460
1018.878	-2447
1018.949	-1599
1019.019	-2151
1019.089	-1708
1019.160	-1909
1019.230	-2365
1019.300	-1717
1019.371	-3035
1019.441	-2239
1019.511	-1819
1019.581	-2231
1019.651	-1801
1019.721	-1681
1019.791	-2039
1019.861	-2181
1019.931	-1436
1020.001	-2138
1020.071	-2091
1020.141	-1872
1020.211	-1942
1020.281	-1954
1020.351	-2221
1020.421	-1173
1020.491	-1257
1020.560	-2134
1020.630	-2095
1020.700	-1941
1020.770	-2240
1020.839	-1872
1020.909	-2500
1020.979	-2097
1021.048	-1754
1021.118	-2789
1021.187	-2524
1021.257	-1531
1021.326	-1264
1021.396	-2603
1021.465	-1259
1021.535	-2206
1021.604	-2684
1021.674	-2077
1021.743	-2374
1021.812	-2238
1021.882	-1405
1021.951	-2292
1022.020	-1903
1022.089	-1592
1022.159	-1994
1022.228	-1937
1022.297	-2422
1022.366	-1650
1022.435	-2169
1022.504	-1894
1022.573	-1682
1022.642	-1510
1022.711	-1679
1022.781	-1888
1022.849	-1935
1022.918	-2332
1022.987	-2512
1023.056	-2647
1023.125	-2389
1023.194	-1495
1023.263	-2478
1023.331	-2381
1023.400	-2608
1023.469	-2279
1023.538	-1293
1023.606	-1668
1023.675	-1984
1023.744	-2475
1023.812	-3004
1023.881	-1535
1023.949	-1784
1024.018	-2649
1024.086	-1734
1024.155	-2400
1024.223	-1895
1024.292	-2183
1024.360	-1397
1024.429	-2050
1024.497	-3014
1024.565	-2257
1024.634	-2515
1024.702	-2184
1024.770	-1849
1024.838	-2581
1024.907	-2367
1024.975	-2480
1025.043	-1824
1025.111	-2887
1025.179	-2037
1025.247	-2591
1025.315	-2656
1025.383	-1714
1025.451	-1877
1025.519	-2174
1025.587	-2065
1025.655	-2095
1025.723	-2268
1025.791	-1746
1025.859	-1503
1025.927	-1266
1025.995	-3071
1026.062	-1995
1026.130	-1289
1026.198	-2347
1026.266	-1938
1026.333	-2103
1026.401	-1995
1026.469	-1898
1026.536	-2639
1026.604	-2507
1026.671	-2569
1026.739	-1962
1026.806	-1915
1026.874	-2400
1026.941	-2242
1027.009	-2375
1027.076	-2877
1027.144	-1283
1027.211	-1584
1027.278	-2982
1027.345	-1834
1027.413	-1881
1027.480	-2113
1027.547	-2731
1027.614	-2479
1027.682	-2055
1027.749	-1823
1027.816	-2301
1027.883	-2672
1027.950	-2309
1028.017	-2160
1028.084	-1683
1028.151	-2565
1028.218	-1950
1028.285	-1818
1028.352	-2882
1028.419	-2648
1028.486	-2005
1028.553	-1351
1028.619	-1940
1028.686	-1507
1028.753	-2248
1028.820	-3041
1028.886	-2432
1028.953	-1487
1029.020	-1844
1029.086	-2808
1029.153	-2133
1029.220	-2086
1029.286	-2219
1029.353	-2397
1029.419	-2677
1029.486	-1999
1029.552	-1978
1029.619	-2564
1029.685	-2659
1029.751	-2533
1029.818	-1594
1029.884	-1738
1029.951	-1130
1030.017	-2479
1030.083	-2191
1030.149	-1860
1030.216	-2610
1030.282	-1967
1030.348	-2038
1030.414	-2565
1030.480	-2510
1030.546	-2162
1030.612	-1797
1030.678	-2892
1030.744	-2360
1030.810	-1838
1030.876	-2476
1030.942	-3180
1031.008	-2678
1031.074	-2085
1031.140	-2319
1031.206	-1727
1031.272	-2413
1031.337	-2529
1031.403	-2174
1031.469	-2909
1031.534	-2324
1031.600	-1760
1031.666	-2164
1031.731	-1554
1031.797	-2827
1031.863	-2303
1031.928	-2698
1031.994	-2284
1032.059	-2087
1032.125	-2514
1032.190	-2095
1032.256	-2413
1032.321	-1689
1032.386	-1912
1032.452	-2235
1032.517	-1389
1032.582	-2028
1032.647	-2859
1032.713	-2367
1032.778	-2204
1032.843	-2410
1032.908	-2464
1032.974	-2436
1033.039	-1612
1033.104	-2094
1033.169	-2292
1033.234	-1780
1033.299	-2075
1033.364	-2511
1033.429	-1605
1033.494	-2705
1033.559	-2066
1033.624	-2680
1033.688	-1580
1033.753	-2644
1033.818	-3049
1033.883	-2065
1033.948	-2306
1034.013	-1921
1034.077	-2016
1034.142	-1813
1034.207	-3006
1034.271	-2492
1034.336	-1757
1034.400	-1785
1034.465	-2484
1034.530	-1861
1034.594	-1972
1034.658	-2545
1034.723	-2855
1034.787	-2218
1034.852	-1767
1034.916	-2473
1034.981	-2943
1035.045	-2380
1035.109	-2015
1035.173	-2329
1035.238	-2949
1035.302	-2554
1035.366	-2210
1035.430	-2291
1035.495	-2789
1035.559	-1584
1035.623	-1951
1035.687	-2895
1035.751	-3184
1035.815	-2546
1035.879	-2368
1035.943	-2121
1036.007	-2729
1036.071	-1374
1036.135	-1986
1036.198	-2763
1036.262	-2332
1036.326	-2091
1036.390	-2541
1036.454	-1806
1036.517	-2546
1036.581	-3013
1036.645	-1953
1036.709	-1420
1036.772	-2153
1036.836	-2159
1036.900	-2201
1036.963	-2913
1037.026	-2560
1037.090	-2385
1037.154	-2194
1037.217	-2160
1037.280	-2365
1037.344	-2162
1037.407	-2737
1037.471	-1915
1037.534	-2225
1037.597	-2167
1037.661	-1996
1037.724	-2460
1037.787	-2288
1037.850	-2463
1037.913	-2649
1037.977	-2463
1038.040	-1917
1038.103	-2235
1038.166	-2922
1038.229	-2427
1038.292	-1945
1038.355	-1719
1038.418	-2389
1038.481	-2657
1038.544	-2581
1038.607	-1867
1038.670	-2336
1038.732	-2881
1038.795	-2199
1038.858	-2573
1038.921	-2185
1038.984	-1811
1039.046	-3089
1039.109	-2426
1039.172	-2337
1039.234	-2268
1039.297	-2401
1039.360	-2492
1039.422	-2574
1039.485	-2913
1039.547	-1923
1039.610	-1931
1039.672	-2918
1039.734	-2970
1039.797	-2142
1039.859	-2227
1039.922	-2648
1039.984	-2707
1040.046	-2821
1040.109	-1965
1040.171	-2378
1040.233	-2054
1040.295	-2760
1040.358	-2673
1040.420	-2632
1040.482	-1966
1040.544	-2864
1040.606	-2636
1040.668	-2427
1040.730	-3208
1040.792	-3292
1040.854	-2329
1040.916	-2033
1040.978	-2264
1041.040	-1463
1041.102	-2106
1041.164	-2531
1041.225	-2588
1041.287	-2472
1041.349	-2384
1041.411	-2628
1041.472	-1714
1041.534	-2069
1041.596	-3166
1041.657	-2075
1041.719	-2400
1041.781	-2792
1041.842	-2975
1041.904	-2731
1041.965	-2233
1042.027	-2075
1042.088	-1645
1042.150	-2764
1042.211	-1939
1042.272	-2919
1042.334	-2281
1042.395	-2380
1042.456	-2954
1042.518	-2387
1042.579	-2440
1042.640	-2576
1042.701	-2974
1042.763	-2138
1042.824	-2541
1042.885	-2667
1042.946	-2261
1043.007	-2569
1043.068	-2056
1043.129	-2298
1043.190	-2109
1043.251	-1503
1043.312	-2630
1043.373	-2312
1043.434	-2003
1043.495	-1347
1043.556	-2253
1043.616	-2190
1043.677	-1754
1043.738	-2185
1043.799	-1882
1043.859	-2526
1043.920	-3015
1043.981	-2192
1044.041	-1738
1044.102	-2286
1044.162	-1910
1044.223	-2489
1044.284	-2206
1044.344	-1884
1044.405	-2708
1044.465	-2023
1044.525	-2733
1044.586	-1543
1044.646	-2489
1044.707	-1007
1044.767	-2881
1044.827	-2115
1044.887	-1918
1044.948	-2331
1045.008	-2182
1045.068	-2332
1045.128	-2431
1045.188	-2058
1045.249	-1909
1045.309	-1430
1045.369	-2207
1045.429	-2307
1045.489	-2157
1045.549	-2685
1045.609	-1665
1045.669	-2536
1045.729	-2356
1045.789	-2837
1045.848	-1732
1045.908	-2349
1045.968	-1495
1046.028	-2492
1046.088	-1541
1046.147	-1730
1046.207	-1890
1046.267	-1674
1046.326	-2142
1046.386	-1232
1046.446	-1819
1046.505	-1084
1046.565	-1452
1046.624	-967
1046.684	-2010
1046.743	-468
1046.803	-570
1046.862	-1194
1046.922	0
