'Start Wavelength	183.907
'End Wavelength	1046.922
'Gate Delay	5.000
'Gate Width (ms)	1.050
'Laser Output Level	0.000
'X Position	0.000
'Y Position	0.000
'Z Position	0.000
'Grid Point Number	1.000
'Shot Number	100.000
183.907	-145.000
183.977	-790.000
184.047	144
184.116	87
184.186	285
184.256	354
184.325	-536
184.395	-630
184.465	-15
184.534	64
184.604	-207
184.674	151
184.743	-491
184.813	259
184.883	123
184.952	-209
185.022	220
185.092	61
185.161	-498
185.231	170
185.301	-70
185.370	325
185.440	154
185.509	547
185.579	-174
185.649	360
185.718	305
185.788	442
185.857	137
185.927	129
185.996	-237
186.066	-20
186.136	-313
186.205	24
186.275	55
186.344	-38
186.414	428
186.483	164
186.553	133
186.622	278
186.692	257
186.761	-414
186.831	-39
186.900	-31
186.970	154
187.039	257
187.109	-197
187.178	-134
187.248	450
187.317	78
187.387	-333
187.456	-170
187.526	411
187.595	-355
187.664	40
187.734	597
187.803	-485
187.873	85
187.942	-24
188.012	-299
188.081	225
188.150	-270
188.220	147
188.289	153
188.358	103
188.428	-72
188.497	-40
188.567	-294
188.636	272
188.705	186
188.775	97
188.844	331
188.913	459
188.983	296
189.052	-159
189.121	32
189.191	-428
189.260	486
189.329	98
189.399	653
189.468	213
189.537	-198
189.606	-740
189.676	104
189.745	620
189.814	126
189.883	197
189.953	443
190.022	131
190.091	217
190.161	648
190.230	418
190.299	225
190.368	-331
190.437	235
190.507	-841
190.576	-690
190.645	-151
190.714	914
190.783	-381
190.853	170
190.922	421
190.991	315
191.060	696
191.129	75
191.198	679
191.268	-206
191.337	208
191.406	83
191.475	329
191.544	-117
191.613	558
191.682	-469
191.752	-131
191.821	-334
191.890	-153
191.959	557
192.028	68
192.097	317
192.166	334
192.235	-15
192.304	273
192.373	-399
192.442	-505
192.511	-162
192.580	10
192.650	270
192.719	-198
192.788	656
192.857	11
192.926	444
192.995	443
193.064	253
193.133	-465
193.202	542
193.271	208
193.340	-160
193.409	158
193.478	218
193.547	838
193.615	198
193.684	857
193.753	-225
193.822	1130
193.891	-191
193.960	-92
194.029	17
194.098	-443
194.167	-913
194.236	-88
194.305	-168
194.374	-41
194.443	152
194.512	-615
194.580	710
194.649	549
194.718	-449
194.787	-339
194.856	-303
194.925	324
194.994	-384
195.062	504
195.131	-548
195.200	-41
195.269	-821
195.338	372
195.407	168
195.475	-785
195.544	55
195.613	-460
195.682	-7
195.751	253
195.819	-545
195.888	-360
195.957	774
196.026	135
196.094	303
196.163	-223
196.232	416
196.301	243
196.369	154
196.438	287
196.507	355
196.576	437
196.644	-390
196.713	-253
196.782	-427
196.850	218
196.919	99
196.988	88
197.056	269
197.125	-328
197.194	224
197.262	102
197.331	-193
197.400	11
197.468	-677
197.537	-574
197.606	743
197.674	825
197.743	429
197.812	66
197.880	-203
197.949	49
198.017	-58
198.086	145
198.155	201
198.223	262
198.292	440
198.360	458
198.429	-402
198.497	-109
198.566	825
198.635	427
198.703	392
198.772	405
198.840	223
198.909	171
198.977	-15
199.046	103
199.114	124
199.183	796
199.251	181
199.320	-611
199.388	552
199.457	-224
199.525	-218
199.594	-10
199.662	82
199.731	-112
199.799	-217
199.867	679
199.936	-6
200.004	547
200.073	-97
200.141	-361
200.210	581
200.278	-240
200.346	-258
200.415	-231
200.483	-138
200.552	162
200.620	109
200.688	-27
200.757	-296
200.825	699
200.893	240
200.962	-161
201.030	-373
201.098	-58
201.167	562
201.235	-94
201.303	-607
201.372	-345
201.440	-26
201.508	1326
201.577	266
201.645	175
201.713	268
201.781	-281
201.850	233
201.918	154
201.986	-246
202.055	-102
202.123	242
202.191	-1
202.259	400
202.327	588
202.396	183
202.464	-171
202.532	-216
202.600	928
202.669	-225
202.737	-5
202.805	-581
202.873	-479
202.941	506
203.009	-243
203.078	-163
203.146	595
203.214	-78
203.282	-867
203.350	242
203.418	-566
203.487	343
203.555	67
203.623	-512
203.691	-169
203.759	-222
203.827	44
203.895	-162
203.963	-421
204.031	126
204.099	-267
204.168	-156
204.236	19
204.304	-145
204.372	44
204.440	649
204.508	-572
204.576	-744
204.644	397
204.712	-33
204.780	522
204.848	-83
204.916	296
204.984	-268
205.052	111
205.120	-916
205.188	-6
205.256	-235
205.324	776
205.392	-449
205.460	393
205.528	-186
205.596	-163
205.664	-243
205.732	73
205.799	80
205.867	1372
205.935	32
206.003	289
206.071	-120
206.139	-112
206.207	-53
206.275	-678
206.343	-588
206.411	239
206.478	462
206.546	-432
206.614	206
206.682	676
206.750	-88
206.818	-296
206.885	535
206.953	-614
207.021	886
207.089	434
207.157	-418
207.225	-123
207.292	207
207.360	-253
207.428	-361
207.496	63
207.563	306
207.631	392
207.699	-308
207.767	0
207.834	170
207.902	-318
207.970	4
208.038	-786
208.105	-231
208.173	154
208.241	-136
208.309	-210
208.376	-3
208.444	916
208.512	60
208.579	1
208.647	464
208.715	151
208.782	303
208.850	461
208.918	248
208.985	-320
209.053	983
209.120	385
209.188	-565
209.256	208
209.323	-102
209.391	326
209.459	970
209.526	354
209.594	161
209.661	-360
209.729	384
209.796	493
209.864	-81
209.932	-268
209.999	394
210.067	152
210.134	-202
210.202	31
210.269	12
210.337	47
210.404	-127
210.472	225
210.539	160
210.607	-75
210.674	177
210.742	-105
210.809	79
210.877	-165
210.944	424
211.012	-666
211.079	1369
211.146	-48
211.214	620
211.281	38
211.349	175
211.416	198
211.484	-457
211.551	653
211.618	630
211.686	409
211.753	56
211.821	73
211.888	-364
211.955	-171
212.023	-701
212.090	-152
212.157	-424
212.225	105
212.292	154
212.359	1432
212.427	3147
212.494	715
212.561	462
212.629	376
212.696	376
212.763	323
212.831	567
212.898	-2
212.965	519
213.032	136
213.100	-138
213.167	-306
213.234	475
213.301	651
213.369	59
213.436	-313
213.503	-626
213.570	310
213.638	517
213.705	-300
213.772	134
213.839	-226
213.906	96
213.973	177
214.041	-210
214.108	409
214.175	-209
214.242	-27
214.309	371
214.376	536
214.444	510
214.511	689
214.578	446
214.645	717
214.712	329
214.779	321
214.846	-873
214.913	692
214.980	163
215.048	683
215.115	54
215.182	622
215.249	160
215.316	585
215.383	334
215.450	201
215.517	16
215.584	55
215.651	176
215.718	-241
215.785	102
215.852	-479
215.919	-19
215.986	582
216.053	756
216.120	-135
216.187	-20
216.254	-399
216.321	236
216.388	525
216.455	132
216.522	506
216.589	670
216.656	763
216.722	891
216.789	299
216.856	524
216.923	301
216.990	259
217.057	-51
217.124	409
217.191	855
217.258	955
217.324	1229
217.391	1196
217.458	712
217.525	349
217.592	980
217.659	-172
217.725	693
217.792	551
217.859	773
217.926	-397
217.993	-42
218.059	111
218.126	103
218.193	217
218.260	-423
218.327	-649
218.393	-446
218.460	-120
218.527	-205
218.594	180
218.660	1120
218.727	1020
218.794	-336
218.860	193
218.927	211
218.994	-734
219.061	-366
219.127	304
219.194	414
219.261	-453
219.327	607
219.394	32
219.461	-137
219.527	54
219.594	-578
219.661	153
219.727	184
219.794	478
219.860	-525
219.927	551
219.994	922
220.060	686
220.127	736
220.193	863
220.260	198
220.326	829
220.393	1353
220.460	1922
220.526	829
220.593	265
220.659	890
220.726	911
220.792	1545
220.859	1988
220.925	3096
220.992	3137
221.058	2978
221.125	2516
221.191	1484
221.258	796
221.324	4
221.391	319
221.457	-164
221.524	389
221.590	-291
221.657	251
221.723	628
221.789	881
221.856	1026
221.922	-464
221.989	402
222.055	400
222.121	-440
222.188	956
222.254	252
222.321	-326
222.387	-275
222.453	-640
222.520	408
222.586	-22
222.652	-17
222.719	-818
222.785	-486
222.851	679
222.918	534
222.984	-167
223.050	132
223.116	-1255
223.183	625
223.249	-412
223.315	-297
223.382	-324
223.448	79
223.514	68
223.580	-526
223.647	26
223.713	-16
223.779	84
223.845	-363
223.911	-344
223.978	-1150
224.044	145
224.110	-819
224.176	-134
224.242	-28
224.309	-1046
224.375	238
224.441	-143
224.507	-511
224.573	-985
224.639	220
224.705	-868
224.772	-586
224.838	-527
224.904	337
224.970	-403
225.036	-328
225.102	-295
225.168	324
225.234	282
225.300	55
225.366	-378
225.432	130
225.499	-130
225.565	305
225.631	-118
225.697	319
225.763	-179
225.829	350
225.895	121
225.961	865
226.027	299
226.093	-413
226.159	759
226.225	1447
226.291	3407
226.357	5959
226.423	2595
226.489	1159
226.554	388
226.620	1311
226.686	1342
226.752	1300
226.818	2698
226.884	7502
226.950	5769
227.016	1417
227.082	1612
227.148	1001
227.214	202
227.279	160
227.345	798
227.411	544
227.477	1253
227.543	1452
227.609	1184
227.674	1476
227.740	34
227.806	-34
227.872	-20
227.938	-376
228.003	569
228.069	170
228.135	-607
228.201	-432
228.267	-589
228.332	260
228.398	-487
228.464	-159
228.530	-276
228.595	206
228.661	-393
228.727	-262
228.792	425
228.858	-82
228.924	-493
228.990	638
229.055	-988
229.121	7
229.187	-440
229.252	-374
229.318	-726
229.384	-120
229.449	-819
229.515	-1004
229.581	-1021
229.646	273
229.712	-555
229.777	-103
229.843	413
229.909	116
229.974	1434
230.040	309
230.105	-352
230.171	-648
230.236	467
230.302	-65
230.368	451
230.433	51
230.499	254
230.564	1148
230.630	-238
230.695	-394
230.761	-213
230.826	-1072
230.892	931
230.957	-50
231.023	-587
231.088	660
231.154	-335
231.219	712
231.284	-136
231.350	397
231.415	449
231.481	-124
231.546	292
231.612	-94
231.677	234
231.742	-617
231.808	49
231.873	-232
231.939	-1119
232.004	649
232.069	139
232.135	-652
232.200	315
232.265	-312
232.331	-669
232.396	-581
232.461	-939
232.527	-473
232.592	-565
232.657	-495
232.723	264
232.788	-696
232.853	5
232.918	252
232.984	-871
233.049	-221
233.114	86
233.179	-733
233.245	691
233.310	446
233.375	-738
233.440	-6
233.506	75
233.571	-431
233.636	-430
233.701	-531
233.766	203
233.832	96
233.897	-185
233.962	-36
234.027	580
234.092	-50
234.157	241
234.222	-289
234.288	254
234.353	2356
234.418	2553
234.483	1392
234.548	516
234.613	-4
234.678	-548
234.743	-120
234.808	3085
234.873	577
234.938	1013
235.004	-129
235.069	404
235.134	-916
235.199	80
235.264	652
235.329	-536
235.394	17
235.459	816
235.524	-377
235.589	-161
235.654	-261
235.719	-604
235.784	257
235.849	334
235.913	660
235.978	1610
236.043	897
236.108	-224
236.173	-568
236.238	649
236.303	-299
236.368	-359
236.433	276
236.498	1133
236.563	769
236.627	2443
236.692	8796
236.757	5308
236.822	2495
236.887	1702
236.952	1851
237.017	418
237.081	1335
237.146	763
237.211	4498
237.276	8553
237.341	12314
237.405	4813
237.470	1873
237.535	1188
237.600	550
237.664	612
237.729	419
237.794	635
237.859	2355
237.923	1158
237.988	674
238.053	887
238.118	1505
238.182	2891
238.247	2504
238.312	-100
238.376	219
238.441	189
238.506	1439
238.570	-1590
238.635	76
238.700	-400
238.764	-457
238.829	1021
238.893	842
238.958	460
239.023	-717
239.087	365
239.152	-95
239.216	13
239.281	149
239.346	-259
239.410	179
239.475	-76
239.539	3505
239.604	1521
239.668	583
239.733	185
239.797	684
239.862	2599
239.926	2279
239.991	847
240.055	-29
240.120	-115
240.184	837
240.249	-613
240.313	36
240.378	-247
240.442	1392
240.507	2339
240.571	-21
240.635	800
240.700	874
240.764	448
240.829	32
240.893	-1387
240.957	-200
241.022	2164
241.086	2771
241.151	-10
241.215	-701
241.279	1018
241.344	446
241.408	241
241.472	-660
241.537	908
241.601	630
241.665	-8
241.730	-307
241.794	32
241.858	607
241.922	165
241.987	444
242.051	-448
242.115	-535
242.179	-113
242.244	-452
242.308	261
242.372	596
242.436	-604
242.501	496
242.565	-708
242.629	25
242.693	-177
242.757	-752
242.822	-10
242.886	-336
242.950	718
243.014	-311
243.078	-88
243.142	133
243.206	70
243.271	19
243.335	-164
243.399	1278
243.463	3403
243.527	8946
243.591	2397
243.655	1462
243.719	-240
243.783	999
243.847	1186
243.911	1069
243.975	1488
244.040	427
244.104	1327
244.168	-58
244.232	333
244.296	1401
244.360	992
244.424	-395
244.488	636
244.552	-327
244.615	-1241
244.679	743
244.743	315
244.807	-934
244.871	-64
244.935	-26
244.999	-913
245.063	-779
245.127	1024
245.191	650
245.255	230
245.319	189
245.383	-1157
245.446	507
245.510	-918
245.574	-726
245.638	182
245.702	-278
245.766	2036
245.829	304
245.893	-939
245.957	-159
246.021	790
246.085	11
246.149	200
246.212	2689
246.276	2517
246.340	279
246.404	943
246.467	767
246.531	438
246.595	1245
246.659	563
246.722	-103
246.786	533
246.850	717
246.913	861
246.977	-1079
247.041	127
247.104	-230
247.168	1070
247.232	2022
247.295	4207
247.359	1147
247.423	-108
247.486	1204
247.550	973
247.614	1125
247.677	1232
247.741	337
247.804	-104
247.868	502
247.932	2149
247.995	4272
248.059	-18
248.122	-179
248.186	1790
248.249	1540
248.313	7718
248.376	7102
248.440	3644
248.503	-145
248.567	1897
248.630	2181
248.694	2679
248.757	4639
248.821	7480
248.884	4297
248.948	2962
249.011	5799
249.075	8282
249.138	6884
249.202	2273
249.265	1636
249.328	2406
249.392	648
249.455	1146
249.519	-436
249.582	684
249.645	2780
249.709	159
249.772	938
249.835	546
249.899	359
249.962	1091
250.025	-341
250.089	2804
250.152	3560
250.215	721
250.279	1058
250.342	1219
250.405	907
250.468	97
250.532	940
250.595	1998
250.658	9434
250.721	13820
250.785	3555
250.848	3208
250.911	1086
250.974	670
251.038	2040
251.101	3587
251.164	928
251.227	1866
251.290	900
251.354	3117
251.417	13077
251.480	10211
251.543	8259
251.606	24590
251.669	14732
251.732	5497
251.795	5386
251.859	6343
251.922	15527
251.985	7647
252.048	3231
252.111	1656
252.174	1271
252.237	4678
252.300	9106
252.363	9929
252.426	19524
252.489	6535
252.552	4198
252.615	1882
252.678	3101
252.741	6493
252.804	8731
252.867	18705
252.930	11024
252.993	5247
253.056	4151
253.119	1792
253.182	1886
253.245	1993
253.308	3326
253.371	1105
253.434	2098
253.497	2065
253.559	4430
253.622	2145
253.685	3718
253.748	3440
253.811	1646
253.874	2037
253.937	1123
254.000	1528
254.062	3204
254.125	4031
254.188	6171
254.251	2800
254.314	563
254.376	2770
254.439	3112
254.502	2728
254.565	2995
254.628	4360
254.690	2820
254.753	1223
254.816	795
254.878	901
254.941	3591
255.004	2231
255.067	879
255.129	520
255.192	203
255.255	-911
255.317	1349
255.380	-146
255.443	27
255.505	-212
255.568	-295
255.631	-104
255.693	198
255.756	-577
255.819	752
255.881	-759
255.944	-225
256.006	-714
256.069	-50
256.132	-36
256.194	447
256.257	1827
256.319	1982
256.382	620
256.444	704
256.507	423
256.569	-400
256.632	4
256.694	471
256.757	6095
256.819	13552
256.882	4847
256.944	2329
257.007	2195
257.069	1042
257.132	454
257.194	666
257.257	-519
257.319	-142
257.381	-452
257.444	4983
257.506	17379
257.569	16315
257.631	9059
257.693	3686
257.756	1143
257.818	1189
257.880	265
257.943	1292
258.005	4
258.067	244
258.130	55
258.192	532
258.254	1136
258.317	6
258.379	895
258.441	2001
258.503	2273
258.566	3227
258.628	3495
258.690	-498
258.753	468
258.815	1662
258.877	-223
258.939	437
259.001	836
259.064	419
259.126	868
259.188	172
259.250	783
259.312	409
259.375	4693
259.437	1755
259.499	567
259.561	530
259.623	416
259.685	-247
259.747	369
259.809	3283
259.872	5993
259.934	10216
259.996	8534
260.058	2163
260.120	-165
260.182	461
260.244	45
260.306	165
260.368	400
260.430	-602
260.492	1239
260.554	5206
260.616	1804
260.678	5217
260.740	4487
260.802	684
260.864	1034
260.926	-577
260.988	585
261.050	230
261.112	3197
261.174	8785
261.236	3480
261.298	663
261.359	2847
261.421	3218
261.483	185
261.545	389
261.607	-928
261.669	-366
261.731	1491
261.793	3379
261.854	616
261.916	986
261.978	150
262.040	398
262.102	265
262.164	520
262.225	339
262.287	-140
262.349	1363
262.411	1986
262.472	890
262.534	1536
262.596	2386
262.658	584
262.719	-838
262.781	432
262.843	2328
262.904	1384
262.966	-404
263.028	713
263.090	7308
263.151	15829
263.213	3900
263.275	2689
263.336	451
263.398	990
263.459	-663
263.521	-42
263.583	1633
263.644	691
263.706	-435
263.767	-669
263.829	-220
263.891	-783
263.952	-592
264.014	-562
264.075	908
264.137	3656
264.198	732
264.260	-600
264.321	550
264.383	2313
264.444	6060
264.506	485
264.567	-197
264.629	1987
264.690	4218
264.752	920
264.813	102
264.875	-733
264.936	1325
264.998	-668
265.059	-265
265.120	-64
265.182	951
265.243	8574
265.305	7435
265.366	960
265.427	23
265.489	612
265.550	-1250
265.611	264
265.673	-384
265.734	-909
265.795	478
265.857	-329
265.918	-1128
265.979	2261
266.040	13697
266.102	8427
266.163	2513
266.224	1769
266.286	253
266.347	-336
266.408	196
266.469	439
266.530	-941
266.592	-641
266.653	1733
266.714	2057
266.775	-155
266.836	39
266.898	-522
266.959	319
267.020	728
267.081	-35
267.142	-80
267.203	-283
267.264	-1151
267.326	-381
267.387	-404
267.448	-939
267.509	-90
267.570	-454
267.631	-1386
267.692	-1599
267.753	-973
267.814	-1048
267.875	1221
267.936	3559
267.997	588
268.058	366
268.119	4
268.180	-64
268.241	-1235
268.302	-166
268.363	-901
268.424	-7
268.485	-311
268.546	-1041
268.607	316
268.668	-175
268.729	-955
268.790	-728
268.851	235
268.912	756
268.972	1665
269.033	-159
269.094	-337
269.155	-206
269.216	-1174
269.277	388
269.338	-310
269.398	-519
269.459	-1341
269.520	574
269.581	341
269.642	864
269.702	-365
269.763	-100
269.824	-499
269.885	436
269.945	683
270.006	-602
270.067	-576
270.128	-470
270.188	-580
270.249	-1175
270.310	-1013
270.370	454
270.431	-255
270.492	-595
270.553	-123
270.613	709
270.674	3034
270.734	-375
270.795	-19
270.856	1108
270.916	-886
270.977	213
271.038	521
271.098	-451
271.159	361
271.219	203
271.280	153
271.340	-605
271.401	-504
271.462	1563
271.522	232
271.583	-201
271.643	165
271.704	-434
271.764	176
271.825	1266
271.885	8009
271.946	7836
272.006	1935
272.066	3688
272.127	7054
272.187	1654
272.248	605
272.308	980
272.369	5073
272.429	2085
272.489	1514
272.550	1404
272.610	2500
272.671	824
272.731	1341
272.791	2152
272.852	-265
272.912	561
272.972	-550
273.033	218
273.093	113
273.153	771
273.214	551
273.274	6
273.334	4623
273.394	6953
273.455	1632
273.515	3009
273.575	6289
273.635	1074
273.696	3127
273.756	5788
273.816	808
273.876	939
273.936	3857
273.997	4822
274.057	359
274.117	-74
274.177	1435
274.237	10426
274.297	7094
274.358	3967
274.418	6026
274.478	3845
274.538	523
274.598	213
274.658	5412
274.718	5770
274.778	2070
274.838	438
274.898	2258
274.958	8060
275.018	7382
275.078	2849
275.138	1878
275.198	-826
275.258	-291
275.318	452
275.378	1144
275.438	989
275.498	669
275.558	3707
275.618	8624
275.678	3766
275.738	2918
275.798	1779
275.858	700
275.918	-227
275.978	209
276.038	-205
276.098	-269
276.157	1148
276.217	5318
276.277	1430
276.337	1068
276.397	-551
276.457	-104
276.517	664
276.576	-566
276.636	122
276.696	70
276.756	2840
276.815	1683
276.875	-941
276.935	317
276.995	-141
277.055	-229
277.114	-599
277.174	1072
277.234	3489
277.293	734
277.353	-337
277.413	-2
277.472	635
277.532	-389
277.592	493
277.651	2222
277.711	3943
277.771	1078
277.830	7658
277.890	4367
277.950	4504
278.009	11156
278.069	2846
278.128	4217
278.188	5155
278.248	2209
278.307	5204
278.367	2472
278.426	320
278.486	463
278.545	-986
278.605	49
278.664	-469
278.724	501
278.783	3141
278.843	6762
278.902	577
278.962	-683
279.021	-402
279.081	671
279.140	504
279.199	-552
279.259	-54
279.318	-396
279.378	951
279.437	3375
279.496	12989
279.556	34775
279.615	21347
279.675	4549
279.734	2975
279.793	6251
279.853	8672
279.912	2777
279.971	1776
280.031	439
280.090	3802
280.149	6105
280.208	4572
280.268	25842
280.327	20312
280.386	4362
280.445	3455
280.505	3038
280.564	923
280.623	784
280.682	2561
280.742	3219
280.801	255
280.860	-346
280.919	780
280.978	-508
281.037	-318
281.097	-332
281.156	-31
281.215	-226
281.274	831
281.333	5041
281.392	2323
281.451	361
281.510	111
281.569	-486
281.628	-323
281.688	-476
281.747	87
281.806	-750
281.865	-209
281.924	-1145
281.983	-701
282.042	-336
282.101	-225
282.160	-1
282.219	-965
282.278	-153
282.337	2488
282.396	1052
282.454	359
282.513	818
282.572	5217
282.631	1782
282.690	-249
282.749	-162
282.808	568
282.867	-345
282.926	136
282.985	-221
283.043	-629
283.102	-809
283.161	447
283.220	1538
283.279	4675
283.338	665
283.396	32
283.455	18
283.514	173
283.573	916
283.631	639
283.690	461
283.749	-196
283.808	1136
283.866	1117
283.925	-293
283.984	299
284.043	-81
284.101	330
284.160	-132
284.219	412
284.277	51
284.336	750
284.395	5477
284.453	3418
284.512	1085
284.570	1300
284.629	30
284.688	166
284.746	-515
284.805	298
284.863	1180
284.922	2115
284.981	1708
285.039	3348
285.098	7569
285.156	19956
285.215	39803
285.273	36091
285.332	17892
285.390	9187
285.449	5537
285.507	3875
285.566	3423
285.624	1354
285.683	1257
285.741	343
285.799	-81
285.858	233
285.916	-248
285.975	149
286.033	-571
286.091	-162
286.150	-62
286.208	242
286.267	154
286.325	68
286.383	1146
286.442	648
286.500	345
286.558	-42
286.616	-206
286.675	-284
286.733	208
286.791	-1265
286.850	480
286.908	1171
286.966	2286
287.024	346
287.083	-217
287.141	-432
287.199	-57
287.257	-186
287.315	-456
287.374	180
287.432	1733
287.490	53
287.548	-56
287.606	-632
287.664	166
287.723	354
287.781	891
287.839	156
287.897	218
287.955	-179
288.013	1076
288.071	3681
288.129	20642
288.187	47761
288.245	17371
288.303	4046
288.361	3238
288.419	1728
288.477	1699
288.535	317
288.593	248
288.651	197
288.709	-1135
288.767	-319
288.825	-304
288.883	239
288.941	-281
288.999	-52
289.057	-85
289.115	-510
289.173	-178
289.231	118
289.289	-766
289.346	359
289.404	-319
289.462	1513
289.520	-306
289.578	-648
289.636	-373
289.694	-995
289.751	-833
289.809	-439
289.867	-352
289.925	-410
289.983	72
290.040	141
290.098	-733
290.156	-474
290.214	202
290.271	-268
290.329	-590
290.387	-551
290.444	-244
290.502	-1023
290.560	-462
290.617	-817
290.675	473
290.733	-957
290.790	-555
290.848	-767
290.906	192
290.963	303
291.021	-1001
291.078	-146
291.136	-401
291.194	2559
291.251	5183
291.309	855
291.366	-9
291.424	-260
291.481	-319
291.539	-325
291.596	-864
291.654	-399
291.711	-528
291.769	67
291.826	425
291.884	907
291.941	-1252
291.999	-445
292.056	-260
292.114	-1234
292.171	-373
292.228	348
292.286	-650
292.343	594
292.401	1242
292.458	108
292.515	-205
292.573	758
292.630	270
292.687	73
292.745	48
292.802	490
292.859	4094
292.917	5162
292.974	1921
293.031	589
293.089	-188
293.146	-591
293.203	27
293.260	-602
293.318	-219
293.375	1166
293.432	148
293.489	-586
293.546	-242
293.604	-219
293.661	2724
293.718	8444
293.775	4203
293.832	1272
293.889	556
293.947	1052
294.004	588
294.061	598
294.118	1835
294.175	5828
294.232	8319
294.289	2305
294.346	630
294.403	254
294.460	600
294.517	706
294.574	80
294.631	503
294.688	180
294.745	2813
294.802	11246
294.859	12153
294.916	4526
294.973	1818
295.030	1352
295.087	262
295.144	1118
295.201	447
295.258	-224
295.315	518
295.372	3795
295.429	6058
295.486	2385
295.542	1968
295.599	6336
295.656	10657
295.713	5971
295.770	6732
295.827	1812
295.883	759
295.940	570
295.997	2093
296.054	1593
296.111	561
296.167	213
296.224	-1300
296.281	-329
296.338	164
296.394	-140
296.451	393
296.508	2780
296.564	5824
296.621	3538
296.678	7974
296.734	9607
296.791	3275
296.848	2150
296.904	2332
296.961	4813
297.018	7802
297.074	4565
297.131	1620
297.187	1000
297.244	2605
297.301	8226
297.357	11753
297.414	3254
297.470	1061
297.527	770
297.583	195
297.640	456
297.696	-440
297.753	54
297.809	36
297.866	-639
297.922	-400
297.979	-59
298.035	-305
298.092	762
298.148	3845
298.204	3180
298.261	2114
298.317	3579
298.374	9377
298.430	4712
298.486	1938
298.543	682
298.599	1351
298.656	1255
298.712	2699
298.768	6337
298.824	3589
298.881	547
298.937	752
298.993	493
299.050	574
299.106	865
299.162	230
299.218	121
299.275	-122
299.331	692
299.387	2170
299.443	8065
299.500	8992
299.556	3390
299.612	1403
299.668	1302
299.724	2953
299.780	1875
299.837	1259
299.893	2307
299.949	7737
300.005	8450
300.061	7590
300.117	11778
300.173	4741
300.229	1760
300.285	2257
300.341	2529
300.397	1351
300.453	469
300.510	-115
300.566	392
300.622	1687
300.678	5617
300.734	9996
300.790	7508
300.845	8732
300.901	5178
300.957	8777
301.013	5136
301.069	1047
301.125	1610
301.181	756
301.237	255
301.293	-19
301.349	157
301.405	-275
301.461	-360
301.516	-407
301.572	280
301.628	2049
301.684	614
301.740	3380
301.796	4373
301.851	2192
301.907	4532
301.963	5166
302.019	8447
302.074	22095
302.130	19462
302.186	8159
302.242	4184
302.297	1867
302.353	1641
302.409	4924
302.464	3634
302.520	3085
302.576	8247
302.631	9150
302.687	3791
302.743	1170
302.798	949
302.854	473
302.910	1861
302.965	916
303.021	2838
303.076	2666
303.132	3374
303.187	3617
303.243	2011
303.299	191
303.354	-342
303.410	782
303.465	933
303.521	-15
303.576	398
303.632	860
303.687	985
303.743	6396
303.798	5253
303.853	1954
303.909	232
303.964	697
304.020	1559
304.075	2868
304.130	2507
304.186	4531
304.241	5195
304.297	3797
304.352	1478
304.358	1330
304.407	127
304.449	896
304.463	1156
304.518	656
304.539	831
304.573	1106
304.629	1456
304.630	1466
304.684	1918
304.720	4192
304.739	5358
304.794	8171
304.811	6952
304.850	3880
304.902	1497
304.905	1351
304.960	410
304.992	628
305.015	777
305.071	482
305.083	423
305.126	261
305.173	63
305.181	35
305.236	-181
305.264	322
305.292	790
305.347	397
305.354	474
305.402	965
305.445	1474
305.457	1644
305.512	1156
305.535	1493
305.567	1910
305.622	1577
305.626	1697
305.678	4416
305.716	8140
305.733	9418
305.788	9848
305.807	8711
305.843	6550
305.897	7992
305.898	8010
305.953	7650
305.988	5445
306.008	4159
306.063	2771
306.078	2493
306.118	1977
306.168	965
306.173	890
306.228	1000
306.259	635
306.283	301
306.338	291
306.349	194
306.393	55
306.440	1100
306.448	1248
306.503	955
306.530	1114
306.558	2042
306.613	6093
306.620	6498
306.668	8658
306.711	10680
306.723	10706
306.778	7333
306.801	5585
306.833	3588
306.888	2031
306.892	1899
306.943	1181
306.982	1240
306.997	1254
307.052	1217
307.072	986
307.107	1018
307.162	2704
307.163	2720
307.217	4729
307.253	5227
307.272	5225
307.327	6112
307.343	5751
307.381	4364
307.434	2626
307.436	2737
307.491	7775
307.524	11507
307.546	12133
307.600	10967
307.614	9795
307.655	5764
307.704	3149
307.710	3152
307.765	3197
307.795	4231
307.819	5942
307.874	11101
307.885	11360
307.929	8362
307.975	5500
307.984	5553
308.038	7337
308.065	8768
308.093	14089
308.148	29030
308.156	32087
308.202	51418
308.246	63353
308.257	61019
308.312	34812
308.336	24908
308.366	19459
308.421	11914
308.426	11248
308.475	7270
308.517	5207
308.530	5033
308.585	3808
308.607	3722
308.639	3695
308.694	3612
308.697	3660
308.748	8777
308.787	13558
308.803	13495
308.857	10036
308.877	8724
308.912	7174
308.967	5445
308.967	5421
309.021	7397
309.058	9191
309.076	11656
309.130	20303
309.148	23821
309.185	40739
309.238	69762
309.239	70109
309.293	79129
309.328	77220
309.348	66710
309.402	34589
309.418	26207
309.457	18944
309.508	11434
309.511	11243
309.566	9068
309.598	8276
309.620	9032
309.674	10792
309.688	11466
309.729	11266
309.778	9878
309.783	9690
309.837	7242
309.868	6227
309.892	7713
309.946	11743
309.959	12933
310.001	18660
310.049	24008
310.055	23146
310.109	13520
310.139	8287
310.163	6656
310.218	3753
310.229	3223
310.272	3087
310.319	3009
310.326	2973
310.381	2662
310.409	2637
310.435	2598
310.489	2321
310.499	2279
310.543	2513
310.589	2719
310.598	2753
310.652	2995
310.679	3033
310.706	2918
310.760	2586
310.769	2543
310.814	1778
310.859	1048
310.868	1146
310.923	1545
310.948	1822
310.977	2134
311.031	2687
311.038	2756
311.085	2573
311.128	2291
311.139	2243
311.193	1976
311.218	1840
311.247	1935
311.301	2164
311.308	2174
311.356	1941
311.398	1728
311.410	1761
311.464	1975
311.488	2033
311.518	1712
311.572	1107
311.578	1039
311.626	2413
311.668	3612
311.680	3686
311.734	3941
311.758	4035
311.788	3849
311.842	3483
311.847	3433
311.896	4218
311.937	4923
311.950	5016
312.004	5335
312.027	5445
312.058	4177
312.112	1899
312.117	1670
312.165	2069
312.207	2406
312.297	2893
312.386	3407
312.476	2343
312.566	5307
312.656	2704
312.745	1442
312.835	2865
312.925	2037
313.015	2328
313.104	3693
313.194	1984
313.284	2758
313.374	1940
313.463	3127
313.553	1865
313.643	1842
313.732	1434
313.822	1540
313.912	1441
314.001	2663
314.091	2935
314.180	5100
314.270	3243
314.360	3516
314.449	2845
314.539	1893
314.628	1895
314.718	2832
314.808	3284
314.897	2330
314.987	1962
315.076	2387
315.166	3351
315.255	3651
315.345	2471
315.434	3760
315.524	2875
315.613	3375
315.703	4109
315.792	5994
315.881	16265
315.971	8246
316.060	6147
316.150	11374
316.239	11780
316.328	5272
316.418	2195
316.507	2649
316.597	3303
316.686	2394
316.775	3835
316.865	12754
316.954	2792
317.043	1790
317.133	2269
317.222	1808
317.311	1606
317.400	1728
317.490	3182
317.579	3391
317.668	2331
317.757	4290
317.847	7972
317.936	29122
318.025	13171
318.114	7472
318.203	4830
318.293	4984
318.382	11167
318.471	9144
318.560	11427
318.649	25800
318.738	7068
318.828	4118
318.917	3766
319.006	5132
319.095	11559
319.184	29623
319.273	17984
319.362	8838
319.451	3142
319.540	2606
319.629	4635
319.718	11353
319.807	6321
319.896	8658
319.985	35749
320.074	16669
320.163	3962
320.252	6986
320.341	6161
320.430	5645
320.519	5195
320.608	3408
320.697	3760
320.786	3126
320.875	3800
320.964	5493
321.053	7369
321.142	9834
321.230	11592
321.319	8254
321.408	19879
321.497	9589
321.586	7921
321.675	10190
321.764	11075
321.852	7238
321.941	10458
322.030	8083
322.119	7224
322.207	20668
322.296	17564
322.385	8980
322.474	7923
322.562	21988
322.651	14293
322.740	8662
322.829	14184
322.917	14950
323.006	8193
323.095	7411
323.183	4563
323.272	8616
323.361	11489
323.449	40382
323.538	16527
323.626	27384
323.715	22128
323.804	7488
323.892	26568
323.981	16465
324.069	4520
324.158	14071
324.246	17215
324.335	4379
324.424	7019
324.512	3877
324.601	3879
324.689	8190
324.778	19046
324.866	12496
324.954	3111
325.043	2420
325.131	5443
325.220	12134
325.308	14580
325.397	10038
325.485	6919
325.574	2156
325.662	1774
325.750	2380
325.839	1640
325.927	2088
326.015	2740
326.104	4084
326.192	7226
326.280	2390
326.369	1956
326.457	3877
326.545	5448
326.634	2992
326.722	1567
326.810	1684
326.898	1029
326.987	2883
327.075	4835
327.163	6028
327.251	3946
327.340	5900
327.428	10677
327.516	2665
327.604	1928
327.692	2902
327.781	2534
327.869	4645
327.957	3356
328.045	3165
328.133	2162
328.221	1927
328.309	2180
328.397	2128
328.485	2372
328.574	3207
328.662	11286
328.750	8625
328.838	3547
328.926	2115
329.014	1779
329.102	3592
329.190	7617
329.278	6266
329.366	671
329.454	654
329.542	1882
329.630	954
329.718	1043
329.806	2460
329.893	2218
329.981	2620
330.069	2739
330.157	6970
330.245	23929
330.333	14489
330.421	3059
330.509	3096
330.597	12552
330.684	10674
330.772	4114
330.860	5562
330.948	7852
331.036	3878
331.123	798
331.211	2006
331.299	3247
331.387	5844
331.475	12580
331.562	3842
331.650	1557
331.738	2123
331.825	3932
331.913	1868
332.001	1287
332.089	1793
332.176	6327
332.264	13717
332.352	12901
332.439	3780
332.527	2489
332.614	1958
332.702	3558
332.790	2909
332.877	5418
332.965	14455
333.052	3310
333.140	2613
333.228	5823
333.315	2943
333.403	1690
333.490	8112
333.578	7255
333.665	5282
333.753	2942
333.840	2188
333.928	3182
334.015	8526
334.103	11877
334.190	38359
334.278	12928
334.365	5894
334.452	4678
334.540	3340
334.627	3464
334.715	5607
334.802	9040
334.889	43526
334.977	54283
335.064	8640
335.151	3154
335.239	3810
335.326	4915
335.413	15098
335.501	28600
335.588	4463
335.675	2906
335.762	3832
335.850	8564
335.937	6207
336.024	12337
336.111	51882
336.199	28442
336.286	6538
336.373	3421
336.460	2583
336.547	1770
336.635	2518
336.722	2458
336.809	2555
336.896	3214
336.983	10343
337.070	28964
337.157	40806
337.245	30553
337.332	26895
337.419	3254
337.506	2423
337.593	2802
337.680	8683
337.767	32535
337.854	9858
337.941	9439
338.028	12197
338.115	4845
338.202	5322
338.289	8411
338.376	32106
338.463	13208
338.550	15568
338.637	22087
338.724	6344
338.811	12064
338.898	3292
338.984	1997
339.071	2333
339.158	2718
339.245	6962
339.332	5654
339.419	6079
339.506	8127
339.593	1502
339.679	736
339.766	1415
339.853	1684
339.940	5107
340.027	2065
340.113	2262
340.200	1846
340.287	1562
340.374	2548
340.460	4856
340.547	1427
340.634	3629
340.720	11774
340.807	9060
340.894	2031
340.980	2296
341.067	652
341.154	1828
341.240	2279
341.327	7598
341.414	2555
341.500	3215
341.587	2189
341.674	1913
341.760	4062
341.847	5522
341.933	1704
342.020	49
342.106	577
342.193	1362
342.279	2906
342.366	2483
342.452	3883
342.539	2316
342.625	4762
342.712	13794
342.798	6342
342.885	2761
342.971	498
343.058	1662
343.144	1049
343.230	1389
343.317	1181
343.403	1659
343.490	183
343.576	1673
343.662	773
343.749	1224
343.835	1917
343.921	3584
344.008	16271
344.094	47941
344.180	13097
344.267	4541
344.353	12953
344.439	18037
344.525	6827
344.612	3724
344.698	2206
344.784	2458
344.870	234
344.957	1319
345.043	2066
345.129	1010
345.215	3771
345.301	2213
345.387	880
345.474	147
345.560	1064
345.646	1908
345.732	1754
345.818	1044
345.904	975
345.990	1793
346.076	1497
346.162	4953
346.249	2518
346.335	931
346.421	1790
346.507	4738
346.593	19327
346.679	5428
346.765	2090
346.851	1258
346.937	1386
347.023	839
347.108	1674
347.194	1422
347.280	1270
347.366	1539
347.452	5399
347.538	22161
347.624	18211
347.710	18199
347.796	2827
347.882	1764
347.967	1337
348.053	2545
348.139	1761
348.225	1277
348.311	1209
348.397	951
348.482	1738
348.568	2209
348.654	872
348.740	1650
348.825	1712
348.911	3046
348.997	9000
349.083	23165
349.168	4641
349.254	1672
349.340	1501
349.425	1010
349.511	1388
349.597	2625
349.682	3754
349.768	13978
349.854	8518
349.939	1735
350.025	747
350.110	1409
350.196	234
350.282	1041
350.367	437
350.453	2749
350.538	3357
350.624	2207
350.709	2057
350.795	1497
350.880	1596
350.966	1562
351.051	2115
351.137	2469
351.222	936
351.308	4238
351.393	13022
351.479	4331
351.564	772
351.649	1293
351.735	959
351.820	1814
351.906	1183
351.991	1946
352.076	6699
352.162	12897
352.247	2778
352.332	1554
352.418	3242
352.503	4705
352.588	17328
352.673	17991
352.759	3943
352.844	2028
352.929	2124
353.014	2446
353.100	1810
353.185	4862
353.270	5207
353.355	5536
353.441	1420
353.526	1226
353.611	4168
353.696	4877
353.781	3238
353.866	1108
353.952	1763
354.037	3635
354.122	9962
354.207	9154
354.292	3929
354.377	1946
354.462	1214
354.547	2084
354.632	2268
354.717	3271
354.802	5765
354.887	2450
354.972	1632
355.057	587
355.142	379
355.227	1115
355.312	2762
355.397	5700
355.482	15876
355.567	8460
355.652	5692
355.737	6253
355.822	15620
355.907	16474
355.991	2464
356.076	1288
356.161	1386
356.246	849
356.331	1448
356.416	3126
356.501	21766
356.585	30118
356.670	4773
356.755	3167
356.840	4059
356.924	16515
357.009	61741
357.094	29146
357.179	5267
357.263	3762
357.348	3035
357.433	3411
357.517	3032
357.602	2550
357.687	2412
357.771	4091
357.856	10075
357.941	7013
358.025	10124
358.110	53164
358.195	31674
358.279	5499
358.364	3739
358.448	10871
358.533	32813
358.617	25728
358.702	23917
358.787	10237
358.871	4930
358.956	4604
359.040	1596
359.125	1542
359.209	1187
359.294	4177
359.378	8544
359.462	4696
359.547	2283
359.631	2168
359.716	1065
359.800	1822
359.885	3495
359.969	1196
360.053	2359
360.138	2734
360.222	2855
360.306	4636
360.391	4402
360.475	6238
360.559	13332
360.644	13209
360.728	10070
360.812	11506
360.896	40025
360.981	18993
361.065	12745
361.149	4030
361.233	2424
361.318	2198
361.402	1876
361.486	2381
361.570	1895
361.654	2068
361.739	5031
361.823	21236
361.907	40601
361.991	9200
362.075	4063
362.159	9916
362.243	7156
362.327	7490
362.411	11414
362.495	6490
362.580	3118
362.664	1641
362.748	1122
362.832	3302
362.916	4761
363.000	16590
363.084	38581
363.168	50512
363.252	13750
363.336	6718
363.420	5885
363.503	21901
363.587	34198
363.671	6178
363.755	2959
363.839	6284
363.923	2169
364.007	5070
364.091	5858
364.175	9072
364.258	41990
364.342	34485
364.426	39200
364.510	23060
364.594	10242
364.677	7739
364.761	31020
364.845	27765
364.929	9067
365.013	8082
365.096	5076
365.180	7470
365.264	7105
365.347	39588
365.431	21028
365.515	5518
365.598	2040
365.682	2307
365.766	3787
365.849	6966
365.933	2784
366.017	4280
366.100	3512
366.184	1056
366.267	2352
366.351	1411
366.435	1085
366.518	974
366.602	320
366.685	1414
366.769	964
366.852	3267
366.936	7009
367.019	3548
367.103	2335
367.186	8043
367.270	2528
367.353	676
367.436	1142
367.520	1434
367.603	1829
367.687	2605
367.770	5149
367.853	2770
367.937	7448
368.020	17777
368.104	4890
368.187	3702
368.270	5667
368.353	5239
368.437	7037
368.520	22482
368.603	13652
368.687	11714
368.770	24873
368.853	6495
368.936	5322
369.020	7013
369.103	2318
369.186	1032
369.269	1173
369.352	3083
369.436	6381
369.519	4128
369.602	921
369.685	2676
369.768	2289
369.851	1387
369.934	904
370.018	1361
370.101	4100
370.184	4930
370.267	3025
370.350	5000
370.433	7055
370.516	15990
370.599	25043
370.682	7666
370.765	10992
370.848	14319
370.931	28015
371.014	15719
371.097	2784
371.180	2440
371.263	699
371.346	344
371.429	1560
371.511	1032
371.594	2627
371.677	5605
371.760	6870
371.843	4011
371.926	14655
372.009	43029
372.091	16920
372.174	8883
372.257	24641
372.340	10538
372.423	8613
372.505	12084
372.588	4724
372.671	6277
372.754	26407
372.836	16218
372.919	10031
373.002	27478
373.085	8166
373.167	4765
373.250	9414
373.332	23808
373.415	26993
373.498	63024
373.580	27850
373.663	27455
373.746	44572
373.828	11024
373.911	5027
373.993	4519
374.076	21534
374.159	27151
374.241	8516
374.324	23224
374.406	17614
374.489	13877
374.571	50219
374.654	24999
374.736	9002
374.819	29602
374.901	42344
374.983	50943
375.066	10220
375.148	3601
375.231	16116
375.313	39409
375.395	15280
375.478	3567
375.560	1092
375.643	2251
375.725	7208
375.807	38394
375.890	40226
375.972	21237
376.054	9269
376.136	18979
376.219	8447
376.301	9408
376.383	36183
376.465	16378
376.548	9001
376.630	8796
376.712	30515
376.794	16934
376.877	1982
376.959	306
377.041	1247
377.123	5002
377.205	7309
377.287	930
377.369	921
377.452	2354
377.534	1221
377.616	127
377.698	1065
377.780	242
377.862	545
377.944	1098
378.026	372
378.108	894
378.190	848
378.272	1120
378.354	587
378.436	218
378.518	1739
378.600	11260
378.682	9084
378.764	15178
378.846	14249
378.928	4283
379.010	4369
379.091	3216
379.173	1009
379.255	1242
379.337	1001
379.419	6041
379.501	23459
379.583	11418
379.664	2358
379.746	4958
379.828	15580
379.910	21632
379.991	20458
380.073	3921
380.155	2151
380.237	1771
380.318	621
380.400	1084
380.482	3852
380.564	5986
380.645	5677
380.727	6532
380.809	3015
380.890	1438
380.972	868
381.053	1118
381.135	1365
381.217	3855
381.298	17053
381.380	9570
381.461	5973
381.543	26630
381.624	41048
381.706	8459
381.787	3966
381.869	3872
381.951	9101
382.032	44132
382.113	35142
382.195	7108
382.276	4135
382.358	8956
382.439	24785
382.521	27741
382.602	46877
382.684	21508
382.765	36592
382.846	37948
382.928	39569
383.009	24564
383.090	13235
383.172	48896
383.253	90730
383.334	36596
383.416	40882
383.497	24173
383.578	7054
383.659	13273
383.741	39514
383.822	127917
383.903	75986
383.984	26148
384.066	52311
384.147	38795
384.228	8013
384.309	4777
384.390	4313
384.471	2990
384.553	3211
384.634	4920
384.715	5751
384.796	3149
384.877	2609
384.958	13384
385.039	20190
385.120	7544
385.201	3944
385.282	4548
385.363	6094
385.444	4660
385.525	5265
385.606	19248
385.687	20005
385.768	5565
385.849	4990
385.930	18878
386.011	38071
386.092	12933
386.173	4020
386.254	2578
386.335	3490
386.416	3232
386.496	8963
386.577	18185
386.658	7739
386.739	5062
386.820	5569
386.901	4222
386.981	4654
387.062	2319
387.143	4702
387.224	14967
387.304	17939
387.385	7071
387.466	3101
387.547	6535
387.627	3060
387.708	4928
387.789	25292
387.869	36174
387.950	11234
388.031	2840
388.111	2015
388.192	9261
388.273	15171
388.353	9204
388.434	2939
388.514	4408
388.595	19616
388.676	32326
388.756	17392
388.837	15705
388.917	10782
388.998	1748
389.078	2224
389.159	1800
389.239	626
389.320	3165
389.400	1857
389.480	5208
389.561	16557
389.641	9999
389.722	2380
389.802	4527
389.883	5737
389.963	18426
390.043	14783
390.124	5214
390.204	4474
390.284	17878
390.365	12308
390.445	13500
390.525	31676
390.605	26032
390.686	8882
390.766	4041
390.846	1687
390.927	1753
391.007	226
391.087	1922
391.167	2273
391.247	837
391.328	4254
391.408	6297
391.488	4492
391.568	803
391.648	2020
391.728	3553
391.808	3056
391.888	3600
391.969	6500
392.049	15864
392.129	8226
392.209	6275
392.289	18016
392.369	11677
392.449	12498
392.529	7682
392.609	4447
392.689	6478
392.769	16961
392.849	17594
392.929	12522
393.009	30158
393.089	25300
393.169	22869
393.248	59577
393.328	209772
393.408	258555
393.488	92316
393.568	26641
393.648	13957
393.728	7729
393.807	4991
393.887	5382
393.967	4132
394.047	3558
394.127	5354
394.206	7513
394.286	22385
394.366	97724
394.446	128967
394.525	36991
394.605	9638
394.685	6510
394.764	15292
394.844	27902
394.924	23000
395.003	6117
395.083	3915
395.163	3322
395.242	2792
395.322	3187
395.402	1553
395.481	3503
395.561	8081
395.640	30267
395.720	25084
395.799	31573
395.879	29359
395.958	12103
396.038	32774
396.117	128664
396.197	167375
396.276	62542
396.356	20999
396.435	15593
396.515	10636
396.594	9954
396.673	19513
396.753	58179
396.832	198718
396.912	177946
396.991	49926
397.070	14172
397.150	5810
397.229	4573
397.308	5971
397.388	12798
397.467	7518
397.546	3236
397.625	771
397.705	3411
397.784	2844
397.863	1109
397.942	1363
398.022	1412
398.101	6538
398.180	27394
398.259	17685
398.338	3699
398.417	1963
398.497	1035
398.576	1661
398.655	-29
398.734	1054
398.813	1216
398.892	5765
398.971	29287
399.050	17468
399.129	1332
399.208	426
399.287	1659
399.366	698
399.445	289
399.524	1183
399.603	-8
399.682	2633
399.761	5618
399.840	27886
399.919	27913
399.998	3494
400.077	63
400.156	-268
400.235	1898
400.313	1043
400.392	352
400.471	7304
400.550	14897
400.629	3577
400.708	1203
400.786	1587
400.865	6121
400.944	7544
401.023	3519
401.102	349
401.180	185
401.259	653
401.338	550
401.416	2151
401.495	1349
401.574	1395
401.652	-492
401.731	1867
401.810	1101
401.888	288
401.967	-928
402.046	513
402.124	1306
402.203	1407
402.281	1154
402.360	1728
402.438	8861
402.517	6361
402.596	1934
402.674	1540
402.753	564
402.831	877
402.910	141
402.988	4347
403.066	22399
403.145	15801
403.223	5418
403.302	18578
403.380	14695
403.459	15575
403.537	6230
403.615	2257
403.694	-901
403.772	787
403.850	194
403.929	224
404.007	-37
404.085	3347
404.164	3260
404.242	624
404.320	2222
404.398	6994
404.477	9745
404.555	34802
404.633	37377
404.711	9220
404.789	4456
404.868	1011
404.946	163
405.024	-348
405.102	-558
405.180	-450
405.258	-1088
405.336	755
405.415	-536
405.493	2994
405.571	3547
405.649	356
405.727	-574
405.805	2240
405.883	1366
405.961	1598
406.039	2031
406.117	229
406.195	1399
406.273	4715
406.351	31401
406.429	24354
406.507	3262
406.585	1401
406.663	511
406.740	1217
406.818	573
406.896	464
406.974	736
407.052	514
407.130	15774
407.208	30183
407.285	6838
407.363	391
407.441	-658
407.519	658
407.596	516
407.674	3489
407.752	18293
407.830	22016
407.907	7115
407.985	2127
408.063	432
408.141	504
408.218	1645
408.296	2511
408.373	785
408.451	1162
408.529	-86
408.606	-564
408.684	-79
408.762	-356
408.839	-354
408.917	-82
408.994	146
409.072	-718
409.149	-159
409.227	1211
409.304	1151
409.382	2238
409.459	1115
409.537	2001
409.614	2714
409.692	1845
409.769	624
409.846	2740
409.924	4336
410.001	2100
410.079	2165
410.156	2162
410.233	1945
410.311	884
410.388	-21
410.465	563
410.543	180
410.620	900
410.697	24
410.775	473
410.852	-1211
410.929	914
411.006	1387
411.083	-154
411.161	1522
411.238	2283
411.315	1448
411.392	-331
411.469	1141
411.547	1257
411.624	-1223
411.701	459
411.778	219
411.855	1865
411.932	997
412.009	54
412.086	255
412.163	639
412.240	56
412.317	1950
412.394	955
412.471	28
412.548	-493
412.625	-175
412.702	-694
412.779	2470
412.856	2318
412.933	-769
413.010	-40
413.087	1286
413.164	5496
413.241	11910
413.318	2296
413.395	1779
413.471	1258
413.548	555
413.625	634
413.702	858
413.779	572
413.855	65
413.932	-438
414.009	-234
414.086	242
414.162	-33
414.239	429
414.316	6353
414.393	17730
414.469	7058
414.546	-351
414.623	110
414.699	-430
414.776	-59
414.853	59
414.929	349
415.006	166
415.082	1138
415.159	-402
415.236	134
415.312	585
415.389	923
415.465	1051
415.542	1556
415.618	-990
415.695	1981
415.771	429
415.848	324
415.924	-83
416.000	364
416.077	975
416.153	-970
416.230	-1210
416.306	-363
416.383	-152
416.459	317
416.535	-571
416.612	-1078
416.688	-567
416.764	-104
416.841	-839
416.917	163
416.993	-211
417.069	884
417.146	439
417.222	182
417.298	603
417.374	373
417.451	815
417.527	471
417.603	448
417.679	550
417.755	503
417.831	-352
417.908	-352
417.984	-511
418.060	-740
418.136	1140
418.212	1990
418.288	457
418.364	192
418.440	-1008
418.516	1207
418.592	1373
418.668	2591
418.744	5456
418.820	3726
418.896	512
418.972	-1331
419.048	-417
419.124	1565
419.200	1051
419.276	-151
419.352	-1332
419.428	-392
419.504	-655
419.579	68
419.655	-69
419.731	-198
419.807	2543
419.883	5277
419.959	4460
420.034	516
420.110	1221
420.186	8604
420.262	9546
420.337	991
420.413	528
420.489	-113
420.565	888
420.640	-415
420.716	332
420.792	-681
420.867	341
420.943	-258
421.019	898
421.094	525
421.170	571
421.245	-724
421.321	1032
421.397	25
421.472	2110
421.548	8566
421.623	7527
421.699	1297
421.774	2023
421.850	664
421.925	2661
422.001	1982
422.076	2059
422.152	2137
422.227	4252
422.302	5333
422.378	7706
422.453	14999
422.529	32559
422.604	80372
422.679	116162
422.755	99276
422.830	48792
422.905	19896
422.981	9802
423.056	6640
423.131	4607
423.207	2470
423.282	2077
423.357	4049
423.432	2436
423.508	2063
423.583	4599
423.658	4125
423.733	1130
423.808	780
423.883	1659
423.959	1086
424.034	1200
424.109	861
424.184	-527
424.259	-130
424.334	294
424.409	41
424.484	-657
424.559	-164
424.634	193
424.709	274
424.784	990
424.859	-168
424.934	1018
425.009	5078
425.084	12405
425.159	3986
425.234	983
425.309	-1627
425.384	794
425.459	2281
425.534	763
425.609	-1330
425.683	-329
425.758	-418
425.833	-290
425.908	750
425.983	2578
426.058	12860
426.132	6248
426.207	-184
426.282	1849
426.357	1221
426.431	-827
426.506	325
426.581	-141
426.655	-194
426.730	-1560
426.805	-774
426.879	56
426.954	-422
427.029	195
427.103	7694
427.178	28291
427.253	15474
427.327	1419
427.402	513
427.476	4603
427.551	2115
427.625	287
427.700	448
427.774	-327
427.849	632
427.923	-332
427.998	-717
428.072	-150
428.147	2260
428.221	7325
428.296	32389
428.370	21334
428.444	2491
428.519	2159
428.593	5584
428.667	5376
428.742	5778
428.816	6214
428.890	17785
428.965	37508
429.039	12508
429.113	7992
429.188	2410
429.262	-389
429.336	261
429.410	5229
429.485	3739
429.559	5113
429.633	4910
429.707	1145
429.781	2364
429.855	20685
429.930	40085
430.004	19569
430.078	30122
430.152	27819
430.226	37192
430.300	46926
430.374	8181
430.448	2621
430.522	6007
430.596	26981
430.670	18186
430.744	28330
430.818	51872
430.892	11724
430.966	855
431.040	490
431.114	-1564
431.188	-709
431.262	-409
431.336	-235
431.410	667
431.484	7528
431.557	5640
431.631	14
431.705	59
431.779	2329
431.853	25267
431.927	23461
432.000	1742
432.074	298
432.148	41
432.222	495
432.295	23
432.369	154
432.443	-479
432.516	7503
432.590	27603
432.664	13137
432.737	464
432.811	-993
432.885	-735
432.958	-172
433.032	-744
433.106	-1254
433.179	-1051
433.253	-934
433.326	-1127
433.400	-1326
433.473	-1571
433.547	-1647
433.620	-1369
433.694	-644
433.767	16
433.841	-634
433.914	-957
433.988	-246
434.061	-204
434.134	-1103
434.208	-1443
434.281	-1269
434.355	-1429
434.428	-609
434.501	-1440
434.575	-1113
434.648	-603
434.721	-560
434.795	-1657
434.868	-419
434.941	-1965
435.014	-862
435.088	-1269
435.161	-355
435.234	-263
435.307	460
435.381	-595
435.454	-54
435.527	607
435.600	589
435.673	886
435.746	-37
435.819	-1205
435.892	-598
435.966	-948
436.039	-641
436.112	-769
436.185	-395
436.258	-978
436.331	-1193
436.404	-1466
436.477	-1411
436.550	-1243
436.623	-1004
436.696	-1132
436.769	-1297
436.842	-1325
436.915	-1338
436.987	-276
437.060	-662
437.133	-1487
437.206	-853
437.279	-666
437.352	-1213
437.425	-1392
437.498	337
437.570	449
437.643	85
437.716	-673
437.789	-768
437.861	-851
437.934	2329
438.007	769
438.080	-1118
438.152	-846
438.225	265
438.298	8287
438.370	35067
438.443	16623
438.516	2043
438.588	-25
438.661	-658
438.734	-771
438.806	-1156
438.879	-552
438.951	-377
439.024	333
439.096	-532
439.169	-622
439.241	-588
439.314	-1522
439.386	10
439.459	1046
439.531	2079
439.604	-451
439.676	-740
439.749	-1415
439.821	-1261
439.893	-883
439.966	-722
440.038	-766
440.110	-517
440.183	-940
440.255	-930
440.327	22
440.400	2678
440.472	21332
440.544	18095
440.617	1003
440.689	1039
440.761	569
440.833	1482
440.905	680
440.978	-1011
441.050	-1642
441.122	-828
441.194	-1345
441.266	-1053
441.338	-1448
441.411	-551
441.483	5221
441.555	10782
441.627	2059
441.699	1149
441.771	950
441.843	-219
441.915	-151
441.987	-671
442.059	-1062
442.131	548
442.203	433
442.275	750
442.347	182
442.419	1760
442.491	9575
442.563	36659
442.635	18822
442.706	8325
442.778	5880
442.850	912
442.922	-542
442.994	-165
443.066	-522
443.137	153
443.209	-6
443.281	589
443.353	3366
443.425	14095
443.496	57414
443.568	68056
443.640	27435
443.711	4568
443.783	538
443.855	19
443.926	-304
443.998	-372
444.070	239
444.141	376
444.213	-314
444.285	1369
444.356	969
444.428	739
444.499	-621
444.571	-718
444.642	-602
444.714	-208
444.785	43
444.857	1114
444.928	3903
445.000	3222
445.071	2349
445.143	4863
445.214	2396
445.285	3617
445.357	12634
445.428	34087
445.500	90870
445.571	66367
445.642	36266
445.714	13723
445.785	10374
445.856	2563
445.928	1711
445.999	878
446.070	-460
446.141	-286
446.213	1593
446.284	-178
446.355	537
446.426	-83
446.497	421
446.569	880
446.640	1103
446.711	329
446.782	-1042
446.853	165
446.924	341
446.995	16
447.066	-935
447.138	1126
447.209	323
447.280	-1108
447.351	-1419
447.422	-1500
447.493	-814
447.564	-105
447.635	-127
447.706	-288
447.777	-987
447.847	-885
447.918	-699
447.989	-563
448.060	-329
448.131	2880
448.202	2160
448.273	553
448.344	-976
448.414	-57
448.485	-1048
448.556	-5
448.627	-1202
448.698	-428
448.768	-745
448.839	-520
448.910	485
448.981	648
449.051	-920
449.122	-1007
449.193	-1447
449.263	-769
449.334	-1324
449.405	-347
449.475	161
449.546	39
449.616	612
449.687	806
449.758	-137
449.828	-1201
449.899	-1090
449.969	-1724
450.040	-1363
450.110	614
450.181	-143
450.251	-217
450.322	-1154
450.392	-217
450.463	-1005
450.533	-932
450.604	-1094
450.674	-1207
450.744	-611
450.815	-948
450.885	-1033
450.955	-843
451.026	-972
451.096	-1514
451.166	-533
451.237	424
451.307	5440
451.377	1354
451.447	-544
451.518	-1110
451.588	-868
451.658	-855
451.728	-45
451.799	4945
451.869	6506
451.939	1329
452.009	-956
452.079	-771
452.149	-697
452.219	163
452.289	5425
452.360	4505
452.430	-460
452.500	-393
452.570	-1168
452.640	220
452.710	3946
452.780	9159
452.850	3190
452.920	3250
452.990	460
453.060	131
453.129	-616
453.199	946
453.269	4895
453.339	15015
453.409	25165
453.479	21673
453.549	33839
453.619	40110
453.688	15740
453.758	2222
453.828	-162
453.898	-707
453.968	-1081
454.037	-39
454.087	-325
454.107	-448
454.168	-237
454.177	-215
454.247	-1290
454.249	-1268
454.316	-1089
454.330	-980
454.386	-546
454.411	164
454.456	1173
454.492	2805
454.525	4232
454.574	1985
454.595	1008
454.655	-785
454.665	-1065
454.734	-272
454.736	-257
454.804	-497
454.817	487
454.873	4237
454.898	5444
454.943	7374
454.979	4498
455.013	1991
455.060	519
455.082	-55
455.141	169
455.152	198
455.221	3328
455.222	3429
455.291	9191
455.303	8871
455.360	7019
455.384	9825
455.430	14242
455.465	11332
455.499	8561
455.546	6858
455.569	5975
455.627	3566
455.638	3190
455.707	17
455.708	22
455.777	-1215
455.789	-1059
455.846	-268
455.869	-507
455.916	-1038
455.950	-539
455.985	-61
456.031	-564
456.054	-837
456.112	-1038
456.124	-1071
456.193	-1451
456.193	-1464
456.262	-52
456.274	-38
456.332	169
456.355	328
456.401	331
456.436	-16
456.470	-259
456.516	-267
456.540	-336
456.597	-1036
456.609	-1171
456.678	-215
456.678	-218
456.747	-847
456.759	-882
456.817	-808
456.840	-667
456.886	-567
456.920	-372
456.955	-152
457.001	-160
457.024	-139
457.082	-117
457.093	-104
457.162	351
457.163	364
457.232	1101
457.243	956
457.301	292
457.324	-289
457.370	-1351
457.405	-886
457.439	-292
457.485	139
457.508	191
457.566	-126
457.577	-141
457.646	-337
457.647	-325
457.715	594
457.727	872
457.784	2752
457.808	3465
457.853	4241
457.889	6234
457.922	7098
457.969	4565
457.991	4144
458.050	4384
458.060	4553
458.129	7666
458.130	7806
458.198	9987
458.211	9251
458.267	5031
458.292	3357
458.336	2063
458.372	1335
458.405	1367
458.453	2594
458.474	3760
458.533	7821
458.543	8255
458.611	15106
458.614	15299
458.680	11796
458.694	9523
458.749	3955
458.775	2711
458.818	1501
458.855	1101
458.887	741
458.936	117
458.955	-32
459.016	395
459.024	458
459.093	578
459.097	571
459.162	309
459.177	393
459.230	550
459.257	626
459.299	929
459.338	996
459.368	896
459.418	973
459.437	972
459.499	562
459.505	515
459.574	732
459.579	695
459.643	290
459.659	315
459.711	392
459.740	560
459.780	735
459.820	665
459.849	791
459.900	961
459.917	907
459.981	1035
459.986	1036
460.054	656
460.061	683
460.123	878
460.141	750
460.191	1010
460.222	1408
460.260	1444
460.302	1464
460.328	1463
460.382	1492
460.397	1508
460.462	1205
460.465	1238
460.534	2527
460.543	2647
460.602	7127
460.623	9027
460.671	16055
460.703	22423
460.739	22430
460.783	21815
460.808	18856
460.864	4360
460.876	3217
460.944	1339
460.945	1316
461.013	833
461.024	824
461.081	859
461.104	1003
461.150	1213
461.184	1102
461.218	1032
461.264	762
461.286	650
461.345	860
461.355	853
461.423	735
461.425	720
461.491	801
461.505	929
461.559	1806
461.585	2298
461.628	4725
461.665	6817
461.696	7892
461.745	11093
461.764	10051
461.825	3579
461.832	3421
461.901	1926
461.905	1889
461.969	1372
461.985	1296
462.037	1413
462.065	1510
462.105	1652
462.145	1903
462.173	2572
462.225	3217
462.241	3488
462.305	5648
462.310	5544
462.378	4024
462.385	3668
462.446	1784
462.465	1411
462.514	1199
462.545	1022
462.582	1051
462.625	1369
462.650	1374
462.705	1186
462.718	1288
462.785	1689
462.786	1689
462.854	1970
462.865	1965
462.922	2968
462.945	3559
462.990	3010
463.025	2094
463.058	1737
463.104	1601
463.126	1552
463.184	1380
463.194	1441
463.262	1716
463.264	1728
463.330	1660
463.344	1617
463.398	1763
463.424	1852
463.466	1531
463.504	1378
463.533	1752
463.583	1959
463.601	1827
463.663	1844
463.669	1901
463.737	2252
463.743	2302
463.805	3891
463.823	4321
463.873	6988
463.903	8845
463.940	10010
463.982	11179
464.008	9087
464.062	4358
464.076	4093
464.142	1953
464.144	1931
464.211	1907
464.221	1888
464.279	1807
464.301	1830
464.347	2075
464.381	2207
464.414	2345
464.461	2518
464.482	2664
464.540	3155
464.550	3016
464.617	2063
464.620	2022
464.685	2527
464.699	2597
464.753	2695
464.779	2761
464.820	3097
464.859	3626
464.888	3750
464.938	3770
464.956	3918
465.018	4399
465.023	4325
465.091	3133
465.098	3025
465.158	3089
465.177	3061
465.226	2766
465.257	2706
465.293	3052
465.336	3234
465.361	3270
465.416	3506
465.428	3862
465.495	5624
465.496	5655
465.563	9132
465.575	9730
465.631	12750
465.654	14224
465.698	9687
465.734	5358
465.765	4634
465.813	3574
465.833	3333
465.893	2914
465.900	2920
465.968	2827
465.972	2816
466.035	2554
466.052	2503
466.102	3080
466.131	3382
466.170	3091
466.210	2771
466.237	2820
466.290	2924
466.304	3077
466.369	3599
466.372	3594
466.439	3353
466.449	3302
466.506	3574
466.528	3674
466.573	4945
466.607	5896
466.641	8920
466.687	13092
466.708	15036
466.766	20454
466.775	19045
466.842	8182
466.845	7647
466.909	4652
466.925	3961
466.977	3928
467.004	3946
467.044	4084
467.083	4196
467.111	4474
467.163	4967
467.178	5189
467.242	6098
467.245	6111
467.312	6180
467.321	6178
467.379	5681
467.400	5488
467.446	6135
467.480	6586
467.559	6267
467.638	4068
467.717	4621
467.796	5480
467.875	5170
467.955	5404
468.034	7140
468.113	16460
468.192	24680
468.271	8504
468.350	3873
468.429	5766
468.508	6230
468.588	4683
468.667	4434
468.746	4491
468.825	4996
468.904	3626
468.983	4500
469.062	6093
469.141	9040
469.220	4462
469.299	3382
469.378	3579
469.456	4773
469.535	5003
469.614	3420
469.693	4403
469.772	6020
469.851	7554
469.930	6244
470.009	3846
470.088	3415
470.166	3556
470.245	4676
470.324	4682
470.403	3892
470.482	3675
470.560	4655
470.639	3340
470.718	3295
470.797	4311
470.875	5022
470.954	5852
471.033	7867
471.111	3837
471.190	3503
471.269	2723
471.347	2725
471.426	3730
471.505	4235
471.583	4350
471.662	4437
471.740	3942
471.819	3923
471.898	3164
471.976	4386
472.055	3363
472.133	4034
472.212	5457
472.290	6117
472.369	4070
472.447	3584
472.526	2852
472.604	3682
472.683	3783
472.761	3356
472.839	3005
472.918	3827
472.996	2926
473.075	4888
473.153	3893
473.231	3174
473.310	3837
473.388	5049
473.466	3923
473.545	3723
473.623	4625
473.701	4620
473.780	3226
473.858	3110
473.936	4371
474.014	4180
474.093	4168
474.171	5325
474.249	7579
474.327	6162
474.405	3199
474.484	3520
474.562	2445
474.640	2884
474.718	2996
474.796	3371
474.874	3456
474.952	2488
475.030	2615
475.108	2986
475.187	3065
475.265	3642
475.343	6004
475.421	6391
475.499	3957
475.577	2869
475.655	4189
475.733	7552
475.811	15424
475.889	14612
475.966	10397
476.044	3988
476.122	4014
476.200	5755
476.278	4445
476.356	3015
476.434	3224
476.512	3368
476.590	4200
476.667	5318
476.745	2126
476.823	3976
476.901	2875
476.979	3269
477.056	3272
477.134	3264
477.212	3653
477.290	3151
477.367	3674
477.445	3469
477.523	2695
477.601	3209
477.678	2405
477.756	3818
477.834	4404
477.911	3398
477.989	3093
478.066	2741
478.144	3719
478.222	3895
478.299	5863
478.377	6706
478.454	3158
478.532	2740
478.609	2319
478.687	4071
478.764	1782
478.842	2723
478.919	2746
478.997	2811
479.074	2694
479.152	3292
479.229	4030
479.307	2893
479.384	2166
479.461	2699
479.539	2177
479.616	3415
479.694	3045
479.771	2793
479.848	3037
479.926	3484
480.003	5852
480.080	3359
480.157	3003
480.235	1965
480.312	2825
480.389	3559
480.467	4768
480.544	6742
480.621	3867
480.698	3595
480.775	3289
480.853	3510
480.930	2533
481.007	3449
481.084	3684
481.161	5289
481.238	5198
481.315	2039
481.392	2088
481.470	3168
481.547	2790
481.624	2387
481.701	3479
481.778	2664
481.855	2695
481.932	4887
482.009	8952
482.086	6508
482.163	2907
482.240	4245
482.317	6776
482.393	6567
482.470	3323
482.547	3763
482.624	1940
482.701	2890
482.778	3324
482.855	3252
482.932	2885
483.009	2253
483.085	2633
483.162	3928
483.239	4085
483.316	2769
483.393	2663
483.469	2732
483.546	2718
483.623	4386
483.699	2556
483.776	3079
483.853	2884
483.930	5623
484.006	11122
484.083	23034
484.160	13876
484.236	15575
484.313	12733
484.389	9325
484.466	8237
484.543	7636
484.619	7283
484.696	8873
484.772	8391
484.849	9543
484.925	7720
485.002	7452
485.078	7639
485.155	7983
485.231	7695
485.308	7329
485.384	7746
485.461	8467
485.537	13486
485.614	17939
485.690	8303
485.766	7342
485.843	6475
485.919	8465
485.995	8999
486.072	5665
486.148	5156
486.224	6149
486.301	6384
486.377	7204
486.453	7539
486.530	7092
486.606	9061
486.682	10657
486.758	11632
486.835	14379
486.911	9835
486.987	16732
487.063	16767
487.139	15814
487.215	13807
487.292	9083
487.368	7788
487.444	7972
487.520	9158
487.596	10364
487.672	12891
487.748	30462
487.824	54059
487.900	27126
487.976	9709
488.052	7480
488.128	9534
488.204	7676
488.280	6585
488.356	7404
488.432	14650
488.508	24790
488.584	10990
488.660	6012
488.736	5534
488.812	5573
488.888	6575
488.964	8080
489.039	13448
489.115	21827
489.191	16299
489.267	6426
489.343	5543
489.418	5354
489.494	4071
489.570	4325
489.646	6041
489.722	5421
489.797	5570
489.873	8491
489.949	17453
490.024	18936
490.100	5832
490.176	4837
490.251	5160
490.327	6730
490.403	4316
490.478	4589
490.554	4501
490.629	4578
490.705	3019
490.781	4366
490.856	4421
490.932	5410
491.007	4196
491.083	4217
491.158	4691
491.234	5786
491.309	12505
491.385	15936
491.460	5421
491.536	4692
491.611	4468
491.686	4404
491.762	4575
491.837	8210
491.913	14892
491.988	19726
492.063	27097
492.139	12077
492.214	7439
492.289	3920
492.365	2926
492.440	4295
492.515	3799
492.590	5129
492.666	3950
492.741	4010
492.816	7169
492.891	4596
492.967	3352
493.042	2791
493.117	2783
493.192	4941
493.267	6804
493.342	21593
493.418	40827
493.493	9304
493.568	3146
493.643	3643
493.718	2625
493.793	5589
493.868	5915
493.943	3483
494.018	3827
494.093	4186
494.168	3313
494.243	2743
494.318	2505
494.393	3021
494.468	2664
494.543	2848
494.618	2572
494.693	2588
494.768	2343
494.842	3045
494.917	2483
494.992	1906
495.067	2640
495.142	2350
495.217	1773
495.292	2668
495.366	2859
495.441	4725
495.516	5410
495.591	5306
495.665	14242
495.740	39569
495.815	25590
495.890	5584
495.964	3037
496.039	4630
496.114	3557
496.188	4955
496.263	5595
496.338	3634
496.412	3609
496.487	5415
496.561	4429
496.636	5311
496.710	4449
496.785	5033
496.860	5955
496.934	4740
497.009	3183
497.083	4232
497.158	4290
497.232	5437
497.307	5195
497.381	4711
497.455	6494
497.530	9426
497.604	7112
497.679	5976
497.753	9891
497.827	12202
497.902	10983
497.976	12891
498.050	22900
498.125	92174
498.199	135983
498.273	23706
498.348	11218
498.422	9212
498.496	8696
498.570	8473
498.645	6484
498.719	5823
498.793	7934
498.867	11594
498.941	16219
499.016	33079
499.090	116107
499.164	67293
499.238	6875
499.312	4590
499.386	4961
499.460	5882
499.534	4827
499.609	5990
499.683	9480
499.757	10297
499.831	15590
499.905	68330
499.979	94940
500.053	16275
500.127	10822
500.201	6401
500.275	5248
500.349	4761
500.422	5089
500.496	7784
500.570	12588
500.644	35903
500.718	87217
500.792	32932
500.866	5632
500.940	7277
501.013	5928
501.087	5617
501.161	8595
501.235	10969
501.309	22248
501.382	67858
501.456	83318
501.530	17358
501.603	24941
501.677	14241
501.751	3436
501.825	5689
501.898	8037
501.972	28713
502.046	26836
502.119	5242
502.193	10571
502.266	31414
502.340	20883
502.413	12210
502.487	29659
502.561	19676
502.634	6758
502.708	3847
502.781	3328
502.855	3171
502.928	3091
503.002	2809
503.075	1747
503.149	2682
503.222	3041
503.295	3683
503.369	4694
503.442	5748
503.516	16870
503.589	54433
503.662	47049
503.736	13125
503.809	24624
503.882	26214
503.956	28971
504.029	36681
504.102	19413
504.175	28591
504.249	13084
504.322	7082
504.395	5166
504.468	4137
504.542	3882
504.615	2691
504.688	2670
504.761	2271
504.834	2560
504.907	3872
504.980	5512
505.053	3549
505.127	1733
505.200	6117
505.273	4453
505.346	3189
505.419	1555
505.492	2599
505.565	2464
505.638	1639
505.711	1411
505.784	2140
505.857	1667
505.930	3165
506.003	1933
506.076	3441
506.149	3368
506.221	4927
506.294	4181
506.367	8079
506.440	37081
506.513	31232
506.586	5197
506.659	3757
506.731	1755
506.804	2313
506.877	3144
506.950	3660
507.022	2052
507.095	2412
507.168	4653
507.241	3078
507.313	1210
507.386	1774
507.459	3584
507.531	1864
507.604	1223
507.677	2308
507.749	97
507.822	2674
507.894	4062
507.967	7167
508.040	3686
508.112	4189
508.185	3402
508.257	2664
508.330	4123
508.402	3092
508.475	3071
508.547	2955
508.620	3485
508.692	5426
508.765	4225
508.837	2474
508.909	1704
508.982	2587
509.054	3290
509.127	1958
509.199	1809
509.271	1556
509.344	2449
509.416	1833
509.488	2286
509.560	3272
509.633	2558
509.705	2347
509.777	3245
509.849	3834
509.922	1906
509.994	1874
510.066	2325
510.138	2114
510.210	6011
510.283	5797
510.355	4560
510.427	4615
510.499	3664
510.571	4442
510.643	3360
510.715	4192
510.787	3262
510.859	3112
510.931	3995
511.003	4410
511.076	4650
511.148	3233
511.219	1793
511.291	5001
511.363	7423
511.435	3072
511.507	2505
511.579	3547
511.651	2753
511.723	2646
511.795	2619
511.867	2234
511.939	3152
512.010	6698
512.082	7469
512.154	2960
512.226	3615
512.298	4172
512.369	5978
512.441	4656
512.513	4345
512.585	3626
512.656	4092
512.728	3960
512.800	3605
512.871	3791
512.943	4056
513.015	2713
513.086	3262
513.158	3594
513.230	3139
513.301	3713
513.373	4604
513.444	3291
513.516	2518
513.588	3063
513.659	3147
513.731	2654
513.802	2017
513.874	4633
513.945	8206
514.016	4809
514.088	2883
514.159	3530
514.231	3352
514.302	6145
514.374	3927
514.445	4013
514.516	8438
514.588	7856
514.659	3515
514.730	6840
514.802	6848
514.873	2805
514.944	5636
515.016	3478
515.087	2955
515.158	5365
515.229	8934
515.301	4026
515.372	5062
515.443	3958
515.514	3490
515.585	2446
515.656	2744
515.728	2576
515.799	2067
515.870	3210
515.941	3323
516.012	2645
516.083	4185
516.154	3201
516.225	4676
516.296	4758
516.367	3638
516.438	4140
516.509	3828
516.580	6328
516.651	12530
516.722	47467
516.793	40136
516.864	7873
516.935	7321
517.006	7828
517.077	8588
517.148	16770
517.219	41538
517.289	96460
517.360	52553
517.431	25688
517.502	4101
517.573	4706
517.643	4341
517.714	4100
517.785	4825
517.856	4259
517.926	6305
517.997	5832
518.068	6492
518.138	9568
518.209	10452
518.280	26233
518.350	119624
518.421	81087
518.492	10542
518.562	6700
518.633	6707
518.703	6375
518.774	12134
518.845	28602
518.915	36863
518.986	14342
519.056	8685
519.127	10071
519.197	14283
519.268	38861
519.338	40351
519.408	8746
519.479	6755
519.549	5709
519.620	4043
519.690	3197
519.760	3034
519.831	3133
519.901	3396
519.971	2951
520.042	3517
520.112	3872
520.182	4060
520.253	5053
520.323	3000
520.393	4277
520.463	6684
520.534	2776
520.604	10223
520.674	6610
520.744	4509
520.814	8636
520.885	10778
520.955	10775
521.025	47740
521.095	32760
521.165	5415
521.235	4226
521.305	3777
521.375	3456
521.445	3019
521.515	3523
521.585	3808
521.655	3440
521.725	4261
521.795	4136
521.865	1778
521.935	6063
522.005	4579
522.075	2840
522.145	3050
522.215	2886
522.285	5071
522.355	5885
522.424	12908
522.494	14020
522.564	5744
522.634	6076
522.704	19660
522.774	12350
522.843	3473
522.913	3743
522.983	3611
523.053	2740
523.122	3158
523.192	3195
523.262	8002
523.331	13020
523.401	3822
523.471	2674
523.540	1793
523.610	1288
523.680	2761
523.749	2911
523.819	3049
523.888	3279
523.958	2210
524.027	2991
524.097	2741
524.166	1962
524.236	1918
524.305	3702
524.375	903
524.444	1869
524.514	3167
524.583	2627
524.653	2759
524.722	4232
524.791	1908
524.861	3414
524.930	903
524.999	1802
525.069	3345
525.138	3456
525.207	3401
525.277	3860
525.346	1981
525.415	2788
525.484	2171
525.554	3224
525.623	3928
525.692	3492
525.761	3437
525.830	4397
525.900	4801
525.969	6481
526.038	11565
526.107	17400
526.176	61176
526.245	66261
526.314	20709
526.383	29943
526.452	49695
526.522	64094
526.591	96387
526.660	24067
526.729	11363
526.797	12575
526.867	16917
526.935	63505
527.004	151441
527.073	128831
527.142	15098
527.211	6131
527.280	4461
527.349	4021
527.418	2261
527.487	3566
527.555	1556
527.624	1609
527.693	947
527.762	2746
527.831	1615
527.899	2343
527.968	1924
528.037	1575
528.106	2850
528.174	3212
528.243	4711
528.312	5166
528.380	6892
528.449	2614
528.518	2300
528.586	506
528.655	2097
528.723	1856
528.792	962
528.861	1475
528.929	594
528.998	2735
529.066	1509
529.135	2726
529.203	1715
529.272	1270
529.340	3284
529.409	3496
529.477	2280
529.545	3178
529.614	4949
529.682	3808
529.751	4602
529.819	6674
529.887	4332
529.956	3225
530.024	4020
530.092	2680
530.161	3901
530.229	4530
530.297	2548
530.365	3728
530.434	2914
530.502	2621
530.570	3088
530.638	1406
530.707	3890
530.775	4571
530.843	1820
530.911	3183
530.979	2426
531.047	3070
531.115	3489
531.183	3372
531.252	3086
531.320	2833
531.388	2184
531.456	3091
531.524	2524
531.592	4306
531.660	4812
531.728	3640
531.796	2476
531.864	3483
531.932	3296
532.000	2199
532.067	3302
532.135	3988
532.203	4973
532.271	3679
532.339	5420
532.407	10029
532.475	9629
532.542	5140
532.610	5600
532.678	4884
532.746	12942
532.814	44410
532.881	19270
532.949	5797
533.017	3959
533.084	4154
533.152	3019
533.220	3758
533.287	3198
533.355	4563
533.423	3878
533.490	3629
533.558	2871
533.625	3626
533.693	3870
533.761	3651
533.828	3666
533.896	2656
533.963	5098
534.031	6836
534.098	7983
534.166	6139
534.233	3604
534.300	4630
534.368	3628
534.435	3759
534.503	3815
534.570	4290
534.637	3812
534.705	4261
534.772	4534
534.840	6030
534.907	23580
534.974	48057
535.041	9300
535.109	5098
535.176	3719
535.243	4340
535.310	2526
535.378	2900
535.445	3129
535.512	3076
535.579	3327
535.646	2279
535.714	2494
535.781	4513
535.848	3901
535.915	4631
535.982	3079
536.049	3376
536.116	4777
536.183	3280
536.250	1828
536.317	2212
536.384	2693
536.451	5467
536.518	4338
536.585	2556
536.652	3760
536.719	5532
536.786	3058
536.853	3263
536.920	4651
536.987	5982
537.053	4999
537.120	17372
537.187	24688
537.254	4584
537.321	1844
537.388	4775
537.454	1732
537.521	1881
537.588	2316
537.654	3047
537.721	2834
537.788	4835
537.855	2357
537.921	2535
537.988	2336
538.055	3437
538.121	2459
538.188	2486
538.254	3182
538.321	5925
538.388	5775
538.454	3246
538.521	3008
538.587	3145
538.654	2154
538.720	2641
538.787	2958
538.853	3231
538.920	3288
538.986	3785
539.053	3351
539.119	3151
539.185	2123
539.252	3401
539.318	3592
539.385	4109
539.451	2247
539.517	3768
539.583	3510
539.650	5168
539.716	15861
539.782	7866
539.849	2223
539.915	3326
539.981	2151
540.047	3000
540.114	2584
540.180	3583
540.246	2281
540.312	3299
540.378	4791
540.444	7603
540.510	5788
540.576	17429
540.643	9460
540.709	2866
540.775	2859
540.841	2772
540.907	2918
540.973	5770
541.039	3351
541.105	3897
541.171	2383
541.237	1980
541.303	3387
541.369	4685
541.435	2791
541.500	4921
541.566	3578
541.632	2402
541.698	2811
541.764	2341
541.830	2854
541.896	1906
541.961	3479
542.027	2570
542.093	3289
542.159	3112
542.224	2278
542.290	3898
542.356	4458
542.421	7391
542.487	4229
542.553	3113
542.618	3645
542.684	3247
542.750	2946
542.815	3882
542.881	4443
542.947	13682
543.012	17289
543.078	3383
543.143	1896
543.209	3693
543.274	2074
543.340	4459
543.405	3972
543.471	10536
543.536	4527
543.602	2653
543.667	1822
543.732	3469
543.798	1970
543.863	3379
543.928	1861
543.994	2325
544.059	2392
544.124	1942
544.190	1975
544.255	3465
544.320	3316
544.386	2726
544.451	3651
544.516	3824
544.581	3676
544.646	7526
544.712	19107
544.777	5409
544.842	2943
544.907	4126
544.972	3892
545.037	2921
545.102	3716
545.168	3584
545.233	4253
545.298	4671
545.363	5106
545.428	5411
545.493	6037
545.558	13271
545.623	9526
545.688	4257
545.753	4042
545.818	3173
545.883	5066
545.947	3416
546.012	4944
546.077	4029
546.142	4581
546.207	3773
546.272	5403
546.337	5179
546.401	4213
546.466	4210
546.531	3352
546.596	5108
546.661	5770
546.725	5957
546.790	3778
546.855	4866
546.919	3914
546.984	6209
547.049	5607
547.113	8124
547.178	7197
547.243	7739
547.307	9075
547.372	9880
547.436	9849
547.501	9885
547.565	9943
547.630	10197
547.695	9570
547.759	11522
547.823	10552
547.888	10027
547.952	9553
548.017	10599
548.081	11008
548.146	12137
548.210	12254
548.274	11072
548.339	10231
548.403	10559
548.468	8977
548.532	10040
548.596	9300
548.660	9602
548.725	10767
548.789	11641
548.853	13178
548.917	10636
548.982	11413
549.046	13302
549.110	8537
549.174	9011
549.238	9785
549.303	10235
549.367	11475
549.431	10871
549.495	9511
549.559	9990
549.623	12097
549.687	13416
549.751	13924
549.815	14493
549.879	15511
549.943	12821
550.007	13921
550.071	15331
550.135	14539
550.199	13125
550.263	13596
550.327	12995
550.391	14162
550.455	14418
550.519	14695
550.582	15530
550.646	17397
550.710	19220
550.774	17020
550.838	16902
550.901	17076
550.965	20073
551.029	19408
551.093	21825
551.156	23312
551.220	31230
551.284	39343
551.347	26661
551.411	27488
551.475	36044
551.538	21018
551.602	18440
551.666	16149
551.729	14828
551.793	15697
551.856	15072
551.920	14964
551.983	15136
552.047	13911
552.110	14717
552.174	14778
552.237	14855
552.301	14142
552.364	14213
552.428	12504
552.491	13147
552.554	14609
552.618	14450
552.681	14894
552.745	13345
552.808	15700
552.871	17533
552.934	14943
552.998	13774
553.061	14441
553.124	15030
553.187	13357
553.251	15243
553.314	15740
553.377	15787
553.440	18785
553.503	31617
553.567	60024
553.630	24270
553.693	14597
553.756	15883
553.819	15451
553.882	13667
553.945	13794
554.008	14674
554.071	12833
554.134	15172
554.197	13158
554.260	13289
554.323	14248
554.386	14650
554.449	14584
554.512	15235
554.575	13765
554.638	14690
554.701	13948
554.764	14328
554.827	13496
554.889	12441
554.952	12763
555.015	12013
555.078	11224
555.141	12629
555.203	11919
555.266	11750
555.329	11911
555.391	10957
555.454	11334
555.517	12218
555.580	10580
555.642	10396
555.705	9680
555.768	11046
555.830	11021
555.893	9763
555.955	9187
556.018	9602
556.080	9167
556.143	9503
556.206	9704
556.268	9235
556.330	9641
556.393	8671
556.455	8939
556.518	9866
556.580	11794
556.643	8906
556.705	8544
556.767	7436
556.830	8758
556.892	8763
556.955	8969
557.017	9490
557.079	8220
557.142	7730
557.204	6971
557.266	10593
557.328	9757
557.391	7645
557.453	6798
557.515	6848
557.577	6462
557.639	8114
557.701	7722
557.764	6231
557.826	7234
557.888	8541
557.950	7279
558.012	8853
558.074	10424
558.136	17734
558.198	50634
558.260	30613
558.322	8625
558.384	8610
558.446	10311
558.508	10971
558.570	14329
558.632	17965
558.694	24321
558.756	28930
558.818	65997
558.880	217877
558.942	110751
559.003	54498
559.065	40824
559.127	13543
559.189	12026
559.251	13741
559.312	17262
559.374	34265
559.436	126725
559.498	108803
559.559	17335
559.621	14035
559.683	14091
559.744	20282
559.806	51864
559.868	119464
559.929	34747
559.991	14018
560.052	16440
560.114	44491
560.176	43662
560.237	23258
560.299	51367
560.360	18457
560.422	6187
560.483	5902
560.545	5012
560.606	5161
560.667	4655
560.729	4151
560.790	5042
560.852	4723
560.913	4474
560.974	3756
561.036	4690
561.097	5453
561.158	4355
561.220	4511
561.281	3947
561.342	3912
561.403	5584
561.465	4452
561.526	7742
561.587	14078
561.648	5094
561.709	4297
561.771	3805
561.832	4079
561.893	3583
561.954	4186
562.015	3765
562.076	4913
562.137	4205
562.198	3896
562.259	4449
562.320	3910
562.381	3711
562.442	4983
562.503	5093
562.564	4623
562.625	4114
562.686	4321
562.747	3653
562.808	4725
562.869	4356
562.930	5394
562.991	4548
563.051	4573
563.112	3877
563.173	3853
563.234	3800
563.294	4637
563.355	3524
563.416	4556
563.477	4111
563.537	3573
563.598	4150
563.659	3825
563.720	3495
563.780	4122
563.841	3995
563.901	4926
563.962	3957
564.023	4036
564.083	4148
564.144	3875
564.204	4035
564.265	5337
564.325	4797
564.386	7967
564.446	9205
564.507	3967
564.567	3671
564.628	4352
564.688	4253
564.749	3034
564.809	3794
564.869	5173
564.930	3884
564.990	4066
565.050	2820
565.111	3708
565.171	3800
565.231	3575
565.292	4449
565.352	3641
565.412	3740
565.472	4384
565.532	4559
565.593	3225
565.653	3608
565.713	5280
565.773	4386
565.833	4066
565.893	6528
565.953	4423
566.013	3770
566.074	4563
566.134	5486
566.194	7878
566.254	8702
566.314	6844
566.374	5049
566.434	4904
566.494	4710
566.554	3595
566.614	4491
566.673	5651
566.733	4955
566.793	5143
566.853	5164
566.913	5825
566.973	5584
567.033	5419
567.092	5869
567.152	5196
567.212	5894
567.272	5153
567.331	6136
567.391	6437
567.451	6797
567.511	8382
567.570	8663
567.630	6488
567.690	5811
567.749	5766
567.809	5894
567.868	8182
567.928	7633
567.988	9067
568.047	8214
568.107	10268
568.166	13185
568.226	17974
568.285	25467
568.345	24173
568.404	20434
568.464	18820
568.523	15587
568.582	16040
568.642	16732
568.701	20421
568.761	26648
568.820	39296
568.879	43982
568.939	36621
568.998	26911
569.057	20375
569.116	16372
569.176	12671
569.235	11245
569.294	9569
569.353	8614
569.413	8309
569.472	8144
569.531	7578
569.590	6317
569.649	6188
569.708	5648
569.767	6633
569.827	6164
569.886	5986
569.945	5108
570.004	6278
570.063	4450
570.122	5266
570.181	4977
570.240	5807
570.299	5911
570.358	6033
570.417	5179
570.475	4974
570.534	4562
570.593	4909
570.652	4477
570.711	4976
570.770	4357
570.829	4874
570.887	4508
570.946	4656
571.005	3628
571.064	3716
571.122	4694
571.181	5420
571.240	4585
571.299	4206
571.357	4816
571.416	4396
571.475	4823
571.533	6061
571.592	4801
571.650	5640
571.709	4194
571.768	4573
571.826	5085
571.885	3464
571.943	4167
572.002	4900
572.060	4120
572.119	4809
572.177	4700
572.236	4509
572.294	4188
572.352	4026
572.411	3864
572.469	4178
572.528	3485
572.586	4110
572.644	4048
572.703	6871
572.761	4215
572.819	4067
572.877	3831
572.936	4379
572.994	3891
573.052	3464
573.110	3989
573.169	3650
573.227	3914
573.285	4211
573.343	4202
573.401	4844
573.459	4314
573.517	3955
573.576	4721
573.634	4862
573.692	3233
573.750	3498
573.808	3295
573.866	4712
573.924	4964
573.982	5714
574.040	4905
574.098	4381
574.155	4060
574.213	4166
574.271	2908
574.329	3547
574.387	3838
574.445	3631
574.503	2650
574.560	4054
574.618	2428
574.676	3456
574.734	2923
574.792	3201
574.849	4065
574.907	3452
574.965	2882
575.022	3361
575.080	4025
575.138	4361
575.195	3186
575.253	3187
575.311	3679
575.368	4117
575.426	3320
575.483	3883
575.541	3573
575.598	3287
575.656	3948
575.713	4521
575.771	3495
575.828	4218
575.886	3233
575.943	4766
576.001	3765
576.058	3871
576.115	4093
576.173	4935
576.230	4721
576.287	5474
576.345	4175
576.402	3899
576.459	3895
576.517	4788
576.574	4996
576.631	5097
576.688	4281
576.746	3660
576.803	4808
576.860	4477
576.917	4225
576.974	4848
577.031	4444
577.089	3990
577.146	3962
577.203	4095
577.260	4295
577.317	4672
577.374	5047
577.431	4796
577.488	4106
577.545	4409
577.602	4654
577.659	4178
577.716	4605
577.773	5443
577.830	4953
577.886	4938
577.943	3771
578.000	4278
578.057	3841
578.114	5100
578.171	5393
578.227	6272
578.284	6331
578.341	5573
578.398	3688
578.454	4681
578.511	4363
578.568	5430
578.625	5540
578.681	5021
578.738	4640
578.794	3606
578.851	4346
578.908	4782
578.964	4788
579.021	5211
579.077	4059
579.134	4965
579.190	3902
579.247	3647
579.303	3443
579.360	4199
579.416	4305
579.473	4569
579.529	3001
579.586	4850
579.642	5080
579.698	5280
579.755	4904
579.811	4664
579.867	4915
579.924	5116
579.980	5016
580.036	5832
580.093	5509
580.149	7426
580.205	8366
580.261	7309
580.317	5819
580.374	5055
580.430	7455
580.486	6114
580.542	5566
580.598	5795
580.619	5556
580.654	5147
580.692	5641
580.710	5891
580.765	5264
580.767	5246
580.823	5622
580.838	5454
580.879	5036
580.911	4878
580.935	4763
580.984	5324
580.991	5402
581.047	4994
581.057	5161
581.103	5924
581.130	5908
581.159	5904
581.203	5994
581.215	6021
581.270	7212
581.276	7095
581.326	5953
581.349	6174
581.382	6536
581.422	6299
581.438	6204
581.494	5610
581.494	5610
581.550	5684
581.567	5708
581.606	5748
581.640	5707
581.661	5702
581.713	6496
581.717	6561
581.773	5680
581.786	5722
581.829	5815
581.859	6067
581.885	6294
581.932	6110
581.940	6084
581.996	6654
582.004	6643
582.052	6486
582.077	6231
582.107	6037
582.150	6236
582.163	6278
582.219	6575
582.223	6654
582.274	7587
582.296	7045
582.330	6140
582.368	6446
582.386	6648
582.441	7206
582.441	7207
582.497	6833
582.514	7105
582.552	7967
582.587	8033
582.608	7994
582.659	7516
582.663	7464
582.719	7336
582.732	7226
582.774	7131
582.805	7751
582.830	8176
582.877	7939
582.885	7898
582.941	8468
582.950	8463
582.996	8705
583.023	9281
583.052	9858
583.095	9154
583.107	8966
583.162	10660
583.168	10653
583.218	10463
583.240	9980
583.273	9154
583.313	8964
583.328	8903
583.384	8337
583.385	8333
583.439	8430
583.458	8453
583.494	8383
583.531	8487
583.549	8606
583.603	7932
583.605	7902
583.660	8497
583.676	8481
583.715	8615
583.748	8162
583.770	7841
583.820	8666
583.825	8767
583.881	8115
583.893	8171
583.936	8134
583.965	8516
583.991	8933
584.038	8447
584.046	8325
584.101	7530
584.110	7614
584.156	8366
584.183	8669
584.211	8820
584.255	8797
584.266	8833
584.321	8844
584.328	8951
584.376	9829
584.400	9523
584.431	9134
584.472	9611
584.486	9700
584.541	9834
584.545	9818
584.596	9846
584.617	9830
584.651	9845
584.689	10091
584.706	10141
584.761	10203
584.762	10203
584.816	10603
584.834	10611
584.871	10665
584.906	10713
584.926	10658
584.978	10855
584.980	10878
585.035	11659
585.051	11789
585.090	12208
585.123	12614
585.145	12895
585.195	13446
585.200	13509
585.254	14662
585.267	14855
585.309	15863
585.340	17105
585.364	18033
585.412	19215
585.419	19356
585.473	20936
585.484	20968
585.528	22282
585.556	25153
585.583	31087
585.628	42918
585.637	48885
585.692	93131
585.700	102576
585.747	152978
585.772	156736
585.801	119182
585.845	56117
585.856	47075
585.910	25122
585.917	22803
585.965	19126
585.989	17768
586.019	17480
586.061	17177
586.074	16994
586.128	16400
586.133	16338
586.183	16647
586.205	16799
586.237	16938
586.277	16783
586.292	16667
586.346	17120
586.349	17084
586.401	16814
586.421	16878
586.455	17242
586.493	17799
586.509	18588
586.564	20828
586.565	20920
586.618	28826
586.637	31040
586.672	29606
586.709	24396
586.727	22264
586.781	20854
586.781	20874
586.835	20301
586.853	20141
586.889	19785
586.925	19394
586.944	19248
586.996	19553
586.998	19604
587.052	20387
587.068	20726
587.106	21221
587.140	21616
587.161	21979
587.212	22539
587.215	22569
587.269	22816
587.284	23088
587.323	24253
587.356	24633
587.377	24878
587.427	26155
587.431	26304
587.485	27596
587.499	28058
587.539	29104
587.571	29513
587.593	29979
587.643	31835
587.648	32047
587.702	33557
587.715	34059
587.755	36215
587.786	37553
587.810	38638
587.858	40994
587.864	41280
587.917	43833
587.930	44596
587.971	48565
588.001	50950
588.025	52751
588.073	56932
588.079	57600
588.133	63479
588.145	64766
588.187	70148
588.217	73988
588.241	77975
588.288	86453
588.295	88001
588.348	101132
588.360	103961
588.402	115313
588.431	123326
588.456	132496
588.503	151297
588.510	154867
588.564	183219
588.575	189490
588.617	222717
588.646	245979
588.671	274317
588.718	329589
588.725	342061
588.778	439073
588.789	458388
588.832	539228
588.861	590135
588.886	588568
588.932	573306
588.939	563935
588.993	466815
589.004	452380
589.047	554879
589.075	617219
589.100	608144
589.147	572325
589.154	559857
589.207	452300
589.218	430298
589.261	388769
589.290	362117
589.314	364106
589.361	371649
589.368	379825
589.421	447377
589.433	461817
589.475	531857
589.504	577780
589.528	565387
589.576	522429
589.582	525376
589.635	550666
589.647	554323
589.689	525410
589.718	495179
589.742	435086
589.790	313096
589.795	305490
589.849	232581
589.861	215975
589.902	187570
589.932	166753
589.955	153073
590.004	124279
590.009	122687
590.062	105137
590.075	100727
590.115	91581
590.146	84531
590.168	80956
590.218	73214
590.222	72893
590.275	67425
590.289	66080
590.328	62797
590.360	59670
590.381	58094
590.431	54575
590.435	54396
590.488	49792
590.503	48566
590.541	47235
590.574	45909
590.594	45081
590.645	42862
590.647	42855
590.700	40903
590.716	40306
590.753	39184
590.787	38053
590.806	37494
590.859	35816
590.859	35857
590.912	35033
590.930	34762
590.965	33971
591.001	32922
591.018	32560
591.071	31450
591.072	31390
591.124	31255
591.143	31064
591.177	30669
591.214	30254
591.230	30253
591.283	30229
591.285	30171
591.336	30010
591.356	29920
591.389	29578
591.427	29013
591.442	28623
591.495	27028
591.498	26862
591.547	26605
591.569	26476
591.600	26014
591.640	25241
591.653	25407
591.706	26040
591.711	26059
591.759	26376
591.782	26471
591.811	27417
591.853	28743
591.864	28505
591.917	26951
591.924	26660
591.969	25157
591.995	24296
592.022	24436
592.066	24486
592.075	24822
592.127	26693
592.137	26984
592.180	28932
592.208	30122
592.233	28289
592.279	24550
592.285	24589
592.338	24627
592.350	24584
592.390	24125
592.421	23744
592.443	23600
592.491	23117
592.495	23166
592.548	23313
592.562	23314
592.600	23470
592.633	23537
592.653	23278
592.704	22384
592.705	22522
592.775	23052
592.846	23783
592.916	22947
592.987	23192
593.058	23147
593.128	22271
593.199	22404
593.270	22243
593.341	21470
593.411	21496
593.482	22705
593.553	22273
593.623	22022
593.694	22660
593.764	24712
593.835	23859
593.906	22200
593.976	22159
594.047	22526
594.117	25075
594.188	26684
594.258	23365
594.329	21687
594.399	22538
594.470	22831
594.540	21898
594.611	23190
594.681	22842
594.751	23876
594.822	24108
594.892	24647
594.963	26114
595.033	25352
595.103	25617
595.174	26034
595.244	32581
595.314	40903
595.384	29445
595.455	26468
595.525	26737
595.595	27483
595.665	27583
595.736	28069
595.806	27669
595.876	27852
595.946	26904
596.016	27788
596.087	28457
596.157	28950
596.227	27509
596.297	29608
596.367	31210
596.437	33379
596.507	37636
596.577	44572
596.647	37006
596.717	33912
596.787	34935
596.857	34846
596.927	34157
596.997	33979
597.067	35398
597.137	38540
597.207	38417
597.277	35506
597.347	35470
597.417	35217
597.487	34969
597.557	34875
597.626	35991
597.696	37532
597.766	40201
597.836	45351
597.906	37444
597.975	34128
598.045	32788
598.115	34792
598.185	35837
598.254	38946
598.324	42505
598.394	43174
598.464	42879
598.533	42546
598.603	39364
598.672	39183
598.742	40192
598.812	41054
598.881	41534
598.951	40842
599.020	40169
599.090	41929
599.159	43224
599.229	42693
599.299	41294
599.368	42088
599.437	42278
599.507	40481
599.576	40693
599.646	42250
599.715	42039
599.785	40598
599.854	39931
599.924	43383
599.993	41075
600.062	40679
600.132	42064
600.201	42456
600.270	47206
600.340	49730
600.409	48551
600.478	48108
600.547	50603
600.617	49439
600.686	43626
600.755	41100
600.824	40497
600.894	41184
600.963	41087
601.032	41381
601.101	40597
601.170	40490
601.239	40952
601.308	42485
601.378	42305
601.447	42796
601.516	43957
601.585	44958
601.654	47059
601.723	46913
601.792	47051
601.861	49106
601.930	52923
601.999	53844
602.068	51339
602.137	52934
602.206	53836
602.275	51957
602.343	54314
602.412	56224
602.481	53137
602.550	52892
602.619	54239
602.688	54739
602.756	55075
602.825	54664
602.894	56079
602.963	56144
603.032	56630
603.100	56993
603.169	55729
603.238	58294
603.307	56523
603.375	56023
603.444	58354
603.513	55239
603.581	55935
603.650	60197
603.719	53904
603.787	49740
603.856	51008
603.924	51648
603.993	53820
604.061	54370
604.130	57061
604.198	57542
604.267	57965
604.335	57977
604.404	59950
604.472	59723
604.541	61562
604.609	62962
604.678	64045
604.746	64520
604.815	67254
604.883	66150
604.951	63240
605.020	65236
605.088	61654
605.156	60725
605.225	60439
605.293	60609
605.361	60459
605.429	59650
605.498	61128
605.566	61866
605.634	63333
605.702	64380
605.771	64771
605.839	67540
605.907	63160
605.975	64272
606.043	62965
606.111	59336
606.180	64528
606.248	63848
606.316	63112
606.384	63071
606.452	61404
606.520	51052
606.588	51852
606.656	49435
606.724	48943
606.792	47843
606.860	43272
606.928	40605
606.996	37619
607.064	37609
607.132	37811
607.200	40324
607.267	42541
607.335	41495
607.403	42114
607.471	42119
607.539	40821
607.607	42532
607.674	37402
607.742	38605
607.810	36480
607.878	36663
607.946	36892
608.013	38426
608.081	39099
608.149	40507
608.216	39679
608.284	41729
608.352	41371
608.419	42242
608.487	45758
608.555	43039
608.622	39518
608.690	41125
608.757	43316
608.825	46450
608.893	45622
608.960	45242
609.028	46136
609.095	47784
609.163	44129
609.230	39774
609.298	35342
609.365	36373
609.432	37797
609.500	40740
609.567	45202
609.635	51711
609.702	55189
609.769	54920
609.837	48198
609.904	41399
609.971	39539
610.039	47392
610.106	59650
610.173	113679
610.241	279861
610.308	272734
610.375	96703
610.442	53060
610.509	43368
610.577	41086
610.644	40645
610.711	40828
610.778	41830
610.845	42082
610.912	46119
610.980	48478
611.047	53535
611.114	52304
611.181	44913
611.248	44042
611.315	46377
611.382	48012
611.449	47621
611.516	50644
611.583	48833
611.650	49784
611.717	51397
611.784	51998
611.851	55604
611.918	60123
611.984	71524
612.051	100983
612.118	201243
612.185	494602
612.252	511784
612.319	132731
612.386	76255
612.452	66284
612.519	61029
612.586	63655
612.653	60753
612.719	58065
612.786	56831
612.853	53027
612.919	49357
612.986	50843
613.053	49581
613.120	47319
613.186	44787
613.253	47819
613.319	45310
613.386	46142
613.453	45632
613.519	48009
613.586	47948
613.652	53782
613.719	50259
613.785	51000
613.852	47265
613.918	46366
613.985	48568
614.051	53802
614.118	67491
614.184	76674
614.250	49278
614.317	48624
614.383	46070
614.449	47128
614.516	46836
614.582	48682
614.648	47400
614.715	46336
614.781	46533
614.847	46589
614.914	46673
614.980	45427
615.046	44890
615.112	45838
615.179	46120
615.245	48286
615.311	49421
615.377	57019
615.443	64732
615.509	55839
615.575	53333
615.642	52614
615.708	52162
615.774	55871
615.840	61574
615.906	69304
615.972	87576
616.038	141258
616.104	271002
616.170	572486
616.236	716103
616.302	223211
616.368	116341
616.434	86406
616.500	70643
616.565	72633
616.631	91201
616.697	84638
616.763	76291
616.829	104929
616.895	190710
616.961	235760
617.026	122892
617.092	65744
617.158	57195
617.224	53198
617.289	48842
617.355	47324
617.421	45615
617.487	46276
617.552	43050
617.618	42764
617.684	42153
617.749	44153
617.815	40891
617.880	40571
617.946	39534
618.012	41044
618.077	41089
618.143	40107
618.208	40362
618.274	43578
618.339	43678
618.405	38765
618.470	38131
618.536	37890
618.601	38759
618.667	37728
618.732	35376
618.798	33543
618.863	34363
618.928	34200
618.994	34106
619.059	35429
619.124	39923
619.190	38101
619.255	34019
619.320	33710
619.386	34771
619.451	32947
619.516	32256
619.581	33373
619.647	34466
619.712	34387
619.777	33627
619.842	33785
619.907	34535
619.972	34030
620.038	34040
620.103	34375
620.168	33736
620.233	33836
620.298	34107
620.363	33232
620.428	35183
620.493	35502
620.558	35795
620.623	36029
620.688	35774
620.753	36049
620.818	36048
620.883	36728
620.948	36916
621.013	36066
621.078	36157
621.143	35063
621.207	38374
621.272	37269
621.337	37214
621.402	37367
621.467	39391
621.532	42314
621.596	38200
621.661	36828
621.726	35052
621.791	36484
621.855	36331
621.920	36251
621.985	36999
622.049	40820
622.114	38678
622.179	38362
622.243	38375
622.308	39128
622.373	39953
622.437	40176
622.502	37165
622.566	37979
622.631	37212
622.695	38302
622.760	38379
622.824	38265
622.889	37896
622.953	38886
623.018	42771
623.082	46195
623.147	39318
623.211	38400
623.276	38279
623.340	37983
623.404	36173
623.469	35607
623.533	36353
623.597	35821
623.662	35897
623.726	34794
623.790	32693
623.854	32005
623.919	32115
623.983	33572
624.047	32906
624.111	32775
624.176	33424
624.240	34645
624.304	36744
624.368	31549
624.432	33732
624.496	33799
624.560	34468
624.625	37029
624.689	34738
624.753	36005
624.817	34157
624.881	33934
624.945	32158
625.009	31544
625.073	30748
625.137	31649
625.201	35048
625.265	36274
625.329	32283
625.393	32573
625.456	32233
625.520	32098
625.584	34460
625.648	37075
625.712	45123
625.776	74921
625.839	91511
625.903	55057
625.967	30733
626.031	38065
626.095	58949
626.158	39153
626.222	25756
626.286	24824
626.349	23463
626.413	23251
626.477	23794
626.540	23511
626.604	21596
626.668	21988
626.731	21812
626.795	22113
626.858	22665
626.922	21485
626.986	20977
627.049	20264
627.113	21781
627.176	21245
627.240	20396
627.303	20662
627.366	19864
627.430	20098
627.493	20558
627.557	20688
627.620	20987
627.684	20679
627.747	21138
627.810	19627
627.874	18096
627.937	17230
628.000	20053
628.064	19088
628.127	15691
628.190	17435
628.253	16313
628.317	16199
628.380	15176
628.443	15427
628.506	15900
628.569	14548
628.632	13576
628.696	14693
628.759	13561
628.822	12642
628.885	12878
628.948	13546
629.011	12893
629.074	12381
629.137	12902
629.200	12254
629.263	14195
629.326	11912
629.389	12682
629.452	12492
629.515	13469
629.578	12774
629.641	13435
629.704	12652
629.767	12375
629.830	12652
629.892	11765
629.955	10892
630.018	12605
630.081	11947
630.144	13515
630.207	12142
630.269	12191
630.332	12385
630.395	12197
630.458	11473
630.520	10204
630.583	10755
630.646	10264
630.708	10600
630.771	10766
630.834	11689
630.896	10633
630.959	11774
631.021	10139
631.084	10941
631.146	11599
631.209	13859
631.272	10401
631.334	10755
631.397	10973
631.459	10444
631.522	10977
631.584	12199
631.646	13168
631.709	13494
631.771	14201
631.834	13624
631.896	11421
631.958	10032
632.021	11119
632.083	10004
632.145	10295
632.208	9951
632.270	10383
632.332	10142
632.395	9254
632.457	11232
632.519	10479
632.581	10092
632.643	9264
632.706	10378
632.768	8904
632.830	9331
632.892	9734
632.954	9652
633.016	10902
633.078	9797
633.141	10212
633.203	9634
633.265	9989
633.327	9053
633.389	9095
633.451	10253
633.513	11169
633.575	11870
633.637	10389
633.698	11105
633.760	11177
633.822	10253
633.884	11579
633.946	11250
634.008	10972
634.070	11823
634.132	13542
634.193	14701
634.255	13898
634.317	13932
634.379	13271
634.441	12649
634.502	11358
634.564	11122
634.626	9486
634.687	10013
634.749	9395
634.811	9762
634.873	9706
634.934	10165
634.996	10110
635.057	8912
635.119	9867
635.181	9170
635.242	9456
635.304	9153
635.365	11295
635.427	9292
635.488	9128
635.550	9525
635.611	9969
635.673	9114
635.734	11518
635.796	11349
635.857	12880
635.918	12475
635.980	12231
636.041	14199
636.102	15385
636.164	15442
636.225	14605
636.286	12542
636.348	11956
636.409	10802
636.470	9776
636.531	9864
636.593	10106
636.654	10612
636.715	9017
636.776	8824
636.838	8323
636.899	8426
636.960	8613
637.021	8050
637.082	8187
637.143	7856
637.204	7498
637.265	7225
637.326	8406
637.387	7969
637.448	7238
637.509	8911
637.570	8262
637.631	7729
637.692	7148
637.753	7041
637.814	7160
637.875	7580
637.936	7972
637.997	7648
638.058	7467
638.119	8252
638.179	6629
638.240	6901
638.301	8069
638.362	6911
638.423	7029
638.483	8227
638.544	5968
638.605	7316
638.666	7108
638.726	7775
638.787	7485
638.848	7503
638.908	6513
638.969	7371
639.030	7495
639.090	6299
639.151	6115
639.211	7498
639.272	7805
639.332	10962
639.393	9443
639.453	7310
639.514	8293
639.574	7160
639.635	6143
639.695	7442
639.756	6496
639.816	6732
639.877	6547
639.937	9895
639.997	11849
640.058	8465
640.118	6127
640.178	6825
640.239	6254
640.299	7708
640.359	6566
640.420	6490
640.480	7144
640.540	7933
640.600	8168
640.661	8083
640.721	6959
640.781	9993
640.841	8773
640.901	7589
640.961	6469
641.021	6671
641.082	7640
641.142	9381
641.202	8031
641.262	6315
641.322	6727
641.382	5310
641.442	5676
641.502	6818
641.562	6395
641.622	6443
641.682	6341
641.742	6820
641.802	7738
641.861	7317
641.921	6478
641.981	7291
642.041	6418
642.101	7339
642.161	6046
642.221	5634
642.280	5606
642.340	5322
642.400	5047
642.460	6266
642.519	5496
642.579	5521
642.639	6468
642.698	4819
642.758	7565
642.818	5987
642.877	6055
642.937	6335
642.997	6659
643.056	8109
643.116	6335
643.175	6790
643.235	6596
643.294	6703
643.354	7185
643.414	8075
643.473	9127
643.532	10818
643.592	12369
643.651	19254
643.711	34759
643.770	65152
643.830	143400
643.889	367998
643.948	171352
644.008	27109
644.067	13076
644.126	10183
644.186	7910
644.245	7816
644.304	5342
644.363	7344
644.423	5812
644.482	6205
644.541	6555
644.600	6066
644.659	7997
644.719	9353
644.778	13838
644.837	22679
644.896	42488
644.955	115789
645.014	67585
645.073	13331
645.132	8352
645.191	8387
645.250	6268
645.309	7673
645.368	6666
645.427	9595
645.486	13269
645.545	27064
645.604	12145
645.663	6328
645.722	6348
645.781	7061
645.840	7735
645.898	8634
645.957	13084
646.016	18214
646.075	33244
646.134	62164
646.192	145599
646.251	309513
646.310	87396
646.369	17045
646.427	11949
646.486	8960
646.545	7089
646.603	6297
646.662	6263
646.721	5831
646.779	5216
646.838	5038
646.896	8256
646.955	9127
647.014	14294
647.072	24952
647.131	68221
647.189	59246
647.248	8587
647.306	6129
647.365	5020
647.423	4072
647.481	4729
647.540	3177
647.598	4628
647.657	4592
647.715	4302
647.773	4150
647.832	4228
647.890	3978
647.948	3789
648.007	4318
648.065	3641
648.123	3553
648.181	4847
648.240	5485
648.298	5486
648.356	3222
648.414	3800
648.472	3650
648.531	4431
648.589	4158
648.647	3586
648.705	3983
648.763	3836
648.821	3631
648.879	2936
648.937	4647
648.995	5111
649.053	6452
649.111	8498
649.169	15048
649.227	27781
649.285	52924
649.343	159583
649.401	141402
649.459	23825
649.516	15142
649.574	8841
649.632	14861
649.690	22201
649.748	12918
649.806	12547
649.863	26568
649.921	48074
649.979	53834
650.037	8914
650.094	4297
650.152	3709
650.210	3325
650.268	4530
650.325	4158
650.383	4719
650.440	2715
650.498	4099
650.556	3672
650.613	3025
650.671	3657
650.728	2671
650.786	3857
650.843	4701
650.901	2642
650.958	3161
651.016	1991
651.073	2818
651.131	2543
651.188	2470
651.246	3051
651.303	1194
651.360	3419
651.418	1553
651.475	3553
651.532	1335
651.590	3197
651.647	1748
651.704	3077
651.762	2955
651.819	2219
651.876	1666
651.933	2936
651.990	2991
652.048	2150
652.105	2268
652.162	3203
652.219	2484
652.276	2896
652.333	2318
652.390	1634
652.448	2005
652.505	2029
652.562	2405
652.619	3695
652.676	4138
652.733	7011
652.790	2242
652.847	1164
652.904	2643
652.961	1548
653.017	1820
653.074	3433
653.131	1489
653.188	1945
653.245	1478
653.302	2654
653.359	1664
653.415	3014
653.472	1390
653.529	2702
653.586	1721
653.642	2220
653.699	2415
653.756	1473
653.813	2205
653.869	2292
653.926	1721
653.983	1664
654.039	2673
654.096	2056
654.152	2652
654.209	2466
654.266	2312
654.322	1692
654.379	2051
654.435	2711
654.492	2429
654.548	3791
654.605	5651
654.661	5130
654.717	2064
654.774	2616
654.830	2312
654.887	2036
654.943	1373
655.000	2638
655.056	2595
655.112	2533
655.168	916
655.225	2431
655.281	3697
655.337	2833
655.394	5342
655.450	5777
655.506	3352
655.562	5422
655.618	6761
655.675	1141
655.731	1863
655.787	1722
655.843	2692
655.899	1087
655.955	1779
656.011	2649
656.067	1215
656.123	2458
656.179	1663
656.235	3269
656.291	983
656.347	2352
656.403	1604
656.459	1602
656.515	2820
656.571	2491
656.627	2277
656.683	2740
656.739	2579
656.795	2270
656.850	2056
656.906	2539
656.962	2913
657.018	1253
657.074	1465
657.129	3302
657.185	3419
657.241	6777
657.297	5990
657.352	3445
657.408	1692
657.464	3270
657.519	2193
657.575	951
657.630	1653
657.686	2289
657.742	1502
657.797	2535
657.853	1427
657.908	3908
657.964	838
658.019	2405
658.075	1424
658.130	2522
658.186	835
658.241	2189
658.297	768
658.352	2027
658.407	2074
658.463	1926
658.518	1576
658.573	2096
658.629	751
658.684	2306
658.739	1966
658.795	1341
658.850	2223
658.905	1750
658.960	2063
659.016	1530
659.071	1448
659.126	1704
659.181	1153
659.236	3866
659.291	4194
659.346	3216
659.401	3134
659.457	2475
659.512	4226
659.567	3450
659.622	2279
659.677	1364
659.732	837
659.787	2758
659.842	2123
659.897	3332
659.952	2614
660.007	2580
660.061	1607
660.116	1222
660.171	1240
660.226	1823
660.281	2548
660.336	1037
660.391	1387
660.445	1622
660.500	1212
660.555	1891
660.610	604
660.664	1829
660.719	1396
660.774	1670
660.828	1936
660.883	1792
660.938	1861
660.992	953
661.047	2017
661.101	2053
661.156	1544
661.211	919
661.265	1685
661.320	966
661.374	2268
661.429	1468
661.483	2366
661.538	1147
661.592	1232
661.647	2214
661.701	2687
661.755	2370
661.810	1130
661.864	861
661.919	1379
661.973	2014
662.027	981
662.081	1740
662.136	393
662.190	1085
662.244	1973
662.299	2078
662.353	1597
662.407	1330
662.461	1448
662.515	2372
662.569	1107
662.624	1967
662.678	1518
662.732	1563
662.786	980
662.840	1616
662.894	2482
662.948	1354
663.002	370
663.056	790
663.110	843
663.164	1810
663.218	906
663.272	1565
663.326	1231
663.380	1386
663.434	2225
663.488	1511
663.542	1622
663.595	2119
663.649	1292
663.703	1773
663.757	903
663.811	1343
663.864	1404
663.918	1068
663.972	1885
664.026	1262
664.079	1161
664.133	2156
664.187	1612
664.240	1278
664.294	873
664.348	2046
664.401	794
664.455	1808
664.508	183
664.562	2214
664.615	1106
664.669	702
664.722	1412
664.776	1748
664.829	1107
664.883	1189
664.936	1198
664.990	961
665.043	1789
665.097	1499
665.150	2724
665.203	986
665.257	1633
665.310	1761
665.363	1136
665.417	2059
665.470	1385
665.523	1372
665.576	1596
665.630	1581
665.683	1155
665.736	2134
665.789	1562
665.842	1525
665.895	1080
665.949	2154
666.002	1367
666.055	1719
666.108	1866
666.161	2442
666.214	1912
666.267	2195
666.320	2275
666.373	2517
666.426	1256
666.479	1157
666.532	1898
666.585	2392
666.638	3108
666.691	2874
666.744	2135
666.796	2164
666.849	1823
666.902	1696
666.955	1951
667.008	1452
667.060	756
667.113	670
667.166	1034
667.219	1085
667.271	1856
667.324	1697
667.377	1067
667.430	1489
667.482	2023
667.535	1719
667.587	1093
667.640	2376
667.693	1611
667.745	3332
667.798	3605
667.850	2184
667.903	1511
667.955	1258
668.008	1395
668.060	2843
668.113	1525
668.165	2311
668.218	1486
668.270	1903
668.322	1720
668.375	1267
668.427	1722
668.479	619
668.532	2172
668.584	2419
668.636	1392
668.689	962
668.741	340
668.793	1667
668.845	798
668.898	2311
668.950	1387
669.002	1733
669.054	815
669.106	1235
669.158	2041
669.211	1532
669.263	2399
669.315	2320
669.367	3051
669.419	2460
669.471	2487
669.523	2489
669.575	2725
669.627	2415
669.679	1497
669.731	2191
669.783	1423
669.835	3050
669.886	2377
669.938	1529
669.990	1520
670.042	1471
670.094	2278
670.146	1905
670.197	2360
670.249	3398
670.301	2544
670.353	4205
670.404	4588
670.456	6629
670.508	10509
670.560	17871
670.611	29901
670.663	52244
670.715	107583
670.766	209528
670.818	108766
670.869	20134
670.921	8452
670.972	5061
671.024	4380
671.075	3388
671.127	2382
671.178	2642
671.230	2815
671.281	2711
671.333	1825
671.384	2382
671.436	2579
671.487	4037
671.538	4248
671.590	6265
671.641	9756
671.692	15397
671.744	28282
671.795	31539
671.846	13252
671.897	6227
671.949	4200
672.000	3879
672.051	3762
672.102	3193
672.153	1776
672.204	2720
672.256	955
672.307	1944
672.358	1957
672.409	1985
672.460	815
672.511	1849
672.562	1332
672.613	1706
672.664	794
672.715	1510
672.766	1237
672.817	1107
672.868	1607
672.919	1361
672.970	1155
673.021	1655
673.071	1311
673.122	1255
673.173	1449
673.224	1199
673.275	343
673.326	922
673.376	1274
673.427	944
673.478	431
673.528	2112
673.579	569
673.630	1048
673.680	947
673.731	699
673.782	931
673.832	1618
673.883	1621
673.934	839
673.984	1503
674.035	1092
674.085	680
674.136	1968
674.186	884
674.237	1886
674.287	3412
674.338	2694
674.388	1052
674.438	1471
674.489	1059
674.539	1905
674.589	573
674.640	1618
674.690	1305
674.740	581
674.791	1007
674.841	1312
674.891	1479
674.942	735
674.992	368
675.042	1214
675.092	-119
675.142	313
675.193	217
675.243	523
675.293	766
675.343	1570
675.393	924
675.443	1986
675.493	734
675.543	655
675.593	915
675.643	1429
675.693	1270
675.743	789
675.793	974
675.843	530
675.893	557
675.943	1109
675.993	330
676.043	584
676.093	1980
676.142	273
676.192	724
676.242	1111
676.292	491
676.341	204
676.391	555
676.441	177
676.491	-175
676.540	654
676.590	998
676.640	639
676.689	681
676.739	923
676.789	811
676.838	86
676.888	613
676.937	222
676.987	860
677.037	1423
677.086	68
677.136	841
677.185	-31
677.235	555
677.284	658
677.333	-55
677.383	18
677.432	-414
677.482	744
677.531	452
677.580	703
677.630	809
677.679	593
677.728	80
677.778	447
677.827	1409
677.876	80
677.925	175
677.975	696
678.024	679
678.073	-18
678.122	734
678.171	1034
678.220	187
678.269	670
678.319	863
678.368	707
678.417	1022
678.466	625
678.515	1530
678.564	347
678.613	1024
678.662	325
678.711	675
678.760	-39
678.809	357
678.857	154
678.906	500
678.955	854
679.004	684
679.053	669
679.102	247
679.151	-31
679.199	20
679.248	231
679.297	237
679.346	-8
679.394	739
679.443	298
679.492	632
679.540	248
679.589	773
679.638	1135
679.686	759
679.735	677
679.784	120
679.832	137
679.881	864
679.929	363
679.978	171
680.026	1
680.075	896
680.123	-221
680.172	421
680.220	-469
680.268	-329
680.317	18
680.365	158
680.414	-88
680.462	148
680.510	319
680.559	38
680.607	153
680.655	201
680.703	325
680.752	-209
680.800	128
680.848	523
680.896	108
680.945	209
680.993	213
681.041	736
681.089	-181
681.137	385
681.185	56
681.233	186
681.258	-23
681.281	-254
681.329	990
681.377	161
681.380	197
681.425	229
681.473	738
681.502	934
681.521	1008
681.569	933
681.617	793
681.624	826
681.665	796
681.713	1570
681.745	1176
681.761	942
681.809	763
681.857	814
681.867	890
681.904	1005
681.952	1150
681.989	1250
682.000	1236
682.048	1382
682.096	1104
682.111	1099
682.143	989
682.191	1607
682.233	2033
682.239	2071
682.286	1631
682.334	1317
682.354	1371
682.382	1336
682.430	1735
682.476	2104
682.477	2084
682.525	1320
682.572	1917
682.598	1924
682.620	1864
682.667	2807
682.715	2664
682.720	2676
682.763	2479
682.810	2578
682.841	2615
682.857	2613
682.905	2263
682.952	2644
682.963	2580
683.000	2195
683.047	2121
683.085	2741
683.095	2894
683.142	2632
683.190	2326
683.206	2696
683.237	3276
683.284	3464
683.328	3106
683.332	3050
683.379	2850
683.426	3404
683.449	3240
683.473	3009
683.521	3581
683.568	3232
683.571	3220
683.615	2740
683.662	3184
683.693	3436
683.709	3540
683.757	3320
683.804	3251
683.814	3313
683.851	3415
683.898	4014
683.936	3966
683.945	3947
683.992	4442
684.039	4336
684.057	4392
684.086	4429
684.133	3972
684.179	4287
684.180	4272
684.227	3445
684.274	4711
684.300	4451
684.321	4308
684.368	4436
684.415	4899
684.422	4890
684.462	4611
684.509	3943
684.543	4695
684.556	4921
684.603	4808
684.649	4646
684.665	4666
684.696	4775
684.743	4343
684.786	4841
684.790	4869
684.837	5997
684.883	5359
684.908	5647
684.930	5859
684.977	5602
685.023	5646
685.029	5620
685.070	5129
685.117	5246
685.150	5557
685.164	5722
685.210	5756
685.257	5366
685.272	5780
685.303	6580
685.350	6488
685.393	6588
685.396	6573
685.443	6211
685.490	6708
685.514	6519
685.536	6378
685.583	6789
685.629	6089
685.636	6148
685.675	6459
685.722	6317
685.757	6779
685.768	6929
685.815	6859
685.861	6944
685.878	7153
685.908	7435
685.954	7706
686.000	7310
686.000	7297
686.047	6697
686.093	7707
686.121	8186
686.139	8459
686.185	7868
686.232	7780
686.242	7872
686.278	7844
686.324	8334
686.363	7473
686.370	7368
686.416	6859
686.463	7589
686.484	7712
686.509	7850
686.555	7739
686.601	7920
686.606	7915
686.647	7767
686.693	7498
686.727	7763
686.739	7869
686.785	7838
686.831	7450
686.848	7669
686.877	7944
686.923	7364
686.969	7739
686.969	7741
687.015	7523
687.061	8128
687.090	7844
687.107	7682
687.153	8328
687.199	8359
687.211	8333
687.245	8177
687.291	8355
687.332	8738
687.336	8794
687.382	8671
687.428	8572
687.453	8572
687.474	8436
687.520	8549
687.565	8426
687.574	8407
687.611	8603
687.657	8970
687.695	9089
687.702	9128
687.748	9238
687.794	10170
687.816	10298
687.839	10168
687.885	9989
687.931	9104
687.937	9140
687.976	9536
688.022	9322
688.058	9085
688.067	9039
688.113	9278
688.158	9093
688.179	8981
688.204	8837
688.249	9207
688.295	9115
688.300	9137
688.340	9560
688.386	9680
688.421	9690
688.431	9663
688.477	9760
688.522	9615
688.542	9664
688.567	9762
688.613	9618
688.658	9792
688.663	9784
688.703	9764
688.749	9409
688.784	9856
688.794	9983
688.839	9232
688.884	9505
688.905	9638
688.930	9862
688.975	10409
689.020	9749
689.026	9831
689.065	10451
689.110	9655
689.146	9939
689.155	10047
689.201	10064
689.246	10311
689.267	10460
689.291	10537
689.336	10449
689.381	10230
689.388	10244
689.426	10562
689.471	10325
689.509	10790
689.516	10851
689.561	10636
689.606	10507
689.630	10288
689.651	10134
689.696	10245
689.741	10102
689.750	10159
689.785	10609
689.830	10490
689.871	10555
689.875	10565
689.920	10503
689.965	11025
689.992	11144
690.010	11214
690.054	10814
690.099	10750
690.112	10845
690.144	11219
690.189	10634
690.233	10825
690.233	10842
690.278	10703
690.323	10758
690.354	10647
690.367	10689
690.412	11070
690.457	11076
690.474	11203
690.501	11181
690.546	11226
690.590	10763
690.595	10712
690.635	10946
690.680	11685
690.716	11596
690.724	11655
690.769	12654
690.813	13674
690.836	13804
690.857	14438
690.902	16197
690.946	18248
690.957	18640
690.991	23071
691.035	29009
691.077	35110
691.080	35279
691.124	36582
691.168	37335
691.198	37942
691.213	35500
691.257	28429
691.301	20823
691.318	18146
691.346	17346
691.390	15453
691.434	13619
691.439	13415
691.478	13230
691.522	12384
691.559	12285
691.567	12399
691.611	12834
691.655	13013
691.680	13173
691.699	13160
691.743	13120
691.787	13039
691.800	12971
691.831	13004
691.875	13242
691.919	13429
691.921	13401
691.964	13316
692.008	13285
692.041	13221
692.052	13245
692.096	13702
692.139	13866
692.162	13711
692.183	13342
692.227	12777
692.271	12766
692.282	12532
692.315	12507
692.359	13199
692.402	13418
692.403	13443
692.447	13249
692.490	12877
692.523	13146
692.534	13311
692.578	13452
692.622	13337
692.643	13263
692.666	13139
692.709	13252
692.753	13185
692.763	13100
692.797	13260
692.840	13439
692.884	13719
692.884	13748
692.928	13633
692.971	13956
693.004	13661
693.015	13565
693.059	13366
693.102	13536
693.124	13460
693.146	13637
693.189	13693
693.233	14130
693.245	14118
693.276	14444
693.320	15399
693.363	15662
693.365	15648
693.407	15993
693.450	16378
693.485	16599
693.493	16880
693.537	18273
693.580	19642
693.605	20219
693.624	21910
693.667	26460
693.710	30588
693.725	32038
693.753	40916
693.797	55055
693.840	69382
693.845	70911
693.883	72930
693.926	74554
693.966	76056
693.970	74502
694.013	57007
694.056	39484
694.086	27318
694.099	26320
694.142	22943
694.185	19615
694.206	18023
694.229	17765
694.272	17165
694.315	16428
694.326	16264
694.358	16135
694.401	15478
694.444	15468
694.446	15411
694.487	15247
694.530	14974
694.566	14753
694.573	14745
694.616	14513
694.659	14205
694.686	14190
694.702	14388
694.745	14505
694.787	14688
694.806	14760
694.830	14671
694.873	14365
694.916	14056
694.926	13994
694.959	14163
695.002	14077
695.044	14147
695.046	14113
695.087	14246
695.130	14499
695.166	14378
695.172	14415
695.215	14690
695.258	14845
695.286	14983
695.301	15015
695.343	14895
695.386	14912
695.406	14804
695.428	14796
695.471	14654
695.514	14650
695.526	14649
695.556	14931
695.599	15106
695.641	15444
695.646	15421
695.684	15281
695.726	15053
695.766	14847
695.769	14886
695.811	15082
695.854	15044
695.886	15116
695.896	15226
695.938	15423
695.981	15456
696.005	15512
696.023	15609
696.065	15863
696.108	16020
696.125	16062
696.150	16208
696.192	16280
696.235	16352
696.245	16346
696.277	16338
696.319	16251
696.361	16093
696.365	16062
696.404	16323
696.446	16108
696.485	16193
696.488	16250
696.530	16247
696.572	16265
696.604	16351
696.614	16446
696.656	16533
696.698	16656
696.724	16713
696.740	16591
696.783	15954
696.825	15510
696.844	15270
696.867	15571
696.909	16084
696.951	16407
696.964	16517
696.992	16359
697.034	15970
697.076	15632
697.083	15519
697.118	15737
697.160	16077
697.202	16308
697.203	16271
697.244	16249
697.286	16119
697.323	15989
697.327	16050
697.369	16097
697.411	16279
697.442	16308
697.453	16266
697.494	15978
697.536	15666
697.562	15416
697.578	15611
697.620	16074
697.661	16424
697.682	16563
697.703	16483
697.744	16316
697.786	16189
697.801	16036
697.828	16370
697.869	16900
697.911	17427
697.921	17507
697.952	17158
697.994	16669
698.035	16140
698.040	16040
698.077	16270
698.118	16355
698.160	16536
698.160	16492
698.201	16475
698.243	16409
698.279	16374
698.284	16462
698.325	16821
698.367	17174
698.399	17381
698.408	17416
698.449	17367
698.491	17345
698.518	17273
698.532	17318
698.573	17325
698.614	17301
698.638	17239
698.656	17441
698.697	17816
698.738	18180
698.757	18310
698.779	18371
698.820	18369
698.862	18380
698.877	18329
698.903	18178
698.944	17865
698.985	17551
698.996	17417
699.026	17591
699.067	17765
699.116	17924
699.235	17609
699.354	16732
699.474	17412
699.593	17225
699.713	17697
699.832	17589
699.951	16374
700.070	17585
700.190	16165
700.309	16968
700.428	16416
700.547	16661
700.667	15966
700.786	16102
700.905	16509
701.024	15620
701.143	16061
701.262	16993
701.381	16252
701.500	16256
701.619	15810
701.738	15791
701.857	16578
701.976	16599
702.095	14668
702.214	15753
702.333	15815
702.452	15466
702.571	15197
702.690	15477
702.809	15000
702.928	14637
703.047	15327
703.165	14899
703.284	14580
703.403	14583
703.522	14936
703.640	14785
703.759	15029
703.878	17175
703.997	14638
704.115	15372
704.234	12949
704.353	14272
704.471	14530
704.590	13346
704.708	13805
704.827	13662
704.946	13638
705.064	14153
705.183	14396
705.301	15067
705.420	18274
705.538	19029
705.656	16846
705.775	16722
705.893	23025
706.012	34983
706.130	18879
706.249	16996
706.367	16766
706.485	16702
706.604	16249
706.722	15910
706.840	16986
706.958	19917
707.077	18796
707.195	16230
707.313	14809
707.431	14525
707.549	14842
707.668	14907
707.786	14658
707.904	14378
708.022	14165
708.140	15070
708.258	13991
708.376	15217
708.494	14164
708.612	15346
708.730	18723
708.848	20260
708.966	17645
709.084	16980
709.202	16551
709.320	16433
709.438	16946
709.556	17915
709.674	16196
709.791	17393
709.909	16652
710.027	16110
710.145	16702
710.263	16459
710.380	15787
710.498	16895
710.616	15934
710.733	15583
710.851	15631
710.969	16079
711.086	16242
711.204	15412
711.322	15760
711.439	14835
711.557	15001
711.674	15936
711.792	15131
711.909	15437
712.027	16874
712.144	15445
712.262	14651
712.379	15146
712.497	18743
712.614	21619
712.732	17525
712.849	17142
712.966	17137
713.084	18260
713.201	18409
713.318	17737
713.436	17202
713.553	18004
713.670	18041
713.787	18192
713.905	17947
714.022	17716
714.139	17117
714.256	18223
714.373	18848
714.490	25361
714.608	39826
714.725	137365
714.842	252554
714.959	34599
715.076	18174
715.193	16879
715.310	16117
715.427	14590
715.544	15918
715.661	14754
715.778	15377
715.895	16571
716.011	16474
716.128	15864
716.245	15330
716.362	15429
716.479	15791
716.596	14580
716.713	14741
716.829	13799
716.946	14942
717.063	14221
717.180	13645
717.296	12966
717.413	13725
717.530	13404
717.646	13537
717.763	13324
717.880	12984
717.996	12955
718.113	12533
718.229	11982
718.346	12449
718.462	12234
718.579	13046
718.695	13788
718.812	14677
718.928	13926
719.045	13445
719.161	11777
719.277	12428
719.394	12315
719.510	13118
719.626	12979
719.743	14462
719.859	16735
719.975	19518
720.092	44644
720.208	136533
720.324	39032
720.440	13458
720.557	13531
720.673	13621
720.789	15895
720.905	25970
721.021	18424
721.137	11402
721.253	12280
721.369	11809
721.486	12493
721.602	13113
721.718	11793
721.834	10852
721.950	11331
722.066	10659
722.181	11142
722.297	10433
722.413	10484
722.529	11061
722.645	10317
722.761	10902
722.877	10457
722.993	9546
723.108	10901
723.224	11009
723.340	10854
723.456	9855
723.571	10092
723.687	10297
723.803	10377
723.918	10159
724.034	9944
724.150	10253
724.265	9351
724.381	12763
724.497	17037
724.612	10166
724.728	9469
724.843	9280
724.959	9872
725.074	12669
725.190	16929
725.305	9088
725.421	8903
725.536	8723
725.651	8578
725.767	9014
725.882	9273
725.997	8762
726.113	9290
726.228	8535
726.343	9697
726.459	8013
726.574	9548
726.689	9674
726.804	7975
726.920	9317
727.035	8661
727.150	8603
727.265	8987
727.380	8827
727.495	8237
727.610	7996
727.725	9302
727.841	9224
727.956	13519
728.071	14700
728.186	9149
728.301	8091
728.416	8549
728.531	7960
728.645	7665
728.760	7600
728.875	7630
728.990	7229
729.105	7870
729.220	7737
729.335	7541
729.449	7495
729.564	8286
729.679	7762
729.794	7255
729.908	7068
730.023	7885
730.138	7549
730.253	7350
730.367	7509
730.482	7326
730.596	7346
730.711	7702
730.826	7710
730.940	8288
731.055	7659
731.169	7661
731.284	7199
731.398	7367
731.513	7354
731.627	7581
731.742	8179
731.856	9181
731.970	7519
732.085	9282
732.199	10389
732.313	12687
732.428	21494
732.542	60678
732.656	62732
732.771	14589
732.885	9648
732.999	8996
733.113	9304
733.227	9716
733.342	8284
733.456	8579
733.570	8307
733.684	7776
733.798	9207
733.912	7775
734.026	8387
734.140	7875
734.254	8338
734.368	9934
734.482	12538
734.596	8212
734.710	7528
734.824	8493
734.938	7324
735.052	7546
735.166	7163
735.280	7412
735.393	7168
735.507	7121
735.621	7815
735.735	10707
735.849	8862
735.962	7636
736.076	7117
736.190	7531
736.303	7530
736.417	10101
736.531	6571
736.644	7979
736.758	6255
736.872	7350
736.985	6677
737.099	7137
737.212	5948
737.326	6930
737.439	6972
737.553	7137
737.666	6024
737.780	6587
737.893	6492
738.007	6281
738.120	6537
738.233	6120
738.347	6585
738.460	6370
738.573	6772
738.687	6244
738.800	6678
738.913	6415
739.026	7322
739.140	6666
739.253	6912
739.366	5882
739.479	5628
739.592	6515
739.705	6114
739.818	6866
739.932	6993
740.045	6548
740.158	6662
740.271	5778
740.384	6371
740.497	6258
740.610	5434
740.723	5945
740.836	6530
740.949	6806
741.062	6450
741.174	6514
741.287	5936
741.400	6930
741.513	5924
741.626	6183
741.739	5691
741.851	6333
741.964	6052
742.077	5734
742.189	5586
742.302	6145
742.415	6340
742.527	6415
742.640	6644
742.753	5502
742.865	5111
742.978	5237
743.090	5612
743.203	5763
743.316	5300
743.428	4903
743.541	5643
743.653	5495
743.766	6410
743.878	4941
743.990	6090
744.103	6396
744.215	5737
744.327	5472
744.440	5869
744.552	6852
744.664	5937
744.777	5568
744.889	5520
745.001	5538
745.113	5195
745.226	5113
745.338	4612
745.450	5604
745.562	5612
745.674	5747
745.786	5115
745.898	6032
746.010	5694
746.122	5656
746.234	5193
746.347	5569
746.459	6157
746.570	4935
746.682	4920
746.794	5083
746.906	5539
747.018	4726
747.130	5647
747.242	4898
747.354	4428
747.466	5838
747.577	4913
747.689	5298
747.801	5282
747.913	4890
748.024	4261
748.136	5168
748.248	5777
748.359	5437
748.471	4817
748.583	4720
748.694	5071
748.806	6488
748.918	5911
749.029	5957
749.141	5541
749.252	6345
749.364	4856
749.475	6013
749.587	5176
749.698	5348
749.809	5304
749.921	5148
750.032	4873
750.144	4537
750.255	4386
750.366	4636
750.478	5165
750.589	5141
750.700	4583
750.811	4777
750.923	5137
751.034	5308
751.145	6838
751.256	5278
751.367	4243
751.479	4709
751.590	3957
751.701	5519
751.812	5087
751.923	4685
752.034	4495
752.145	4401
752.256	4785
752.367	5513
752.478	4427
752.589	4626
752.700	4900
752.811	4992
752.922	5386
753.032	4490
753.143	4961
753.254	5695
753.365	5748
753.476	4168
753.586	5119
753.697	4830
753.808	5231
753.919	4466
754.029	4681
754.140	4445
754.251	4960
754.361	5035
754.472	5360
754.582	4419
754.693	4744
754.804	5261
754.914	4598
755.025	5192
755.135	5183
755.246	4158
755.356	4800
755.466	5917
755.577	4987
755.687	5206
755.798	4732
755.908	4854
756.018	4728
756.129	5305
756.239	5351
756.349	5762
756.460	5291
756.570	5943
756.680	5010
756.790	6017
756.900	5603
757.011	5022
757.121	5053
757.231	4574
757.341	4675
757.451	4777
757.561	6176
757.671	5279
757.781	5364
757.891	5289
758.001	5491
758.111	6133
758.221	5923
758.331	5426
758.441	5232
758.551	6150
758.661	6079
758.771	5787
758.880	5534
758.990	6473
759.100	6082
759.210	6355
759.320	5320
759.429	5887
759.539	6334
759.649	6110
759.758	6233
759.868	6519
759.978	6952
760.087	6549
760.197	6945
760.307	7196
760.416	6446
760.526	7050
760.635	7354
760.745	7098
760.854	6603
760.964	7434
761.073	7835
761.182	7604
761.292	7468
761.401	7721
761.511	7425
761.620	7542
761.729	6699
761.839	6816
761.948	8051
762.057	8297
762.166	8372
762.276	7598
762.385	8392
762.494	8591
762.603	8594
762.712	9163
762.822	9819
762.931	9326
763.040	9168
763.149	9665
763.258	10597
763.367	10975
763.476	11365
763.585	11964
763.694	11592
763.803	13291
763.912	13257
764.021	14255
764.130	14028
764.238	15464
764.347	15347
764.456	17895
764.565	18472
764.674	19398
764.783	21843
764.891	23608
765.000	25994
765.109	28988
765.217	34252
765.326	39237
765.435	45621
765.543	53597
765.652	65655
765.761	84270
765.869	109038
765.978	147818
766.086	207929
766.195	295421
766.303	396045
766.412	390608
766.520	295375
766.629	395988
766.737	339976
766.846	244680
766.954	171792
767.062	127930
767.171	98442
767.279	76995
767.387	62096
767.496	52058
767.604	44898
767.712	39790
767.820	34427
767.928	31648
768.037	28766
768.145	28032
768.253	25707
768.361	25290
768.469	26047
768.577	26042
768.685	26317
768.793	27810
768.901	29706
769.009	34194
769.117	39658
769.225	49432
769.333	64158
769.441	93021
769.549	140310
769.657	232590
769.765	351996
769.873	336179
769.981	333649
770.088	292029
770.196	185539
770.304	121797
770.412	87154
770.519	65482
770.627	50971
770.735	41649
770.842	34277
770.950	31274
771.058	26519
771.165	24458
771.273	22482
771.380	20520
771.488	18126
771.595	17519
771.703	16474
771.810	15646
771.918	14334
772.025	14167
772.133	12917
772.240	12736
772.348	12835
772.455	12544
772.562	11454
772.670	10939
772.777	10783
772.884	10964
772.991	9484
773.099	9880
773.206	8427
773.313	9526
773.420	9660
773.528	8856
773.635	8538
773.742	9010
773.849	8182
773.956	7886
774.063	8710
774.170	7391
774.277	7319
774.384	7202
774.491	7307
774.598	7653
774.705	7366
774.812	7740
774.919	6914
775.026	6571
775.133	6825
775.239	7833
775.346	6601
775.453	6362
775.560	6207
775.667	6053
775.773	6878
775.880	6306
775.987	6488
776.093	6699
776.200	6610
776.307	6041
776.413	5784
776.520	5676
776.627	6135
776.733	6135
776.840	5480
776.946	6069
777.053	5960
777.159	5474
777.266	4831
777.372	7194
777.478	5093
777.585	5902
777.691	4986
777.798	5174
777.904	5888
778.010	6135
778.117	6776
778.223	4916
778.329	5423
778.435	5320
778.542	4690
778.648	4684
778.754	4789
778.860	4271
778.966	5164
779.072	5396
779.178	5240
779.284	4691
779.391	4115
779.497	5609
779.603	7240
779.708	8505
779.815	13259
779.920	36292
780.026	113586
780.132	40334
780.238	8458
780.344	5020
780.450	5634
780.556	4845
780.661	4898
780.767	5217
780.873	5024
780.979	4780
781.085	4125
781.190	4068
781.296	4696
781.402	3850
781.507	3907
781.613	4510
781.719	3847
781.824	3886
781.930	3449
782.035	4091
782.141	3796
782.246	3541
782.352	3469
782.457	4524
782.563	3734
782.668	4873
782.773	4128
782.879	4192
782.984	3946
783.090	4770
783.195	4465
783.300	4827
783.405	3872
783.511	4201
783.616	4434
783.721	3942
783.826	3867
783.932	3711
784.037	3983
784.142	4070
784.247	3755
784.352	3831
784.457	3816
784.562	3939
784.667	3544
784.772	3145
784.877	2581
784.982	3803
785.087	3762
785.192	3295
785.297	3377
785.402	3911
785.507	3311
785.611	3770
785.716	2784
785.821	3699
785.926	3485
786.031	3511
786.135	2942
786.240	2910
786.345	3163
786.450	3608
786.554	3446
786.659	2579
786.763	2384
786.868	3173
786.973	3215
787.077	2828
787.182	3226
787.286	2724
787.391	3093
787.495	3131
787.600	2652
787.704	2740
787.809	3788
787.913	2528
788.017	2909
788.122	2791
788.226	3201
788.330	3720
788.435	2549
788.539	2902
788.643	2388
788.747	2777
788.852	3006
788.956	3737
789.060	3440
789.164	3310
789.268	2166
789.372	2859
789.476	2673
789.580	2574
789.684	2123
789.788	3142
789.892	3102
789.996	2728
790.100	2607
790.204	2709
790.308	2561
790.412	3706
790.516	2859
790.620	3576
790.724	2864
790.828	2932
790.931	2280
791.035	4319
791.139	2972
791.242	3078
791.346	2501
791.450	2885
791.554	2547
791.657	2728
791.761	2923
791.864	3073
791.968	2624
792.072	2648
792.175	3478
792.279	2970
792.382	1851
792.486	2606
792.589	2801
792.693	2302
792.796	2620
792.899	2884
793.003	2618
793.106	1666
793.209	2460
793.313	3222
793.416	1814
793.519	2641
793.623	2488
793.726	3352
793.829	2639
793.932	2168
794.035	1860
794.138	2579
794.242	3642
794.345	3238
794.448	3959
794.551	7621
794.654	21973
794.757	69487
794.860	27571
794.963	5360
795.066	2186
795.169	2280
795.272	2972
795.375	2749
795.477	2036
795.580	2315
795.683	2074
795.786	2174
795.889	1192
795.991	3381
796.094	2040
796.197	2173
796.300	2232
796.402	2337
796.505	2352
796.608	1983
796.710	2186
796.813	1650
796.915	2027
797.018	2709
797.120	1392
797.223	1510
797.326	2181
797.428	2086
797.530	2108
797.633	2098
797.735	2218
797.838	2464
797.940	3285
798.042	2193
798.145	1925
798.247	2198
798.349	1632
798.452	1628
798.554	1311
798.656	1466
798.758	2581
798.860	2400
798.962	2981
799.065	2721
799.167	1720
799.269	1704
799.371	2068
799.473	2376
799.575	1120
799.677	3129
799.779	2876
799.881	1700
799.983	2556
800.085	2077
800.187	3061
800.289	1426
800.390	1645
800.492	2620
800.594	2595
800.696	1166
800.798	983
800.899	1845
801.001	1523
801.103	2154
801.205	1237
801.306	1377
801.408	710
801.509	1230
801.611	1735
801.713	1921
801.814	1484
801.916	1084
802.017	1914
802.119	1281
802.220	2171
802.322	756
802.423	2455
802.525	2095
802.626	2356
802.727	1676
802.829	2077
802.930	228
803.031	1973
803.133	1351
803.234	1427
803.335	1614
803.436	1332
803.538	1761
803.639	1170
803.740	2320
803.841	1152
803.942	1784
804.043	2218
804.144	1544
804.245	2099
804.346	638
804.447	649
804.548	1887
804.649	1802
804.750	1825
804.851	1130
804.952	686
805.053	1702
805.154	961
805.255	1935
805.355	2199
805.456	1221
805.557	1198
805.658	1369
805.758	1995
805.859	1626
805.960	1605
806.061	1685
806.161	917
806.262	1372
806.362	1831
806.463	1071
806.564	1705
806.664	1195
806.765	1711
806.865	1398
806.966	1493
807.066	985
807.166	1957
807.267	1595
807.367	1382
807.468	1471
807.568	530
807.668	1590
807.769	2094
807.869	1560
807.969	2083
808.069	1572
808.170	1681
808.270	1484
808.370	1454
808.470	1197
808.570	1399
808.670	1166
808.770	1822
808.870	824
808.970	2455
809.070	1523
809.170	871
809.271	2030
809.370	1226
809.470	2020
809.570	1346
809.670	926
809.770	2506
809.870	1636
809.970	1406
810.070	1468
810.169	2372
810.269	-248
810.369	1942
810.469	1097
810.568	1481
810.668	718
810.768	1162
810.867	1032
810.967	1114
811.066	1473
811.166	1076
811.265	1431
811.365	1452
811.464	-69
811.564	1372
811.663	1455
811.763	979
811.862	1680
811.962	1125
812.061	1422
812.160	1385
812.260	1554
812.359	1629
812.458	1514
812.557	1557
812.657	3829
812.756	2096
812.855	720
812.954	1806
813.053	1813
813.153	1751
813.252	549
813.351	1581
813.450	1263
813.549	1266
813.648	1113
813.747	602
813.846	1585
813.945	547
814.044	1520
814.143	1713
814.242	1671
814.341	838
814.439	529
814.538	1976
814.637	1107
814.736	1142
814.835	1602
814.933	1627
815.032	2083
815.131	1310
815.229	2763
815.328	2750
815.427	2375
815.525	2543
815.624	2144
815.722	1952
815.821	2826
815.919	2792
816.018	2057
816.116	2279
816.215	2256
816.313	2373
816.412	2302
816.510	1949
816.609	3972
816.707	2822
816.805	3443
816.904	2392
817.002	3666
817.100	3915
817.198	3255
817.296	3647
817.395	3356
817.493	4732
817.591	4249
817.689	5291
817.787	6662
817.885	9452
817.983	16037
818.081	29463
818.179	63549
818.277	145804
818.375	182398
818.473	77579
818.571	29049
818.669	18566
818.767	14197
818.865	13373
818.963	14376
819.061	19009
819.158	29218
819.256	55331
819.354	107961
819.452	209512
819.549	198801
819.647	95346
819.745	40628
819.842	21876
819.940	14750
820.038	10772
820.135	8924
820.233	8050
820.330	5685
820.428	5570
820.525	4633
820.623	4419
820.720	3779
820.818	4407
820.915	3672
821.012	3563
821.110	2774
821.207	3009
821.304	2807
821.402	2818
821.499	2614
821.596	2237
821.693	2282
821.791	3048
821.888	3010
821.985	2318
822.082	2642
822.179	2807
822.276	1770
822.373	2305
822.470	1269
822.567	2623
822.664	1703
822.761	2141
822.858	1565
822.955	1873
823.052	1127
823.149	1273
823.246	2557
823.343	2380
823.440	1486
823.536	1581
823.633	1911
823.730	1371
823.827	1860
823.923	1337
824.020	3187
824.117	2419
824.213	430
824.310	2336
824.407	1716
824.503	2080
824.600	2098
824.696	1730
824.793	1576
824.889	941
824.986	790
825.082	1141
825.179	1274
825.275	783
825.371	2180
825.468	1366
825.564	477
825.660	1663
825.757	1583
825.853	2020
825.949	551
826.045	1771
826.142	1010
826.238	1544
826.334	2477
826.430	1430
826.526	779
826.622	967
826.718	1502
826.814	1267
826.910	1564
827.006	1304
827.102	640
827.198	2464
827.294	1121
827.390	1754
827.486	1009
827.582	583
827.678	1064
827.774	2238
827.869	791
827.965	2250
828.061	902
828.157	1007
828.252	654
828.348	1154
828.444	1288
828.539	749
828.635	1009
828.731	1001
828.826	594
828.922	1261
829.017	1445
829.113	1553
829.208	691
829.304	467
829.399	1457
829.495	1123
829.590	1371
829.685	1223
829.781	1566
829.876	1108
829.971	1060
830.066	793
830.162	878
830.257	1829
830.352	1258
830.447	1555
830.543	719
830.638	516
830.733	2009
830.828	1300
830.923	1267
831.018	1975
831.113	584
831.208	1086
831.303	1268
831.398	1549
831.493	568
831.588	1329
831.683	174
831.778	1159
831.873	875
831.967	1486
832.062	459
832.157	1456
832.252	1836
832.346	1004
832.441	1419
832.536	1652
832.631	1360
832.725	2251
832.820	872
832.914	1684
833.009	1007
833.104	517
833.198	1300
833.293	168
833.387	1367
833.482	1358
833.576	314
833.670	906
833.765	937
833.859	424
833.954	1500
834.048	455
834.142	782
834.237	240
834.331	1096
834.425	2014
834.519	205
834.613	1643
834.708	606
834.802	759
834.896	418
834.990	923
835.084	1330
835.178	56
835.272	700
835.366	996
835.460	1510
835.554	1149
835.648	904
835.742	-62
835.836	695
835.930	381
836.024	1164
836.117	1469
836.211	628
836.305	1713
836.399	503
836.493	1059
836.586	937
836.680	780
836.774	146
836.867	1825
836.961	311
837.055	962
837.148	-13
837.242	573
837.335	879
837.429	741
837.522	544
837.616	754
837.709	1818
837.803	1035
837.896	1364
837.989	684
838.083	1116
838.176	875
838.269	1547
838.363	1582
838.456	630
838.549	1516
838.642	934
838.735	1230
838.829	1639
838.922	1095
839.015	627
839.108	219
839.201	1440
839.294	1395
839.387	737
839.480	433
839.573	753
839.666	884
839.759	321
839.852	398
839.945	480
840.038	993
840.131	551
840.223	860
840.316	1051
840.409	983
840.502	435
840.594	1352
840.687	612
840.780	1837
840.873	95
840.965	1092
841.058	987
841.150	1001
841.243	769
841.336	781
841.428	168
841.521	-386
841.613	68
841.706	348
841.798	-194
841.890	-236
841.983	530
842.075	957
842.167	85
842.260	519
842.352	360
842.444	639
842.537	763
842.629	2848
842.721	1199
842.813	545
842.905	-487
842.997	633
843.090	-36
843.182	1189
843.274	535
843.366	3663
843.458	6537
843.550	6154
843.642	1487
843.734	1409
843.826	202
843.918	1403
844.009	704
844.101	424
844.193	569
844.285	-256
844.377	265
844.469	579
844.560	526
844.652	629
844.744	998
844.835	475
844.927	255
845.019	723
845.110	471
845.202	787
845.293	-44
845.385	-64
845.476	-188
845.568	600
845.659	728
845.751	1183
845.842	-262
845.934	65
846.025	83
846.116	875
846.208	192
846.299	-49
846.390	141
846.482	515
846.573	622
846.664	975
846.755	731
846.846	1072
846.937	-156
847.029	570
847.120	434
847.211	271
847.302	925
847.393	46
847.484	711
847.575	355
847.666	82
847.757	326
847.847	-54
847.938	558
848.029	642
848.120	-40
848.211	-5
848.302	509
848.392	-304
848.483	772
848.574	185
848.664	263
848.755	-224
848.846	347
848.936	303
849.027	384
849.118	262
849.208	436
849.299	737
849.389	977
849.480	1366
849.570	1975
849.661	3940
849.751	7944
849.841	5093
849.932	1187
850.022	-38
850.112	635
850.203	1133
850.293	776
850.383	678
850.474	338
850.564	74
850.654	762
850.744	74
850.834	949
850.924	-180
851.014	947
851.104	797
851.194	508
851.284	525
851.374	564
851.464	700
851.554	317
851.644	281
851.734	1303
851.824	1876
851.914	1686
852.004	4356
852.094	6741
852.183	2178
852.273	1183
852.363	-55
852.452	222
852.542	898
852.632	293
852.721	1114
852.811	278
852.901	260
852.990	-120
853.080	562
853.169	-515
853.259	810
853.348	30
853.438	572
853.527	1057
853.617	893
853.706	2222
853.795	2447
853.885	6398
853.974	12441
854.063	21582
854.152	42434
854.242	25068
854.331	4024
854.420	955
854.509	363
854.598	1295
854.687	668
854.777	381
854.866	-813
854.955	417
855.044	-624
855.133	702
855.222	458
855.311	-299
855.400	543
855.488	38
855.577	-95
855.666	257
855.755	632
855.844	944
855.933	807
856.021	962
856.110	986
856.199	-244
856.288	102
856.376	248
856.465	59
856.554	706
856.642	-135
856.731	573
856.819	308
856.908	552
856.996	367
857.085	1084
857.173	275
857.262	-138
857.350	659
857.438	549
857.527	-90
857.615	57
857.703	6
857.792	470
857.880	-496
857.968	-23
858.056	624
858.145	-654
858.233	110
858.321	-285
858.409	953
858.497	499
858.585	-595
858.673	217
858.761	52
858.849	-310
858.937	-24
859.025	431
859.113	487
859.201	-100
859.289	45
859.377	-201
859.465	-16
859.552	555
859.640	-541
859.728	813
859.816	507
859.903	1080
859.991	660
860.079	347
860.166	579
860.254	-184
860.342	-391
860.429	268
860.517	522
860.604	1051
860.692	303
860.779	-740
860.867	-285
860.954	156
861.042	303
861.129	449
861.216	890
861.304	465
861.391	168
861.478	55
861.565	62
861.653	392
861.740	-70
861.827	476
861.914	-489
862.001	-505
862.089	469
862.176	1119
862.263	-228
862.350	468
862.437	270
862.524	225
862.611	-25
862.698	-181
862.785	10
862.871	-162
862.958	-555
863.045	-227
863.132	6
863.219	-405
863.306	-597
863.392	1346
863.479	51
863.566	-365
863.652	829
863.739	-271
863.826	199
863.912	-178
863.999	-777
864.086	219
864.172	-307
864.259	378
864.345	111
864.432	528
864.518	523
864.604	482
864.691	-173
864.777	-16
864.863	874
864.950	452
865.036	230
865.122	881
865.209	2008
865.295	1785
865.381	1256
865.467	1143
865.553	1595
865.639	625
865.726	1896
865.812	3918
865.898	7418
865.984	11121
866.070	16633
866.156	25558
866.242	11106
866.328	2938
866.414	753
866.499	1066
866.585	749
866.671	1248
866.757	1302
866.843	1594
866.928	552
867.014	844
867.100	1328
867.186	1014
867.271	1655
867.357	982
867.442	850
867.528	460
867.614	935
867.699	192
867.785	1805
867.870	384
867.956	761
868.041	1471
868.127	621
868.212	1706
868.297	503
868.383	243
868.468	1251
868.553	1406
868.639	2138
868.724	1462
868.809	2398
868.894	1259
868.979	1100
869.065	1363
869.150	-445
869.235	431
869.320	554
869.405	174
869.490	-49
869.575	143
869.660	707
869.745	1142
869.830	331
869.915	525
870.000	-417
870.085	446
870.169	1054
870.254	1471
870.339	503
870.424	-374
870.509	1321
870.593	818
870.678	812
870.763	276
870.847	882
870.932	166
871.016	1054
871.101	584
871.186	-103
871.270	1116
871.355	748
871.439	722
871.523	229
871.608	390
871.692	-92
871.777	553
871.861	787
871.945	1040
872.030	753
872.114	467
872.198	-79
872.282	267
872.367	250
872.451	264
872.535	420
872.619	186
872.703	-44
872.787	-463
872.871	12
872.955	-161
873.039	583
873.123	37
873.207	1706
873.291	1482
873.375	-235
873.459	-291
873.543	92
873.627	337
873.711	521
873.794	653
873.878	-206
873.962	-259
874.045	-311
874.129	335
874.137	369
874.213	703
874.245	615
874.296	472
874.352	6
874.380	-223
874.460	349
874.464	372
874.547	-113
874.568	167
874.631	985
874.676	611
874.714	305
874.784	368
874.798	376
874.881	1556
874.892	1406
874.965	386
874.999	133
875.048	-236
875.107	16
875.131	125
875.215	174
875.215	174
875.298	271
875.323	352
875.381	541
875.430	54
875.465	-293
875.538	310
875.548	388
875.631	40
875.646	117
875.714	475
875.753	290
875.798	161
875.861	-52
875.881	-159
875.964	437
875.968	432
876.047	366
876.076	330
876.130	282
876.183	442
876.213	528
876.291	1159
876.296	1200
876.379	-20
876.398	-92
876.462	-321
876.506	-95
876.545	160
876.613	392
876.628	416
876.711	-66
876.721	25
876.794	825
876.828	642
876.877	268
876.935	282
876.960	336
877.043	521
877.043	519
877.125	1
877.150	130
877.208	614
877.258	349
877.291	45
877.365	-519
877.374	-577
877.456	216
877.472	185
877.539	231
877.579	421
877.622	520
877.687	594
877.704	621
877.787	420
877.794	396
877.869	95
877.901	38
877.952	5
878.008	166
878.034	244
878.115	-116
878.117	-124
878.199	-218
878.222	-31
878.282	487
878.329	343
878.364	219
878.437	366
878.447	396
878.529	-655
878.544	-386
878.611	677
878.651	265
878.694	-83
878.758	382
878.776	540
878.858	-73
878.865	-36
878.941	122
878.972	-60
879.023	-289
879.078	97
879.105	265
879.185	-248
879.187	-256
879.269	-150
879.292	-44
879.351	297
879.399	174
879.433	44
879.506	-106
879.516	-127
879.598	161
879.613	165
879.680	250
879.720	48
879.762	-204
879.827	-135
879.844	-138
879.926	86
879.933	66
880.007	-69
880.040	17
880.089	223
880.147	-99
880.171	-302
880.253	221
880.254	219
880.335	-310
880.360	-226
880.417	257
880.467	395
880.499	499
880.574	1056
880.580	1063
880.662	520
880.680	455
880.744	300
880.787	46
880.825	-146
880.893	-217
880.907	-235
880.989	-140
881.000	-154
881.070	58
881.106	267
881.152	351
881.213	5
881.233	-100
881.315	74
881.319	72
881.396	113
881.426	185
881.478	188
881.532	228
881.559	341
881.639	128
881.641	124
881.722	447
881.745	448
881.803	223
881.852	-30
881.885	-152
881.958	-138
881.966	-135
882.047	135
882.064	170
882.129	239
882.171	112
882.210	6
882.277	58
882.291	100
882.372	188
882.383	114
882.454	52
882.489	451
882.535	267
882.596	-411
882.616	-399
882.697	-1
882.702	12
882.778	-36
882.808	60
882.859	57
882.914	-288
882.940	-267
883.020	31
883.021	33
883.102	284
883.127	371
883.183	546
883.233	514
883.264	297
883.339	-185
883.345	-155
883.426	107
883.445	227
883.507	227
883.551	303
883.587	442
883.657	527
883.668	505
883.749	110
883.763	104
883.830	132
883.869	100
883.910	222
883.975	404
883.991	310
884.072	-365
884.081	-388
884.152	328
884.187	473
884.233	415
884.292	499
884.314	417
884.394	-52
884.398	-74
884.475	65
884.504	150
884.555	231
884.610	288
884.636	305
884.716	172
884.716	175
884.797	593
884.821	536
884.877	275
884.927	120
884.958	92
885.033	-165
885.038	-192
885.118	-462
885.139	-534
885.199	-173
885.244	207
885.279	82
885.350	-778
885.359	-760
885.439	206
885.456	331
885.520	161
885.561	70
885.600	229
885.667	602
885.680	582
885.760	284
885.773	224
885.840	72
885.878	11
885.920	55
885.984	57
886.000	29
886.080	239
886.089	230
886.160	164
886.195	189
886.240	373
886.300	521
886.320	439
886.400	121
886.406	108
886.480	-98
886.511	-282
886.560	-148
886.616	255
886.640	311
886.720	200
886.722	199
886.800	57
886.827	2
886.879	-76
886.932	-156
886.959	-108
887.038	55
887.039	58
887.119	313
887.143	390
887.198	366
887.248	360
887.278	387
887.354	457
887.358	454
887.437	276
887.459	257
887.517	829
887.564	1279
887.596	1047
887.669	490
887.676	477
887.755	197
887.774	158
887.835	542
887.880	821
887.914	747
887.985	549
887.994	524
888.073	318
888.090	253
888.153	37
888.195	-65
888.232	-44
888.300	13
888.311	69
888.391	394
888.405	455
888.470	-67
888.510	-412
888.549	-151
888.615	448
888.628	486
888.708	520
888.720	542
888.787	-163
888.825	-620
888.866	-443
888.930	-70
888.945	-22
889.024	145
889.035	175
889.103	39
889.140	-56
889.182	126
889.245	459
889.261	377
889.340	-80
889.349	-126
889.419	263
889.454	456
889.498	456
889.559	463
889.577	429
889.656	301
889.664	293
889.735	13
889.768	-114
889.814	-176
889.873	-247
889.978	313
890.083	-142
890.187	-221
890.292	391
890.397	467
890.501	636
890.606	170
890.710	860
890.815	1189
890.919	-347
891.024	1201
891.128	495
891.233	63
891.337	386
891.442	200
891.546	-423
891.650	47
891.755	-96
891.859	1607
891.963	419
892.068	528
892.172	-215
892.276	395
892.380	307
892.484	-551
892.589	641
892.693	16
892.797	790
892.901	366
893.005	368
893.109	370
893.213	296
893.317	396
893.421	-13
893.525	29
893.629	-336
893.733	74
893.837	63
893.941	160
894.045	95
894.148	397
894.252	-129
894.356	547
894.460	131
894.564	-93
894.667	612
894.771	1
894.875	403
894.978	-142
895.082	82
895.186	304
895.289	235
895.393	-289
895.496	-73
895.600	153
895.703	678
895.807	-10
895.910	-819
896.014	140
896.117	379
896.221	-357
896.324	698
896.427	401
896.531	-206
896.634	273
896.737	339
896.840	-567
896.944	-120
897.047	173
897.150	587
897.253	-313
897.356	-172
897.460	434
897.563	144
897.666	-558
897.769	-216
897.872	579
897.975	572
898.078	-498
898.181	-331
898.284	-679
898.387	384
898.490	-125
898.593	569
898.695	519
898.798	-298
898.901	768
899.004	359
899.107	214
899.209	678
899.312	317
899.415	-59
899.518	622
899.620	304
899.723	-136
899.826	6
899.928	-25
900.031	-439
900.133	126
900.236	179
900.338	-401
900.441	165
900.543	200
900.646	293
900.748	39
900.851	121
900.953	-44
901.055	372
901.158	-18
901.260	51
901.362	-113
901.465	359
901.567	199
901.669	-556
901.771	-273
901.873	442
901.976	-370
902.078	123
902.180	-36
902.282	-304
902.384	-93
902.486	223
902.588	389
902.690	-202
902.792	-448
902.894	647
902.996	-625
903.098	-96
903.200	-54
903.302	474
903.404	-2
903.505	-166
903.607	-626
903.709	350
903.811	-23
903.913	-444
904.014	353
904.116	-142
904.218	-391
904.319	237
904.421	683
904.523	-867
904.624	47
904.726	224
904.827	-444
904.929	-12
905.030	172
905.132	315
905.233	62
905.335	159
905.436	-658
905.537	-220
905.639	-491
905.740	-455
905.841	463
905.943	119
906.044	-1038
906.145	-761
906.247	-498
906.348	174
906.449	-404
906.550	-227
906.651	-42
906.752	-877
906.854	-345
906.955	-746
907.056	-148
907.157	-216
907.258	-115
907.359	172
907.460	-323
907.561	32
907.662	-520
907.762	-491
907.863	-477
907.964	-44
908.065	288
908.166	-139
908.267	-418
908.367	199
908.468	-654
908.569	159
908.670	-496
908.770	248
908.871	-109
908.971	646
909.072	-69
909.173	-111
909.273	-104
909.374	-584
909.474	94
909.575	-101
909.675	-484
909.776	-46
909.876	-473
909.977	-201
910.077	-368
910.177	-369
910.278	-190
910.378	-349
910.478	-313
910.579	-354
910.679	-204
910.779	-390
910.879	-1186
910.980	-415
911.080	-263
911.180	-967
911.280	-606
911.380	-325
911.480	-987
911.580	-708
911.680	174
911.780	-474
911.880	-37
911.980	137
912.080	-775
912.180	100
912.280	175
912.380	-317
912.480	-44
912.580	452
912.679	-279
912.779	-549
912.879	-636
912.979	-58
913.078	-617
913.178	-24
913.278	-416
913.377	-500
913.477	160
913.577	-205
913.676	75
913.776	-103
913.875	-240
913.975	18
914.074	-754
914.174	-506
914.273	-324
914.373	-78
914.472	105
914.572	291
914.671	-263
914.770	-1114
914.870	-871
914.969	-418
915.068	225
915.167	-292
915.267	-521
915.366	-41
915.465	-377
915.564	26
915.663	297
915.763	530
915.862	-158
915.961	-118
916.060	-1134
916.159	-428
916.258	-616
916.357	-441
916.456	-181
916.555	323
916.654	-652
916.752	-194
916.851	-174
916.950	280
917.049	-469
917.148	-764
917.247	-724
917.345	-268
917.444	-194
917.543	117
917.642	-368
917.740	-736
917.839	-195
917.937	-128
918.036	-771
918.135	126
918.233	-821
918.332	-297
918.430	-689
918.529	-782
918.627	-528
918.726	-348
918.824	798
918.923	-806
919.021	-418
919.119	-435
919.218	-172
919.316	-673
919.414	-669
919.512	-878
919.611	-363
919.709	-184
919.807	-347
919.905	-241
920.003	-647
920.102	-801
920.200	498
920.298	156
920.396	-222
920.494	447
920.592	-864
920.690	202
920.788	-628
920.886	136
920.984	235
921.082	-449
921.180	-19
921.277	-542
921.375	-179
921.473	-164
921.571	-325
921.669	-803
921.766	-127
921.864	-810
921.962	-560
922.060	-131
922.157	-10
922.255	179
922.352	-134
922.450	612
922.548	238
922.645	474
922.743	-145
922.840	-13
922.938	686
923.035	-327
923.133	-250
923.230	830
923.327	42
923.425	330
923.522	303
923.619	418
923.717	-376
923.814	-343
923.911	126
924.008	872
924.106	-220
924.203	681
924.300	-173
924.397	370
924.494	12
924.591	-205
924.688	-374
924.786	83
924.883	378
924.979	334
925.077	-667
925.173	219
925.270	-150
925.367	-489
925.464	-196
925.561	417
925.658	-94
925.755	423
925.852	695
925.948	51
926.045	-311
926.142	453
926.239	244
926.335	154
926.432	-290
926.529	-399
926.625	-304
926.722	-203
926.818	477
926.915	190
927.011	-628
927.108	781
927.204	-285
927.301	-288
927.397	-171
927.494	-359
927.590	282
927.687	-512
927.783	-576
927.879	-574
927.976	-833
928.072	-688
928.168	-1025
928.264	277
928.361	-1320
928.457	-394
928.553	-720
928.649	-50
928.745	-349
928.841	288
928.937	-255
929.033	239
929.129	16
929.225	-633
929.321	-356
929.417	-493
929.513	-485
929.609	395
929.705	-125
929.801	-582
929.897	-808
929.993	-925
930.089	-452
930.184	-387
930.280	236
930.376	35
930.471	-667
930.567	-598
930.663	-654
930.758	-969
930.854	-756
930.950	-229
931.045	-326
931.141	-167
931.236	445
931.332	-277
931.427	-726
931.523	-436
931.618	257
931.714	32
931.809	-155
931.905	-102
932.000	-2
932.095	-257
932.191	-355
932.286	-660
932.381	-364
932.476	-1126
932.572	-533
932.667	-335
932.762	-658
932.857	-941
932.952	-149
933.047	208
933.142	-732
933.237	-476
933.332	-83
933.427	220
933.522	-234
933.617	-6
933.712	-831
933.807	-1077
933.902	-850
933.997	-292
934.092	-303
934.187	-425
934.282	-692
934.376	-501
934.471	-908
934.566	-354
934.661	-260
934.755	260
934.850	-689
934.945	-31
935.039	-357
935.134	173
935.228	-268
935.323	-294
935.417	-1028
935.512	-675
935.606	-919
935.701	-218
935.795	-482
935.890	-670
935.984	-145
936.079	-758
936.173	-895
936.267	-634
936.362	-491
936.456	-627
936.550	-264
936.644	-441
936.738	-824
936.833	-193
936.927	-62
937.021	-1166
937.115	-838
937.209	-1451
937.303	-156
937.397	-634
937.491	-396
937.585	-882
937.679	-1012
937.773	-1129
937.867	-560
937.961	-390
938.055	-124
938.149	-763
938.243	-986
938.337	-358
938.430	-652
938.524	501
938.618	-873
938.712	-849
938.805	-1480
938.899	-886
938.993	-1260
939.086	159
939.180	-638
939.274	-1268
939.367	-291
939.461	-419
939.554	-664
939.648	-363
939.741	-863
939.835	-1194
939.928	-3
940.022	-455
940.115	-158
940.208	-302
940.302	-289
940.395	-401
940.488	-1182
940.582	-940
940.675	-808
940.768	-656
940.861	-524
940.954	-710
941.048	-870
941.141	-1192
941.234	-597
941.327	-731
941.420	-357
941.513	-130
941.606	-307
941.699	-821
941.792	-1259
941.885	-9
941.978	-829
942.071	-113
942.164	-1755
942.257	-568
942.349	-1225
942.442	-586
942.535	-391
942.628	-706
942.721	224
942.813	-1089
942.906	-1039
942.999	-487
943.091	-931
943.184	-343
943.277	-1088
943.369	-674
943.462	-564
943.554	-958
943.647	-1109
943.739	-1585
943.832	-768
943.924	-199
944.017	-307
944.109	-1723
944.201	-319
944.294	-76
944.386	-993
944.478	-532
944.571	-484
944.663	-1156
944.755	-1157
944.847	43
944.940	424
945.032	-1356
945.124	-563
945.216	-235
945.308	-778
945.400	-572
945.492	-194
945.584	-571
945.676	-524
945.768	-852
945.860	-691
945.952	-535
946.044	-1177
946.136	-848
946.228	-353
946.320	-952
946.412	-541
946.503	-1024
946.595	467
946.687	-324
946.779	-584
946.870	-166
946.962	-1011
947.054	204
947.145	-25
947.237	-244
947.329	-701
947.420	-1010
947.512	-602
947.603	-1440
947.695	173
947.786	-1009
947.878	-587
947.969	-634
948.061	-868
948.152	-814
948.243	-327
948.335	-122
948.426	300
948.517	-1290
948.609	258
948.700	-1012
948.791	-981
948.882	-254
948.973	-816
949.065	-809
949.156	-764
949.247	-1214
949.338	-516
949.429	-412
949.520	-859
949.611	-636
949.702	-1158
949.793	-1124
949.884	-874
949.975	-288
950.066	-418
950.157	-798
950.247	-358
950.338	-503
950.429	-1541
950.520	-212
950.611	-373
950.701	-277
950.792	-136
950.883	-277
950.973	-323
951.064	-153
951.155	-577
951.245	-113
951.336	-1018
951.427	-949
951.517	-220
951.608	-693
951.698	-1185
951.788	-1264
951.879	-935
951.969	-333
952.060	-483
952.150	297
952.240	81
952.331	-1264
952.421	-332
952.511	-553
952.602	-1223
952.692	-1005
952.782	-1143
952.872	-31
952.962	-877
953.052	-100
953.143	-1339
953.233	-801
953.323	-142
953.413	-765
953.503	10
953.593	34
953.683	-1157
953.773	-783
953.863	-1011
953.953	-797
954.042	-774
954.132	-1091
954.222	57
954.312	-166
954.402	-804
954.492	-795
954.581	-1048
954.671	-716
954.761	-887
954.850	709
954.940	-757
955.030	-392
955.119	-817
955.209	-227
955.298	-921
955.388	-811
955.477	166
955.567	-525
955.656	-887
955.746	-696
955.835	-860
955.925	-903
956.014	-1254
956.103	-879
956.193	-1091
956.282	-437
956.371	-472
956.461	-561
956.550	-1551
956.639	-349
956.728	-687
956.817	-840
956.906	-960
956.995	32
957.085	-209
957.174	-717
957.263	-540
957.352	-317
957.441	-1272
957.530	-487
957.619	-699
957.708	159
957.796	-596
957.885	111
957.974	-343
958.063	-126
958.152	-697
958.241	-36
958.329	-1034
958.418	-455
958.507	-589
958.596	-718
958.684	-929
958.773	-228
958.861	-1010
958.950	-900
959.039	-792
959.127	-292
959.216	-443
959.304	-981
959.393	-236
959.481	-140
959.570	-787
959.658	-810
959.746	-878
959.835	-37
959.923	-261
960.011	-237
960.100	-705
960.188	182
960.276	-297
960.365	-895
960.453	-98
960.541	-413
960.629	-699
960.717	-680
960.805	-315
960.893	-1232
960.981	-1171
961.069	-633
961.158	-408
961.245	-74
961.333	-573
961.421	-68
961.509	-517
961.597	-781
961.685	-277
961.773	-1245
961.861	-532
961.949	232
962.036	-951
962.124	-344
962.212	-731
962.299	-667
962.387	-1151
962.475	-387
962.562	-923
962.650	-23
962.738	-585
962.825	-714
962.913	-1284
963.000	-1327
963.088	-589
963.175	-716
963.263	-277
963.350	-659
963.438	-1352
963.525	-765
963.612	-1462
963.700	-475
963.787	1366
963.874	722
963.962	41
964.049	-421
964.136	-420
964.223	-197
964.310	-798
964.398	-185
964.485	-1049
964.572	-1063
964.659	-713
964.746	-856
964.833	-598
964.920	-745
965.007	-408
965.094	-1069
965.181	-773
965.268	-63
965.355	-863
965.441	-355
965.528	-538
965.615	-620
965.702	-792
965.789	-783
965.875	-535
965.962	-1390
966.049	-989
966.136	-635
966.222	-1372
966.309	-440
966.395	-1045
966.482	-454
966.569	-229
966.655	-1174
966.742	-534
966.828	-399
966.915	-1239
967.001	-572
967.087	-1243
967.174	-540
967.260	-101
967.347	-939
967.433	-808
967.519	62
967.605	114
967.692	-1264
967.778	-610
967.864	-841
967.950	-735
968.036	-989
968.123	-41
968.209	-502
968.295	-1083
968.381	-285
968.467	2
968.553	-876
968.639	-291
968.725	-675
968.811	-784
968.897	-321
968.983	-955
969.069	-1272
969.154	-442
969.240	-233
969.326	-1177
969.412	-1060
969.497	-1302
969.583	-853
969.669	-397
969.755	-1214
969.840	-876
969.926	-1178
970.012	-1021
970.097	-340
970.183	-1565
970.268	-1319
970.354	-735
970.439	-1432
970.525	-161
970.610	-536
970.696	15
970.781	-771
970.866	-1411
970.952	-657
971.037	-940
971.122	-1041
971.208	-878
971.293	-149
971.378	-1486
971.463	-1017
971.549	-510
971.634	-1411
971.719	-536
971.804	-760
971.889	-264
971.974	-385
972.059	-494
972.144	-899
972.229	-1338
972.314	-1160
972.399	-1087
972.484	-1336
972.569	-712
972.654	-1999
972.739	-1048
972.824	-521
972.908	-1192
972.993	-575
973.078	-492
973.163	-1172
973.247	-142
973.332	-1518
973.417	-438
973.501	-1414
973.586	-644
973.671	-795
973.755	-570
973.840	236
973.924	-813
974.009	-996
974.093	-598
974.178	-199
974.262	-761
974.346	-2133
974.431	-1049
974.515	-1529
974.600	-1251
974.684	-746
974.768	-850
974.852	-446
974.937	-1572
975.021	-391
975.105	-806
975.189	-1177
975.273	-1267
975.358	-735
975.442	-1299
975.526	-1088
975.610	-1245
975.694	-1481
975.778	-415
975.862	-1477
975.946	-1699
976.030	589
976.114	-1554
976.198	-1072
976.281	-1091
976.365	-559
976.449	-1747
976.533	-1974
976.617	-1308
976.700	-1580
976.784	-1549
976.868	-1352
976.951	-927
977.035	-1228
977.119	-1537
977.202	-1238
977.286	-877
977.369	-902
977.453	-789
977.536	-1337
977.620	-1868
977.703	-1329
977.787	-1433
977.870	-861
977.953	-526
978.037	-1782
978.120	-969
978.203	-1150
978.287	-1392
978.370	-1044
978.453	-1766
978.536	-832
978.620	-454
978.703	-515
978.786	-1602
978.869	-1918
978.952	-1588
979.035	-150
979.118	-1288
979.201	-2176
979.284	-1254
979.367	-1687
979.450	-1559
979.533	-1581
979.616	-1895
979.699	-1294
979.782	-1662
979.865	-1568
979.948	-2063
980.030	-1821
980.113	-1275
980.196	-1118
980.279	-931
980.361	-1385
980.444	-1383
980.526	-1762
980.609	-1177
980.692	-1351
980.774	-774
980.857	-1733
980.939	-951
981.022	-1629
981.104	-1121
981.187	-910
981.269	-1712
981.352	-1852
981.434	-2361
981.516	-1208
981.599	-744
981.681	-1624
981.763	-2104
981.846	-910
981.928	-2266
982.010	-1180
982.092	-1835
982.174	-1797
982.256	-1518
982.339	-1214
982.421	-1405
982.503	-1025
982.585	-1387
982.667	-731
982.749	-1527
982.831	-1726
982.913	-1803
982.995	-552
983.077	-2288
983.158	-730
983.240	-1656
983.322	-1681
983.404	-1203
983.486	-1112
983.568	-1229
983.649	-1557
983.731	-1175
983.813	-2045
983.894	-1474
983.976	-1882
984.058	-1799
984.139	-1206
984.221	-1615
984.302	-1392
984.384	-1564
984.465	-2151
984.547	-1899
984.628	-2022
984.710	-1419
984.791	-1800
984.872	-1337
984.954	-1728
985.035	-1703
985.116	-2292
985.198	-1934
985.279	-859
985.360	-1947
985.441	-1387
985.522	-1320
985.604	-1613
985.685	-2756
985.766	-620
985.847	-419
985.928	-1667
986.009	-1546
986.090	-2084
986.171	-1681
986.252	-1607
986.333	-1474
986.414	-2739
986.495	-1513
986.576	-1638
986.656	-1490
986.737	-1622
986.818	-1708
986.899	-1744
986.980	-1923
987.060	-1673
987.141	-2164
987.222	-1782
987.302	-1498
987.383	-1551
987.464	-2204
987.544	-1365
987.625	-1707
987.705	-964
987.786	-1839
987.866	-1540
987.947	-1803
988.027	-2048
988.108	-2079
988.188	-1409
988.268	-1687
988.349	-1701
988.429	-1438
988.509	-1660
988.589	-1741
988.670	-2355
988.750	-1634
988.830	-1046
988.910	-2149
988.990	-1506
989.070	-1068
989.151	-2126
989.231	-2119
989.311	-1080
989.391	-1585
989.471	-2217
989.551	-1637
989.631	-1614
989.711	-976
989.791	-1712
989.870	-2534
989.950	-767
990.030	-2406
990.110	-1721
990.190	-2060
990.269	-1678
990.349	-2211
990.429	-478
990.509	-1193
990.588	-2036
990.668	-1275
990.747	-1517
990.827	-2165
990.907	-1628
990.986	-1728
991.066	-1275
991.145	-1856
991.225	-1761
991.304	-2390
991.383	-1234
991.463	-1834
991.542	-1476
991.622	-2519
991.701	-862
991.780	-1513
991.859	-1654
991.939	-2358
992.018	-1701
992.097	-1353
992.176	-831
992.256	-2080
992.335	-2836
992.414	-1270
992.493	-1937
992.572	-2240
992.651	-1088
992.730	-1614
992.809	-645
992.888	-2715
992.967	-1450
993.046	-1752
993.125	-2541
993.203	-1880
993.282	-1167
993.361	-1480
993.440	-1039
993.519	-2786
993.597	-1066
993.676	-2375
993.755	-1549
993.834	-2010
993.912	-2008
993.991	-958
994.069	-1760
994.148	-2000
994.226	-2362
994.305	-1877
994.384	-1779
994.462	-1314
994.540	-2632
994.619	-1440
994.697	-1781
994.776	-1414
994.854	-1487
994.932	-1523
995.011	-1128
995.089	-1856
995.167	-1590
995.245	-1566
995.324	-2287
995.402	-1463
995.480	-2018
995.558	-1187
995.636	-2272
995.714	-2024
995.792	-1301
995.870	-2377
995.948	-1873
996.026	-1348
996.104	-2078
996.182	-767
996.260	-1234
996.338	-1524
996.416	-1996
996.494	-1245
996.572	-1392
996.649	-2063
996.727	-1969
996.805	-1226
996.883	-1974
996.960	-1905
997.038	-1560
997.116	-1396
997.193	-2361
997.271	-1283
997.348	-1836
997.426	-2211
997.504	-2305
997.581	-1780
997.658	-1602
997.736	-1960
997.813	-1864
997.891	-1525
997.968	-1677
998.046	-2209
998.123	-1528
998.200	-1792
998.277	-2085
998.355	-2098
998.432	-2681
998.509	-1791
998.586	-1674
998.663	-1537
998.741	-1469
998.818	-1811
998.895	-2137
998.972	-1394
999.049	-893
999.126	-3197
999.203	-2055
999.280	-1153
999.357	-1912
999.434	-2300
999.511	-1211
999.587	-1482
999.664	-2116
999.741	-1362
999.818	-1600
999.895	-1884
999.971	-1375
1000.048	-2539
1000.125	-1352
1000.202	-2893
1000.278	-1763
1000.355	-1993
1000.431	-2055
1000.508	-2080
1000.584	-1047
1000.661	-1224
1000.738	-2565
1000.814	-2055
1000.890	-1316
1000.967	-1475
1001.043	-1756
1001.120	-2722
1001.196	-1855
1001.272	-1959
1001.349	-2023
1001.425	-1248
1001.501	-1983
1001.577	-2187
1001.654	-1726
1001.730	-1562
1001.806	-2205
1001.882	-2021
1001.958	-2213
1002.034	-1448
1002.110	-1751
1002.186	-2112
1002.262	-1425
1002.338	-1932
1002.414	-1792
1002.490	-1521
1002.566	-1653
1002.642	-2187
1002.718	-2032
1002.794	-1749
1002.870	-2137
1002.945	-2192
1003.021	-2236
1003.097	-1790
1003.173	-1747
1003.248	-1495
1003.324	-1251
1003.400	-1700
1003.475	-2239
1003.551	-1584
1003.626	-1304
1003.702	-2556
1003.777	-1767
1003.853	-2136
1003.928	-1304
1004.004	-1658
1004.079	-1767
1004.155	-1681
1004.230	-2972
1004.305	-1084
1004.381	-1756
1004.456	-1455
1004.531	-663
1004.607	-1937
1004.682	-1600
1004.757	-1494
1004.832	-1320
1004.907	-2542
1004.982	-1258
1005.057	-1240
1005.133	-1805
1005.208	-1554
1005.283	-2281
1005.358	-1968
1005.433	-3092
1005.508	-1265
1005.583	-1613
1005.657	-2246
1005.732	-1640
1005.807	-2030
1005.882	-1489
1005.957	-1340
1006.032	-1528
1006.106	-2368
1006.181	-1458
1006.256	-1422
1006.331	-1986
1006.405	-2486
1006.480	-1726
1006.554	-1585
1006.629	-1967
1006.704	-1193
1006.778	-1792
1006.853	-1589
1006.927	-1450
1007.002	-1720
1007.076	-1565
1007.150	-2543
1007.225	-1416
1007.299	-2187
1007.373	-1632
1007.448	-1188
1007.522	-1510
1007.596	-2199
1007.671	-2085
1007.745	-1132
1007.819	-2529
1007.893	-1517
1007.967	-1353
1008.041	-2325
1008.115	-1283
1008.190	-1860
1008.264	-1808
1008.338	-2284
1008.412	-1346
1008.486	-2319
1008.560	-2278
1008.633	-1921
1008.707	-1585
1008.781	-1848
1008.855	-1841
1008.929	-1895
1009.003	-1832
1009.076	-1747
1009.150	-1284
1009.224	-2402
1009.298	-1450
1009.371	-1589
1009.445	-1409
1009.519	-2149
1009.592	-2856
1009.666	-2129
1009.739	-2427
1009.813	-2560
1009.886	-1268
1009.960	-2528
1010.033	-1229
1010.107	-1680
1010.180	-2205
1010.253	-1930
1010.327	-1973
1010.400	-1401
1010.473	-1815
1010.547	-1805
1010.620	-1769
1010.693	-1737
1010.766	-1884
1010.840	-1971
1010.913	-1610
1010.986	-1702
1011.059	-1122
1011.132	-2974
1011.205	-1254
1011.278	-2027
1011.351	-1453
1011.424	-2483
1011.497	-1754
1011.570	-2202
1011.643	-1274
1011.716	-2029
1011.789	-1782
1011.862	-1562
1011.934	-966
1012.007	-2033
1012.080	-1138
1012.153	-1921
1012.225	-1909
1012.298	-2483
1012.371	-1938
1012.443	-907
1012.516	-1992
1012.588	-1797
1012.661	-1174
1012.733	-2275
1012.806	-1565
1012.879	-1814
1012.951	-2112
1013.023	-2298
1013.096	-2580
1013.168	-2110
1013.241	-1186
1013.313	-1190
1013.385	-2007
1013.458	-1311
1013.530	-846
1013.602	-1954
1013.674	-1101
1013.746	-2104
1013.819	-1935
1013.891	-1694
1013.963	-1464
1014.035	-1715
1014.107	-1398
1014.179	-1932
1014.251	-1748
1014.323	-1120
1014.395	-1791
1014.467	-1893
1014.539	-2228
1014.611	-1580
1014.683	-2095
1014.754	-2225
1014.826	-2015
1014.898	-1767
1014.970	-1218
1015.042	-1530
1015.113	-2137
1015.185	-1894
1015.257	-1737
1015.328	-1091
1015.400	-1538
1015.471	-1522
1015.543	-1651
1015.615	-1751
1015.686	-1573
1015.757	-2441
1015.829	-898
1015.901	-2133
1015.972	-1864
1016.043	-2070
1016.115	-2013
1016.186	-1372
1016.257	-2075
1016.328	-920
1016.400	-1342
1016.471	-2159
1016.542	-1518
1016.613	-1146
1016.685	-1997
1016.756	-1453
1016.827	-1900
1016.898	-2255
1016.969	-1609
1017.040	-2316
1017.111	-1833
1017.182	-2212
1017.253	-1422
1017.324	-1773
1017.395	-1828
1017.466	-1761
1017.537	-2176
1017.608	-1595
1017.678	-1615
1017.749	-1941
1017.820	-2072
1017.891	-1934
1017.961	-1715
1018.032	-761
1018.103	-1831
1018.173	-2717
1018.244	-2069
1018.315	-1908
1018.385	-359
1018.456	-2599
1018.526	-2229
1018.597	-2231
1018.667	-1195
1018.738	-2724
1018.808	-1879
1018.878	-2063
1018.949	-1431
1019.019	-1650
1019.089	-1352
1019.160	-854
1019.230	-2179
1019.300	-1070
1019.371	-2408
1019.441	-1986
1019.511	-1255
1019.581	-2330
1019.651	-504
1019.721	-2057
1019.791	-1541
1019.861	-1586
1019.931	-1939
1020.001	-2127
1020.071	-2060
1020.141	-1865
1020.211	-2341
1020.281	-1686
1020.351	-1487
1020.421	-1231
1020.491	-514
1020.560	-2380
1020.630	-1838
1020.700	-2490
1020.770	-2242
1020.839	-1225
1020.909	-1779
1020.979	-778
1021.048	-1894
1021.118	-1885
1021.187	-2345
1021.257	-2525
1021.326	-884
1021.396	-985
1021.465	-1371
1021.535	-2163
1021.604	-1393
1021.674	-1869
1021.743	-1289
1021.812	-1909
1021.882	-1627
1021.951	-1949
1022.020	-1957
1022.089	-1448
1022.159	-2462
1022.228	-1125
1022.297	-1357
1022.366	-1946
1022.435	-2184
1022.504	-1731
1022.573	-1994
1022.642	-1737
1022.711	-1738
1022.781	-1594
1022.849	-998
1022.918	-2335
1022.987	-1451
1023.056	-2130
1023.125	-1883
1023.194	-815
1023.263	-2019
1023.331	-1547
1023.400	-2105
1023.469	-1825
1023.538	-1661
1023.606	-2342
1023.675	-1506
1023.744	-1949
1023.812	-1696
1023.881	-1543
1023.949	-1668
1024.018	-1305
1024.086	-1855
1024.155	-1794
1024.223	-2540
1024.292	-2413
1024.360	-948
1024.429	-2268
1024.497	-1986
1024.565	-1411
1024.634	-1681
1024.702	-1093
1024.770	-1692
1024.838	-2719
1024.907	-1259
1024.975	-1879
1025.043	-1639
1025.111	-2354
1025.179	-1830
1025.247	-1611
1025.315	-1727
1025.383	-2370
1025.451	-1512
1025.519	-1608
1025.587	-1651
1025.655	-1681
1025.723	-1070
1025.791	-1657
1025.859	-1139
1025.927	-813
1025.995	-2196
1026.062	-1756
1026.130	-2028
1026.198	-1696
1026.266	-1992
1026.333	-2001
1026.401	-1673
1026.469	-1926
1026.536	-1973
1026.604	-1690
1026.671	-2302
1026.739	-1865
1026.806	-1838
1026.874	-1825
1026.941	-2652
1027.009	-1730
1027.076	-1602
1027.144	-1624
1027.211	-1479
1027.278	-2395
1027.345	-1951
1027.413	-1298
1027.480	-1796
1027.547	-2160
1027.614	-1394
1027.682	-1739
1027.749	-2435
1027.816	-1890
1027.883	-2010
1027.950	-1395
1028.017	-1505
1028.084	-1450
1028.151	-1641
1028.218	-1583
1028.285	-2101
1028.352	-2684
1028.419	-2212
1028.486	-1377
1028.553	-1628
1028.619	-1691
1028.686	-1662
1028.753	-1478
1028.820	-1250
1028.886	-1888
1028.953	-2084
1029.020	-1680
1029.086	-2049
1029.153	-1740
1029.220	-1950
1029.286	-1949
1029.353	-1780
1029.419	-2013
1029.486	-2090
1029.552	-2061
1029.619	-2033
1029.685	-1393
1029.751	-2266
1029.818	-1186
1029.884	-2258
1029.951	-1625
1030.017	-1763
1030.083	-2658
1030.149	-956
1030.216	-1673
1030.282	-960
1030.348	-1671
1030.414	-1129
1030.480	-1757
1030.546	-1942
1030.612	-1487
1030.678	-1699
1030.744	-2129
1030.810	-2089
1030.876	-1950
1030.942	-1896
1031.008	-1948
1031.074	-2159
1031.140	-1426
1031.206	-1576
1031.272	-1936
1031.337	-1614
1031.403	-2256
1031.469	-1588
1031.534	-1673
1031.600	-1388
1031.666	-1989
1031.731	-1601
1031.797	-1522
1031.863	-2293
1031.928	-1738
1031.994	-1910
1032.059	-1767
1032.125	-2569
1032.190	-2158
1032.256	-1649
1032.321	-1468
1032.386	-1834
1032.452	-1588
1032.517	-1934
1032.582	-2051
1032.647	-1287
1032.713	-1584
1032.778	-1971
1032.843	-2149
1032.908	-1541
1032.974	-2072
1033.039	-2145
1033.104	-2056
1033.169	-1905
1033.234	-1731
1033.299	-857
1033.364	-1778
1033.429	-1617
1033.494	-1033
1033.559	-2342
1033.624	-1561
1033.688	-1995
1033.753	-1028
1033.818	-2953
1033.883	-1998
1033.948	-1783
1034.013	-2590
1034.077	-2536
1034.142	-2187
1034.207	-2263
1034.271	-1537
1034.336	-1092
1034.400	-1336
1034.465	-2015
1034.530	-998
1034.594	-2482
1034.658	-1825
1034.723	-2426
1034.787	-1678
1034.852	-1039
1034.916	-1491
1034.981	-2269
1035.045	-1951
1035.109	-2559
1035.173	-2055
1035.238	-2311
1035.302	-1732
1035.366	-1882
1035.430	-1430
1035.495	-2191
1035.559	-1347
1035.623	-1622
1035.687	-1998
1035.751	-1230
1035.815	-1868
1035.879	-2075
1035.943	-2499
1036.007	-1545
1036.071	-1609
1036.135	-1653
1036.198	-2161
1036.262	-1983
1036.326	-2296
1036.390	-1728
1036.454	-2499
1036.517	-2251
1036.581	-2091
1036.645	-1425
1036.709	-1524
1036.772	-2112
1036.836	-1728
1036.900	-1268
1036.963	-1640
1037.026	-2171
1037.090	-2526
1037.154	-2348
1037.217	-2529
1037.280	-1952
1037.344	-1648
1037.407	-1368
1037.471	-2197
1037.534	-1523
1037.597	-2139
1037.661	-1157
1037.724	-1878
1037.787	-2468
1037.850	-1463
1037.913	-2320
1037.977	-1898
1038.040	-1823
1038.103	-2092
1038.166	-1628
1038.229	-1728
1038.292	-2437
1038.355	-2293
1038.418	-1910
1038.481	-1529
1038.544	-1801
1038.607	-2361
1038.670	-2201
1038.732	-1985
1038.795	-1716
1038.858	-1962
1038.921	-2176
1038.984	-2068
1039.046	-2497
1039.109	-2226
1039.172	-1718
1039.234	-2049
1039.297	-2035
1039.360	-2007
1039.422	-2193
1039.485	-2025
1039.547	-2331
1039.610	-1944
1039.672	-2210
1039.734	-2784
1039.797	-2597
1039.859	-1869
1039.922	-2439
1039.984	-1300
1040.046	-2235
1040.109	-2283
1040.171	-2392
1040.233	-1732
1040.295	-1860
1040.358	-2341
1040.420	-2462
1040.482	-2833
1040.544	-2219
1040.606	-1795
1040.668	-1960
1040.730	-1968
1040.792	-1301
1040.854	-1995
1040.916	-2313
1040.978	-1742
1041.040	-1714
1041.102	-1902
1041.164	-2450
1041.225	-2270
1041.287	-2428
1041.349	-2448
1041.411	-2165
1041.472	-2185
1041.534	-2151
1041.596	-2554
1041.657	-2452
1041.719	-2824
1041.781	-2251
1041.842	-1788
1041.904	-1951
1041.965	-1644
1042.027	-2352
1042.088	-1438
1042.150	-2225
1042.211	-2176
1042.272	-1018
1042.334	-2434
1042.395	-1784
1042.456	-1340
1042.518	-1749
1042.579	-1247
1042.640	-2319
1042.701	-1769
1042.763	-2506
1042.824	-2014
1042.885	-2572
1042.946	-2380
1043.007	-2516
1043.068	-1864
1043.129	-1790
1043.190	-2001
1043.251	-1328
1043.312	-2802
1043.373	-2279
1043.434	-2184
1043.495	-1524
1043.556	-2733
1043.616	-1197
1043.677	-1946
1043.738	-1701
1043.799	-1903
1043.859	-1890
1043.920	-2794
1043.981	-1906
1044.041	-1593
1044.102	-2262
1044.162	-1798
1044.223	-1610
1044.284	-1409
1044.344	-2731
1044.405	-1991
1044.465	-1865
1044.525	-2198
1044.586	-897
1044.646	-1993
1044.707	-1849
1044.767	-1847
1044.827	-2955
1044.887	-1961
1044.948	-1638
1045.008	-511
1045.068	-1869
1045.128	-1577
1045.188	-1399
1045.249	-1566
1045.309	-1772
1045.369	-1898
1045.429	-1867
1045.489	-2659
1045.549	-1232
1045.609	-1108
1045.669	-1536
1045.729	-1314
1045.789	-2091
1045.848	-1192
1045.908	-1691
1045.968	-1219
1046.028	-1530
1046.088	-775
1046.147	-1929
1046.207	-2379
1046.267	-1938
1046.326	-1561
1046.386	-1985
1046.446	-1820
1046.505	-1439
1046.565	-1368
1046.624	-1366
1046.684	-1042
1046.743	-546
1046.803	-930
1046.862	-729
1046.922	0
