'Start Wavelength	183.907
'End Wavelength	1046.922
'Gate Delay	5.000
'Gate Width (ms)	1.050
'Laser Output Level	0.000
'X Position	0.000
'Y Position	0.000
'Z Position	0.000
'Grid Point Number	1.000
'Shot Number	100.000
183.907	711.000
183.977	-326.000
184.047	388
184.116	166
184.186	499
184.256	1070
184.325	-51
184.395	578
184.465	705
184.534	550
184.604	-115
184.674	-72
184.743	331
184.813	585
184.883	-379
184.952	416
185.022	128
185.092	266
185.161	121
185.231	518
185.301	323
185.370	85
185.440	234
185.509	389
185.579	271
185.649	278
185.718	33
185.788	459
185.857	-289
185.927	-136
185.996	73
186.066	74
186.136	-169
186.205	68
186.275	815
186.344	453
186.414	331
186.483	1026
186.553	389
186.622	1284
186.692	581
186.761	437
186.831	459
186.900	721
186.970	296
187.039	781
187.109	1186
187.178	785
187.248	566
187.317	849
187.387	-253
187.456	288
187.526	1020
187.595	1278
187.664	989
187.734	1048
187.803	543
187.873	815
187.942	1653
188.012	884
188.081	178
188.150	518
188.220	155
188.289	363
188.358	671
188.428	355
188.497	585
188.567	755
188.636	1299
188.705	664
188.775	191
188.844	502
188.913	998
188.983	855
189.052	321
189.121	862
189.191	779
189.260	671
189.329	1447
189.399	873
189.468	691
189.537	424
189.606	757
189.676	1040
189.745	521
189.814	1128
189.883	971
189.953	477
190.022	1624
190.091	2997
190.161	2724
190.230	1772
190.299	774
190.368	1072
190.437	1072
190.507	785
190.576	835
190.645	879
190.714	250
190.783	911
190.853	447
190.922	1037
190.991	492
191.060	656
191.129	624
191.198	494
191.268	669
191.337	1142
191.406	965
191.475	817
191.544	1086
191.613	1203
191.682	1395
191.752	299
191.821	725
191.890	571
191.959	768
192.028	806
192.097	591
192.166	506
192.235	705
192.304	431
192.373	262
192.442	820
192.511	553
192.580	1382
192.650	1029
192.719	1017
192.788	765
192.857	1073
192.926	423
192.995	1009
193.064	1324
193.133	2221
193.202	2862
193.271	1932
193.340	2166
193.409	2417
193.478	2419
193.547	2732
193.615	3452
193.684	3627
193.753	2719
193.822	1949
193.891	1792
193.960	1052
194.029	1392
194.098	1915
194.167	1187
194.236	1229
194.305	713
194.374	1143
194.443	508
194.512	1405
194.580	1357
194.649	1585
194.718	1695
194.787	1155
194.856	469
194.925	1382
194.994	771
195.062	1521
195.131	1393
195.200	1333
195.269	1339
195.338	1152
195.407	1297
195.475	1820
195.544	1945
195.613	1888
195.682	1381
195.751	1818
195.819	1714
195.888	1461
195.957	1557
196.026	2253
196.094	1960
196.163	2468
196.232	1620
196.301	1735
196.369	1158
196.438	1506
196.507	1296
196.576	1133
196.644	539
196.713	1735
196.782	826
196.850	1508
196.919	856
196.988	1236
197.056	743
197.125	1510
197.194	1873
197.262	1162
197.331	1204
197.400	919
197.468	1469
197.537	996
197.606	1563
197.674	2802
197.743	3353
197.812	1862
197.880	4056
197.949	2965
198.017	3777
198.086	1462
198.155	1453
198.223	1786
198.292	4007
198.360	1878
198.429	1801
198.497	1731
198.566	2891
198.635	3271
198.703	933
198.772	2374
198.840	5144
198.909	3803
198.977	1447
199.046	1983
199.114	2618
199.183	2142
199.251	1935
199.320	1272
199.388	1702
199.457	1183
199.525	2159
199.594	1857
199.662	1152
199.731	2144
199.799	1739
199.867	2416
199.936	1703
200.004	1473
200.073	1783
200.141	1599
200.210	1580
200.278	1674
200.346	1693
200.415	1975
200.483	1889
200.552	1240
200.620	1497
200.688	1328
200.757	1792
200.825	1545
200.893	1634
200.962	1177
201.030	1367
201.098	2080
201.167	1487
201.235	1206
201.303	2096
201.372	1959
201.440	1805
201.508	2775
201.577	2361
201.645	1689
201.713	1885
201.781	2170
201.850	2634
201.918	1700
201.986	1541
202.055	1756
202.123	1384
202.191	936
202.259	1722
202.327	1537
202.396	1976
202.464	1940
202.532	2204
202.600	4553
202.669	2256
202.737	1638
202.805	1910
202.873	2039
202.941	2185
203.009	1824
203.078	1510
203.146	2279
203.214	1278
203.282	1550
203.350	1881
203.418	1782
203.487	1925
203.555	1845
203.623	1750
203.691	2064
203.759	1506
203.827	1590
203.895	2354
203.963	2263
204.031	1709
204.099	1990
204.168	2036
204.236	2167
204.304	1569
204.372	2608
204.440	2331
204.508	1193
204.576	1631
204.644	2435
204.712	1722
204.780	2227
204.848	2276
204.916	2257
204.984	1267
205.052	2025
205.120	2758
205.188	2418
205.256	1579
205.324	2719
205.392	2292
205.460	2324
205.528	2645
205.596	2409
205.664	2093
205.732	3033
205.799	5811
205.867	7041
205.935	2904
206.003	2509
206.071	2503
206.139	2831
206.207	2043
206.275	1967
206.343	1801
206.411	2178
206.478	2560
206.546	2706
206.614	1913
206.682	2628
206.750	2580
206.818	2448
206.885	2860
206.953	2542
207.021	2856
207.089	2806
207.157	2245
207.225	2637
207.292	2454
207.360	2585
207.428	2257
207.496	1995
207.563	3008
207.631	2838
207.699	2396
207.767	2325
207.834	1564
207.902	3014
207.970	2835
208.038	2250
208.105	2407
208.173	2419
208.241	3570
208.309	3624
208.376	3324
208.444	4817
208.512	3998
208.579	2085
208.647	3235
208.715	3294
208.782	2828
208.850	2405
208.918	2996
208.985	2894
209.053	2175
209.120	2792
209.188	3059
209.256	2626
209.323	3194
209.391	3631
209.459	3410
209.526	2995
209.594	2649
209.661	2353
209.729	2958
209.796	3372
209.864	2167
209.932	3142
209.999	3200
210.067	3734
210.134	3236
210.202	3427
210.269	3757
210.337	3617
210.404	3332
210.472	2925
210.539	3770
210.607	3101
210.674	3293
210.742	3116
210.809	2928
210.877	4023
210.944	4550
211.012	3258
211.079	4414
211.146	3106
211.214	4307
211.281	3500
211.349	3582
211.416	3179
211.484	4172
211.551	3984
211.618	3262
211.686	2940
211.753	3245
211.821	3942
211.888	3093
211.955	3233
212.023	3735
212.090	3782
212.157	3884
212.225	4687
212.292	7321
212.359	12605
212.427	19012
212.494	9313
212.561	5033
212.629	4961
212.696	3989
212.763	4243
212.831	3076
212.898	3235
212.965	3404
213.032	3471
213.100	4423
213.167	3709
213.234	4183
213.301	3547
213.369	3809
213.436	3231
213.503	3925
213.570	3450
213.638	4295
213.705	3123
213.772	2953
213.839	4508
213.906	3449
213.973	4201
214.041	3550
214.108	3966
214.175	4306
214.242	3615
214.309	4193
214.376	4225
214.444	4553
214.511	4704
214.578	3876
214.645	4452
214.712	4300
214.779	4529
214.846	4468
214.913	5301
214.980	4968
215.048	5548
215.115	4932
215.182	4959
215.249	3693
215.316	3228
215.383	4362
215.450	3731
215.517	3690
215.584	3988
215.651	3949
215.718	3796
215.785	4307
215.852	4340
215.919	4312
215.986	4094
216.053	4039
216.120	3870
216.187	3816
216.254	4178
216.321	4050
216.388	4562
216.455	4737
216.522	5065
216.589	5029
216.656	7658
216.722	6459
216.789	5473
216.856	6465
216.923	5371
216.990	5522
217.057	5383
217.124	5998
217.191	6751
217.258	7121
217.324	8192
217.391	8442
217.458	6492
217.525	5953
217.592	5291
217.659	4326
217.725	5246
217.792	5978
217.859	5065
217.926	4189
217.993	4166
218.059	3403
218.126	3316
218.193	3426
218.260	3953
218.327	2901
218.393	3835
218.460	2733
218.527	3161
218.594	3553
218.660	6120
218.727	5010
218.794	2601
218.860	3565
218.927	2526
218.994	3145
219.061	3838
219.127	4306
219.194	4876
219.261	2701
219.327	2530
219.394	2567
219.461	2379
219.527	2858
219.594	4372
219.661	3026
219.727	2733
219.794	3105
219.860	2880
219.927	3902
219.994	5275
220.060	7082
220.127	5086
220.193	5119
220.260	5855
220.326	7843
220.393	12157
220.460	12296
220.526	8708
220.593	6616
220.659	7326
220.726	8675
220.792	14819
220.859	13863
220.925	19603
220.992	20692
221.058	18902
221.125	16179
221.191	13020
221.258	7773
221.324	6183
221.391	5903
221.457	4345
221.524	5498
221.590	7561
221.657	15618
221.723	8832
221.789	9779
221.856	7651
221.922	5287
221.989	4930
222.055	3801
222.121	3713
222.188	5137
222.254	4076
222.321	2937
222.387	2983
222.453	3457
222.520	3200
222.586	2868
222.652	3049
222.719	3489
222.785	3125
222.851	3257
222.918	3453
222.984	3917
223.050	4139
223.116	3309
223.183	3221
223.249	2580
223.315	2892
223.382	2995
223.448	2450
223.514	2620
223.580	2435
223.647	1967
223.713	2878
223.779	2342
223.845	2419
223.911	2371
223.978	2266
224.044	3285
224.110	2515
224.176	2529
224.242	2532
224.309	2454
224.375	3041
224.441	2550
224.507	1967
224.573	2264
224.639	2193
224.705	2175
224.772	2184
224.838	2184
224.904	2505
224.970	2030
225.036	2923
225.102	2401
225.168	2745
225.234	2693
225.300	2309
225.366	2809
225.432	3135
225.499	2348
225.565	3071
225.631	3039
225.697	3024
225.763	3479
225.829	4597
225.895	5794
225.961	6628
226.027	6459
226.093	5788
226.159	7894
226.225	13385
226.291	25173
226.357	29091
226.423	17274
226.489	10590
226.554	7856
226.620	7996
226.686	11072
226.752	15551
226.818	24982
226.884	39273
226.950	30039
227.016	14493
227.082	10290
227.148	8531
227.214	7524
227.279	6523
227.345	5226
227.411	5432
227.477	5496
227.543	8901
227.609	7586
227.674	6163
227.740	4613
227.806	4908
227.872	4181
227.938	5502
228.003	5787
228.069	4375
228.135	2692
228.201	3252
228.267	3334
228.332	3692
228.398	5118
228.464	3438
228.530	2371
228.595	3031
228.661	2831
228.727	5196
228.792	3797
228.858	3383
228.924	3433
228.990	4442
229.055	4792
229.121	4624
229.187	2832
229.252	3629
229.318	2702
229.384	4308
229.449	3937
229.515	1727
229.581	1962
229.646	4240
229.712	4195
229.777	7605
229.843	6410
229.909	6033
229.974	6527
230.040	4870
230.105	4399
230.171	5332
230.236	7300
230.302	9533
230.368	6811
230.433	4582
230.499	4637
230.564	5056
230.630	3906
230.695	4238
230.761	3956
230.826	3529
230.892	5128
230.957	2580
231.023	2942
231.088	3418
231.154	3684
231.219	3772
231.284	5146
231.350	4691
231.415	4150
231.481	3273
231.546	3260
231.612	3528
231.677	2814
231.742	2363
231.808	2833
231.873	3595
231.939	2760
232.004	5244
232.069	4724
232.135	4496
232.200	2700
232.265	3266
232.331	1884
232.396	2409
232.461	2683
232.527	3119
232.592	2548
232.657	3263
232.723	5066
232.788	3350
232.853	2888
232.918	3080
232.984	2167
233.049	2673
233.114	5521
233.179	3924
233.245	8143
233.310	6394
233.375	3121
233.440	3548
233.506	2741
233.571	3339
233.636	3732
233.701	3565
233.766	6692
233.832	5446
233.897	3527
233.962	3846
234.027	3989
234.092	3975
234.157	3755
234.222	4445
234.288	7067
234.353	16423
234.418	12427
234.483	7472
234.548	6085
234.613	5206
234.678	5046
234.743	7382
234.808	18075
234.873	9064
234.938	5757
235.004	4469
235.069	3782
235.134	4571
235.199	4097
235.264	3823
235.329	3772
235.394	4321
235.459	5813
235.524	4875
235.589	3973
235.654	4367
235.719	2842
235.784	3997
235.849	5826
235.913	9314
235.978	10734
236.043	9078
236.108	4956
236.173	5964
236.238	5089
236.303	4827
236.368	4383
236.433	8783
236.498	11076
236.563	9573
236.627	23900
236.692	51232
236.757	35723
236.822	19417
236.887	13694
236.952	10876
237.017	9756
237.081	10791
237.146	16161
237.211	31813
237.276	55047
237.341	62495
237.405	34049
237.470	17965
237.535	12928
237.600	8671
237.664	7143
237.729	7306
237.794	12175
237.859	18087
237.923	10417
237.988	6099
238.053	9609
238.118	9261
238.182	24640
238.247	14882
238.312	8922
238.376	6696
238.441	5829
238.506	5340
238.570	3387
238.635	4336
238.700	3556
238.764	4469
238.829	11860
238.893	10393
238.958	6123
239.023	5835
239.087	4412
239.152	5177
239.216	4026
239.281	3771
239.346	3679
239.410	4067
239.475	6620
239.539	23481
239.604	11183
239.668	5388
239.733	4831
239.797	7077
239.862	14505
239.926	16727
239.991	6089
240.055	4370
240.120	4478
240.184	4467
240.249	3674
240.313	3696
240.378	5446
240.442	14534
240.507	16525
240.571	6265
240.635	11665
240.700	8696
240.764	4498
240.829	3774
240.893	2635
240.957	4457
241.022	13996
241.086	16769
241.151	7686
241.215	3989
241.279	6837
241.344	10117
241.408	5962
241.472	4914
241.537	5471
241.601	5847
241.665	4318
241.730	4985
241.794	6083
241.858	5247
241.922	4663
241.987	4478
242.051	4709
242.115	4354
242.179	4823
242.244	4242
242.308	5419
242.372	5478
242.436	6558
242.501	5087
242.565	4247
242.629	4082
242.693	4360
242.757	4386
242.822	4581
242.886	4396
242.950	4816
243.014	5138
243.078	6686
243.142	6059
243.206	5236
243.271	6110
243.335	6584
243.399	11754
243.463	41874
243.527	59666
243.591	18651
243.655	9668
243.719	6991
243.783	7804
243.847	13756
243.911	15075
243.975	16939
244.040	9013
244.104	7189
244.168	5640
244.232	10011
244.296	11481
244.360	12304
244.424	6418
244.488	4958
244.552	5346
244.615	4744
244.679	4479
244.743	6581
244.807	5125
244.871	3980
244.935	3805
244.999	3473
245.063	4089
245.127	5953
245.191	10982
245.255	7828
245.319	8033
245.383	5279
245.446	5366
245.510	4606
245.574	5398
245.638	4644
245.702	6167
245.766	10356
245.829	7104
245.893	6069
245.957	5829
246.021	6116
246.085	6040
246.149	7705
246.212	17234
246.276	19213
246.340	8441
246.404	7544
246.467	9460
246.531	11208
246.595	7572
246.659	8623
246.722	6919
246.786	7983
246.850	10207
246.913	9111
246.977	6112
247.041	5928
247.104	6386
247.168	6728
247.232	17417
247.295	26776
247.359	10804
247.423	8866
247.486	12770
247.550	7762
247.614	7607
247.677	9337
247.741	6275
247.804	5618
247.868	8318
247.932	17303
247.995	22603
248.059	9143
248.122	6740
248.186	8815
248.249	17505
248.313	45076
248.376	36578
248.440	25015
248.503	11108
248.567	11670
248.630	15876
248.694	19956
248.757	27229
248.821	41909
248.884	25657
248.948	29770
249.011	36762
249.075	50751
249.138	35926
249.202	17425
249.265	14082
249.328	16224
249.392	12402
249.455	9939
249.519	9410
249.582	12040
249.645	18339
249.709	11782
249.772	11594
249.835	9370
249.899	10113
249.962	8984
250.025	9350
250.089	22360
250.152	21098
250.215	12495
250.279	10146
250.342	10531
250.405	9928
250.468	10684
250.532	14283
250.595	24365
250.658	85712
250.721	82224
250.785	32858
250.848	19323
250.911	13109
250.974	13044
251.038	20169
251.101	26052
251.164	16849
251.227	17837
251.290	17730
251.354	33514
251.417	101825
251.480	73261
251.543	80661
251.606	153297
251.669	92941
251.732	47839
251.795	46842
251.859	56006
251.922	103197
251.985	46771
252.048	24085
252.111	18491
252.174	19076
252.237	35261
252.300	53838
252.363	82032
252.426	107479
252.489	45791
252.552	28494
252.615	20948
252.678	23783
252.741	48033
252.804	78771
252.867	118173
252.930	64736
252.993	37472
253.056	25213
253.119	19870
253.182	17100
253.245	28403
253.308	17945
253.371	18963
253.434	15676
253.497	16558
253.559	27018
253.622	18712
253.685	27578
253.748	22650
253.811	13199
253.874	17155
253.937	14169
254.000	12245
254.062	23607
254.125	25655
254.188	31152
254.251	20138
254.314	12710
254.376	23583
254.439	21363
254.502	18236
254.565	23987
254.628	30960
254.690	19236
254.753	11141
254.816	11250
254.878	12833
254.941	24470
255.004	16678
255.067	10997
255.129	10284
255.192	5846
255.255	6425
255.317	7294
255.380	5750
255.443	3823
255.505	4852
255.568	5120
255.631	6075
255.693	6460
255.756	4257
255.819	5588
255.881	4712
255.944	4221
256.006	4967
256.069	4761
256.132	4968
256.194	8393
256.257	16939
256.319	12794
256.382	10432
256.444	7985
256.507	7080
256.569	6475
256.632	7962
256.694	14673
256.757	45844
256.819	79455
256.882	30232
256.944	14125
257.007	12286
257.069	12215
257.132	9331
257.194	8434
257.257	9186
257.319	8935
257.381	12081
257.444	35610
257.506	109045
257.569	91917
257.631	50658
257.693	24679
257.756	14379
257.818	12311
257.880	8796
257.943	7696
258.005	7009
258.067	7208
258.130	6291
258.192	9532
258.254	15639
258.317	8152
258.379	8227
258.441	20900
258.503	13088
258.566	28287
258.628	20637
258.690	7355
258.753	9571
258.815	15377
258.877	8096
258.939	6215
259.001	6210
259.064	6127
259.126	8858
259.188	9562
259.250	9015
259.312	13508
259.375	29870
259.437	12265
259.499	7395
259.561	7828
259.623	8177
259.685	6864
259.747	7361
259.809	28084
259.872	32926
259.934	62953
259.996	38011
260.058	12360
260.120	7476
260.182	6557
260.244	6579
260.306	5271
260.368	5985
260.430	6504
260.492	17479
260.554	28881
260.616	17486
260.678	36629
260.740	28168
260.802	9399
260.864	8387
260.926	7227
260.988	7668
261.050	9434
261.112	26097
261.174	48174
261.236	21368
261.298	9807
261.359	21573
261.421	19431
261.483	8101
261.545	7241
261.607	5479
261.669	5576
261.731	15776
261.793	23984
261.854	9908
261.916	8981
261.978	8740
262.040	7849
262.102	6357
262.164	11170
262.225	6934
262.287	7308
262.349	16615
262.411	9812
262.472	6186
262.534	16071
262.596	19364
262.658	6955
262.719	5501
262.781	10722
262.843	20640
262.904	7819
262.966	7854
263.028	12672
263.090	70207
263.151	96360
263.213	30626
263.275	18462
263.336	8982
263.398	7304
263.459	5568
263.521	6627
263.583	15141
263.644	8014
263.706	5095
263.767	3561
263.829	4310
263.891	3595
263.952	3564
264.014	4032
264.075	13552
264.137	21179
264.198	8289
264.260	3619
264.321	5002
264.383	20263
264.444	30176
264.506	8581
264.567	6640
264.629	19664
264.690	25474
264.752	9363
264.813	5958
264.875	5422
264.936	5671
264.998	4419
265.059	4808
265.120	6153
265.182	13812
265.243	61725
265.305	36013
265.366	11409
265.427	7263
265.489	5892
265.550	4567
265.611	6956
265.673	6565
265.734	4515
265.795	4199
265.857	4518
265.918	6945
265.979	22289
266.040	88943
266.102	46752
266.163	17138
266.224	13275
266.286	7446
266.347	5726
266.408	6666
266.469	5601
266.530	4243
266.592	4384
266.653	11946
266.714	13560
266.775	6190
266.836	3834
266.898	4624
266.959	9042
267.020	4549
267.081	3805
267.142	3821
267.203	4252
267.264	2964
267.326	4697
267.387	3361
267.448	3672
267.509	4151
267.570	3655
267.631	4042
267.692	3037
267.753	4749
267.814	3604
267.875	12621
267.936	17209
267.997	13661
268.058	8752
268.119	5190
268.180	6239
268.241	4196
268.302	4361
268.363	3925
268.424	4656
268.485	4773
268.546	2920
268.607	3171
268.668	2919
268.729	3087
268.790	3933
268.851	5900
268.912	15103
268.972	12558
269.033	6853
269.094	3092
269.155	4361
269.216	2998
269.277	4677
269.338	3789
269.398	3922
269.459	5159
269.520	7671
269.581	9806
269.642	9448
269.702	7094
269.763	5733
269.824	4420
269.885	8740
269.945	9163
270.006	3953
270.067	2867
270.128	3571
270.188	4341
270.249	3999
270.310	2695
270.370	4366
270.431	3611
270.492	3782
270.553	5515
270.613	11784
270.674	16734
270.734	7081
270.795	4778
270.856	8489
270.916	4820
270.977	4012
271.038	5945
271.098	5662
271.159	10990
271.219	6271
271.280	4880
271.340	3662
271.401	6879
271.462	12135
271.522	5982
271.583	4911
271.643	4946
271.704	4670
271.764	7150
271.825	18614
271.885	50359
271.946	41574
272.006	17278
272.066	32763
272.127	33304
272.187	11760
272.248	8303
272.308	11407
272.369	28666
272.429	12719
272.489	16494
272.550	13429
272.610	15664
272.671	9675
272.731	12770
272.791	14220
272.852	8406
272.912	8175
272.972	3685
273.033	5589
273.093	9003
273.153	8165
273.214	6035
273.274	8303
273.334	32916
273.394	35769
273.455	15878
273.515	23131
273.575	33926
273.635	12860
273.696	25898
273.756	33641
273.816	12539
273.876	10430
273.936	30835
273.997	29566
274.057	9417
274.117	8811
274.177	17453
274.237	59110
274.297	34957
274.358	29152
274.418	33154
274.478	20119
274.538	9328
274.598	11537
274.658	36151
274.718	32309
274.778	11863
274.838	8812
274.898	28055
274.958	49005
275.018	40603
275.078	19556
275.138	10249
275.198	6657
275.258	5928
275.318	9306
275.378	15241
275.438	13715
275.498	10551
275.558	33718
275.618	43624
275.678	22516
275.738	21488
275.798	14911
275.858	8504
275.918	5398
275.978	8356
276.038	6128
276.098	5616
276.157	16790
276.217	29464
276.277	12179
276.337	10331
276.397	6018
276.457	7714
276.517	4655
276.576	4716
276.636	4622
276.696	10354
276.756	21278
276.815	10655
276.875	5876
276.935	8379
276.995	6330
277.055	4098
277.114	5016
277.174	11000
277.234	21209
277.293	8579
277.353	5003
277.413	4872
277.472	5733
277.532	5540
277.592	8006
277.651	25043
277.711	24807
277.771	13365
277.830	45575
277.890	23814
277.950	32203
278.009	54643
278.069	17373
278.128	28225
278.188	25315
278.248	15679
278.307	37192
278.367	14684
278.426	7398
278.486	5680
278.545	5258
278.605	4263
278.664	5100
278.724	7235
278.783	23775
278.843	32095
278.902	10231
278.962	8328
279.021	8566
279.081	10467
279.140	9217
279.199	9007
279.259	8347
279.318	7770
279.378	12368
279.437	29030
279.496	90009
279.556	193258
279.615	89360
279.675	29767
279.734	23358
279.793	43794
279.853	51313
279.912	17585
279.971	12627
280.031	12897
280.090	31545
280.149	34751
280.208	37861
280.268	151329
280.327	83156
280.386	24876
280.445	24942
280.505	18423
280.564	11451
280.623	10573
280.682	17308
280.742	16427
280.801	6534
280.860	5504
280.919	5993
280.978	4894
281.037	4915
281.097	4366
281.156	4695
281.215	5147
281.274	8448
281.333	28622
281.392	13551
281.451	4676
281.510	4531
281.569	4080
281.628	3294
281.688	3877
281.747	5584
281.806	5439
281.865	3422
281.924	3935
281.983	3670
282.042	2588
282.101	2852
282.160	3248
282.219	3907
282.278	6330
282.337	17346
282.396	7409
282.454	5900
282.513	9076
282.572	24805
282.631	9699
282.690	4873
282.749	5470
282.808	6136
282.867	6005
282.926	4811
282.985	3196
283.043	2805
283.102	4303
283.161	5874
283.220	16389
283.279	21964
283.338	6440
283.396	4956
283.455	4672
283.514	6256
283.573	8848
283.631	5791
283.690	4098
283.749	5591
283.808	12606
283.866	10003
283.925	4339
283.984	5196
284.043	7961
284.101	6252
284.160	5012
284.219	7590
284.277	6404
284.336	12965
284.395	33528
284.453	17901
284.512	8514
284.570	13558
284.629	9756
284.688	8852
284.746	8020
284.805	10351
284.863	13282
284.922	15354
284.981	18684
285.039	29356
285.098	56257
285.156	127022
285.215	179414
285.273	158467
285.332	91166
285.390	52544
285.449	33934
285.507	24474
285.566	18698
285.624	14954
285.683	11388
285.741	9634
285.799	8591
285.858	7827
285.916	7627
285.975	6099
286.033	4334
286.091	4964
286.150	4612
286.208	5703
286.267	6199
286.325	6979
286.383	10461
286.442	6837
286.500	4850
286.558	3559
286.616	3648
286.675	6609
286.733	5191
286.791	4961
286.850	6432
286.908	9143
286.966	11592
287.024	4793
287.083	3741
287.141	3150
287.199	5141
287.257	6681
287.315	4635
287.374	7272
287.432	15045
287.490	7980
287.548	5929
287.606	5024
287.664	4844
287.723	9293
287.781	8395
287.839	6475
287.897	7993
287.955	10770
288.013	18974
288.071	49084
288.129	175587
288.187	264183
288.245	109425
288.303	44732
288.361	27960
288.419	21497
288.477	14670
288.535	10479
288.593	8515
288.651	6200
288.709	5604
288.767	4992
288.825	4647
288.883	4700
288.941	4178
288.999	4133
289.057	3655
289.115	3584
289.173	3128
289.231	4192
289.289	4279
289.346	4258
289.404	5763
289.462	9000
289.520	7643
289.578	4486
289.636	2859
289.694	2717
289.751	2882
289.809	3034
289.867	3606
289.925	5993
289.983	5339
290.040	3418
290.098	3083
290.156	4745
290.214	5516
290.271	3701
290.329	3113
290.387	2533
290.444	2795
290.502	2038
290.560	3097
290.617	3179
290.675	2761
290.733	4170
290.790	3807
290.848	3264
290.906	3685
290.963	3527
291.021	2954
291.078	2906
291.136	5159
291.194	20068
291.251	24475
291.309	6129
291.366	3656
291.424	4173
291.481	4282
291.539	3881
291.596	3236
291.654	2584
291.711	2382
291.769	4844
291.826	9040
291.884	4487
291.941	2655
291.999	3500
292.056	4714
292.114	4160
292.171	3605
292.228	4177
292.286	5528
292.343	10346
292.401	10598
292.458	5443
292.515	5571
292.573	6007
292.630	5208
292.687	5023
292.745	4859
292.802	9672
292.859	20789
292.917	26737
292.974	11481
293.031	5129
293.089	4250
293.146	4184
293.203	3815
293.260	3847
293.318	7633
293.375	9850
293.432	3963
293.489	4174
293.546	3350
293.604	7466
293.661	21987
293.718	38954
293.775	16977
293.832	9802
293.889	8381
293.947	10369
294.004	6884
294.061	8321
294.118	17488
294.175	33045
294.232	33671
294.289	11837
294.346	8539
294.403	7546
294.460	6498
294.517	5028
294.574	4177
294.631	4682
294.688	7200
294.745	20582
294.802	56890
294.859	49018
294.916	21237
294.973	13453
295.030	10331
295.087	8184
295.144	6439
295.201	5321
295.258	5514
295.315	8119
295.372	22499
295.429	27506
295.486	12504
295.542	12470
295.599	36236
295.656	41372
295.713	29433
295.770	26798
295.827	11095
295.883	8849
295.940	8142
295.997	13520
296.054	9850
296.111	5887
296.167	3773
296.224	3636
296.281	3351
296.338	3672
296.394	4630
296.451	7373
296.508	20228
296.564	26399
296.621	20500
296.678	45213
296.734	43933
296.791	16912
296.848	11354
296.904	15475
296.961	28071
297.018	37065
297.074	21817
297.131	9825
297.187	9822
297.244	14028
297.301	43687
297.357	48342
297.414	15459
297.470	8365
297.527	6032
297.583	5666
297.640	6396
297.696	5237
297.753	4920
297.809	3590
297.866	3175
297.922	3736
297.979	4032
298.035	4821
298.092	9143
298.148	22387
298.204	15169
298.261	10790
298.317	25068
298.374	42629
298.430	18257
298.486	11862
298.543	9070
298.599	8887
298.656	12511
298.712	22789
298.768	47442
298.824	24988
298.881	9695
298.937	7060
298.993	6680
299.050	9115
299.106	6704
299.162	5977
299.218	6740
299.275	5165
299.331	7063
299.387	15316
299.443	41470
299.500	30392
299.556	12761
299.612	8309
299.668	9065
299.724	9413
299.780	8263
299.837	7413
299.893	13319
299.949	38708
300.005	34405
300.061	38166
300.117	47700
300.173	19887
300.229	12118
300.285	16875
300.341	15032
300.397	7548
300.453	5939
300.510	5764
300.566	6246
300.622	9119
300.678	22955
300.734	34108
300.790	31407
300.845	32578
300.901	24129
300.957	35357
301.013	20108
301.069	9489
301.125	8430
301.181	8788
301.237	5758
301.293	4204
301.349	4026
301.405	4245
301.461	5288
301.516	7324
301.572	7535
301.628	11241
301.684	10264
301.740	18527
301.796	21044
301.851	17231
301.907	28697
301.963	27927
302.019	51764
302.074	101744
302.130	81915
302.186	35137
302.242	18394
302.297	13225
302.353	14577
302.409	24389
302.464	18683
302.520	20621
302.576	43648
302.631	38540
302.687	21066
302.743	10599
302.798	7696
302.854	6592
302.910	6636
302.965	10275
303.021	16511
303.076	13754
303.132	19786
303.187	18236
303.243	9283
303.299	6634
303.354	5118
303.410	6160
303.465	5686
303.521	5187
303.576	5338
303.632	7854
303.687	16274
303.743	36057
303.798	21729
303.853	9832
303.909	6531
303.964	7494
304.020	12586
304.075	16471
304.130	15741
304.186	26900
304.241	24395
304.297	18721
304.352	10201
304.358	9937
304.407	7784
304.449	9463
304.463	10038
304.518	9083
304.539	8449
304.573	7429
304.629	7182
304.630	7310
304.684	13279
304.720	25092
304.739	31151
304.794	33752
304.811	28683
304.850	15956
304.902	9100
304.905	8694
304.960	7837
304.992	8362
305.015	8795
305.071	7069
305.083	6778
305.126	5462
305.173	4596
305.181	4497
305.236	4303
305.264	5211
305.292	6182
305.347	6787
305.354	6911
305.402	7690
305.445	8718
305.457	8998
305.512	9792
305.535	9579
305.567	9231
305.622	10611
305.626	11086
305.678	21263
305.716	38305
305.733	44833
305.788	40249
305.807	36450
305.843	28182
305.897	36401
305.898	36522
305.953	31052
305.988	22356
306.008	17092
306.063	11536
306.078	10331
306.118	8153
306.168	6266
306.173	6123
306.228	5291
306.259	5159
306.283	5170
306.338	4748
306.349	4989
306.393	6204
306.440	7932
306.448	8179
306.503	7496
306.530	8977
306.558	13099
306.613	29043
306.620	30410
306.668	36964
306.711	43095
306.723	43174
306.778	30121
306.801	24005
306.833	16496
306.888	9263
306.892	8906
306.943	7368
306.982	6486
306.997	6462
307.052	6683
307.072	6948
307.107	8056
307.162	11843
307.163	11889
307.217	19262
307.253	23609
307.272	24423
307.327	25337
307.343	23960
307.381	18381
307.434	15140
307.436	15635
307.491	32205
307.524	44767
307.546	48118
307.600	42175
307.614	38934
307.655	24170
307.704	13357
307.710	13371
307.765	16720
307.795	21397
307.819	29198
307.874	47700
307.885	48835
307.929	35847
307.975	25181
307.984	25557
308.038	34497
308.065	43086
308.093	67071
308.148	133491
308.156	145984
308.202	229697
308.246	271124
308.257	259523
308.312	156718
308.336	117488
308.366	91942
308.421	55474
308.426	52203
308.475	34585
308.517	23899
308.530	22473
308.585	18608
308.607	17442
308.639	17603
308.694	19672
308.697	20002
308.748	40298
308.787	58111
308.803	58560
308.857	46880
308.877	42790
308.912	34971
308.967	27643
308.967	27529
309.021	35009
309.058	42873
309.076	52819
309.130	90960
309.148	106657
309.185	178075
309.238	294023
309.239	295494
309.293	331836
309.328	329940
309.348	288227
309.402	160735
309.418	127703
309.457	91320
309.508	51579
309.511	50728
309.566	41137
309.598	36390
309.620	37747
309.674	43275
309.688	44929
309.729	44882
309.778	41048
309.783	40169
309.837	31134
309.868	26439
309.892	30063
309.946	41959
309.959	45595
310.001	65665
310.049	82946
310.055	80188
310.109	49335
310.139	33092
310.163	26573
310.218	15124
310.229	13026
310.272	11434
310.319	9719
310.326	9669
310.381	9978
310.409	10012
310.435	9643
310.489	8982
310.499	8853
310.543	9370
310.589	10228
310.598	10428
310.652	11496
310.679	11852
310.706	10178
310.760	6557
310.769	6033
310.814	5408
310.859	4883
310.868	4988
310.923	5377
310.948	5675
310.977	6529
311.031	8369
311.038	8571
311.085	8039
311.128	7432
311.139	7413
311.193	7409
311.218	7316
311.247	6697
311.301	5628
311.308	5489
311.356	6006
311.398	6550
311.410	6505
311.464	6015
311.488	5835
311.518	5843
311.572	5925
311.578	5924
311.626	7992
311.668	9858
311.680	10120
311.734	11114
311.758	11532
311.788	11663
311.842	11862
311.847	11860
311.896	13545
311.937	15083
311.950	15593
312.004	17616
312.027	18428
312.058	14961
312.112	8753
312.117	8119
312.165	7281
312.207	6550
312.297	11908
312.386	9745
312.476	7303
312.566	15936
312.656	10134
312.745	5864
312.835	6482
312.925	8478
313.015	8202
313.104	11041
313.194	5961
313.284	6087
313.374	8417
313.463	7714
313.553	6249
313.643	5370
313.732	5063
313.822	4718
313.912	5903
314.001	6830
314.091	8375
314.180	13969
314.270	10814
314.360	12025
314.449	11487
314.539	6630
314.628	6005
314.718	7345
314.808	11910
314.897	6572
314.987	5394
315.076	7151
315.166	10545
315.255	12859
315.345	9858
315.434	12457
315.524	9132
315.613	11709
315.703	11577
315.792	13843
315.881	25201
315.971	17859
316.060	20691
316.150	40730
316.239	46094
316.328	21588
316.418	7068
316.507	6040
316.597	9062
316.686	9682
316.775	15068
316.865	48953
316.954	13533
317.043	4845
317.133	5621
317.222	5161
317.311	5447
317.400	5034
317.490	8077
317.579	10029
317.668	6286
317.757	9301
317.847	16542
317.936	44512
318.025	33370
318.114	16339
318.203	13113
318.293	14249
318.382	29916
318.471	25022
318.560	33140
318.649	80378
318.738	28366
318.828	12147
318.917	14851
319.006	16647
319.095	48412
319.184	93516
319.273	66236
319.362	29997
319.451	11762
319.540	10012
319.629	17624
319.718	37184
319.807	19155
319.896	27754
319.985	110683
320.074	62611
320.163	15781
320.252	26771
320.341	20453
320.430	18651
320.519	17925
320.608	13002
320.697	10240
320.786	9073
320.875	11471
320.964	15553
321.053	22503
321.142	31185
321.230	40203
321.319	26561
321.408	60014
321.497	35540
321.586	25481
321.675	36856
321.764	43907
321.852	25440
321.941	33469
322.030	28830
322.119	25447
322.207	63058
322.296	69770
322.385	32104
322.474	29672
322.562	65581
322.651	52825
322.740	28482
322.829	47675
322.917	61425
323.006	36350
323.095	22074
323.183	20798
323.272	30376
323.361	46757
323.449	159983
323.538	78870
323.626	103422
323.715	103271
323.804	30067
323.892	99803
323.981	80113
324.069	21805
324.158	49397
324.246	76268
324.335	17045
324.424	23720
324.512	10483
324.601	12531
324.689	21526
324.778	42800
324.866	47970
324.954	16814
325.043	10357
325.131	22569
325.220	49380
325.308	62443
325.397	36525
325.485	29978
325.574	6995
325.662	7554
325.750	7157
325.839	6723
325.927	5068
326.015	10010
326.104	16658
326.192	37073
326.280	8684
326.369	7497
326.457	8717
326.545	17294
326.634	11080
326.722	4915
326.810	5495
326.898	5700
326.987	6759
327.075	15563
327.163	24132
327.251	15600
327.340	13500
327.428	21674
327.516	6508
327.604	6663
327.692	8497
327.781	9486
327.869	22608
327.957	14171
328.045	9657
328.133	6123
328.221	9270
328.309	9003
328.397	5612
328.485	8130
328.574	11185
328.662	34272
328.750	33595
328.838	16190
328.926	7122
329.014	6002
329.102	8476
329.190	24043
329.278	20987
329.366	5604
329.454	4908
329.542	5669
329.630	4987
329.718	6472
329.806	8107
329.893	8844
329.981	11071
330.069	16419
330.157	48305
330.245	133868
330.333	94727
330.421	21976
330.509	14194
330.597	41692
330.684	40321
330.772	15443
330.860	20110
330.948	27543
331.036	14102
331.123	5005
331.211	5329
331.299	9570
331.387	16185
331.475	42452
331.562	15209
331.650	6692
331.738	7328
331.825	14681
331.913	6273
332.001	4870
332.089	9061
332.176	24107
332.264	51842
332.352	59799
332.439	13832
332.527	8935
332.614	8011
332.702	13207
332.790	7958
332.877	19624
332.965	60023
333.052	16513
333.140	9822
333.228	25304
333.315	9312
333.403	9139
333.490	28989
333.578	35071
333.665	18542
333.753	14610
333.840	7483
333.928	10546
334.015	32786
334.103	46630
334.190	131412
334.278	53540
334.365	15977
334.452	10391
334.540	6670
334.627	10487
334.715	19309
334.802	32933
334.889	166376
334.977	236737
335.064	28808
335.151	11163
335.239	10435
335.326	14303
335.413	46359
335.501	95927
335.588	16403
335.675	8571
335.762	9758
335.850	21464
335.937	14654
336.024	34515
336.111	173816
336.199	103514
336.286	15141
336.373	7641
336.460	4220
336.547	4936
336.635	7498
336.722	8399
336.809	7243
336.896	11514
336.983	31739
337.070	91263
337.157	135608
337.245	118485
337.332	122678
337.419	16072
337.506	7548
337.593	9892
337.680	24329
337.767	95787
337.854	34605
337.941	33459
338.028	46848
338.115	22490
338.202	15686
338.289	31261
338.376	126890
338.463	58917
338.550	45739
338.637	73599
338.724	22799
338.811	50124
338.898	11708
338.984	6404
339.071	8296
339.158	9188
339.245	21521
339.332	19492
339.419	22755
339.506	35134
339.593	5423
339.679	4859
339.766	4763
339.853	6674
339.940	16687
340.027	7553
340.113	5739
340.200	8903
340.287	8118
340.374	8049
340.460	14468
340.547	7551
340.634	9162
340.720	37065
340.807	34123
340.894	6167
340.980	6514
341.067	6142
341.154	5681
341.240	7540
341.327	22029
341.414	8171
341.500	6417
341.587	5692
341.674	5081
341.760	12449
341.847	17866
341.933	7512
342.020	2939
342.106	2454
342.193	5331
342.279	11708
342.366	7907
342.452	15035
342.539	9001
342.625	15351
342.712	46124
342.798	24659
342.885	9921
342.971	3677
343.058	3094
343.144	3960
343.230	4151
343.317	4308
343.403	2995
343.490	2499
343.576	2666
343.662	4934
343.749	5292
343.835	7963
343.921	11836
344.008	53296
344.094	151283
344.180	49501
344.267	15811
344.353	37694
344.439	64625
344.525	28234
344.612	11447
344.698	10388
344.784	7390
344.870	4161
344.957	4325
345.043	8657
345.129	5952
345.215	13014
345.301	9201
345.387	4662
345.474	3620
345.560	3415
345.646	7531
345.732	6259
345.818	5404
345.904	5026
345.990	6776
346.076	8215
346.162	19033
346.249	8327
346.335	4108
346.421	5339
346.507	14481
346.593	59471
346.679	22918
346.765	6736
346.851	3957
346.937	5615
347.023	4417
347.108	5547
347.194	4980
347.280	4382
347.366	6236
347.452	14982
347.538	65759
347.624	58125
347.710	56749
347.796	15051
347.882	5599
347.967	5659
348.053	8027
348.139	6401
348.225	4695
348.311	5610
348.397	3800
348.482	4973
348.568	7905
348.654	3467
348.740	3262
348.825	4335
348.911	7803
348.997	27838
349.083	71603
349.168	20667
349.254	5381
349.340	5624
349.425	3465
349.511	5877
349.597	8315
349.682	12700
349.768	41106
349.854	28114
349.939	6732
350.025	4082
350.110	4246
350.196	3319
350.282	3143
350.367	3386
350.453	10499
350.538	16973
350.624	7047
350.709	8184
350.795	3680
350.880	4976
350.966	4848
351.051	10616
351.137	11749
351.222	5631
351.308	11084
351.393	41336
351.479	14371
351.564	4021
351.649	4165
351.735	3981
351.820	2210
351.906	4052
351.991	7134
352.076	22735
352.162	44765
352.247	11036
352.332	5062
352.418	10602
352.503	13173
352.588	48839
352.673	59589
352.759	13549
352.844	6918
352.929	6348
353.014	9955
353.100	6647
353.185	11064
353.270	17141
353.355	19760
353.441	6333
353.526	7555
353.611	13902
353.696	20597
353.781	11011
353.866	5941
353.952	4763
354.037	12437
354.122	32822
354.207	32055
354.292	15283
354.377	5733
354.462	4655
354.547	6683
354.632	7948
354.717	10001
354.802	15549
354.887	7182
354.972	3561
355.057	3078
355.142	3214
355.227	5179
355.312	9081
355.397	20580
355.482	51852
355.567	35146
355.652	17784
355.737	20399
355.822	45788
355.907	56638
355.991	9873
356.076	4800
356.161	4932
356.246	3681
356.331	5680
356.416	11072
356.501	66547
356.585	104238
356.670	18746
356.755	9246
356.840	12576
356.924	48683
357.009	198432
357.094	110694
357.179	21649
357.263	14428
357.348	12241
357.433	14227
357.517	11770
357.602	9749
357.687	8456
357.771	10514
357.856	32122
357.941	26730
358.025	35150
358.110	174086
358.195	120720
358.279	21002
358.364	12692
358.448	32154
358.533	100454
358.617	86477
358.702	77454
358.787	36733
358.871	15758
358.956	14808
359.040	5092
359.125	3626
359.209	4369
359.294	12308
359.378	29462
359.462	14242
359.547	10021
359.631	8106
359.716	5043
359.800	4482
359.885	9244
359.969	7144
360.053	5478
360.138	4336
360.222	7600
360.306	14972
360.391	14440
360.475	16469
360.559	48690
360.644	41257
360.728	40281
360.812	35530
360.896	127833
360.981	68296
361.065	43589
361.149	10254
361.233	9102
361.318	7493
361.402	8587
361.486	7610
361.570	5473
361.654	7305
361.739	17380
361.823	67257
361.907	138770
361.991	33340
362.075	12870
362.159	31802
362.243	25412
362.327	15623
362.411	15274
362.495	13047
362.580	8938
362.664	4832
362.748	5078
362.832	5061
362.916	7965
363.000	19527
363.084	65518
363.168	152318
363.252	49757
363.336	14856
363.420	18944
363.503	65124
363.587	115590
363.671	22678
363.755	11321
363.839	15970
363.923	8669
364.007	14022
364.091	23246
364.175	25755
364.258	114028
364.342	88005
364.426	38001
364.510	23964
364.594	18701
364.677	22327
364.761	93283
364.845	96403
364.929	28109
365.013	26273
365.096	17636
365.180	26848
365.264	25452
365.347	122147
365.431	76332
365.515	19182
365.598	8529
365.682	5846
365.766	12779
365.849	21923
365.933	9510
366.017	12260
366.100	13056
366.184	4881
366.267	5500
366.351	4132
366.435	4110
366.518	3680
366.602	3281
366.685	4128
366.769	5580
366.852	10266
366.936	23243
367.019	13769
367.103	9051
367.186	22023
367.270	8410
367.353	3128
367.436	3864
367.520	3502
367.603	5565
367.687	8680
367.770	19682
367.853	11483
367.937	23329
368.020	55199
368.104	18296
368.187	11846
368.270	19615
368.353	17220
368.437	26297
368.520	91080
368.603	61528
368.687	34391
368.770	83105
368.853	24887
368.936	18797
369.020	24564
369.103	9715
369.186	4843
369.269	6349
369.352	10422
369.436	20505
369.519	13386
369.602	6248
369.685	5826
369.768	7979
369.851	6129
369.934	4727
370.018	5545
370.101	16476
370.184	13408
370.267	9489
370.350	12811
370.433	23270
370.516	44288
370.599	71445
370.682	24339
370.765	37478
370.848	46515
370.931	90656
371.014	49780
371.097	10941
371.180	5935
371.263	3910
371.346	2417
371.429	4038
371.511	4521
371.594	9103
371.677	16699
371.760	24015
371.843	15514
371.926	46125
372.009	149119
372.091	61884
372.174	31407
372.257	75578
372.340	39439
372.423	25530
372.505	40793
372.588	17584
372.671	20508
372.754	84267
372.836	59414
372.919	30572
373.002	85675
373.085	32146
373.167	14774
373.250	32497
373.332	75197
373.415	87798
373.498	213989
373.580	102786
373.663	75721
373.746	140674
373.828	41222
373.911	16516
373.993	16618
374.076	63161
374.159	92915
374.241	30371
374.324	68813
374.406	62919
374.489	43826
374.571	158826
374.654	90410
374.736	29746
374.819	91610
374.901	135778
374.983	175864
375.066	41114
375.148	12631
375.231	43014
375.313	125510
375.395	57639
375.478	11887
375.560	7073
375.643	8314
375.725	25311
375.807	124526
375.890	143793
375.972	98229
376.054	38575
376.136	76262
376.219	42228
376.301	28541
376.383	116395
376.465	59849
376.548	31474
376.630	33798
376.712	93850
376.794	63566
376.877	8642
376.959	4459
377.041	6306
377.123	13574
377.205	25144
377.287	5859
377.369	4483
377.452	4357
377.534	3726
377.616	4521
377.698	5395
377.780	2986
377.862	4515
377.944	4117
378.026	3641
378.108	2700
378.190	3111
378.272	3271
378.354	2371
378.436	2867
378.518	6785
378.600	33264
378.682	31060
378.764	45099
378.846	52360
378.928	14136
379.010	17421
379.091	11441
379.173	5341
379.255	4893
379.337	7367
379.419	18600
379.501	72684
379.583	41548
379.664	8876
379.746	17052
379.828	45545
379.910	69007
379.991	70720
380.073	15462
380.155	7945
380.237	6324
380.318	4148
380.400	4271
380.482	9667
380.564	21408
380.645	19890
380.727	20044
380.809	10654
380.890	7155
380.972	6563
381.053	4932
381.135	6846
381.217	12533
381.298	51463
381.380	34085
381.461	19782
381.543	79710
381.624	148519
381.706	34425
381.787	13012
381.869	13147
381.951	29550
382.032	144490
382.113	126406
382.195	31070
382.276	16487
382.358	25098
382.439	78965
382.521	87149
382.602	153750
382.684	77315
382.765	117421
382.846	138380
382.928	136949
383.009	96846
383.090	52051
383.172	160923
383.253	332505
383.334	140727
383.416	133230
383.497	91183
383.578	31298
383.659	49614
383.741	142115
383.822	453786
383.903	312333
383.984	97580
384.066	166471
384.147	137348
384.228	31053
384.309	17354
384.390	14738
384.471	8868
384.553	10012
384.634	15006
384.715	18092
384.796	8783
384.877	9415
384.958	34998
385.039	65085
385.120	25600
385.201	9243
385.282	12892
385.363	14763
385.444	12924
385.525	15006
385.606	54470
385.687	66953
385.768	18421
385.849	18331
385.930	53771
386.011	128731
386.092	46827
386.173	12366
386.254	7931
386.335	9442
386.416	8442
386.496	23642
386.577	56941
386.658	27129
386.739	14628
386.820	14374
386.901	12809
386.981	10891
387.062	6361
387.143	9759
387.224	40659
387.304	56796
387.385	19575
387.466	12307
387.547	15631
387.627	10105
387.708	11970
387.789	68514
387.869	113250
387.950	38189
388.031	7500
388.111	6859
388.192	19116
388.273	37109
388.353	24807
388.434	10013
388.514	12946
388.595	59387
388.676	104180
388.756	59419
388.837	47531
388.917	40590
388.998	8348
389.078	6889
389.159	5740
389.239	6330
389.320	8639
389.400	9602
389.480	14647
389.561	49733
389.641	32695
389.722	8757
389.802	15926
389.883	17779
389.963	53343
390.043	52557
390.124	22808
390.204	14571
390.284	53901
390.365	50180
390.445	46297
390.525	146517
390.605	166270
390.686	48370
390.766	14275
390.846	6930
390.927	4354
391.007	4894
391.087	5932
391.167	8324
391.247	5721
391.328	13210
391.408	21637
391.488	17332
391.568	5063
391.648	6866
391.728	10354
391.808	9513
391.888	12243
391.969	20312
392.049	48068
392.129	26212
392.209	18710
392.289	52580
392.369	37776
392.449	33577
392.529	26380
392.609	14600
392.689	14794
392.769	45523
392.849	54676
392.929	28328
393.009	75623
393.089	66876
393.169	33399
393.248	81941
393.328	410831
393.408	633173
393.488	178594
393.568	40656
393.648	19163
393.728	12780
393.807	10595
393.887	10823
393.967	9992
394.047	12784
394.127	17260
394.206	27383
394.286	78100
394.366	358022
394.446	539443
394.525	182187
394.605	45660
394.685	25436
394.764	43294
394.844	81774
394.924	75661
395.003	21890
395.083	12473
395.163	11778
395.242	9517
395.322	11735
395.402	8988
395.481	11290
395.561	24059
395.640	89524
395.720	70776
395.799	89439
395.879	102591
395.958	51837
396.038	121826
396.117	473310
396.197	682012
396.276	288313
396.356	94338
396.435	55697
396.515	34105
396.594	25984
396.673	36193
396.753	94492
396.832	428383
396.912	438939
396.991	119553
397.070	27442
397.150	14830
397.229	10563
397.308	8946
397.388	14154
397.467	10472
397.546	5886
397.625	5315
397.705	7817
397.784	9435
397.863	5965
397.942	4097
398.022	4337
398.101	16334
398.180	84077
398.259	60470
398.338	15268
398.417	7562
398.497	6507
398.576	6159
398.655	4564
398.734	2737
398.813	4655
398.892	14821
398.971	85428
399.050	65576
399.129	9492
399.208	3045
399.287	3254
399.366	3199
399.445	3461
399.524	3651
399.603	3804
399.682	7068
399.761	20112
399.840	80341
399.919	97550
399.998	16629
400.077	4422
400.156	2519
400.235	5091
400.313	4017
400.392	5242
400.471	17700
400.550	50406
400.629	18813
400.708	6517
400.786	5571
400.865	16525
400.944	26103
401.023	12614
401.102	2469
401.180	2366
401.259	3553
401.338	5101
401.416	6127
401.495	6235
401.574	5229
401.652	4238
401.731	5821
401.810	7507
401.888	4405
401.967	2836
402.046	3065
402.124	4721
402.203	9155
402.281	5623
402.360	4869
402.438	22483
402.517	25299
402.596	7446
402.674	6290
402.753	4675
402.831	2986
402.910	3863
402.988	12117
403.066	59574
403.145	46795
403.223	17100
403.302	47960
403.380	41601
403.459	39064
403.537	19748
403.615	7401
403.694	2275
403.772	2222
403.850	2042
403.929	1561
404.007	3080
404.085	6520
404.164	11420
404.242	5464
404.320	7491
404.398	28727
404.477	42616
404.555	104240
404.633	141209
404.711	40800
404.789	20828
404.868	6858
404.946	3631
405.024	2000
405.102	1522
405.180	1966
405.258	1562
405.336	2562
405.415	2423
405.493	7684
405.571	9839
405.649	2750
405.727	1884
405.805	5202
405.883	6247
405.961	5944
406.039	8803
406.117	4131
406.195	5748
406.273	17431
406.351	97902
406.429	90962
406.507	17716
406.585	6371
406.663	4355
406.740	5632
406.818	6326
406.896	4291
406.974	3774
407.052	5570
407.130	43401
407.208	105858
407.285	29579
407.363	4063
407.441	4272
407.519	3181
407.596	3373
407.674	8442
407.752	34265
407.830	46664
407.907	23506
407.985	6728
408.063	3463
408.141	1290
408.218	5479
408.296	8029
408.373	5015
408.451	4318
408.529	4305
408.606	1638
408.684	2362
408.762	842
408.839	958
408.917	560
408.994	1015
409.072	1326
409.149	1394
409.227	1792
409.304	3784
409.382	1076
409.459	2074
409.537	2743
409.614	3774
409.692	2265
409.769	2685
409.846	3526
409.924	5251
410.001	4392
410.079	3193
410.156	2381
410.233	3248
410.311	3151
410.388	2368
410.465	1699
410.543	2788
410.620	2338
410.697	2517
410.775	4376
410.852	1796
410.929	1781
411.006	5506
411.083	2794
411.161	5520
411.238	9073
411.315	6828
411.392	1597
411.469	3224
411.547	3842
411.624	1526
411.701	1831
411.778	2611
411.855	8592
411.932	8004
412.009	2552
412.086	1921
412.163	2787
412.240	4827
412.317	5354
412.394	6014
412.471	2632
412.548	998
412.625	1288
412.702	3432
412.779	7786
412.856	6675
412.933	1209
413.010	2488
413.087	3367
413.164	16689
413.241	41126
413.318	14531
413.395	3855
413.471	7675
413.548	4834
413.625	1365
413.702	3059
413.779	4569
413.855	593
413.932	571
414.009	571
414.086	1329
414.162	939
414.239	3314
414.316	15484
414.393	55850
414.469	31730
414.546	3715
414.623	1005
414.699	1374
414.776	2038
414.853	1930
414.929	1736
415.006	2414
415.082	3252
415.159	4413
415.236	1951
415.312	2502
415.389	4338
415.465	9165
415.542	5686
415.618	1818
415.695	4956
415.771	4014
415.848	3090
415.924	2977
416.000	3485
416.077	2789
416.153	868
416.230	477
416.306	119
416.383	1830
416.459	2087
416.535	941
416.612	484
416.688	1720
416.764	1590
416.841	571
416.917	1433
416.993	2180
417.069	2325
417.146	3662
417.222	6824
417.298	5132
417.374	2771
417.451	2866
417.527	3312
417.603	5265
417.679	2601
417.755	2891
417.831	1183
417.908	1086
417.984	670
418.060	674
418.136	3932
418.212	11360
418.288	4332
418.364	2223
418.440	1343
418.516	4065
418.592	5947
418.668	12310
418.744	17794
418.820	17667
418.896	4364
418.972	1225
419.048	975
419.124	5630
419.200	6944
419.276	2468
419.352	419
419.428	571
419.504	1458
419.579	2935
419.655	2591
419.731	2557
419.807	6604
419.883	18952
419.959	19668
420.034	5571
420.110	5017
420.186	26245
420.262	35970
420.337	7639
420.413	3971
420.489	1894
420.565	1964
420.640	1307
420.716	1838
420.792	514
420.867	1891
420.943	2075
421.019	3143
421.094	4451
421.170	1748
421.245	904
421.321	1196
421.397	2053
421.472	3577
421.548	16189
421.623	16617
421.699	4961
421.774	3505
421.850	2377
421.925	5861
422.001	6552
422.076	3656
422.152	3570
422.227	6441
422.302	8110
422.378	8020
422.453	15712
422.529	32690
422.604	114203
422.679	298539
422.755	228738
422.830	71307
422.905	21701
422.981	10181
423.056	6383
423.131	5237
423.207	4315
423.282	2846
423.357	9880
423.432	9182
423.508	5698
423.583	14024
423.658	17667
423.733	4983
423.808	5479
423.883	6147
423.959	5288
424.034	3230
424.109	2055
424.184	186
424.259	1403
424.334	673
424.409	752
424.484	880
424.559	2486
424.634	1183
424.709	2690
424.784	5004
424.859	3654
424.934	3603
425.009	15531
425.084	41285
425.159	22948
425.234	3826
425.309	785
425.384	3833
425.459	13253
425.534	6244
425.609	2661
425.683	2229
425.758	1304
425.833	1832
425.908	3619
425.983	7038
426.058	38772
426.132	29187
426.207	6231
426.282	5897
426.357	10096
426.431	2196
426.506	1979
426.581	2803
426.655	2501
426.730	1231
426.805	1715
426.879	1927
426.954	2438
427.029	3803
427.103	22211
427.178	86273
427.253	64104
427.327	8954
427.402	4952
427.476	17805
427.551	13748
427.625	3936
427.700	4506
427.774	1168
427.849	3847
427.923	1763
427.998	2087
428.072	2203
428.147	4758
428.221	13641
428.296	48323
428.370	36880
428.444	7206
428.519	7650
428.593	16931
428.667	19536
428.742	18648
428.816	18793
428.890	30113
428.965	64819
429.039	30865
429.113	24065
429.188	13068
429.262	2808
429.336	3303
429.410	15834
429.485	16875
429.559	13107
429.633	18467
429.707	4520
429.781	5433
429.855	35360
429.930	78282
430.004	54056
430.078	84447
430.152	90517
430.226	65823
430.300	91476
430.374	21852
430.448	5696
430.522	14561
430.596	77233
430.670	67428
430.744	48276
430.818	124833
430.892	45783
430.966	6380
431.040	2734
431.114	1689
431.188	1456
431.262	1381
431.336	2069
431.410	4584
431.484	20825
431.557	22626
431.631	3475
431.705	1493
431.779	3947
431.853	31537
431.927	39285
432.000	7309
432.074	1193
432.148	3475
432.222	3437
432.295	1844
432.369	1573
432.443	3086
432.516	18795
432.590	87926
432.664	57381
432.737	7188
432.811	1098
432.885	977
432.958	714
433.032	8
433.106	-12
433.179	167
433.253	7
433.326	1156
433.400	429
433.473	1104
433.547	-466
433.620	304
433.694	2046
433.767	5666
433.841	2362
433.914	1095
433.988	246
434.061	365
434.134	-313
434.208	-323
434.281	-381
434.355	-389
434.428	1524
434.501	1218
434.575	674
434.648	1354
434.721	265
434.795	293
434.868	179
434.941	-178
435.014	-680
435.088	461
435.161	820
435.234	1875
435.307	4536
435.381	2124
435.454	414
435.527	1489
435.600	500
435.673	337
435.746	390
435.819	353
435.892	-164
435.966	688
436.039	147
436.112	1191
436.185	-287
436.258	-214
436.331	-1325
436.404	-495
436.477	-647
436.550	25
436.623	-357
436.696	196
436.769	990
436.842	655
436.915	411
436.987	3506
437.060	1697
437.133	935
437.206	-86
437.279	1245
437.352	451
437.425	-31
437.498	1003
437.570	3062
437.643	4960
437.716	1833
437.789	335
437.861	1559
437.934	7646
438.007	7062
438.080	1427
438.152	1052
438.225	3200
438.298	21197
438.370	112261
438.443	79846
438.516	15291
438.588	4252
438.661	172
438.734	534
438.806	1422
438.879	2332
438.951	1934
439.024	4769
439.096	2116
439.169	907
439.241	545
439.314	346
439.386	2719
439.459	4865
439.531	9811
439.604	5729
439.676	1220
439.749	648
439.821	-14
439.893	650
439.966	455
440.038	1430
440.110	1766
440.183	1311
440.255	108
440.327	2521
440.400	8390
440.472	60692
440.544	74942
440.617	12089
440.689	3292
440.761	3809
440.833	7118
440.905	7554
440.978	1436
441.050	916
441.122	479
441.194	166
441.266	825
441.338	627
441.411	1433
441.483	12682
441.555	40253
441.627	13978
441.699	4812
441.771	6054
441.843	2588
441.915	671
441.987	771
442.059	914
442.131	1339
442.203	3989
442.275	3874
442.347	4735
442.419	2693
442.491	8408
442.563	31423
442.635	27150
442.706	18113
442.778	23282
442.850	4699
442.922	1418
442.994	1001
443.066	3913
443.137	3236
443.209	2155
443.281	1940
443.353	5017
443.425	14508
443.496	55233
443.568	75725
443.640	33550
443.711	8566
443.783	3028
443.855	1864
443.926	518
443.998	154
444.070	3276
444.141	1910
444.213	2931
444.285	5093
444.356	5667
444.428	5523
444.499	1935
444.571	-325
444.642	372
444.714	308
444.785	2914
444.857	4001
444.928	13977
445.000	13615
445.071	7677
445.143	14904
445.214	7002
445.285	6507
445.357	22175
445.428	42782
445.500	114186
445.571	101688
445.642	47394
445.714	18766
445.785	29669
445.856	12049
445.928	5843
445.999	4432
446.070	3618
446.141	2414
446.213	4933
446.284	3079
446.355	2675
446.426	2399
446.497	2337
446.569	2813
446.640	7482
446.711	6597
446.782	2129
446.853	2844
446.924	4803
446.995	2300
447.066	2129
447.138	4837
447.209	4860
447.280	236
447.351	621
447.422	-447
447.493	1299
447.564	2341
447.635	4341
447.706	1993
447.777	443
447.847	589
447.918	545
447.989	1828
448.060	4074
448.131	7906
448.202	11867
448.273	5488
448.344	3388
448.414	48
448.485	1226
448.556	325
448.627	415
448.698	548
448.768	818
448.839	771
448.910	3680
448.981	6001
449.051	1787
449.122	-96
449.193	800
449.263	82
449.334	692
449.405	284
449.475	5056
449.546	5207
449.616	5427
449.687	6735
449.758	2477
449.828	1484
449.899	1286
449.969	497
450.040	914
450.110	1855
450.181	4603
450.251	1400
450.322	665
450.392	1714
450.463	1170
450.533	811
450.604	1004
450.674	852
450.744	1135
450.815	325
450.885	1582
450.955	568
451.026	652
451.096	-171
451.166	1491
451.237	3121
451.307	16112
451.377	10605
451.447	1787
451.518	608
451.588	1196
451.658	857
451.728	2324
451.799	11166
451.869	25872
451.939	7257
452.009	1494
452.079	464
452.149	1102
452.219	2514
452.289	14694
452.360	22301
452.430	4992
452.500	1143
452.570	3137
452.640	2621
452.710	7011
452.780	20155
452.850	12707
452.920	11834
452.990	5452
453.060	2066
453.129	2761
453.199	5688
453.269	10948
453.339	55487
453.409	100083
453.479	60995
453.549	106434
453.619	123220
453.688	74087
453.758	12498
453.828	3580
453.898	2177
453.968	2202
454.037	1121
454.087	1609
454.107	1794
454.168	1254
454.177	1157
454.247	1198
454.249	1202
454.316	919
454.330	1147
454.386	2042
454.411	3406
454.456	5301
454.492	11737
454.525	17318
454.574	10383
454.595	7430
454.655	2941
454.665	2227
454.734	2313
454.736	2392
454.804	4420
454.817	6169
454.873	12458
454.898	17550
454.943	26129
454.979	18941
455.013	12602
455.060	7167
455.082	5000
455.141	3658
455.152	3404
455.221	8947
455.222	9256
455.291	26939
455.303	26539
455.360	24205
455.384	30785
455.430	40413
455.465	38051
455.499	35616
455.546	23225
455.569	17328
455.627	16187
455.638	16118
455.707	4141
455.708	4145
455.777	1889
455.789	1859
455.846	1578
455.869	1655
455.916	1848
455.950	1597
455.985	1296
456.031	1946
456.054	2216
456.112	1546
456.124	1422
456.193	1521
456.193	1505
456.262	1952
456.274	2252
456.332	3348
456.355	3590
456.401	3581
456.436	3451
456.470	3435
456.516	2186
456.540	1663
456.597	1466
456.609	1366
456.678	1174
456.678	1160
456.747	1066
456.759	1088
456.817	1080
456.840	1031
456.886	976
456.920	833
456.955	633
457.001	1330
457.024	1799
457.082	2403
457.093	2513
457.162	3996
457.163	4022
457.232	6287
457.243	6231
457.301	4852
457.324	3549
457.370	1788
457.405	2095
457.439	2294
457.485	1923
457.508	1766
457.566	2016
457.577	2079
457.646	1890
457.647	1914
457.715	3126
457.727	3286
457.784	4464
457.808	5127
457.853	6373
457.889	7998
457.922	8006
457.969	6641
457.991	6854
458.050	7095
458.060	7286
458.129	10940
458.130	11061
458.198	11376
458.211	11141
458.267	7892
458.292	5630
458.336	3947
458.372	4046
458.405	4693
458.453	4970
458.474	5964
458.533	10381
458.543	11002
458.611	18271
458.614	18548
458.680	14861
458.694	12963
458.749	7565
458.775	5513
458.818	4041
458.855	3248
458.887	2665
458.936	2662
458.955	2739
459.016	2767
459.024	2733
459.093	3024
459.097	2990
459.162	2393
459.177	2586
459.230	3501
459.257	3796
459.299	4076
459.338	4287
459.368	4503
459.418	4594
459.437	4331
459.499	4146
459.505	4144
459.574	3230
459.579	3214
459.643	3348
459.659	3287
459.711	2961
459.740	2954
459.780	3151
459.820	3512
459.849	3758
459.900	4459
459.917	4717
459.981	4866
459.986	4765
460.054	3582
460.061	3477
460.123	3874
460.141	4086
460.191	4604
460.222	4988
460.260	5301
460.302	5817
460.328	5881
460.382	5698
460.397	5646
460.462	5096
460.465	5160
460.534	6638
460.543	6895
460.602	18038
460.623	22201
460.671	40643
460.703	55625
460.739	54802
460.783	56187
460.808	47806
460.864	13683
460.876	12013
460.944	4873
460.945	4791
461.013	4278
461.024	4232
461.081	4628
461.104	4830
461.150	4446
461.184	4303
461.218	4545
461.264	4294
461.286	4079
461.345	3628
461.355	3577
461.423	3982
461.425	3988
461.491	4124
461.505	4236
461.559	6709
461.585	7528
461.628	13650
461.665	19849
461.696	23444
461.745	32108
461.764	28612
461.825	13462
461.832	13327
461.901	5828
461.905	5644
461.969	4548
461.985	4568
462.037	4951
462.065	4853
462.105	4710
462.145	4842
462.173	7123
462.225	11474
462.241	12796
462.305	18553
462.310	18187
462.378	14798
462.385	13764
462.446	7453
462.465	5855
462.514	5547
462.545	5865
462.582	5182
462.625	4461
462.650	4440
462.705	4451
462.718	4515
462.785	4671
462.786	4712
462.854	7158
462.865	7620
462.922	10176
462.945	11332
462.990	9459
463.025	7357
463.058	6096
463.104	3878
463.126	3627
463.184	3995
463.194	4142
463.262	4672
463.264	4709
463.330	5180
463.344	5226
463.398	5478
463.424	5487
463.466	5409
463.504	5497
463.533	5601
463.583	5760
463.601	6009
463.663	6644
463.669	6717
463.737	7775
463.743	7838
463.805	11597
463.823	12855
463.873	20364
463.903	24862
463.940	28951
463.982	34686
464.008	29166
464.062	15669
464.076	14557
464.142	6753
464.144	6673
464.211	5242
464.221	5160
464.279	5590
464.301	5715
464.347	6456
464.381	7049
464.414	7506
464.461	7957
464.482	8546
464.540	10606
464.550	10328
464.617	8017
464.620	7909
464.685	7807
464.699	7827
464.753	10132
464.779	11385
464.820	12744
464.859	14007
464.888	13818
464.938	13400
464.956	13346
465.018	12918
465.023	12755
465.091	10536
465.098	10253
465.158	9697
465.177	9626
465.226	10389
465.257	10789
465.293	10503
465.336	10077
465.361	10548
465.416	11633
465.428	12249
465.495	15612
465.496	15708
465.563	27219
465.575	29164
465.631	37581
465.654	41503
465.698	29666
465.734	19059
465.765	15984
465.813	10680
465.833	10636
465.893	11282
465.900	11118
465.968	9672
465.972	9559
466.035	10932
466.052	11271
466.102	11479
466.131	11546
466.170	11315
466.210	11069
466.237	11389
466.290	11974
466.304	12109
466.369	12517
466.372	12610
466.439	14843
466.449	15107
466.506	15830
466.528	16133
466.573	18205
466.607	19665
466.641	28337
466.687	40348
466.708	46137
466.766	62010
466.775	58499
466.842	31678
466.845	30329
466.909	20142
466.925	17722
466.977	16910
467.004	16542
467.044	16448
467.083	16335
467.111	17752
467.163	20320
467.178	20804
467.242	22635
467.245	22606
467.312	21139
467.321	20908
467.379	18876
467.400	18080
467.446	19357
467.480	20222
467.559	19148
467.638	17055
467.717	16029
467.796	15811
467.875	17061
467.955	17496
468.034	20068
468.113	44593
468.192	72416
468.271	33873
468.350	14307
468.429	14808
468.508	14930
468.588	13494
468.667	12581
468.746	14518
468.825	13660
468.904	12127
468.983	13498
469.062	20033
469.141	26340
469.220	15285
469.299	12516
469.378	14238
469.456	16734
469.535	15900
469.614	13349
469.693	14274
469.772	16690
469.851	23319
469.930	20267
470.009	13946
470.088	12365
470.166	13589
470.245	15122
470.324	17376
470.403	15420
470.482	12985
470.560	11773
470.639	13221
470.718	14223
470.797	13748
470.875	13308
470.954	19860
471.033	22664
471.111	11625
471.190	9902
471.269	9895
471.347	10154
471.426	10681
471.505	12137
471.583	13901
471.662	13494
471.740	11975
471.819	11473
471.898	11429
471.976	11245
472.055	11656
472.133	12188
472.212	16116
472.290	17566
472.369	12542
472.447	10699
472.526	10076
472.604	9972
472.683	12180
472.761	12501
472.839	11356
472.918	11673
472.996	9924
473.075	12596
473.153	13828
473.231	9957
473.310	11988
473.388	12560
473.466	11125
473.545	12529
473.623	15184
473.701	15323
473.780	12446
473.858	10254
473.936	12710
474.014	10111
474.093	11463
474.171	16248
474.249	23923
474.327	20331
474.405	10824
474.484	9216
474.562	10687
474.640	10948
474.718	11560
474.796	12203
474.874	11664
474.952	10106
475.030	10447
475.108	11071
475.187	13009
475.265	13972
475.343	19143
475.421	24917
475.499	13288
475.577	11209
475.655	12422
475.733	22250
475.811	43816
475.889	44953
475.966	39001
476.044	11659
476.122	13289
476.200	18812
476.278	17661
476.356	10739
476.434	9771
476.512	12405
476.590	17497
476.667	17869
476.745	9743
476.823	10590
476.901	9834
476.979	9634
477.056	9883
477.134	10619
477.212	10709
477.290	9719
477.367	8702
477.445	8153
477.523	9602
477.601	8744
477.678	9188
477.756	10888
477.834	12881
477.911	10064
477.989	9531
478.066	8865
478.144	10640
478.222	12583
478.299	20837
478.377	25419
478.454	10735
478.532	8006
478.609	8940
478.687	10158
478.764	8046
478.842	9324
478.919	9308
478.997	9985
479.074	7788
479.152	8893
479.229	12960
479.307	10765
479.384	7642
479.461	6967
479.539	8632
479.616	9643
479.694	9446
479.771	9185
479.848	10173
479.926	12997
480.003	16563
480.080	9246
480.157	7749
480.235	7716
480.312	8144
480.389	8560
480.467	13731
480.544	20007
480.621	13667
480.698	9086
480.775	11217
480.853	11306
480.930	9720
481.007	8976
481.084	10374
481.161	12502
481.238	13416
481.315	8476
481.392	8574
481.470	8472
481.547	8917
481.624	7972
481.701	8673
481.778	8666
481.855	9767
481.932	11920
482.009	23269
482.086	23550
482.163	10178
482.240	12400
482.317	26550
482.393	26440
482.470	9831
482.547	8070
482.624	8457
482.701	8708
482.778	8795
482.855	6417
482.932	7523
483.009	6937
483.085	7717
483.162	9933
483.239	11000
483.316	8065
483.393	7322
483.469	7182
483.546	7968
483.623	10182
483.699	8934
483.776	8430
483.853	9877
483.930	12578
484.006	30405
484.083	66557
484.160	45290
484.236	49395
484.313	44618
484.389	32078
484.466	26848
484.543	25117
484.619	25900
484.696	26053
484.772	26681
484.849	29159
484.925	25674
485.002	23195
485.078	23274
485.155	24413
485.231	23502
485.308	21613
485.384	22741
485.461	25365
485.537	38252
485.614	56269
485.690	29590
485.766	21895
485.843	21417
485.919	26157
485.995	31436
486.072	21701
486.148	20768
486.224	20106
486.301	19983
486.377	22678
486.453	23905
486.530	22114
486.606	28962
486.682	34793
486.758	37938
486.835	47236
486.911	36248
486.987	51122
487.063	58333
487.139	57570
487.215	50942
487.292	29905
487.368	23546
487.444	23214
487.520	27391
487.596	28658
487.672	29416
487.748	47511
487.824	85208
487.900	53757
487.976	27135
488.052	23229
488.128	28246
488.204	25870
488.280	22159
488.356	23659
488.432	38669
488.508	77491
488.584	40666
488.660	20091
488.736	19382
488.812	18555
488.888	23205
488.964	27555
489.039	43985
489.115	80263
489.191	68601
489.267	23047
489.343	20749
489.418	17419
489.494	16519
489.570	15698
489.646	17857
489.722	16616
489.797	17212
489.873	21454
489.949	47487
490.024	62590
490.100	20298
490.176	16527
490.251	17226
490.327	22247
490.403	18644
490.478	15352
490.554	13155
490.629	13856
490.705	13199
490.781	14313
490.856	14783
490.932	16601
491.007	16361
491.083	16531
491.158	16129
491.234	17194
491.309	35821
491.385	53314
491.460	21413
491.536	16082
491.611	16268
491.686	13983
491.762	18563
491.837	28281
491.913	55743
491.988	68248
492.063	110920
492.139	48561
492.214	27901
492.289	14689
492.365	11208
492.440	14883
492.515	14862
492.590	16533
492.666	14433
492.741	14769
492.816	25783
492.891	19522
492.967	13343
493.042	10906
493.117	13028
493.192	13196
493.267	19707
493.342	60323
493.418	131354
493.493	41732
493.568	11543
493.643	10912
493.718	13358
493.793	17661
493.868	24198
493.943	16092
494.018	12284
494.093	11065
494.168	11596
494.243	10016
494.318	9759
494.393	9196
494.468	9847
494.543	9638
494.618	11023
494.693	11420
494.768	10073
494.842	11410
494.917	9476
494.992	9918
495.067	10749
495.142	9080
495.217	10309
495.292	10459
495.366	11319
495.441	13155
495.516	17259
495.591	20333
495.665	46224
495.740	149008
495.815	120381
495.890	21485
495.964	14789
496.039	14079
496.114	13188
496.188	15812
496.263	16460
496.338	13832
496.412	14260
496.487	19042
496.561	17241
496.636	19866
496.710	16574
496.785	16699
496.860	20090
496.934	17751
497.009	16166
497.083	17143
497.158	18751
497.232	19657
497.307	24784
497.381	24076
497.455	25013
497.530	33522
497.604	31168
497.679	26561
497.753	37842
497.827	54008
497.902	54322
497.976	56691
498.050	77451
498.125	277233
498.199	504890
498.273	121137
498.348	63145
498.422	52981
498.496	47281
498.570	43838
498.645	35446
498.719	32682
498.793	34417
498.867	43284
498.941	58102
499.016	96996
499.090	362257
499.164	275733
499.238	29589
499.312	19195
499.386	20557
499.460	21651
499.534	19130
499.609	20032
499.683	30418
499.757	34128
499.831	42372
499.905	186005
499.979	342823
500.053	64494
500.127	40057
500.201	27888
500.275	18092
500.349	16526
500.422	18842
500.496	23561
500.570	41009
500.644	96796
500.718	272868
500.792	134730
500.866	19154
500.940	20717
501.013	21675
501.087	16427
501.161	24868
501.235	36478
501.309	58106
501.382	181541
501.456	289025
501.530	60604
501.603	71984
501.677	52481
501.751	13547
501.825	14828
501.898	21775
501.972	74816
502.046	93475
502.119	19494
502.193	27392
502.266	88187
502.340	82118
502.413	31578
502.487	84195
502.561	69132
502.634	26414
502.708	12038
502.781	11826
502.855	8906
502.928	8306
503.002	8588
503.075	8252
503.149	9779
503.222	10232
503.295	12013
503.369	14296
503.442	16819
503.516	42645
503.589	153942
503.662	164940
503.736	45976
503.809	62279
503.882	85329
503.956	70327
504.029	112375
504.102	42029
504.175	46935
504.249	26897
504.322	15930
504.395	16195
504.468	10189
504.542	10895
504.615	8459
504.688	7125
504.761	6658
504.834	9185
504.907	9670
504.980	17804
505.053	12442
505.127	10163
505.200	15489
505.273	14234
505.346	13136
505.419	7832
505.492	6686
505.565	6842
505.638	5855
505.711	6909
505.784	6797
505.857	5643
505.930	6462
506.003	6351
506.076	8277
506.149	9212
506.221	15561
506.294	13567
506.367	22456
506.440	99663
506.513	112378
506.586	19837
506.659	11970
506.731	8224
506.804	7342
506.877	12657
506.950	11548
507.022	6760
507.095	7571
507.168	13401
507.241	8536
507.313	7250
507.386	6424
507.459	9891
507.531	8438
507.604	6345
507.677	7043
507.749	5657
507.822	6899
507.894	14501
507.967	24175
508.040	15923
508.112	12342
508.185	10874
508.257	9560
508.330	13719
508.402	11760
508.475	10432
508.547	10451
508.620	10585
508.692	16651
508.765	15074
508.837	8489
508.909	8932
508.982	8394
509.054	9072
509.127	8469
509.199	8502
509.271	8329
509.344	7796
509.416	7419
509.488	8331
509.560	8179
509.633	8149
509.705	10174
509.777	10690
509.849	12042
509.922	12956
509.994	9765
510.066	8699
510.138	10137
510.210	17438
510.283	20426
510.355	16176
510.427	13263
510.499	12626
510.571	13453
510.643	11356
510.715	14114
510.787	17641
510.859	12582
510.931	12380
511.003	15682
511.076	18147
511.148	11936
511.219	11263
511.291	15466
511.363	24456
511.435	12972
511.507	9513
511.579	9904
511.651	10478
511.723	8816
511.795	9178
511.867	9610
511.939	11446
512.010	21022
512.082	27695
512.154	11618
512.226	11208
512.298	11859
512.369	22523
512.441	18753
512.513	16591
512.585	14370
512.656	13252
512.728	13937
512.800	12210
512.871	10810
512.943	11833
513.015	10200
513.086	10494
513.158	11297
513.230	11965
513.301	13820
513.373	18247
513.444	13659
513.516	11075
513.588	10797
513.659	10850
513.731	12681
513.802	12655
513.874	16277
513.945	34492
514.016	24368
514.088	10331
514.159	11200
514.231	14014
514.302	20045
514.374	18069
514.445	14101
514.516	23895
514.588	28977
514.659	14707
514.730	23321
514.802	25682
514.873	18411
514.944	22289
515.016	17225
515.087	16232
515.158	17819
515.229	29672
515.301	22491
515.372	29621
515.443	23334
515.514	17132
515.585	12088
515.656	12339
515.728	10787
515.799	10039
515.870	9819
515.941	11226
516.012	11168
516.083	13481
516.154	15579
516.225	17669
516.296	17969
516.367	15620
516.438	15405
516.509	18603
516.580	21726
516.651	40958
516.722	162803
516.793	186062
516.864	33460
516.935	27289
517.006	26411
517.077	32004
517.148	54930
517.219	136392
517.289	396318
517.360	205548
517.431	100477
517.502	20222
517.573	14712
517.643	14621
517.714	15272
517.785	17074
517.856	16393
517.926	18556
517.997	20137
518.068	25255
518.138	31425
518.209	38604
518.280	85843
518.350	424023
518.421	419491
518.492	53283
518.562	22874
518.633	22119
518.703	19706
518.774	24274
518.845	41557
518.915	56183
518.986	29942
519.056	22003
519.127	30153
519.197	46261
519.268	104551
519.338	141885
519.408	29029
519.479	22295
519.549	21524
519.620	13857
519.690	12168
519.760	10928
519.831	10679
519.901	11695
519.971	9174
520.042	10235
520.112	11726
520.182	14099
520.253	15908
520.323	12247
520.393	12975
520.463	23898
520.534	15955
520.604	31125
520.674	23027
520.744	15406
520.814	28899
520.885	41647
520.955	29705
521.025	127881
521.095	128376
521.165	17599
521.235	12274
521.305	11083
521.375	8897
521.445	9322
521.515	11693
521.585	13623
521.655	15968
521.725	11768
521.795	13184
521.865	9866
521.935	12177
522.005	16479
522.075	9615
522.145	9183
522.215	10418
522.285	16698
522.355	19217
522.424	37115
522.494	47716
522.564	23905
522.634	20204
522.704	67507
522.774	58606
522.843	12208
522.913	9609
522.983	11951
523.053	12187
523.122	10167
523.192	10071
523.262	27780
523.331	59074
523.401	17363
523.471	7804
523.540	9110
523.610	7118
523.680	6857
523.749	7200
523.819	9798
523.888	13671
523.958	8608
524.027	8083
524.097	7965
524.166	8096
524.236	7852
524.305	9632
524.375	7691
524.444	7373
524.514	8806
524.583	7886
524.653	10877
524.722	12789
524.791	11334
524.861	7628
524.930	7503
524.999	8091
525.069	10881
525.138	9804
525.207	11848
525.277	10329
525.346	8571
525.415	8259
525.484	8039
525.554	9444
525.623	11481
525.692	9039
525.761	9778
525.830	9426
525.900	10340
525.969	13360
526.038	19937
526.107	25280
526.176	74457
526.245	99152
526.314	40069
526.383	44024
526.452	74457
526.522	82448
526.591	156496
526.660	65564
526.729	36962
526.797	27487
526.867	40264
526.935	159396
527.004	321363
527.073	258352
527.142	38135
527.211	14185
527.280	10389
527.349	11900
527.418	8334
527.487	6833
527.555	6378
527.624	6137
527.693	5744
527.762	6812
527.831	5942
527.899	5084
527.968	6742
528.037	5758
528.106	7589
528.174	12056
528.243	15485
528.312	14132
528.380	28299
528.449	12157
528.518	7665
528.586	4775
528.655	5782
528.723	4759
528.792	5302
528.861	6256
528.929	5874
528.998	5707
529.066	5649
529.135	6306
529.203	5666
529.272	5167
529.340	7374
529.409	7141
529.477	7045
529.545	8203
529.614	12924
529.682	10263
529.751	16116
529.819	13050
529.887	14026
529.956	9247
530.024	8988
530.092	7301
530.161	8388
530.229	12283
530.297	10932
530.365	8275
530.434	7616
530.502	7284
530.570	7438
530.638	5219
530.707	8230
530.775	9451
530.843	6885
530.911	7286
530.979	7383
531.047	7260
531.115	8462
531.183	7317
531.252	7370
531.320	7493
531.388	7258
531.456	6918
531.524	7293
531.592	8452
531.660	9330
531.728	7400
531.796	8150
531.864	7574
531.932	8850
532.000	8281
532.067	9182
532.135	9186
532.203	10911
532.271	11336
532.339	15189
532.407	30563
532.475	36747
532.542	14164
532.610	14365
532.678	15307
532.746	34633
532.814	151798
532.881	84612
532.949	15411
533.017	11001
533.084	8533
533.152	8375
533.220	7738
533.287	8919
533.355	9619
533.423	8449
533.490	8332
533.558	8203
533.625	7481
533.693	10193
533.761	9779
533.828	9902
533.896	9821
533.963	14756
534.031	20710
534.098	24725
534.166	20355
534.233	10536
534.300	10796
534.368	10784
534.435	10001
534.503	9746
534.570	9300
534.637	8925
534.705	9406
534.772	10895
534.840	11761
534.907	30104
534.974	70708
535.041	21111
535.109	12015
535.176	9630
535.243	8025
535.310	7226
535.378	7607
535.445	7122
535.512	7227
535.579	6693
535.646	6434
535.714	7885
535.781	9488
535.848	9744
535.915	9952
535.982	11509
536.049	11397
536.116	10379
536.183	9277
536.250	8866
536.317	8577
536.384	10501
536.451	12388
536.518	15395
536.585	11230
536.652	12705
536.719	16007
536.786	16440
536.853	11572
536.920	14332
536.987	22476
537.053	22749
537.120	49741
537.187	101067
537.254	18020
537.321	8271
537.388	8810
537.454	7058
537.521	6580
537.588	6548
537.654	8167
537.721	10450
537.788	10449
537.855	7787
537.921	7785
537.988	8637
538.055	8160
538.121	7726
538.188	8843
538.254	10849
538.321	20658
538.388	21120
538.454	9257
538.521	8004
538.587	7704
538.654	6894
538.720	7154
538.787	7657
538.853	7812
538.920	9155
538.986	11488
539.053	9663
539.119	8318
539.185	9017
539.252	8944
539.318	13449
539.385	14732
539.451	11963
539.517	11972
539.583	11130
539.650	15773
539.716	54866
539.782	37237
539.849	10258
539.915	9231
539.981	8995
540.047	9961
540.114	10306
540.180	9405
540.246	10822
540.312	11567
540.378	19422
540.444	28044
540.510	20866
540.576	57168
540.643	45868
540.709	9182
540.775	9762
540.841	8138
540.907	9778
540.973	17866
541.039	17203
541.105	18473
541.171	12199
541.237	8294
541.303	9278
541.369	10122
541.435	11395
541.500	17770
541.566	17696
541.632	9121
541.698	7788
541.764	8144
541.830	7570
541.896	7433
541.961	8548
542.027	8949
542.093	8751
542.159	8251
542.224	9807
542.290	13011
542.356	17501
542.421	26709
542.487	16110
542.553	10620
542.618	10704
542.684	10796
542.750	9394
542.815	9826
542.881	13212
542.947	40907
543.012	66797
543.078	12943
543.143	8441
543.209	9519
543.274	9280
543.340	10040
543.405	14811
543.471	39580
543.536	17523
543.602	8912
543.667	8117
543.732	9505
543.798	7347
543.863	8885
543.928	7656
543.994	6204
544.059	7596
544.124	7421
544.190	8057
544.255	8309
544.320	8899
544.386	8160
544.451	11242
544.516	13252
544.581	12979
544.646	21959
544.712	65462
544.777	26362
544.842	12137
544.907	11727
544.972	11154
545.037	9718
545.102	10080
545.168	11545
545.233	12102
545.298	11613
545.363	13488
545.428	14488
545.493	18310
545.558	42810
545.623	36938
545.688	11344
545.753	10617
545.818	10208
545.883	11724
545.947	10040
546.012	11382
546.077	12600
546.142	12529
546.207	10808
546.272	13581
546.337	15720
546.401	13791
546.466	11960
546.531	11994
546.596	12188
546.661	12369
546.725	12048
546.790	11118
546.855	10457
546.919	11780
546.984	12325
547.049	12511
547.113	15355
547.178	14912
547.243	14253
547.307	17033
547.372	17952
547.436	22391
547.501	19109
547.565	18460
547.630	17697
547.695	20786
547.759	21330
547.823	22602
547.888	17392
547.952	16857
548.017	17036
548.081	20428
548.146	24819
548.210	24753
548.274	18539
548.339	18433
548.403	16994
548.468	15563
548.532	15978
548.596	17498
548.660	17445
548.725	17265
548.789	20197
548.853	24329
548.917	18949
548.982	20851
549.046	26957
549.110	17550
549.174	15827
549.238	15722
549.303	16409
549.367	18272
549.431	16501
549.495	17101
549.559	16017
549.623	17662
549.687	18746
549.751	24673
549.815	24450
549.879	22621
549.943	19484
550.007	22375
550.071	22851
550.135	24260
550.199	22924
550.263	19853
550.327	20841
550.391	25625
550.455	26909
550.519	21682
550.582	21685
550.646	25132
550.710	31680
550.774	25824
550.838	24334
550.901	24009
550.965	27930
551.029	27742
551.093	30714
551.156	34663
551.220	49361
551.284	75998
551.347	44160
551.411	48036
551.475	84703
551.538	40293
551.602	25932
551.666	22645
551.729	21760
551.793	21836
551.856	22765
551.920	22348
551.983	22187
552.047	21030
552.110	21091
552.174	21006
552.237	20547
552.301	20704
552.364	19113
552.428	19427
552.491	18494
552.554	20942
552.618	19726
552.681	22171
552.745	20520
552.808	24190
552.871	31130
552.934	28042
552.998	22793
553.061	22911
553.124	22334
553.187	21047
553.251	23711
553.314	26411
553.377	24578
553.440	29938
553.503	51872
553.567	145262
553.630	65708
553.693	23842
553.756	21752
553.819	21325
553.882	19947
553.945	19568
554.008	20216
554.071	18918
554.134	19413
554.197	18917
554.260	17178
554.323	19235
554.386	19472
554.449	20138
554.512	19987
554.575	18859
554.638	18707
554.701	19546
554.764	19652
554.827	18532
554.889	17600
554.952	17979
555.015	15987
555.078	15533
555.141	17169
555.203	16782
555.266	16266
555.329	16553
555.391	17212
555.454	16166
555.517	17302
555.580	15704
555.642	13797
555.705	14941
555.768	15118
555.830	15425
555.893	14287
555.955	14516
556.018	14564
556.080	13586
556.143	13880
556.206	13792
556.268	15797
556.330	14840
556.393	14914
556.455	15362
556.518	16773
556.580	25212
556.643	15530
556.705	13891
556.767	12319
556.830	13695
556.892	14042
556.955	17385
557.017	19176
557.079	14510
557.142	11501
557.204	13531
557.266	19603
557.328	27923
557.391	15308
557.453	11960
557.515	10875
557.577	12323
557.639	14964
557.701	12729
557.764	10827
557.826	11462
557.888	14072
557.950	13507
558.012	13355
558.074	15533
558.136	21592
558.198	60172
558.260	49986
558.322	17429
558.384	15802
558.446	19031
558.508	20053
558.570	25128
558.632	32034
558.694	53773
558.756	52168
558.818	86118
558.880	327261
558.942	235016
559.003	72385
559.065	64449
559.127	23453
559.189	20651
559.251	22660
559.312	26593
559.374	44384
559.436	159984
559.498	194522
559.559	35704
559.621	22594
559.683	22086
559.744	28293
559.806	63676
559.868	167027
559.929	70491
559.991	22728
560.052	25067
560.114	52729
560.176	66431
560.237	31857
560.299	68325
560.360	37620
560.422	14413
560.483	11326
560.545	11887
560.606	10840
560.667	10189
560.729	10416
560.790	10305
560.852	10154
560.913	10679
560.974	10163
561.036	9991
561.097	10882
561.158	10597
561.220	11394
561.281	10699
561.342	11901
561.403	13721
561.465	13165
561.526	21946
561.587	45631
561.648	24535
561.709	12170
561.771	10769
561.832	10414
561.893	10698
561.954	10782
562.015	10036
562.076	10606
562.137	10688
562.198	10322
562.259	11036
562.320	10641
562.381	11756
562.442	13252
562.503	15699
562.564	10730
562.625	11612
562.686	10711
562.747	11106
562.808	11781
562.869	10712
562.930	12945
562.991	12775
563.051	12999
563.112	11497
563.173	10998
563.234	10547
563.294	10750
563.355	11265
563.416	11565
563.477	10727
563.537	10417
563.598	11985
563.659	10668
563.720	12451
563.780	10873
563.841	12591
563.901	12091
563.962	11397
564.023	9969
564.083	11551
564.144	12442
564.204	12162
564.265	12060
564.325	12743
564.386	20044
564.446	31969
564.507	14456
564.567	11645
564.628	11818
564.688	11402
564.749	10961
564.809	12326
564.869	15137
564.930	14891
564.990	11668
565.050	11207
565.111	11705
565.171	11494
565.231	10447
565.292	11659
565.352	10683
565.412	11553
565.472	11760
565.532	13728
565.593	12258
565.653	11782
565.713	12771
565.773	13642
565.833	13902
565.893	18012
565.953	15362
566.013	14645
566.074	13833
566.134	17313
566.194	22034
566.254	31123
566.314	22475
566.374	17463
566.434	16527
566.494	15611
566.554	15617
566.614	17435
566.673	17454
566.733	18889
566.793	18834
566.853	20512
566.913	20808
566.973	21397
567.033	21652
567.092	21889
567.152	21039
567.212	22036
567.272	21399
567.331	24198
567.391	23988
567.451	25178
567.511	27640
567.570	33805
567.630	25863
567.690	22710
567.749	23207
567.809	25181
567.868	27031
567.928	31057
567.988	35552
568.047	42285
568.107	49564
568.166	63083
568.226	89450
568.285	131184
568.345	141525
568.404	121248
568.464	103259
568.523	93361
568.582	90903
568.642	96860
568.701	110987
568.761	141360
568.820	209405
568.879	254406
568.939	219904
568.998	172939
569.057	130969
569.116	103045
569.176	81768
569.235	68697
569.294	56608
569.353	48683
569.413	42234
569.472	37830
569.531	32864
569.590	30289
569.649	27881
569.708	26255
569.767	23706
569.827	24451
569.886	23190
569.945	20074
570.004	18887
570.063	17812
570.122	18032
570.181	18374
570.240	18477
570.299	19797
570.358	17950
570.417	16480
570.475	13686
570.534	13749
570.593	14844
570.652	14118
570.711	14320
570.770	13751
570.829	14594
570.887	15644
570.946	14656
571.005	13114
571.064	11812
571.122	13519
571.181	14030
571.240	13137
571.299	11491
571.357	12369
571.416	13451
571.475	12828
571.533	16020
571.592	13040
571.650	13045
571.709	11994
571.768	11250
571.826	11850
571.885	11003
571.943	11175
572.002	10556
572.060	12544
572.119	10093
572.177	9891
572.236	10156
572.294	9147
572.352	9993
572.411	10200
572.469	9421
572.528	10030
572.586	9049
572.644	10400
572.703	12253
572.761	10884
572.819	9736
572.877	8728
572.936	8232
572.994	9363
573.052	8623
573.110	9316
573.169	9900
573.227	9584
573.285	9027
573.343	8986
573.401	8389
573.459	9350
573.517	8795
573.576	8991
573.634	9321
573.692	9961
573.750	9313
573.808	9184
573.866	9494
573.924	11084
573.982	12730
574.040	11888
574.098	9255
574.155	9020
574.213	8757
574.271	9448
574.329	8360
574.387	8315
574.445	8260
574.503	7878
574.560	8766
574.618	8547
574.676	7664
574.734	7522
574.792	7752
574.849	8531
574.907	6658
574.965	7917
575.022	7717
575.080	8532
575.138	8116
575.195	8958
575.253	7837
575.311	9393
575.368	8558
575.426	8003
575.483	7842
575.541	8502
575.598	7639
575.656	9227
575.713	8747
575.771	8937
575.828	8568
575.886	8612
575.943	8827
576.001	8851
576.058	9392
576.115	9770
576.173	9583
576.230	12250
576.287	12051
576.345	12947
576.402	9540
576.459	10988
576.517	9116
576.574	10276
576.631	10199
576.688	10403
576.746	9470
576.803	9999
576.860	8813
576.917	9682
576.974	8894
577.031	9331
577.089	9204
577.146	9028
577.203	9515
577.260	9798
577.317	9895
577.374	11862
577.431	11101
577.488	11675
577.545	10328
577.602	10579
577.659	9649
577.716	10194
577.773	10100
577.830	10339
577.886	9576
577.943	10502
578.000	10189
578.057	10701
578.114	11411
578.171	12093
578.227	13354
578.284	15001
578.341	12917
578.398	11447
578.454	11943
578.511	12149
578.568	13056
578.625	12060
578.681	10492
578.738	8883
578.794	9477
578.851	10093
578.908	9861
578.964	10891
579.021	10102
579.077	10473
579.134	10207
579.190	9957
579.247	9141
579.303	10158
579.360	8868
579.416	9283
579.473	9210
579.529	9787
579.586	9949
579.642	10640
579.698	10393
579.755	11185
579.811	11470
579.867	11284
579.924	11466
579.980	11028
580.036	12300
580.093	13410
580.149	16535
580.205	21131
580.261	18860
580.317	15647
580.374	13589
580.430	15074
580.486	14353
580.542	12390
580.598	12370
580.619	12238
580.654	12022
580.692	11465
580.710	11198
580.765	11484
580.767	11503
580.823	11909
580.838	11871
580.879	11784
580.911	11480
580.935	11261
580.984	10690
580.991	10628
581.047	11830
581.057	11878
581.103	12139
581.130	12324
581.159	12528
581.203	13398
581.215	13632
581.270	13289
581.276	13227
581.326	12692
581.349	12631
581.382	12564
581.422	12817
581.438	12942
581.494	13162
581.494	13142
581.550	11549
581.567	11719
581.606	12084
581.640	12434
581.661	12674
581.713	12397
581.717	12379
581.773	12317
581.786	12192
581.829	11832
581.859	11988
581.885	12071
581.932	12505
581.940	12607
581.996	12244
582.004	12325
582.052	12720
582.077	12781
582.107	12933
582.150	12249
582.163	12051
582.219	12749
582.223	12750
582.274	12645
582.296	12814
582.330	13195
582.368	13534
582.386	13628
582.441	13299
582.441	13300
582.497	13283
582.514	13351
582.552	13559
582.587	14194
582.608	14563
582.659	14837
582.663	14847
582.719	13471
582.732	13687
582.774	14468
582.805	14151
582.830	13947
582.877	14042
582.885	14048
582.941	14251
582.950	14490
582.996	15728
583.023	15956
583.052	16328
583.095	16511
583.107	16531
583.162	18211
583.168	18335
583.218	19538
583.240	19383
583.273	18847
583.313	17913
583.328	17650
583.384	17327
583.385	17305
583.439	16386
583.458	16053
583.494	15584
583.531	15473
583.549	15472
583.603	15603
583.605	15598
583.660	16337
583.676	16230
583.715	16142
583.748	16514
583.770	16762
583.820	16830
583.825	16829
583.881	16928
583.893	16817
583.936	16523
583.965	16678
583.991	16639
584.038	16709
584.046	16800
584.101	17285
584.110	17273
584.156	17009
584.183	17220
584.211	17375
584.255	16912
584.266	16831
584.321	17578
584.328	17625
584.376	18057
584.400	18397
584.431	18950
584.472	19031
584.486	18930
584.541	18632
584.545	18599
584.596	18330
584.617	18658
584.651	19423
584.689	19716
584.706	19811
584.761	20677
584.762	20674
584.816	20301
584.834	20691
584.871	21631
584.906	20977
584.926	20554
584.978	21785
584.980	21848
585.035	22379
585.051	22522
585.090	22887
585.123	23849
585.145	24587
585.195	24819
585.200	24823
585.254	25584
585.267	25898
585.309	27809
585.340	29513
585.364	30714
585.412	32761
585.419	32790
585.473	30770
585.484	30647
585.528	31443
585.556	33069
585.583	35725
585.628	42290
585.637	44417
585.692	61905
585.700	67207
585.747	103814
585.772	109042
585.801	97876
585.845	63197
585.856	55114
585.910	37705
585.917	36134
585.965	34289
585.989	33502
586.019	33031
586.061	33327
586.074	33509
586.128	34021
586.133	34067
586.183	35111
586.205	35896
586.237	36726
586.277	36791
586.292	36915
586.346	38350
586.349	38392
586.401	39247
586.421	39509
586.455	39963
586.493	41062
586.509	42539
586.564	47324
586.565	47499
586.618	62512
586.637	67539
586.672	70501
586.709	65309
586.727	59220
586.781	46423
586.781	46438
586.835	48011
586.853	48162
586.889	48188
586.925	48473
586.944	49285
586.996	51862
586.998	51935
587.052	54239
587.068	54680
587.106	55839
587.140	56914
587.161	58067
587.212	61174
587.215	61319
587.269	63643
587.284	64150
587.323	65735
587.356	67729
587.377	69479
587.427	72616
587.431	72882
587.485	76835
587.499	77860
587.539	81319
587.571	84292
587.593	86296
587.643	90708
587.648	91310
587.702	97691
587.715	99232
587.755	105081
587.786	109969
587.810	113970
587.858	121919
587.864	122854
587.917	132037
587.930	134429
587.971	145568
588.001	153467
588.025	160212
588.073	174379
588.079	176406
588.133	195461
588.145	199772
588.187	218403
588.217	231902
588.241	245219
588.288	273010
588.295	277334
588.348	315560
588.360	324092
588.402	362952
588.431	391085
588.456	418866
588.503	476278
588.510	486522
588.564	570790
588.575	589843
588.617	687538
588.646	758065
588.671	838002
588.718	997791
588.725	1030216
588.778	1288638
588.789	1339845
588.832	1561203
588.861	1692583
588.886	1712747
588.932	1685528
588.939	1646968
588.993	1276904
589.004	1227728
589.047	1421286
589.075	1580338
589.100	1692418
589.147	1806617
589.154	1780900
589.207	1514214
589.218	1459142
589.261	1296887
589.290	1194920
589.314	1174961
589.361	1152622
589.368	1168476
589.421	1313315
589.433	1345175
589.475	1525566
589.504	1636593
589.528	1626928
589.576	1533957
589.582	1521041
589.635	1442075
589.647	1435764
589.689	1567723
589.718	1604802
589.742	1448176
589.790	1107249
589.795	1078542
589.849	810476
589.861	750249
589.902	637481
589.932	557189
589.955	513795
590.004	424762
590.009	418628
590.062	351581
590.075	335393
590.115	301282
590.146	275567
590.168	262637
590.218	234216
590.222	232680
590.275	211350
590.289	205502
590.328	192847
590.360	182869
590.381	176818
590.431	161979
590.435	161353
590.488	148397
590.503	144645
590.541	138254
590.574	132971
590.594	130142
590.645	121980
590.647	121827
590.700	114568
590.716	112210
590.753	108207
590.787	104383
590.806	102440
590.859	96663
590.859	96714
590.912	92744
590.930	91346
590.965	88393
591.001	85219
591.018	84252
591.071	81145
591.072	81012
591.124	77750
591.143	76496
591.177	75603
591.214	74479
591.230	73932
591.283	71738
591.285	71551
591.336	70802
591.356	70556
591.389	69811
591.427	68364
591.442	67580
591.495	64432
591.498	64111
591.547	61690
591.569	60459
591.600	59579
591.640	58202
591.653	57979
591.706	56657
591.711	56456
591.759	57171
591.782	57331
591.811	58443
591.853	59982
591.864	59728
591.917	57683
591.924	57299
591.969	54195
591.995	52259
592.022	51715
592.066	50691
592.075	50894
592.127	51699
592.137	51763
592.180	55801
592.208	58305
592.233	57601
592.279	55825
592.285	55079
592.338	47897
592.350	46200
592.390	45022
592.421	44004
592.443	44282
592.491	44659
592.495	44658
592.548	43602
592.562	43237
592.600	42940
592.633	42556
592.653	42375
592.704	41500
592.705	41725
592.775	41054
592.846	41687
592.916	40770
592.987	41638
593.058	41801
593.128	39013
593.199	36853
593.270	37124
593.341	35722
593.411	35496
593.482	35494
593.553	34972
593.623	33649
593.694	34054
593.764	35031
593.835	35735
593.906	33228
593.976	33420
594.047	33091
594.117	36393
594.188	41932
594.258	33633
594.329	29720
594.399	30116
594.470	30369
594.540	29380
594.611	29217
594.681	29091
594.751	29856
594.822	31475
594.892	31998
594.963	32003
595.033	31835
595.103	30502
595.174	32032
595.244	39402
595.314	59330
595.384	45712
595.455	29251
595.525	28725
595.595	29405
595.665	30389
595.736	29883
595.806	29778
595.876	28842
595.946	28468
596.016	28031
596.087	28264
596.157	28466
596.227	27958
596.297	28843
596.367	29340
596.437	31208
596.507	37343
596.577	52853
596.647	43252
596.717	29122
596.787	28905
596.857	28857
596.927	29270
596.997	28256
597.067	28901
597.137	31056
597.207	32082
597.277	28745
597.347	29357
597.417	28986
597.487	28615
597.557	29776
597.626	29270
597.696	30945
597.766	33605
597.836	46476
597.906	43806
597.975	28421
598.045	26988
598.115	27082
598.185	27324
598.254	28916
598.324	30236
598.394	30354
598.464	31358
598.533	29734
598.603	28656
598.672	27775
598.742	28662
598.812	27993
598.881	28887
598.951	27491
599.020	27734
599.090	26672
599.159	28220
599.229	26855
599.299	26429
599.368	26483
599.437	26785
599.507	25589
599.576	27786
599.646	27867
599.715	29949
599.785	27589
599.854	27148
599.924	30449
599.993	31932
600.062	27187
600.132	25940
600.201	27108
600.270	28478
600.340	29910
600.409	28280
600.478	28590
600.547	27823
600.617	28436
600.686	27295
600.755	25828
600.824	25499
600.894	27368
600.963	24862
601.032	24861
601.101	25461
601.170	24593
601.239	24338
601.308	26110
601.378	27759
601.447	26091
601.516	25485
601.585	24878
601.654	26961
601.723	27717
601.792	26123
601.861	27715
601.930	29944
601.999	31769
602.068	28477
602.137	28577
602.206	30977
602.275	27644
602.343	30043
602.412	32286
602.481	29618
602.550	27653
602.619	26905
602.688	27116
602.756	28189
602.825	27248
602.894	26310
602.963	26058
603.032	26279
603.100	26826
603.169	26866
603.238	27587
603.307	27199
603.375	26689
603.444	27205
603.513	27811
603.581	25524
603.650	26942
603.719	26918
603.787	24056
603.856	25212
603.924	25278
603.993	26576
604.061	27161
604.130	26171
604.198	27445
604.267	27394
604.335	27000
604.404	26684
604.472	27720
604.541	27183
604.609	27771
604.678	27204
604.746	28291
604.815	28851
604.883	28624
604.951	28474
605.020	28513
605.088	28171
605.156	27870
605.225	27115
605.293	27527
605.361	27936
605.429	27893
605.498	28424
605.566	29460
605.634	28935
605.702	29564
605.771	29441
605.839	30126
605.907	28063
605.975	28917
606.043	29011
606.111	26954
606.180	28562
606.248	29957
606.316	33976
606.384	31057
606.452	32575
606.520	33627
606.588	31103
606.656	25213
606.724	25168
606.792	24161
606.860	23602
606.928	21563
606.996	20647
607.064	20159
607.132	20162
607.200	21359
607.267	21611
607.335	21484
607.403	22105
607.471	22637
607.539	21811
607.607	21392
607.674	21063
607.742	20667
607.810	21580
607.878	22328
607.946	20566
608.013	21094
608.081	20128
608.149	21659
608.216	21183
608.284	21487
608.352	21989
608.419	22374
608.487	27446
608.555	31616
608.622	21901
608.690	20287
608.757	21726
608.825	23199
608.893	22984
608.960	24599
609.028	29335
609.095	32886
609.163	32804
609.230	22175
609.298	22428
609.365	20072
609.432	20923
609.500	21523
609.567	22594
609.635	25248
609.702	26785
609.769	26638
609.837	28008
609.904	26400
609.971	23737
610.039	25314
610.106	30341
610.173	48028
610.241	106510
610.308	179669
610.375	117233
610.442	49490
610.509	27390
610.577	24001
610.644	22227
610.711	21723
610.778	22210
610.845	21681
610.912	23114
610.980	24300
611.047	30000
611.114	33074
611.181	24868
611.248	22281
611.315	22608
611.382	22520
611.449	22925
611.516	23311
611.583	24041
611.650	24082
611.717	23994
611.784	24429
611.851	25713
611.918	28437
611.984	33825
612.051	43397
612.118	73793
612.185	182440
612.252	322629
612.319	89597
612.386	35733
612.452	31015
612.519	29755
612.586	34775
612.653	39278
612.719	27224
612.786	25630
612.853	24353
612.919	23302
612.986	23416
613.053	22773
613.120	21410
613.186	21159
613.253	21535
613.319	21059
613.386	21166
613.453	22026
613.519	23923
613.586	26908
613.652	36170
613.719	35048
613.785	33367
613.852	25781
613.918	23275
613.985	24090
614.051	29301
614.118	47857
614.184	88256
614.250	40239
614.317	25176
614.383	21902
614.449	22363
614.516	22020
614.582	22191
614.648	23487
614.715	20831
614.781	21075
614.847	21884
614.914	22627
614.980	24593
615.046	23168
615.112	22943
615.179	23395
615.245	26078
615.311	31271
615.377	46744
615.443	77171
615.509	63423
615.575	37706
615.642	30685
615.708	29106
615.774	30926
615.840	34506
615.906	43175
615.972	59952
616.038	107220
616.104	208480
616.170	300384
616.236	517340
616.302	189260
616.368	58832
616.434	44405
616.500	35794
616.565	34785
616.631	37256
616.697	39739
616.763	34130
616.829	38172
616.895	60785
616.961	87995
617.026	61616
617.092	33757
617.158	26813
617.224	25667
617.289	24027
617.355	23930
617.421	24288
617.487	23767
617.552	22023
617.618	21669
617.684	21554
617.749	22339
617.815	21540
617.880	19386
617.946	19924
618.012	19928
618.077	21437
618.143	20636
618.208	21099
618.274	21283
618.339	22606
618.405	21064
618.470	20046
618.536	20923
618.601	22420
618.667	22760
618.732	20566
618.798	20350
618.863	19913
618.928	19183
618.994	19963
619.059	21804
619.124	27117
619.190	30545
619.255	20987
619.320	20207
619.386	20689
619.451	19201
619.516	19657
619.581	19119
619.647	20529
619.712	19355
619.777	19396
619.842	19060
619.907	20741
619.972	20234
620.038	20910
620.103	18693
620.168	19819
620.233	18239
620.298	18421
620.363	18848
620.428	19379
620.493	18912
620.558	19710
620.623	18897
620.688	19837
620.753	19059
620.818	18682
620.883	19847
620.948	18852
621.013	18971
621.078	19822
621.143	18939
621.207	21963
621.272	21076
621.337	22468
621.402	23795
621.467	26084
621.532	34669
621.596	28161
621.661	24978
621.726	21420
621.791	21432
621.855	22986
621.920	24048
621.985	25074
622.049	29939
622.114	30175
622.179	27842
622.243	24559
622.308	25141
622.373	24429
622.437	24814
622.502	23781
622.566	22618
622.631	23378
622.695	23827
622.760	24377
622.824	23307
622.889	23742
622.953	24796
623.018	28968
623.082	41057
623.147	28541
623.211	23408
623.276	24026
623.340	23279
623.404	20870
623.469	21420
623.533	22059
623.597	21167
623.662	20642
623.726	21353
623.790	21007
623.854	20042
623.919	22496
623.983	20644
624.047	20860
624.111	20467
624.176	20425
624.240	21580
624.304	25393
624.368	21796
624.432	21753
624.496	20508
624.560	21693
624.625	25105
624.689	24033
624.753	20101
624.817	20992
624.881	19889
624.945	19292
625.009	21034
625.073	20232
625.137	21041
625.201	24316
625.265	27713
625.329	22133
625.393	20522
625.456	22588
625.520	22052
625.584	23763
625.648	27801
625.712	37794
625.776	78226
625.839	142959
625.903	111434
625.967	30429
626.031	32643
626.095	66563
626.158	55743
626.222	20309
626.286	17387
626.349	17207
626.413	16583
626.477	17347
626.540	18010
626.604	15760
626.668	16338
626.731	15742
626.795	16871
626.858	17487
626.922	17150
626.986	16423
627.049	15158
627.113	16234
627.176	15444
627.240	15574
627.303	15163
627.366	15455
627.430	15503
627.493	15427
627.557	15971
627.620	15932
627.684	15273
627.747	14862
627.810	15149
627.874	15082
627.937	15022
628.000	14997
628.064	15264
628.127	13536
628.190	13748
628.253	13875
628.317	13807
628.380	13918
628.443	12800
628.506	14508
628.569	13656
628.632	13166
628.696	12866
628.759	11789
628.822	12498
628.885	12168
628.948	12311
629.011	13051
629.074	12499
629.137	12147
629.200	12042
629.263	13483
629.326	12723
629.389	12178
629.452	11657
629.515	12396
629.578	12590
629.641	12803
629.704	12902
629.767	13636
629.830	12402
629.892	11441
629.955	12327
630.018	12362
630.081	13373
630.144	16119
630.207	14797
630.269	13298
630.332	13341
630.395	15805
630.458	11934
630.520	11154
630.583	11550
630.646	10456
630.708	10677
630.771	10278
630.834	10725
630.896	10001
630.959	10061
631.021	10294
631.084	10569
631.146	11540
631.209	13686
631.272	12629
631.334	11040
631.397	10922
631.459	9973
631.522	10324
631.584	11256
631.646	10717
631.709	11535
631.771	14270
631.834	15385
631.896	11241
631.958	9760
632.021	9828
632.083	10576
632.145	10832
632.208	10520
632.270	11066
632.332	9836
632.395	9311
632.457	11101
632.519	10097
632.581	9925
632.643	9198
632.706	9651
632.768	8972
632.830	9363
632.892	10092
632.954	10015
633.016	9342
633.078	8930
633.141	9284
633.203	9361
633.265	9708
633.327	8847
633.389	9181
633.451	9248
633.513	12098
633.575	13493
633.637	13162
633.698	12589
633.760	10387
633.822	9666
633.884	9155
633.946	8935
634.008	9525
634.070	9895
634.132	10495
634.193	12694
634.255	10381
634.317	9286
634.379	10843
634.441	10267
634.502	10117
634.564	9550
634.626	8800
634.687	9768
634.749	9336
634.811	9077
634.873	8569
634.934	8763
634.996	8202
635.057	8680
635.119	8332
635.181	8875
635.242	8862
635.304	7607
635.365	8363
635.427	7911
635.488	9220
635.550	9090
635.611	8588
635.673	7774
635.734	8783
635.796	8661
635.857	10093
635.918	9330
635.980	9331
636.041	9858
636.102	9830
636.164	9856
636.225	10459
636.286	9544
636.348	9673
636.409	8366
636.470	9003
636.531	8950
636.593	9718
636.654	11150
636.715	7896
636.776	7702
636.838	7219
636.899	7316
636.960	7529
637.021	7035
637.082	7847
637.143	7826
637.204	7745
637.265	6586
637.326	7632
637.387	6960
637.448	6660
637.509	7100
637.570	7037
637.631	7299
637.692	7079
637.753	6024
637.814	6637
637.875	6874
637.936	7138
637.997	6592
638.058	7990
638.119	7897
638.179	7385
638.240	7011
638.301	6939
638.362	6593
638.423	7129
638.483	7304
638.544	5830
638.605	6684
638.666	5894
638.726	6222
638.787	6930
638.848	6347
638.908	6171
638.969	6354
639.030	6723
639.090	6876
639.151	6298
639.211	6914
639.272	8142
639.332	11570
639.393	15154
639.453	7544
639.514	6165
639.574	6372
639.635	5726
639.695	5679
639.756	6196
639.816	6450
639.877	6715
639.937	10484
639.997	18486
640.058	13671
640.118	6532
640.178	5514
640.239	5553
640.299	5843
640.359	5380
640.420	5906
640.480	5808
640.540	6878
640.600	6862
640.661	6501
640.721	6526
640.781	8173
640.841	8471
640.901	7843
640.961	6360
641.021	6469
641.082	6874
641.142	9545
641.202	11848
641.262	6373
641.322	6082
641.382	5863
641.442	6006
641.502	5845
641.562	6608
641.622	5390
641.682	6006
641.742	6106
641.802	6323
641.861	6639
641.921	6856
641.981	7372
642.041	7388
642.101	7984
642.161	8980
642.221	5944
642.280	5831
642.340	5317
642.400	5189
642.460	6172
642.519	5595
642.579	5054
642.639	6575
642.698	4166
642.758	6183
642.818	4978
642.877	5621
642.937	5695
642.997	6401
643.056	7981
643.116	9717
643.175	6354
643.235	5626
643.294	5620
643.354	5475
643.414	6633
643.473	6982
643.532	7303
643.592	9799
643.651	12372
643.711	19811
643.770	35990
643.830	69296
643.889	199940
643.948	225273
644.008	28506
644.067	10581
644.126	7736
644.186	7187
644.245	6913
644.304	4671
644.363	5479
644.423	5102
644.482	5332
644.541	4927
644.600	4948
644.659	6167
644.719	5618
644.778	7622
644.837	9757
644.896	16376
644.955	32461
645.014	44538
645.073	12312
645.132	8102
645.191	6492
645.250	4995
645.309	5767
645.368	5791
645.427	5818
645.486	6937
645.545	10419
645.604	9829
645.663	5179
645.722	4983
645.781	5388
645.840	5770
645.898	6647
645.957	8463
646.016	10946
646.075	17306
646.134	30531
646.192	58894
646.251	174078
646.310	118019
646.369	14347
646.427	7611
646.486	6413
646.545	5291
646.603	5240
646.662	4539
646.721	5002
646.779	5426
646.838	4299
646.896	5401
646.955	6507
647.014	7054
647.072	10524
647.131	17195
647.189	31451
647.248	8487
647.306	5289
647.365	4267
647.423	3299
647.481	4650
647.540	3171
647.598	4116
647.657	3734
647.715	3671
647.773	3253
647.832	4862
647.890	4026
647.948	5236
648.007	4200
648.065	4704
648.123	3705
648.181	5091
648.240	5348
648.298	6155
648.356	4110
648.414	3614
648.472	4182
648.531	4531
648.589	4555
648.647	3878
648.705	4603
648.763	4089
648.821	3699
648.879	4559
648.937	4015
648.995	4724
649.053	5464
649.111	6448
649.169	8846
649.227	13523
649.285	22391
649.343	51408
649.401	101238
649.459	30137
649.516	23731
649.574	12892
649.632	15466
649.690	32696
649.748	22916
649.806	10645
649.863	16564
649.921	19690
649.979	24985
650.037	10992
650.094	3360
650.152	5028
650.210	3821
650.268	5263
650.325	3240
650.383	4017
650.440	3993
650.498	4581
650.556	3066
650.613	3818
650.671	3658
650.728	3456
650.786	4178
650.843	4560
650.901	3440
650.958	3049
651.016	3661
651.073	2561
651.131	3619
651.188	3350
651.246	3455
651.303	3170
651.360	3513
651.418	2099
651.475	3918
651.532	2877
651.590	3123
651.647	2766
651.704	3169
651.762	3087
651.819	3500
651.876	2901
651.933	3774
651.990	2836
652.048	3537
652.105	3600
652.162	4205
652.219	2413
652.276	3212
652.333	2771
652.390	2463
652.448	3187
652.505	3177
652.562	3965
652.619	3836
652.676	4866
652.733	8287
652.790	5314
652.847	2287
652.904	2588
652.961	2667
653.017	2686
653.074	3629
653.131	2914
653.188	1728
653.245	3416
653.302	3019
653.359	2108
653.415	2726
653.472	3308
653.529	2657
653.586	3620
653.642	2535
653.699	2919
653.756	2139
653.813	2218
653.869	2682
653.926	2191
653.983	2081
654.039	2968
654.096	2240
654.152	2663
654.209	2556
654.266	2869
654.322	3116
654.379	3811
654.435	3797
654.492	3955
654.548	4320
654.605	8242
654.661	9817
654.717	3267
654.774	3612
654.830	3538
654.887	3490
654.943	3084
655.000	3526
655.056	3645
655.112	2988
655.168	3626
655.225	3658
655.281	4172
655.337	4700
655.394	7608
655.450	10527
655.506	6697
655.562	7044
655.618	12961
655.675	5341
655.731	3493
655.787	2350
655.843	3453
655.899	2793
655.955	3759
656.011	3025
656.067	2475
656.123	3274
656.179	3278
656.235	3581
656.291	3001
656.347	3939
656.403	4378
656.459	4022
656.515	3784
656.571	4531
656.627	4596
656.683	3082
656.739	3931
656.795	3277
656.850	3140
656.906	3125
656.962	4371
657.018	2872
657.074	2584
657.129	2943
657.185	3849
657.241	3389
657.297	4074
657.352	4156
657.408	2831
657.464	3669
657.519	3227
657.575	2686
657.630	3145
657.686	2652
657.742	2297
657.797	2480
657.853	2588
657.908	4117
657.964	2624
658.019	2770
658.075	3436
658.130	3651
658.186	2716
658.241	2601
658.297	2305
658.352	2603
658.407	3381
658.463	2534
658.518	3649
658.573	2998
658.629	2328
658.684	2658
658.739	2605
658.795	1532
658.850	2568
658.905	2342
658.960	3257
659.016	2076
659.071	2566
659.126	2459
659.181	3024
659.236	4429
659.291	7021
659.346	4964
659.401	4150
659.457	4044
659.512	4824
659.567	5722
659.622	2806
659.677	3086
659.732	2400
659.787	2858
659.842	2784
659.897	4434
659.952	5091
660.007	2625
660.061	2586
660.116	2958
660.171	2133
660.226	1915
660.281	2720
660.336	2185
660.391	2766
660.445	2668
660.500	2588
660.555	2215
660.610	2023
660.664	2672
660.719	2566
660.774	2803
660.828	2970
660.883	2279
660.938	2768
660.992	1487
661.047	2886
661.101	2823
661.156	1951
661.211	2198
661.265	2222
661.320	2170
661.374	2764
661.429	1980
661.483	2374
661.538	2283
661.592	2003
661.647	2759
661.701	2753
661.755	2180
661.810	2799
661.864	2607
661.919	3419
661.973	2387
662.027	2096
662.081	1690
662.136	2037
662.190	2794
662.244	3031
662.299	2838
662.353	2654
662.407	1901
662.461	2645
662.515	2914
662.569	2422
662.624	3361
662.678	1962
662.732	1892
662.786	2983
662.840	2600
662.894	2960
662.948	2174
663.002	1774
663.056	2433
663.110	1819
663.164	3121
663.218	2729
663.272	1810
663.326	3024
663.380	2823
663.434	2677
663.488	2556
663.542	3328
663.595	2595
663.649	2255
663.703	3155
663.757	2409
663.811	1881
663.864	2706
663.918	2593
663.972	2346
664.026	2045
664.079	1300
664.133	2468
664.187	2924
664.240	1754
664.294	2107
664.348	1912
664.401	2552
664.455	2426
664.508	2417
664.562	2125
664.615	2617
664.669	1611
664.722	1401
664.776	1817
664.829	1721
664.883	3002
664.936	2362
664.990	2259
665.043	2731
665.097	2481
665.150	3721
665.203	2302
665.257	2577
665.310	2931
665.363	2191
665.417	2629
665.470	2799
665.523	2465
665.576	3280
665.630	2964
665.683	2575
665.736	2768
665.789	3225
665.842	2507
665.895	2864
665.949	2473
666.002	2208
666.055	2870
666.108	2965
666.161	2831
666.214	3243
666.267	2202
666.320	3020
666.373	3120
666.426	3066
666.479	2407
666.532	3535
666.585	2779
666.638	5156
666.691	3867
666.744	4007
666.796	3462
666.849	4252
666.902	3853
666.955	3213
667.008	3017
667.060	2248
667.113	2019
667.166	2735
667.219	2607
667.271	2552
667.324	2632
667.377	2107
667.430	2554
667.482	2193
667.535	4408
667.587	2978
667.640	4264
667.693	3543
667.745	4944
667.798	7337
667.850	5297
667.903	4080
667.955	3311
668.008	2497
668.060	3249
668.113	4035
668.165	3470
668.218	2965
668.270	3235
668.322	2696
668.375	2592
668.427	3825
668.479	2702
668.532	2770
668.584	3073
668.636	3329
668.689	2382
668.741	2920
668.793	3384
668.845	3219
668.898	2963
668.950	3043
669.002	2563
669.054	2438
669.106	2875
669.158	3338
669.211	3230
669.263	3130
669.315	3422
669.367	4598
669.419	4057
669.471	4488
669.523	4544
669.575	5586
669.627	6257
669.679	5074
669.731	3485
669.783	3703
669.835	4215
669.886	4863
669.938	4218
669.990	4383
670.042	3178
670.094	3543
670.146	3931
670.197	4739
670.249	5451
670.301	6363
670.353	7417
670.404	10889
670.456	14815
670.508	22858
670.560	35754
670.611	59284
670.663	97257
670.715	175653
670.766	409242
670.818	480578
670.869	124892
670.921	26756
670.972	15218
671.024	10466
671.075	8348
671.127	6474
671.178	5416
671.230	5745
671.281	4733
671.333	4621
671.384	4651
671.436	4910
671.487	4809
671.538	5246
671.590	5163
671.641	5587
671.692	7082
671.744	10179
671.795	16328
671.846	10639
671.897	5711
671.949	4771
672.000	3914
672.051	3492
672.102	4299
672.153	2822
672.204	3413
672.256	3890
672.307	3809
672.358	3641
672.409	3230
672.460	3211
672.511	3105
672.562	2401
672.613	3599
672.664	3117
672.715	2948
672.766	2344
672.817	2169
672.868	2762
672.919	2534
672.970	2263
673.021	2823
673.071	2107
673.122	2786
673.173	2911
673.224	2777
673.275	2362
673.326	2376
673.376	2073
673.427	1698
673.478	2416
673.528	2535
673.579	2442
673.630	2593
673.680	3049
673.731	2331
673.782	1910
673.832	2842
673.883	2555
673.934	2895
673.984	2838
674.035	2767
674.085	3050
674.136	2856
674.186	3627
674.237	3276
674.287	5474
674.338	5867
674.388	2690
674.438	2500
674.489	2694
674.539	2479
674.589	2894
674.640	2883
674.690	3110
674.740	2496
674.791	2298
674.841	3014
674.891	3153
674.942	2780
674.992	2846
675.042	2190
675.092	2422
675.142	2355
675.193	2227
675.243	2055
675.293	1916
675.343	2173
675.393	2382
675.443	2687
675.493	1780
675.543	2177
675.593	2223
675.643	2574
675.693	2168
675.743	1860
675.793	2343
675.843	1213
675.893	2631
675.943	2023
675.993	2541
676.043	1765
676.093	3242
676.142	1872
676.192	2400
676.242	1470
676.292	2507
676.341	1248
676.391	2757
676.441	1583
676.491	1895
676.540	1620
676.590	1945
676.640	1766
676.689	2410
676.739	2257
676.789	1231
676.838	1426
676.888	1917
676.937	2018
676.987	2041
677.037	1711
677.086	1472
677.136	1507
677.185	2105
677.235	1622
677.284	1549
677.333	1061
677.383	1537
677.432	877
677.482	1959
677.531	2319
677.580	1373
677.630	1426
677.679	1500
677.728	1232
677.778	1588
677.827	1661
677.876	1359
677.925	1209
677.975	2024
678.024	1912
678.073	1389
678.122	1299
678.171	1162
678.220	1859
678.269	1852
678.319	1827
678.368	1862
678.417	1549
678.466	2225
678.515	2071
678.564	2150
678.613	2023
678.662	1356
678.711	1378
678.760	2409
678.809	1914
678.857	2064
678.906	1996
678.955	1487
679.004	2286
679.053	2257
679.102	1870
679.151	1058
679.199	2428
679.248	1718
679.297	1721
679.346	2027
679.394	2116
679.443	2427
679.492	1780
679.540	1620
679.589	2106
679.638	1747
679.686	1613
679.735	1563
679.784	1687
679.832	1546
679.881	1187
679.929	934
679.978	728
680.026	1461
680.075	1139
680.123	1023
680.172	654
680.220	1230
680.268	1700
680.317	1378
680.365	626
680.414	833
680.462	1189
680.510	1516
680.559	1236
680.607	894
680.655	918
680.703	1375
680.752	1598
680.800	841
680.848	1431
680.896	1473
680.945	1147
680.993	1699
681.041	1189
681.089	1490
681.137	1096
681.185	765
681.233	1160
681.258	1095
681.281	998
681.329	826
681.377	701
681.380	773
681.425	1328
681.473	1904
681.502	1946
681.521	1909
681.569	3168
681.617	1561
681.624	1584
681.665	1438
681.713	2187
681.745	1887
681.761	1679
681.809	2319
681.857	2546
681.867	2495
681.904	2173
681.952	2094
681.989	2112
682.000	2075
682.048	2633
682.096	2596
682.111	2662
682.143	2651
682.191	2723
682.233	2441
682.239	2365
682.286	3088
682.334	3059
682.354	3203
682.382	3280
682.430	2772
682.476	3293
682.477	3272
682.525	2684
682.572	3178
682.598	3265
682.620	3277
682.667	3313
682.715	3155
682.720	3210
682.763	3398
682.810	3511
682.841	4034
682.857	4261
682.905	3906
682.952	3311
682.963	3553
683.000	4222
683.047	3993
683.085	4478
683.095	4576
683.142	3891
683.190	4335
683.206	4167
683.237	3790
683.284	4045
683.328	4131
683.332	4107
683.379	4867
683.426	4302
683.449	4287
683.473	4242
683.521	4522
683.568	4700
683.571	4716
683.615	4542
683.662	4832
683.693	4771
683.709	4679
683.757	5162
683.804	4481
683.814	4743
683.851	5583
683.898	5006
683.936	5315
683.945	5367
683.992	5213
684.039	5026
684.057	5318
684.086	5735
684.133	5887
684.179	5654
684.180	5621
684.227	5160
684.274	6297
684.300	6154
684.321	5983
684.368	5975
684.415	5885
684.422	5895
684.462	5945
684.509	5914
684.543	6549
684.556	6706
684.603	5857
684.649	6633
684.665	6335
684.696	5699
684.743	6546
684.786	6219
684.790	6186
684.837	6624
684.883	6644
684.908	6807
684.930	6956
684.977	7135
685.023	7302
685.029	7376
685.070	7687
685.117	7885
685.150	8182
685.164	8255
685.210	8178
685.257	8110
685.272	8113
685.303	8125
685.350	8290
685.393	8236
685.396	8205
685.443	8729
685.490	8560
685.514	8530
685.536	8516
685.583	8321
685.629	8195
685.636	8214
685.675	8242
685.722	8572
685.757	8554
685.768	8544
685.815	8691
685.861	9281
685.878	9355
685.908	9366
685.954	9301
686.000	9342
686.000	9338
686.047	9539
686.093	10325
686.121	10758
686.139	11063
686.185	10477
686.232	10679
686.242	10762
686.278	10504
686.324	10369
686.363	9557
686.370	9451
686.416	9352
686.463	9512
686.484	9554
686.509	9664
686.555	10076
686.601	9477
686.606	9544
686.647	9905
686.693	9685
686.727	9989
686.739	10168
686.785	9944
686.831	9713
686.848	9818
686.877	9779
686.923	9535
686.969	9991
686.969	9993
687.015	9725
687.061	9707
687.090	9754
687.107	9788
687.153	10062
687.199	10315
687.211	10288
687.245	10043
687.291	9938
687.332	10138
687.336	10187
687.382	10511
687.428	10872
687.453	11128
687.474	11239
687.520	10474
687.565	10167
687.574	10291
687.611	10720
687.657	10532
687.695	10469
687.702	10509
687.748	10645
687.794	11159
687.816	11411
687.839	11653
687.885	11041
687.931	11673
687.937	11619
687.976	10922
688.022	10967
688.058	10452
688.067	10440
688.113	10973
688.158	11328
688.179	11291
688.204	11146
688.249	11264
688.295	11259
688.300	11294
688.340	11666
688.386	11822
688.421	12223
688.431	12390
688.477	11978
688.522	12417
688.542	12701
688.567	12832
688.613	12419
688.658	11946
688.663	11932
688.703	11983
688.749	11688
688.784	11583
688.794	11640
688.839	12041
688.884	12892
688.905	12969
688.930	12735
688.975	12467
689.020	11718
689.026	11651
689.065	11865
689.110	12429
689.146	12596
689.155	12587
689.201	12693
689.246	12825
689.267	12696
689.291	12545
689.336	12255
689.381	12121
689.388	12100
689.426	12197
689.471	12155
689.509	12298
689.516	12357
689.561	12788
689.606	12841
689.630	12787
689.651	12683
689.696	12490
689.741	12708
689.750	12743
689.785	13057
689.830	12564
689.871	12336
689.875	12301
689.920	12525
689.965	12387
689.992	12351
690.010	12530
690.054	12711
690.099	12809
690.112	12834
690.144	12779
690.189	12996
690.233	12812
690.233	12830
690.278	12574
690.323	13034
690.354	13241
690.367	13391
690.412	13245
690.457	13180
690.474	13305
690.501	13724
690.546	14282
690.590	14860
690.595	14895
690.635	15011
690.680	15125
690.716	14961
690.724	15134
690.769	16574
690.813	17803
690.836	18263
690.857	19024
690.902	20493
690.946	22767
690.957	23028
690.991	27713
691.035	35092
691.077	42368
691.080	43169
691.124	57519
691.168	69240
691.198	77131
691.213	73985
691.257	65133
691.301	55732
691.318	52199
691.346	46582
691.390	37328
691.434	27960
691.439	26856
691.478	24302
691.522	21859
691.559	19450
691.567	19374
691.611	18641
691.655	18204
691.680	17728
691.699	17489
691.743	17022
691.787	16679
691.800	16520
691.831	16464
691.875	16252
691.919	16190
691.921	16158
691.964	16461
692.008	17034
692.041	16898
692.052	16866
692.096	16943
692.139	16959
692.162	17062
692.183	17044
692.227	16530
692.271	16310
692.282	16132
692.315	16038
692.359	16520
692.402	16563
692.403	16594
692.447	16662
692.490	16511
692.523	16278
692.534	16283
692.578	16796
692.622	16339
692.643	16359
692.666	16445
692.709	16468
692.753	16535
692.763	16534
692.797	16626
692.840	16640
692.884	16703
692.884	16738
692.928	16701
692.971	16801
693.004	16799
693.015	16921
693.059	17533
693.102	17487
693.124	17733
693.146	17944
693.189	18164
693.233	18428
693.245	18452
693.276	18995
693.320	19705
693.363	20013
693.365	19995
693.407	20911
693.450	21847
693.485	22482
693.493	22870
693.537	24625
693.580	26635
693.605	27628
693.624	29784
693.667	34722
693.710	39927
693.725	41667
693.753	51583
693.797	67010
693.840	83625
693.845	85500
693.883	114157
693.926	144648
693.966	171821
693.970	169847
694.013	146404
694.056	122610
694.086	106274
694.099	99844
694.142	78545
694.185	57410
694.206	47118
694.229	43949
694.272	38087
694.315	32117
694.326	30474
694.358	28895
694.401	26776
694.444	24595
694.446	24430
694.487	23392
694.530	22124
694.566	21111
694.573	21092
694.616	20592
694.659	20097
694.686	19698
694.702	19402
694.745	18424
694.787	17756
694.806	17346
694.830	17360
694.873	17183
694.916	17340
694.926	17243
694.959	17277
695.002	17452
695.044	17605
695.046	17572
695.087	17680
695.130	17414
695.166	17546
695.172	17662
695.215	17808
695.258	18196
695.286	18380
695.301	18349
695.343	17937
695.386	17750
695.406	17547
695.428	17601
695.471	17602
695.514	17771
695.526	17739
695.556	17779
695.599	17765
695.641	17715
695.646	17682
695.684	17722
695.726	17577
695.766	17498
695.769	17572
695.811	17926
695.854	18351
695.886	18524
695.896	18463
695.938	18175
695.981	17776
696.005	17438
696.023	17393
696.065	17409
696.108	17413
696.125	17319
696.150	17481
696.192	17801
696.235	17974
696.245	17954
696.277	17966
696.319	18259
696.361	18335
696.365	18288
696.404	18205
696.446	18029
696.485	18089
696.488	18165
696.530	18316
696.572	18669
696.604	18711
696.614	18756
696.656	18843
696.698	18897
696.724	18876
696.740	18790
696.783	18440
696.825	18270
696.844	18041
696.867	17879
696.909	17635
696.951	17196
696.964	17066
696.992	17172
697.034	17172
697.076	17154
697.083	17127
697.118	17094
697.160	16927
697.202	16743
697.203	16692
697.244	17133
697.286	17558
697.323	17890
697.327	17894
697.369	17541
697.411	17171
697.442	16772
697.453	16901
697.494	17341
697.536	17730
697.562	17947
697.578	17967
697.620	17887
697.661	17776
697.682	17694
697.703	17716
697.744	17615
697.786	17607
697.801	17516
697.828	17700
697.869	17986
697.911	18184
697.921	18203
697.952	18253
697.994	18195
698.035	18166
698.040	18112
698.077	18027
698.118	17892
698.160	17761
698.160	17711
698.201	17582
698.243	17451
698.279	17252
698.284	17278
698.325	17062
698.367	16907
698.399	16698
698.408	16757
698.449	16839
698.491	16892
698.518	16872
698.532	16925
698.573	16995
698.614	17025
698.638	16985
698.656	17188
698.697	17580
698.738	17960
698.757	18090
698.779	18175
698.820	18238
698.862	18306
698.877	18279
698.903	18719
698.944	19344
698.985	19966
698.996	20085
699.026	19720
699.067	19132
699.116	18380
699.235	18616
699.354	17809
699.474	17514
699.593	19117
699.713	20046
699.832	18051
699.951	18065
700.070	18622
700.190	17399
700.309	17746
700.428	17828
700.547	18211
700.667	17325
700.786	17119
700.905	17873
701.024	16898
701.143	17113
701.262	16915
701.381	15809
701.500	15454
701.619	16896
701.738	16808
701.857	16324
701.976	15834
702.095	15586
702.214	16682
702.333	16817
702.452	16006
702.571	16100
702.690	16303
702.809	15928
702.928	15142
703.047	14334
703.165	14903
703.284	14935
703.403	14296
703.522	15674
703.640	17192
703.759	15962
703.878	18759
703.997	19137
704.115	15802
704.234	15067
704.353	15098
704.471	14350
704.590	13873
704.708	14802
704.827	13833
704.946	13475
705.064	14795
705.183	15648
705.301	15527
705.420	19906
705.538	25953
705.656	21725
705.775	19708
705.893	22851
706.012	42825
706.130	33541
706.249	20670
706.367	19786
706.485	20078
706.604	20343
706.722	19805
706.840	20156
706.958	22792
707.077	22532
707.195	19895
707.313	18630
707.431	17428
707.549	18160
707.668	17972
707.786	18091
707.904	18303
708.022	17011
708.140	17326
708.258	16970
708.376	17097
708.494	17906
708.612	17783
708.730	20537
708.848	27662
708.966	23639
709.084	22290
709.202	20967
709.320	21484
709.438	21570
709.556	22308
709.674	22033
709.791	22028
709.909	21698
710.027	21019
710.145	21543
710.263	21205
710.380	21109
710.498	20568
710.616	20677
710.733	20450
710.851	21391
710.969	20155
711.086	21358
711.204	20238
711.322	19940
711.439	19895
711.557	20548
711.674	20030
711.792	19043
711.909	19656
712.027	21042
712.144	20728
712.262	19269
712.379	18247
712.497	23796
712.614	31107
712.732	27259
712.849	23682
712.966	23928
713.084	24062
713.201	26600
713.318	24580
713.436	24041
713.553	23533
713.670	24482
713.787	24628
713.905	25323
714.022	25012
714.139	23234
714.256	23155
714.373	24278
714.490	25987
714.608	30522
714.725	60198
714.842	180387
714.959	79840
715.076	23942
715.193	21191
715.310	21328
715.427	20035
715.544	21141
715.661	20054
715.778	20204
715.895	21667
716.011	22525
716.128	20668
716.245	20250
716.362	20106
716.479	21488
716.596	20635
716.713	19712
716.829	19043
716.946	20022
717.063	19610
717.180	19621
717.296	18693
717.413	18230
717.530	18517
717.646	18096
717.763	17847
717.880	18072
717.996	18330
718.113	17712
718.229	17123
718.346	17421
718.462	17551
718.579	17843
718.695	19287
718.812	23279
718.928	20766
719.045	21302
719.161	15828
719.277	16196
719.394	15862
719.510	16251
719.626	17079
719.743	17484
719.859	19436
719.975	19472
720.092	24691
720.208	59717
720.324	62516
720.440	18837
720.557	17273
720.673	19891
720.789	22798
720.905	35457
721.021	51594
721.137	18126
721.253	16195
721.369	16136
721.486	16750
721.602	19473
721.718	20388
721.834	15102
721.950	14257
722.066	15445
722.181	14672
722.297	13928
722.413	14950
722.529	13657
722.645	14552
722.761	13717
722.877	14141
722.993	13394
723.108	13977
723.224	14187
723.340	14098
723.456	13702
723.571	12752
723.687	13768
723.803	14433
723.918	13048
724.034	13455
724.150	14110
724.265	13233
724.381	16104
724.497	30053
724.612	21537
724.728	12683
724.843	12075
724.959	13348
725.074	15335
725.190	27725
725.305	19435
725.421	13863
725.536	11864
725.651	10989
725.767	12260
725.882	11611
725.997	11801
726.113	11588
726.228	10608
726.343	10776
726.459	10846
726.574	10882
726.689	11485
726.804	10726
726.920	11479
727.035	11708
727.150	11934
727.265	11310
727.380	11500
727.495	11052
727.610	10252
727.725	11049
727.841	12191
727.956	13463
728.071	23131
728.186	14273
728.301	10427
728.416	10580
728.531	10792
728.645	9607
728.760	9453
728.875	11312
728.990	10048
729.105	10311
729.220	10415
729.335	10427
729.449	9947
729.564	9488
729.679	9520
729.794	9468
729.908	9556
730.023	10359
730.138	9646
730.253	8782
730.367	9017
730.482	8876
730.596	9342
730.711	9743
730.826	10058
730.940	9546
731.055	10105
731.169	9119
731.284	8807
731.398	9257
731.513	10199
731.627	10217
731.742	9875
731.856	11146
731.970	9962
732.085	9460
732.199	9699
732.313	9902
732.428	13106
732.542	21358
732.656	39184
732.771	16421
732.885	9524
732.999	9147
733.113	9246
733.227	9297
733.342	8422
733.456	8611
733.570	8620
733.684	8240
733.798	8817
733.912	8643
734.026	8384
734.140	8121
734.254	8120
734.368	10214
734.482	17263
734.596	11372
734.710	8197
734.824	7637
734.938	7496
735.052	8220
735.166	8282
735.280	9726
735.393	7358
735.507	7964
735.621	8539
735.735	12344
735.849	15505
735.962	8658
736.076	8159
736.190	8549
736.303	9142
736.417	12440
736.531	10594
736.644	8083
736.758	8099
736.872	7233
736.985	7512
737.099	7497
737.212	6959
737.326	7349
737.439	7322
737.553	6522
737.666	7101
737.780	7123
737.893	6822
738.007	7507
738.120	7261
738.233	7233
738.347	6421
738.460	7092
738.573	7255
738.687	6789
738.800	7526
738.913	7172
739.026	7615
739.140	7186
739.253	8105
739.366	7302
739.479	6541
739.592	6261
739.705	6802
739.818	7540
739.932	7165
740.045	6262
740.158	6304
740.271	6708
740.384	7800
740.497	6803
740.610	7442
740.723	6930
740.836	7238
740.949	6514
741.062	7432
741.174	7847
741.287	7278
741.400	6782
741.513	6422
741.626	7393
741.739	7165
741.851	6462
741.964	6679
742.077	6367
742.189	7252
742.302	7760
742.415	7994
742.527	6777
742.640	6140
742.753	6316
742.865	6084
742.978	6134
743.090	6778
743.203	5851
743.316	6917
743.428	5489
743.541	5642
743.653	5882
743.766	6504
743.878	6503
743.990	6269
744.103	8428
744.215	7033
744.327	6363
744.440	7372
744.552	7715
744.664	7962
744.777	6376
744.889	6613
745.001	6414
745.113	6362
745.226	6115
745.338	6555
745.450	6341
745.562	5894
745.674	5996
745.786	5841
745.898	5752
746.010	5687
746.122	6458
746.234	5657
746.347	6106
746.459	7061
746.570	6039
746.682	6072
746.794	6557
746.906	7284
747.018	5411
747.130	6147
747.242	5875
747.354	5666
747.466	6283
747.577	6360
747.689	5739
747.801	6773
747.913	4990
748.024	5887
748.136	5302
748.248	5702
748.359	5361
748.471	5585
748.583	6292
748.694	5989
748.806	6842
748.918	7931
749.029	7547
749.141	5718
749.252	5987
749.364	5709
749.475	6484
749.587	9240
749.698	7286
749.809	5397
749.921	5419
750.032	5199
750.144	5022
750.255	5984
750.366	5173
750.478	6054
750.589	6066
750.700	6056
750.811	5889
750.923	6407
751.034	6347
751.145	10572
751.256	7718
751.367	5845
751.479	5881
751.590	6062
751.701	5897
751.812	5310
751.923	6157
752.034	5769
752.145	6336
752.256	6015
752.367	6054
752.478	5327
752.589	5248
752.700	6081
752.811	5951
752.922	5676
753.032	4997
753.143	5743
753.254	6172
753.365	6107
753.476	4936
753.586	6491
753.697	5518
753.808	5812
753.919	5336
754.029	5898
754.140	5933
754.251	5459
754.361	5198
754.472	5324
754.582	6369
754.693	5810
754.804	5908
754.914	5969
755.025	5662
755.135	4597
755.246	6213
755.356	5488
755.466	6029
755.577	5500
755.687	6495
755.798	6094
755.908	5738
756.018	6351
756.129	5858
756.239	6056
756.349	6654
756.460	6650
756.570	5644
756.680	6813
756.790	5777
756.900	7501
757.011	5869
757.121	6352
757.231	6707
757.341	5742
757.451	6807
757.561	6611
757.671	6263
757.781	5738
757.891	6413
758.001	6823
758.111	6530
758.221	6991
758.331	7289
758.441	7252
758.551	6983
758.661	7906
758.771	8478
758.880	7338
758.990	7467
759.100	8161
759.210	7248
759.320	7681
759.429	7445
759.539	8509
759.649	7685
759.758	8213
759.868	8302
759.978	7862
760.087	8410
760.197	9015
760.307	9387
760.416	8588
760.526	8809
760.635	9758
760.745	9199
760.854	9960
760.964	9893
761.073	9397
761.182	10241
761.292	9749
761.401	10084
761.511	10847
761.620	10699
761.729	10430
761.839	11371
761.948	11891
762.057	12269
762.166	12182
762.276	11094
762.385	13175
762.494	12436
762.603	13249
762.712	13436
762.822	14842
762.931	14405
763.040	15747
763.149	15040
763.258	16257
763.367	16382
763.476	18040
763.585	17150
763.694	19176
763.803	20738
763.912	21122
764.021	21861
764.130	23314
764.238	24639
764.347	26498
764.456	28102
764.565	29829
764.674	32926
764.783	35856
764.891	38623
765.000	43611
765.109	47882
765.217	54094
765.326	62917
765.435	73989
765.543	87707
765.652	104280
765.761	132036
765.869	170022
765.978	229314
766.086	320490
766.195	469613
766.303	702548
766.412	923848
766.520	749030
766.629	802424
766.737	758969
766.846	531811
766.954	364040
767.062	260823
767.171	195158
767.279	151423
767.387	117545
767.496	95537
767.604	80091
767.712	69097
767.820	61135
767.928	54750
768.037	50901
768.145	46902
768.253	46069
768.361	43279
768.469	41484
768.577	42226
768.685	43320
768.793	44703
768.901	49085
769.009	54525
769.117	63379
769.225	76436
769.333	97902
769.441	135991
769.549	204843
769.657	335694
769.765	586346
769.873	820708
769.981	698704
770.088	663639
770.196	415874
770.304	255208
770.412	173798
770.519	126506
770.627	95845
770.735	75957
770.842	64006
770.950	53436
771.058	48371
771.165	42338
771.273	37893
771.380	33694
771.488	30708
771.595	27190
771.703	25895
771.810	23851
771.918	22867
772.025	21127
772.133	20025
772.240	18952
772.348	18532
772.455	17484
772.562	16546
772.670	16401
772.777	15981
772.884	15129
772.991	13891
773.099	13266
773.206	12780
773.313	13184
773.420	13110
773.528	12465
773.635	11659
773.742	11516
773.849	10184
773.956	10588
774.063	10973
774.170	10036
774.277	10059
774.384	10353
774.491	10340
774.598	9940
774.705	9833
774.812	9524
774.919	9978
775.026	9152
775.133	9235
775.239	8858
775.346	9024
775.453	7754
775.560	8321
775.667	7864
775.773	8954
775.880	8662
775.987	7291
776.093	8195
776.200	7265
776.307	7432
776.413	8097
776.520	7741
776.627	8007
776.733	7431
776.840	7544
776.946	6864
777.053	7598
777.159	8275
777.266	8840
777.372	8250
777.478	9023
777.585	7783
777.691	6862
777.798	6138
777.904	6893
778.010	6619
778.117	7536
778.223	6786
778.329	6535
778.435	5798
778.542	6181
778.648	6344
778.754	5918
778.860	5359
778.966	6139
779.072	5423
779.178	6011
779.284	5944
779.391	5953
779.497	5740
779.603	7732
779.708	9067
779.815	14340
779.920	34200
780.026	128304
780.132	148818
780.238	19696
780.344	8582
780.450	7658
780.556	6600
780.661	5852
780.767	5419
780.873	5701
780.979	5014
781.085	5586
781.190	4847
781.296	5083
781.402	4232
781.507	4950
781.613	4380
781.719	4620
781.824	5056
781.930	4594
782.035	4287
782.141	4624
782.246	4283
782.352	5253
782.457	4181
782.563	4376
782.668	3211
782.773	4388
782.879	4791
782.984	4818
783.090	4974
783.195	5209
783.300	5219
783.405	4387
783.511	4259
783.616	4429
783.721	4325
783.826	4441
783.932	3484
784.037	4774
784.142	4223
784.247	4272
784.352	4160
784.457	4558
784.562	4062
784.667	3808
784.772	4550
784.877	4025
784.982	4399
785.087	3573
785.192	3698
785.297	3337
785.402	3727
785.507	3624
785.611	3556
785.716	3819
785.821	3859
785.926	3670
786.031	4025
786.135	3622
786.240	4008
786.345	3281
786.450	4119
786.554	2720
786.659	3727
786.763	3413
786.868	3499
786.973	3936
787.077	3715
787.182	2995
787.286	3456
787.391	4095
787.495	2878
787.600	3436
787.704	2961
787.809	3570
787.913	3372
788.017	3622
788.122	3390
788.226	3616
788.330	2955
788.435	3191
788.539	3237
788.643	3268
788.747	3512
788.852	3074
788.956	2773
789.060	3066
789.164	3034
789.268	3013
789.372	2949
789.476	2970
789.580	2703
789.684	2764
789.788	2544
789.892	3266
789.996	2677
790.100	3312
790.204	2585
790.308	3495
790.412	2933
790.516	3232
790.620	3566
790.724	3203
790.828	2186
790.931	2797
791.035	3360
791.139	3743
791.242	3110
791.346	3244
791.450	2723
791.554	3660
791.657	2472
791.761	3508
791.864	3747
791.968	3457
792.072	3047
792.175	2113
792.279	2436
792.382	2868
792.486	2720
792.589	2972
792.693	3030
792.796	2607
792.899	3256
793.003	2720
793.106	2347
793.209	3307
793.313	3760
793.416	2515
793.519	2910
793.623	2866
793.726	3981
793.829	3906
793.932	3615
794.035	2259
794.138	3004
794.242	3923
794.345	3148
794.448	5624
794.551	7770
794.654	20183
794.757	66830
794.860	91218
794.963	13169
795.066	4545
795.169	3797
795.272	3190
795.375	3889
795.477	3525
795.580	2541
795.683	1914
795.786	2664
795.889	1502
795.991	3453
796.094	3056
796.197	2224
796.300	3004
796.402	2099
796.505	2316
796.608	1940
796.710	2450
796.813	2594
796.915	2249
797.018	2061
797.120	1616
797.223	1417
797.326	2053
797.428	2346
797.530	2171
797.633	1767
797.735	2488
797.838	2564
797.940	5677
798.042	2884
798.145	1883
798.247	1930
798.349	2328
798.452	2117
798.554	2325
798.656	1284
798.758	2712
798.860	2341
798.962	1971
799.065	1793
799.167	1721
799.269	2354
799.371	1710
799.473	2243
799.575	2136
799.677	2837
799.779	2832
799.881	2393
799.983	4170
800.085	2226
800.187	1988
800.289	2397
800.390	2395
800.492	1418
800.594	2392
800.696	2283
800.798	1423
800.899	1815
801.001	2071
801.103	1819
801.205	1809
801.306	1504
801.408	1570
801.509	1320
801.611	1487
801.713	1409
801.814	1562
801.916	2226
802.017	1771
802.119	1820
802.220	1065
802.322	1173
802.423	2123
802.525	3774
802.626	2787
802.727	1575
802.829	1661
802.930	773
803.031	2973
803.133	1380
803.234	1624
803.335	2239
803.436	804
803.538	1580
803.639	1233
803.740	1116
803.841	1283
803.942	1300
804.043	1642
804.144	2186
804.245	1340
804.346	733
804.447	1055
804.548	1235
804.649	2983
804.750	1390
804.851	1996
804.952	1479
805.053	1397
805.154	821
805.255	2034
805.355	1682
805.456	1669
805.557	1789
805.658	1502
805.758	1725
805.859	1360
805.960	1291
806.061	1249
806.161	990
806.262	1656
806.362	626
806.463	1272
806.564	1198
806.664	2233
806.765	2506
806.865	2102
806.966	1946
807.066	1719
807.166	1499
807.267	1915
807.367	1694
807.468	1507
807.568	1556
807.668	1428
807.769	1500
807.869	1646
807.969	1109
808.069	1117
808.170	878
808.270	774
808.370	1857
808.470	1719
808.570	1262
808.670	2144
808.770	1935
808.870	1291
808.970	1683
809.070	1328
809.170	1254
809.271	1099
809.370	1382
809.470	1193
809.570	1086
809.670	1330
809.770	1890
809.870	988
809.970	1212
810.070	1706
810.169	1306
810.269	723
810.369	1791
810.469	1455
810.568	775
810.668	1255
810.768	1259
810.867	1763
810.967	881
811.066	1335
811.166	1390
811.265	1977
811.365	828
811.464	1016
811.564	833
811.663	1283
811.763	1082
811.862	1186
811.962	1750
812.061	1120
812.160	977
812.260	1642
812.359	1565
812.458	1769
812.557	3228
812.657	6525
812.756	7691
812.855	3360
812.954	1813
813.053	1382
813.153	963
813.252	1622
813.351	1568
813.450	1952
813.549	1702
813.648	1444
813.747	1033
813.846	1917
813.945	1785
814.044	1411
814.143	1406
814.242	1710
814.341	1480
814.439	2338
814.538	1506
814.637	1960
814.736	1519
814.835	2698
814.933	1873
815.032	2026
815.131	2565
815.229	2395
815.328	2958
815.427	2145
815.525	2979
815.624	3537
815.722	2217
815.821	2692
815.919	2826
816.018	2677
816.116	4054
816.215	4170
816.313	3220
816.412	3449
816.510	4622
816.609	4700
816.707	4813
816.805	4672
816.904	5634
817.002	5962
817.100	5702
817.198	7401
817.296	8154
817.395	8928
817.493	11957
817.591	12686
817.689	14457
817.787	21769
817.885	30249
817.983	46695
818.081	81114
818.179	157748
818.277	329191
818.375	552150
818.473	407286
818.571	190363
818.669	97681
818.767	67338
818.865	56513
818.963	58340
819.061	68735
819.158	94743
819.256	151509
819.354	272815
819.452	513023
819.549	649028
819.647	449831
819.745	247758
819.842	136392
819.940	86636
820.038	57356
820.135	43906
820.233	33048
820.330	26571
820.428	22039
820.525	17916
820.623	15297
820.720	13120
820.818	11828
820.915	11262
821.012	9775
821.110	8369
821.207	7594
821.304	7642
821.402	6456
821.499	6808
821.596	6075
821.693	6511
821.791	5767
821.888	4591
821.985	5105
822.082	5125
822.179	5191
822.276	4506
822.373	3475
822.470	3847
822.567	2516
822.664	2694
822.761	2729
822.858	2997
822.955	2589
823.052	2759
823.149	2642
823.246	1905
823.343	2231
823.440	2799
823.536	2182
823.633	2302
823.730	2016
823.827	1795
823.923	1032
824.020	2936
824.117	1683
824.213	1474
824.310	2151
824.407	1889
824.503	1799
824.600	1734
824.696	1349
824.793	2465
824.889	1451
824.986	1153
825.082	1416
825.179	1504
825.275	700
825.371	1598
825.468	2167
825.564	1019
825.660	608
825.757	1097
825.853	1032
825.949	807
826.045	1113
826.142	182
826.238	1067
826.334	986
826.430	620
826.526	1372
826.622	1550
826.718	759
826.814	589
826.910	980
827.006	738
827.102	638
827.198	692
827.294	275
827.390	1656
827.486	1018
827.582	-202
827.678	39
827.774	551
827.869	556
827.965	1346
828.061	1351
828.157	199
828.252	1274
828.348	95
828.444	907
828.539	-173
828.635	929
828.731	1607
828.826	751
828.922	-36
829.017	180
829.113	822
829.208	961
829.304	255
829.399	1143
829.495	517
829.590	942
829.685	1232
829.781	377
829.876	94
829.971	950
830.066	-294
830.162	182
830.257	-426
830.352	898
830.447	1021
830.543	636
830.638	442
830.733	932
830.828	387
830.923	1184
831.018	422
831.113	893
831.208	152
831.303	941
831.398	246
831.493	591
831.588	177
831.683	719
831.778	414
831.873	668
831.967	943
832.062	292
832.157	-386
832.252	950
832.346	-237
832.441	738
832.536	1326
832.631	1546
832.725	3147
832.820	823
832.914	442
833.009	632
833.104	961
833.198	1392
833.293	695
833.387	497
833.482	346
833.576	-373
833.670	1427
833.765	291
833.859	248
833.954	971
834.048	1035
834.142	98
834.237	-231
834.331	543
834.425	232
834.519	376
834.613	125
834.708	-225
834.802	320
834.896	697
834.990	81
835.084	1629
835.178	557
835.272	30
835.366	346
835.460	910
835.554	-123
835.648	358
835.742	273
835.836	805
835.930	-566
836.024	116
836.117	881
836.211	208
836.305	401
836.399	1710
836.493	1747
836.586	255
836.680	281
836.774	459
836.867	753
836.961	-306
837.055	3
837.148	173
837.242	233
837.335	85
837.429	428
837.522	71
837.616	300
837.709	1172
837.803	2476
837.896	962
837.989	199
838.083	691
838.176	1597
838.269	3922
838.363	1968
838.456	-183
838.549	748
838.642	1070
838.735	2396
838.829	3244
838.922	859
839.015	-139
839.108	753
839.201	564
839.294	138
839.387	646
839.480	-690
839.573	378
839.666	1666
839.759	1146
839.852	-206
839.945	164
840.038	144
840.131	339
840.223	-500
840.316	397
840.409	44
840.502	150
840.594	205
840.687	282
840.780	388
840.873	342
840.965	856
841.058	105
841.150	1250
841.243	3045
841.336	1894
841.428	307
841.521	-119
841.613	-122
841.706	591
841.798	60
841.890	-171
841.983	-652
842.075	53
842.167	-923
842.260	107
842.352	723
842.444	702
842.537	1932
842.629	3895
842.721	3376
842.813	161
842.905	523
842.997	319
843.090	353
843.182	425
843.274	1847
843.366	4532
843.458	9897
843.550	16077
843.642	7260
843.734	841
843.826	459
843.918	834
844.009	605
844.101	-16
844.193	132
844.285	108
844.377	184
844.469	230
844.560	271
844.652	765
844.744	582
844.835	88
844.927	-494
845.019	740
845.110	164
845.202	437
845.293	156
845.385	236
845.476	-88
845.568	193
845.659	538
845.751	-473
845.842	262
845.934	191
846.025	432
846.116	118
846.208	112
846.299	184
846.390	74
846.482	-29
846.573	1093
846.664	844
846.755	360
846.846	724
846.937	773
847.029	173
847.120	-80
847.211	-994
847.302	652
847.393	-127
847.484	261
847.575	-232
847.666	238
847.757	-332
847.847	-589
847.938	652
848.029	-391
848.120	-39
848.211	-51
848.302	15
848.392	-136
848.483	-54
848.574	-367
848.664	-51
848.755	331
848.846	366
848.936	117
849.027	-324
849.118	-68
849.208	490
849.299	519
849.389	-52
849.480	331
849.570	1025
849.661	2165
849.751	2840
849.841	3845
849.932	767
850.022	-493
850.112	815
850.203	-447
850.293	-125
850.383	631
850.474	-374
850.564	-294
850.654	140
850.744	357
850.834	2
850.924	-220
851.014	128
851.104	-488
851.194	152
851.284	421
851.374	447
851.464	-523
851.554	609
851.644	-145
851.734	926
851.824	856
851.914	1785
852.004	3637
852.094	5419
852.183	4994
852.273	619
852.363	-900
852.452	-400
852.542	-399
852.632	-456
852.721	327
852.811	-877
852.901	-240
852.990	328
853.080	488
853.169	-305
853.259	-199
853.348	-664
853.438	151
853.527	133
853.617	-408
853.706	670
853.795	1041
853.885	2689
853.974	7883
854.063	13426
854.152	26319
854.242	30047
854.331	6461
854.420	687
854.509	650
854.598	1277
854.687	531
854.777	631
854.866	-270
854.955	508
855.044	-111
855.133	-294
855.222	-45
855.311	-303
855.400	-32
855.488	291
855.577	-368
855.666	-434
855.755	310
855.844	-398
855.933	-51
856.021	290
856.110	124
856.199	-175
856.288	-887
856.376	-349
856.465	-475
856.554	-619
856.642	-608
856.731	-36
856.819	-487
856.908	-126
856.996	-302
857.085	-315
857.173	-29
857.262	-565
857.350	52
857.438	-959
857.527	-333
857.615	-589
857.703	219
857.792	-511
857.880	-295
857.968	-289
858.056	-790
858.145	-715
858.233	341
858.321	-742
858.409	-48
858.497	-677
858.585	269
858.673	-680
858.761	-150
858.849	-593
858.937	-398
859.025	-257
859.113	-227
859.201	-938
859.289	-3
859.377	-1293
859.465	214
859.552	-324
859.640	-662
859.728	-337
859.816	-830
859.903	59
859.991	-957
860.079	-225
860.166	16
860.254	-521
860.342	-269
860.429	-201
860.517	-359
860.604	-251
860.692	9
860.779	-921
860.867	-14
860.954	-354
861.042	-190
861.129	189
861.216	-72
861.304	-459
861.391	-80
861.478	84
861.565	-519
861.653	-8
861.740	-806
861.827	-820
861.914	-84
862.001	-880
862.089	-1057
862.176	-319
862.263	-256
862.350	-448
862.437	-596
862.524	-1135
862.611	-666
862.698	-259
862.785	3
862.871	380
862.958	-63
863.045	-280
863.132	-182
863.219	-478
863.306	-735
863.392	269
863.479	-718
863.566	-595
863.652	-24
863.739	-488
863.826	-92
863.912	129
863.999	-547
864.086	-88
864.172	-1046
864.259	-156
864.345	-221
864.432	38
864.518	-314
864.604	-838
864.691	-470
864.777	-659
864.863	472
864.950	-1150
865.036	-990
865.122	-746
865.209	-349
865.295	-158
865.381	350
865.467	-443
865.553	-173
865.639	173
865.726	1217
865.812	1344
865.898	2569
865.984	5451
866.070	8567
866.156	17616
866.242	12675
866.328	2197
866.414	1048
866.499	-710
866.585	-476
866.671	-68
866.757	-386
866.843	-307
866.928	-165
867.014	-261
867.100	561
867.186	-301
867.271	352
867.357	-265
867.442	679
867.528	926
867.614	1306
867.699	-214
867.785	-44
867.870	-705
867.956	-381
868.041	1058
868.127	-384
868.212	419
868.297	1394
868.383	-314
868.468	515
868.553	887
868.639	1320
868.724	1196
868.809	3791
868.894	2216
868.979	386
869.065	-53
869.150	-339
869.235	-115
869.320	-214
869.405	-633
869.490	-191
869.575	-488
869.660	-188
869.745	-488
869.830	-377
869.915	-1229
870.000	419
870.085	-437
870.169	-142
870.254	-127
870.339	-24
870.424	-730
870.509	-468
870.593	-376
870.678	-254
870.763	-269
870.847	-350
870.932	-247
871.016	71
871.101	-418
871.186	-123
871.270	-655
871.355	-168
871.439	-551
871.523	-131
871.608	-544
871.692	-879
871.777	142
871.861	129
871.945	-1179
872.030	-373
872.114	-499
872.198	-539
872.282	-933
872.367	-219
872.451	-415
872.535	-836
872.619	-340
872.703	-558
872.787	-898
872.871	-558
872.955	-169
873.039	110
873.123	-513
873.207	-408
873.291	-571
873.375	-838
873.459	-9
873.543	-484
873.627	-670
873.711	-661
873.794	-1041
873.878	-671
873.962	-887
874.045	-348
874.129	-833
874.137	-829
874.213	-787
874.245	-654
874.296	-441
874.352	72
874.380	323
874.460	-1263
874.464	-1328
874.547	-584
874.568	-583
874.631	-550
874.676	-570
874.714	-600
874.784	-152
874.798	-60
874.881	114
874.892	-95
874.965	-1576
874.999	-982
875.048	-134
875.107	-403
875.131	-529
875.215	-971
875.215	-970
875.298	-464
875.323	-474
875.381	-493
875.430	-475
875.465	-466
875.538	-150
875.548	-108
875.631	7
875.646	-66
875.714	-430
875.753	-484
875.798	-526
875.861	-407
875.881	-367
875.964	-45
875.968	-54
876.047	-291
876.076	-253
876.130	-116
876.183	-471
876.213	-676
876.291	-188
876.296	-153
876.379	-375
876.398	-295
876.462	-125
876.506	-423
876.545	-653
876.613	-241
876.628	-158
876.711	-126
876.721	-97
876.794	292
876.828	175
876.877	-153
876.935	-470
876.960	-552
877.043	-253
877.043	-253
877.125	53
877.150	-26
877.208	-272
877.258	197
877.291	577
877.365	55
877.374	12
877.456	274
877.472	438
877.539	768
877.579	333
877.622	65
877.687	394
877.704	425
877.787	153
877.794	197
877.869	887
877.901	665
877.952	146
878.008	221
878.034	325
878.115	-378
878.117	-392
878.199	114
878.222	30
878.282	-161
878.329	70
878.364	283
878.437	335
878.447	326
878.529	8
878.544	34
878.611	120
878.651	-80
878.694	-181
878.758	201
878.776	269
878.858	199
878.865	196
878.941	74
878.972	-14
879.023	-84
879.078	-228
879.105	-196
879.185	-16
879.187	-15
879.269	194
879.292	252
879.351	425
879.399	97
879.433	-158
879.506	109
879.516	167
879.598	456
879.613	501
879.680	597
879.720	340
879.762	8
879.827	-203
879.844	-228
879.926	-167
879.933	-128
880.007	355
880.040	391
880.089	370
880.147	164
880.171	127
880.253	749
880.254	745
880.335	324
880.360	483
880.417	1191
880.467	1452
880.499	1633
880.574	3459
880.580	3538
880.662	2673
880.680	2233
880.744	530
880.787	-92
880.825	-219
880.893	-45
880.907	-25
880.989	180
881.000	159
881.070	203
881.106	312
881.152	147
881.213	-70
881.233	56
881.315	933
881.319	921
881.396	48
881.426	3
881.478	115
881.532	-158
881.559	-186
881.639	108
881.641	115
881.722	336
881.745	433
881.803	518
881.852	409
881.885	403
881.958	513
881.966	511
882.047	352
882.064	302
882.129	567
882.171	838
882.210	888
882.277	1031
882.291	1128
882.372	1467
882.383	1422
882.454	187
882.489	-120
882.535	121
882.596	356
882.616	302
882.697	-196
882.702	-182
882.778	871
882.808	978
882.859	508
882.914	192
882.940	312
883.020	793
883.021	795
883.102	178
883.127	21
883.183	-27
883.233	179
883.264	314
883.339	173
883.345	194
883.426	323
883.445	435
883.507	344
883.551	195
883.587	160
883.657	187
883.668	238
883.749	286
883.763	326
883.830	779
883.869	1025
883.910	741
883.975	448
883.991	537
884.072	757
884.081	747
884.152	228
884.187	72
884.233	444
884.292	1023
884.314	866
884.394	401
884.398	351
884.475	626
884.504	811
884.555	932
884.610	1106
884.636	976
884.716	456
884.716	457
884.797	-11
884.821	-29
884.877	386
884.927	650
884.958	572
885.033	625
885.038	649
885.118	678
885.139	684
885.199	496
885.244	421
885.279	590
885.350	859
885.359	863
885.439	847
885.456	871
885.520	980
885.561	952
885.600	722
885.667	417
885.680	455
885.760	309
885.773	351
885.840	657
885.878	665
885.920	743
885.984	1226
886.000	1175
886.080	287
886.089	233
886.160	1105
886.195	1423
886.240	1161
886.300	906
886.320	929
886.400	935
886.406	934
886.480	605
886.511	408
886.560	692
886.616	1080
886.640	1161
886.720	1391
886.722	1391
886.800	707
886.827	456
886.879	804
886.932	1115
886.959	1222
887.038	1429
887.039	1433
887.119	1321
887.143	1299
887.198	1182
887.248	1037
887.278	1056
887.354	999
887.358	1005
887.437	1082
887.459	1128
887.517	1234
887.564	1210
887.596	1192
887.669	1194
887.676	1165
887.755	700
887.774	589
887.835	582
887.880	601
887.914	829
887.985	1248
887.994	1254
888.073	1326
888.090	1319
888.153	1083
888.195	907
888.232	833
888.300	632
888.311	659
888.391	1024
888.405	1046
888.470	1056
888.510	1075
888.549	1042
888.615	1046
888.628	1106
888.708	1426
888.720	1462
888.787	794
888.825	407
888.866	470
888.930	592
888.945	611
889.024	680
889.035	683
889.103	882
889.140	1003
889.182	1253
889.245	1584
889.261	1531
889.340	1301
889.349	1266
889.419	873
889.454	672
889.498	940
889.559	1301
889.577	1312
889.656	1352
889.664	1353
889.735	1262
889.768	1212
889.814	1009
889.873	735
889.978	928
890.083	1606
890.187	1911
890.292	1633
890.397	1685
890.501	1120
890.606	1322
890.710	1339
890.815	1301
890.919	1053
891.024	1100
891.128	1259
891.233	990
891.337	1378
891.442	934
891.546	370
891.650	1634
891.755	969
891.859	1807
891.963	1733
892.068	1531
892.172	1125
892.276	896
892.380	1221
892.484	592
892.589	219
892.693	2135
892.797	789
892.901	1405
893.005	682
893.109	453
893.213	1123
893.317	-637
893.421	1206
893.525	1433
893.629	496
893.733	651
893.837	404
893.941	1710
894.045	1501
894.148	1117
894.252	3399
894.356	4154
894.460	1354
894.564	1385
894.667	278
894.771	1197
894.875	1005
894.978	586
895.082	205
895.186	1406
895.289	785
895.393	1082
895.496	576
895.600	1081
895.703	125
895.807	678
895.910	871
896.014	911
896.117	135
896.221	896
896.324	458
896.427	889
896.531	507
896.634	1055
896.737	-945
896.840	942
896.944	730
897.047	919
897.150	1320
897.253	18
897.356	874
897.460	405
897.563	493
897.666	839
897.769	-92
897.872	1010
897.975	303
898.078	570
898.181	872
898.284	28
898.387	743
898.490	885
898.593	709
898.695	898
898.798	103
898.901	593
899.004	690
899.107	975
899.209	311
899.312	1254
899.415	1050
899.518	738
899.620	1241
899.723	755
899.826	1099
899.928	1127
900.031	629
900.133	1819
900.236	482
900.338	668
900.441	584
900.543	935
900.646	605
900.748	487
900.851	451
900.953	671
901.055	300
901.158	116
901.260	232
901.362	1070
901.465	214
901.567	1188
901.669	581
901.771	-33
901.873	757
901.976	899
902.078	389
902.180	912
902.282	-332
902.384	516
902.486	267
902.588	1041
902.690	589
902.792	769
902.894	-341
902.996	415
903.098	480
903.200	476
903.302	1315
903.404	999
903.505	469
903.607	714
903.709	226
903.811	552
903.913	-169
904.014	687
904.116	143
904.218	1120
904.319	826
904.421	997
904.523	473
904.624	273
904.726	809
904.827	371
904.929	327
905.030	130
905.132	546
905.233	800
905.335	423
905.436	259
905.537	220
905.639	745
905.740	601
905.841	673
905.943	-27
906.044	193
906.145	-93
906.247	453
906.348	-587
906.449	423
906.550	-331
906.651	644
906.752	475
906.854	689
906.955	526
907.056	-486
907.157	228
907.258	1369
907.359	1031
907.460	185
907.561	-39
907.662	297
907.762	906
907.863	990
907.964	640
908.065	521
908.166	-94
908.267	556
908.367	184
908.468	558
908.569	560
908.670	1072
908.770	606
908.871	-195
908.971	894
909.072	1798
909.173	924
909.273	1371
909.374	-713
909.474	613
909.575	643
909.675	817
909.776	284
909.876	2
909.977	411
910.077	153
910.177	587
910.278	1369
910.378	282
910.478	856
910.579	249
910.679	132
910.779	380
910.879	832
910.980	212
911.080	545
911.180	840
911.280	790
911.380	573
911.480	103
911.580	-31
911.680	103
911.780	40
911.880	772
911.980	263
912.080	525
912.180	806
912.280	1473
912.380	151
912.480	576
912.580	491
912.679	487
912.779	838
912.879	190
912.979	-212
913.078	277
913.178	456
913.278	-69
913.377	-216
913.477	590
913.577	604
913.676	87
913.776	699
913.875	406
913.975	321
914.074	937
914.174	192
914.273	451
914.373	-60
914.472	278
914.572	-444
914.671	260
914.770	70
914.870	328
914.969	548
915.068	-25
915.167	1347
915.267	439
915.366	218
915.465	183
915.564	95
915.663	502
915.763	601
915.862	803
915.961	351
916.060	-152
916.159	96
916.258	710
916.357	926
916.456	750
916.555	537
916.654	382
916.752	-121
916.851	224
916.950	184
917.049	36
917.148	724
917.247	439
917.345	-49
917.444	105
917.543	269
917.642	-14
917.740	0
917.839	444
917.937	1022
918.036	830
918.135	55
918.233	137
918.332	-481
918.430	957
918.529	116
918.627	152
918.726	-137
918.824	316
918.923	57
919.021	287
919.119	34
919.218	21
919.316	320
919.414	785
919.512	-257
919.611	701
919.709	406
919.807	651
919.905	857
920.003	87
920.102	276
920.200	662
920.298	583
920.396	999
920.494	177
920.592	554
920.690	223
920.788	-175
920.886	-278
920.984	16
921.082	407
921.180	174
921.277	446
921.375	112
921.473	615
921.571	853
921.669	298
921.766	913
921.864	413
921.962	1056
922.060	514
922.157	825
922.255	1665
922.352	529
922.450	856
922.548	-93
922.645	815
922.743	1043
922.840	862
922.938	1730
923.035	354
923.133	1005
923.230	1134
923.327	316
923.425	1258
923.522	1525
923.619	1161
923.717	1321
923.814	1664
923.911	1248
924.008	1200
924.106	1200
924.203	1217
924.300	1546
924.397	871
924.494	489
924.591	1393
924.688	1012
924.786	924
924.883	1061
924.979	939
925.077	921
925.173	669
925.270	859
925.367	994
925.464	1896
925.561	609
925.658	1511
925.755	1071
925.852	1069
925.948	715
926.045	1079
926.142	169
926.239	1794
926.335	847
926.432	1172
926.529	1773
926.625	730
926.722	1249
926.818	799
926.915	571
927.011	1482
927.108	1403
927.204	1581
927.301	690
927.397	212
927.494	943
927.590	1157
927.687	848
927.783	1507
927.879	541
927.976	1194
928.072	446
928.168	1216
928.264	1028
928.361	815
928.457	338
928.553	847
928.649	933
928.745	1207
928.841	769
928.937	856
929.033	1027
929.129	1537
929.225	870
929.321	506
929.417	878
929.513	721
929.609	376
929.705	649
929.801	722
929.897	704
929.993	838
930.089	794
930.184	1037
930.280	1193
930.376	1166
930.471	841
930.567	566
930.663	837
930.758	588
930.854	725
930.950	34
931.045	1295
931.141	420
931.236	1280
931.332	952
931.427	909
931.523	699
931.618	907
931.714	268
931.809	359
931.905	-35
932.000	318
932.095	635
932.191	766
932.286	931
932.381	73
932.476	-16
932.572	46
932.667	775
932.762	451
932.857	735
932.952	1019
933.047	1151
933.142	673
933.237	479
933.332	526
933.427	1111
933.522	765
933.617	227
933.712	-85
933.807	701
933.902	918
933.997	674
934.092	1112
934.187	100
934.282	847
934.376	293
934.471	598
934.566	434
934.661	823
934.755	558
934.850	-53
934.945	799
935.039	1114
935.134	316
935.228	402
935.323	-300
935.417	969
935.512	394
935.606	156
935.701	491
935.795	1110
935.890	-436
935.984	643
936.079	-43
936.173	621
936.267	546
936.362	167
936.456	645
936.550	1044
936.644	395
936.738	314
936.833	390
936.927	337
937.021	582
937.115	1476
937.209	259
937.303	447
937.397	-82
937.491	-99
937.585	196
937.679	1354
937.773	464
937.867	712
937.961	676
938.055	822
938.149	143
938.243	465
938.337	361
938.430	694
938.524	-26
938.618	348
938.712	718
938.805	1013
938.899	-12
938.993	266
939.086	214
939.180	66
939.274	506
939.367	391
939.461	846
939.554	418
939.648	53
939.741	130
939.835	347
939.928	250
940.022	1150
940.115	254
940.208	69
940.302	617
940.395	431
940.488	-3
940.582	129
940.675	161
940.768	86
940.861	653
940.954	752
941.048	738
941.141	159
941.234	416
941.327	664
941.420	981
941.513	708
941.606	398
941.699	86
941.792	-128
941.885	1271
941.978	277
942.071	344
942.164	-7
942.257	-309
942.349	251
942.442	-41
942.535	528
942.628	-456
942.721	878
942.813	-925
942.906	262
942.999	665
943.091	530
943.184	280
943.277	108
943.369	806
943.462	342
943.554	378
943.647	56
943.739	709
943.832	34
943.924	47
944.017	993
944.109	-168
944.201	-32
944.294	626
944.386	-79
944.478	34
944.571	19
944.663	-77
944.755	279
944.847	-655
944.940	-12
945.032	-259
945.124	251
945.216	-38
945.308	-411
945.400	522
945.492	282
945.584	364
945.676	226
945.768	243
945.860	1014
945.952	37
946.044	470
946.136	-128
946.228	283
946.320	281
946.412	295
946.503	238
946.595	1871
946.687	-302
946.779	195
946.870	-150
946.962	457
947.054	490
947.145	578
947.237	-220
947.329	534
947.420	73
947.512	140
947.603	-435
947.695	-894
947.786	-203
947.878	202
947.969	195
948.061	993
948.152	94
948.243	-20
948.335	107
948.426	-25
948.517	25
948.609	494
948.700	371
948.791	201
948.882	489
948.973	531
949.065	-699
949.156	224
949.247	-167
949.338	-426
949.429	-189
949.520	116
949.611	597
949.702	551
949.793	-297
949.884	311
949.975	13
950.066	-402
950.157	564
950.247	681
950.338	-592
950.429	-165
950.520	219
950.611	-415
950.701	-130
950.792	1012
950.883	1003
950.973	328
951.064	-490
951.155	881
951.245	806
951.336	127
951.427	223
951.517	637
951.608	49
951.698	-134
951.788	-353
951.879	-588
951.969	-400
952.060	157
952.150	471
952.240	-386
952.331	64
952.421	527
952.511	-466
952.602	-273
952.692	-17
952.782	499
952.872	118
952.962	206
953.052	86
953.143	118
953.233	-510
953.323	453
953.413	-290
953.503	235
953.593	264
953.683	7
953.773	-574
953.863	123
953.953	22
954.042	-668
954.132	-37
954.222	672
954.312	-271
954.402	964
954.492	624
954.581	1123
954.671	922
954.761	-589
954.850	-519
954.940	-313
955.030	-59
955.119	-18
955.209	316
955.298	-111
955.388	552
955.477	341
955.567	177
955.656	347
955.746	61
955.835	-11
955.925	-133
956.014	0
956.103	-452
956.193	94
956.282	367
956.371	185
956.461	-578
956.550	386
956.639	16
956.728	-439
956.817	-434
956.906	185
956.995	478
957.085	-491
957.174	-341
957.263	372
957.352	526
957.441	-687
957.530	-270
957.619	-147
957.708	-522
957.796	272
957.885	-330
957.974	787
958.063	955
958.152	773
958.241	-729
958.329	-89
958.418	-684
958.507	35
958.596	59
958.684	657
958.773	358
958.861	347
958.950	455
959.039	1067
959.127	416
959.216	718
959.304	-83
959.393	694
959.481	504
959.570	223
959.658	655
959.746	518
959.835	127
959.923	1265
960.011	647
960.100	1065
960.188	618
960.276	566
960.365	-521
960.453	554
960.541	318
960.629	-223
960.717	-339
960.805	-508
960.893	206
960.981	-23
961.069	-13
961.158	473
961.245	-282
961.333	-130
961.421	-562
961.509	810
961.597	-237
961.685	60
961.773	54
961.861	26
961.949	219
962.036	14
962.124	75
962.212	317
962.299	-632
962.387	-754
962.475	492
962.562	-548
962.650	-583
962.738	-204
962.825	-731
962.913	-610
963.000	431
963.088	337
963.175	-81
963.263	475
963.350	-337
963.438	-50
963.525	323
963.612	904
963.700	1894
963.787	5115
963.874	6349
963.962	916
964.049	-637
964.136	-854
964.223	-188
964.310	433
964.398	123
964.485	278
964.572	-133
964.659	1104
964.746	1787
964.833	345
964.920	-695
965.007	-432
965.094	-531
965.181	-882
965.268	-544
965.355	-215
965.441	-370
965.528	-63
965.615	-1002
965.702	-98
965.789	185
965.875	68
965.962	30
966.049	-369
966.136	-128
966.222	-590
966.309	-621
966.395	284
966.482	-658
966.569	-543
966.655	-1153
966.742	-202
966.828	-1125
966.915	-371
967.001	-920
967.087	-349
967.174	-496
967.260	696
967.347	-802
967.433	2011
967.519	3421
967.605	3318
967.692	18
967.778	-140
967.864	-600
967.950	-1068
968.036	-510
968.123	-4
968.209	-540
968.295	-1026
968.381	-390
968.467	6
968.553	-589
968.639	366
968.725	-584
968.811	-292
968.897	146
968.983	344
969.069	-695
969.154	-318
969.240	-499
969.326	-517
969.412	-419
969.497	-242
969.583	-1079
969.669	-99
969.755	-522
969.840	-294
969.926	-1076
970.012	-430
970.097	-678
970.183	-488
970.268	-84
970.354	-202
970.439	209
970.525	2796
970.610	900
970.696	-763
970.781	-178
970.866	-1138
970.952	-61
971.037	-322
971.122	-989
971.208	-596
971.293	-865
971.378	-405
971.463	-548
971.549	-422
971.634	-650
971.719	15
971.804	-899
971.889	206
971.974	-388
972.059	310
972.144	-650
972.229	-1556
972.314	-1219
972.399	-988
972.484	-694
972.569	-464
972.654	-576
972.739	-230
972.824	728
972.908	464
972.993	-1213
973.078	-255
973.163	-611
973.247	-560
973.332	-1410
973.417	-257
973.501	-961
973.586	223
973.671	-705
973.755	-1368
973.840	125
973.924	-523
974.009	-262
974.093	-46
974.178	-295
974.262	692
974.346	284
974.431	619
974.515	-564
974.600	-668
974.684	-222
974.768	320
974.852	-235
974.937	-189
975.021	-157
975.105	-1
975.189	-1303
975.273	-518
975.358	-803
975.442	-873
975.526	-914
975.610	-989
975.694	-1376
975.778	-98
975.862	-1260
975.946	-1713
976.030	-444
976.114	-942
976.198	-1206
976.281	-1504
976.365	-1504
976.449	-528
976.533	-113
976.617	-778
976.700	-945
976.784	-523
976.868	-1637
976.951	-114
977.035	-880
977.119	-297
977.202	-1110
977.286	-1066
977.369	-676
977.453	-288
977.536	-1029
977.620	-328
977.703	-571
977.787	-885
977.870	-1384
977.953	-404
978.037	-1325
978.120	140
978.203	-716
978.287	330
978.370	-41
978.453	-484
978.536	-1065
978.620	-822
978.703	41
978.786	-243
978.869	-1337
978.952	-1740
979.035	-200
979.118	-184
979.201	-1499
979.284	-38
979.367	-1179
979.450	-14
979.533	-1257
979.616	-1266
979.699	-1332
979.782	-497
979.865	-1186
979.948	200
980.030	-344
980.113	-781
980.196	-1249
980.279	-370
980.361	-1069
980.444	-1223
980.526	-1085
980.609	-744
980.692	-851
980.774	-691
980.857	-1243
980.939	-563
981.022	-1149
981.104	-1158
981.187	-1583
981.269	-425
981.352	-667
981.434	-1557
981.516	-1374
981.599	-1116
981.681	-1506
981.763	-940
981.846	-549
981.928	-713
982.010	-1167
982.092	-1466
982.174	-300
982.256	-354
982.339	-1031
982.421	-257
982.503	-1796
982.585	-640
982.667	-321
982.749	-640
982.831	-1430
982.913	-1225
982.995	-928
983.077	-506
983.158	-523
983.240	-714
983.322	-831
983.404	129
983.486	-1167
983.568	-472
983.649	-961
983.731	-1097
983.813	-1757
983.894	-851
983.976	-1371
984.058	-1781
984.139	-1339
984.221	-927
984.302	-200
984.384	-1041
984.465	-162
984.547	-584
984.628	-912
984.710	-1384
984.791	-704
984.872	-1012
984.954	-1330
985.035	-906
985.116	-1627
985.198	-618
985.279	-607
985.360	-511
985.441	-1318
985.522	-170
985.604	-1601
985.685	-1712
985.766	-138
985.847	-238
985.928	-1444
986.009	-1360
986.090	-1805
986.171	-1318
986.252	-1169
986.333	-1516
986.414	-633
986.495	-1158
986.576	-1008
986.656	-720
986.737	-1024
986.818	-1194
986.899	-1413
986.980	-812
987.060	-365
987.141	-2020
987.222	-1330
987.302	-1461
987.383	-1020
987.464	-450
987.544	-894
987.625	-1063
987.705	-572
987.786	-350
987.866	-679
987.947	-852
988.027	-693
988.108	-1295
988.188	-1119
988.268	-821
988.349	-1838
988.429	-351
988.509	-1340
988.589	-978
988.670	-1933
988.750	-374
988.830	-1231
988.910	-1081
988.990	-1392
989.070	-1180
989.151	-1528
989.231	-846
989.311	-783
989.391	-979
989.471	-1758
989.551	-656
989.631	-1516
989.711	-1692
989.791	-1807
989.870	-1114
989.950	-303
990.030	-1138
990.110	-983
990.190	-1216
990.269	-635
990.349	-1884
990.429	-600
990.509	-546
990.588	-2133
990.668	-1084
990.747	-1412
990.827	-1473
990.907	-1661
990.986	-1012
991.066	-2311
991.145	-1549
991.225	-916
991.304	-1787
991.383	-1739
991.463	-754
991.542	-329
991.622	-1640
991.701	-1121
991.780	-1523
991.859	-1385
991.939	-1519
992.018	-947
992.097	-909
992.176	-968
992.256	-893
992.335	-2111
992.414	-874
992.493	-1422
992.572	-1152
992.651	321
992.730	-1182
992.809	-1944
992.888	-1342
992.967	-1238
993.046	-952
993.125	-1900
993.203	-1076
993.282	-900
993.361	-1161
993.440	-775
993.519	-1646
993.597	-1075
993.676	-1242
993.755	-1102
993.834	-1330
993.912	-1289
993.991	-1358
994.069	-1558
994.148	-958
994.226	-2219
994.305	-1255
994.384	-1331
994.462	-794
994.540	-1810
994.619	-643
994.697	-1718
994.776	-1640
994.854	-1160
994.932	-1224
995.011	-930
995.089	-895
995.167	-1861
995.245	-1208
995.324	-2116
995.402	-557
995.480	-1108
995.558	-771
995.636	-1657
995.714	-1224
995.792	-682
995.870	-1675
995.948	-1347
996.026	-1411
996.104	-1101
996.182	-1207
996.260	-1135
996.338	-938
996.416	-1626
996.494	-1362
996.572	-1047
996.649	-916
996.727	-1978
996.805	-1583
996.883	-1295
996.960	-1404
997.038	-991
997.116	-1712
997.193	-1520
997.271	-337
997.348	-1486
997.426	-1786
997.504	-2205
997.581	-1386
997.658	-1219
997.736	-1111
997.813	-2304
997.891	-1316
997.968	-1454
998.046	-979
998.123	-1779
998.200	-1811
998.277	-2011
998.355	-1480
998.432	-1544
998.509	-1172
998.586	-1467
998.663	-1452
998.741	-1522
998.818	-1531
998.895	-1984
998.972	-980
999.049	-1798
999.126	-1270
999.203	-1922
999.280	-1378
999.357	-1363
999.434	-1144
999.511	-1390
999.587	-1477
999.664	-1507
999.741	-1163
999.818	-1225
999.895	-1647
999.971	-2528
1000.048	-2097
1000.125	-2123
1000.202	-1369
1000.278	-1141
1000.355	-1960
1000.431	-1166
1000.508	-1316
1000.584	-664
1000.661	-1770
1000.738	-1869
1000.814	-1238
1000.890	-1642
1000.967	-1974
1001.043	-1817
1001.120	-1430
1001.196	-1832
1001.272	-810
1001.349	-1959
1001.425	-1215
1001.501	-1660
1001.577	-1536
1001.654	-1521
1001.730	-972
1001.806	-2150
1001.882	-1553
1001.958	-1018
1002.034	-1371
1002.110	-1495
1002.186	-1485
1002.262	-1966
1002.338	-2290
1002.414	-1911
1002.490	-1452
1002.566	-2196
1002.642	-2077
1002.718	-1111
1002.794	-954
1002.870	-2274
1002.945	-1115
1003.021	-1805
1003.097	-2643
1003.173	-2092
1003.248	-1893
1003.324	-1740
1003.400	-1512
1003.475	-1680
1003.551	-2142
1003.626	-1924
1003.702	-1389
1003.777	-1506
1003.853	-1601
1003.928	-2055
1004.004	-1843
1004.079	-1884
1004.155	-1574
1004.230	-2154
1004.305	-1218
1004.381	-1289
1004.456	-1250
1004.531	-2033
1004.607	-1182
1004.682	-1589
1004.757	-1221
1004.832	-1923
1004.907	-1468
1004.982	-2077
1005.057	-1654
1005.133	-1331
1005.208	-2312
1005.283	-2032
1005.358	-1365
1005.433	-1736
1005.508	-1201
1005.583	-2444
1005.657	-1337
1005.732	-919
1005.807	-1769
1005.882	-1867
1005.957	-1446
1006.032	-1551
1006.106	-1558
1006.181	-1825
1006.256	-2131
1006.331	-2775
1006.405	-2652
1006.480	-1347
1006.554	-2023
1006.629	-1616
1006.704	-1609
1006.778	-1825
1006.853	-1103
1006.927	-1992
1007.002	-1922
1007.076	-1450
1007.150	-1507
1007.225	-2043
1007.299	-2359
1007.373	-2474
1007.448	-883
1007.522	-2814
1007.596	-1207
1007.671	-3122
1007.745	-2291
1007.819	-1785
1007.893	-1430
1007.967	-1685
1008.041	-2407
1008.115	-2208
1008.190	-1960
1008.264	-1862
1008.338	-1886
1008.412	-1968
1008.486	-2183
1008.560	-2665
1008.633	-2141
1008.707	-1839
1008.781	-1269
1008.855	-2663
1008.929	-2461
1009.003	-1621
1009.076	-1990
1009.150	-2289
1009.224	-1957
1009.298	-2493
1009.371	-1915
1009.445	-2336
1009.519	-1748
1009.592	-2872
1009.666	-2126
1009.739	-1720
1009.813	-3021
1009.886	-1777
1009.960	-2920
1010.033	-1590
1010.107	-949
1010.180	-1415
1010.253	-1797
1010.327	-2018
1010.400	-1864
1010.473	-2980
1010.547	-1290
1010.620	-1468
1010.693	-2495
1010.766	-2616
1010.840	-2136
1010.913	-1993
1010.986	-1698
1011.059	-1927
1011.132	-2415
1011.205	-1489
1011.278	-2060
1011.351	-2558
1011.424	-1671
1011.497	-2423
1011.570	-2588
1011.643	-2549
1011.716	-1778
1011.789	-2235
1011.862	-2325
1011.934	-2821
1012.007	-2747
1012.080	-1311
1012.153	-1804
1012.225	-1994
1012.298	-1719
1012.371	-2042
1012.443	-1790
1012.516	-1920
1012.588	-2252
1012.661	-2187
1012.733	-2736
1012.806	-661
1012.879	-2243
1012.951	-1989
1013.023	-2544
1013.096	-2637
1013.168	-2938
1013.241	-1898
1013.313	-2163
1013.385	-1939
1013.458	-2330
1013.530	-2065
1013.602	-2266
1013.674	-1970
1013.746	-1793
1013.819	-2009
1013.891	-2058
1013.963	-2932
1014.035	-2198
1014.107	-2065
1014.179	-2014
1014.251	-2111
1014.323	-1730
1014.395	-2649
1014.467	-2696
1014.539	-2209
1014.611	-1575
1014.683	-1958
1014.754	-1835
1014.826	-2126
1014.898	-2150
1014.970	-2081
1015.042	-1414
1015.113	-1818
1015.185	-2097
1015.257	-2198
1015.328	-1826
1015.400	-2135
1015.471	-2140
1015.543	-2727
1015.615	-1185
1015.686	-2021
1015.757	-2598
1015.829	-1495
1015.901	-2593
1015.972	-2467
1016.043	-1137
1016.115	-2481
1016.186	-2946
1016.257	-2186
1016.328	-1122
1016.400	-2137
1016.471	-1614
1016.542	-2474
1016.613	-1450
1016.685	-2664
1016.756	-1836
1016.827	-1840
1016.898	-2594
1016.969	-1698
1017.040	-2460
1017.111	-2477
1017.182	-2458
1017.253	-1391
1017.324	-2921
1017.395	-2946
1017.466	-2234
1017.537	-2431
1017.608	-2068
1017.678	-2152
1017.749	-1613
1017.820	-2511
1017.891	-1703
1017.961	-2725
1018.032	-1584
1018.103	-2052
1018.173	-2207
1018.244	-3082
1018.315	-2620
1018.385	-1696
1018.456	-2806
1018.526	-2702
1018.597	-2292
1018.667	-2303
1018.738	-2342
1018.808	-2765
1018.878	-2418
1018.949	-2050
1019.019	-1619
1019.089	-2790
1019.160	-2294
1019.230	-2852
1019.300	-1848
1019.371	-2357
1019.441	-1887
1019.511	-2272
1019.581	-2197
1019.651	-1803
1019.721	-1680
1019.791	-1928
1019.861	-1206
1019.931	-1923
1020.001	-2176
1020.071	-2272
1020.141	-2462
1020.211	-2011
1020.281	-2272
1020.351	-2185
1020.421	-1545
1020.491	-2240
1020.560	-2416
1020.630	-2240
1020.700	-1784
1020.770	-2815
1020.839	-1402
1020.909	-1997
1020.979	-1735
1021.048	-1634
1021.118	-2078
1021.187	-2318
1021.257	-2376
1021.326	-2141
1021.396	-2463
1021.465	-2037
1021.535	-1558
1021.604	-2280
1021.674	-2071
1021.743	-2299
1021.812	-1524
1021.882	-2397
1021.951	-3014
1022.020	-1768
1022.089	-1779
1022.159	-1695
1022.228	-2154
1022.297	-1859
1022.366	-1902
1022.435	-2837
1022.504	-2330
1022.573	-2550
1022.642	-1183
1022.711	-2995
1022.781	-1538
1022.849	-1245
1022.918	-2049
1022.987	-1757
1023.056	-2153
1023.125	-2325
1023.194	-2228
1023.263	-1939
1023.331	-1940
1023.400	-2850
1023.469	-2459
1023.538	-2686
1023.606	-2206
1023.675	-2433
1023.744	-2682
1023.812	-2902
1023.881	-2283
1023.949	-2115
1024.018	-2369
1024.086	-2600
1024.155	-1934
1024.223	-1601
1024.292	-2026
1024.360	-1858
1024.429	-2416
1024.497	-2881
1024.565	-2092
1024.634	-3060
1024.702	-1827
1024.770	-1786
1024.838	-2397
1024.907	-2790
1024.975	-2362
1025.043	-1838
1025.111	-2730
1025.179	-2112
1025.247	-1698
1025.315	-2514
1025.383	-2294
1025.451	-2269
1025.519	-2101
1025.587	-2365
1025.655	-1415
1025.723	-2960
1025.791	-2382
1025.859	-1944
1025.927	-1843
1025.995	-2679
1026.062	-2186
1026.130	-2284
1026.198	-1988
1026.266	-1524
1026.333	-1785
1026.401	-1739
1026.469	-2136
1026.536	-2015
1026.604	-2638
1026.671	-2096
1026.739	-1914
1026.806	-2470
1026.874	-1804
1026.941	-1831
1027.009	-1555
1027.076	-2621
1027.144	-1338
1027.211	-2739
1027.278	-2305
1027.345	-2069
1027.413	-1811
1027.480	-2367
1027.547	-2432
1027.614	-3087
1027.682	-2273
1027.749	-2576
1027.816	-2543
1027.883	-2373
1027.950	-1356
1028.017	-2726
1028.084	-1757
1028.151	-2792
1028.218	-2059
1028.285	-2372
1028.352	-2016
1028.419	-1991
1028.486	-2397
1028.553	-2333
1028.619	-2727
1028.686	-2132
1028.753	-2246
1028.820	-2881
1028.886	-1550
1028.953	-2216
1029.020	-2181
1029.086	-2784
1029.153	-1890
1029.220	-1980
1029.286	-2602
1029.353	-2370
1029.419	-1882
1029.486	-2607
1029.552	-2418
1029.619	-1494
1029.685	-2179
1029.751	-2451
1029.818	-1096
1029.884	-2426
1029.951	-1373
1030.017	-2543
1030.083	-1712
1030.149	-2587
1030.216	-2425
1030.282	-2088
1030.348	-2342
1030.414	-1804
1030.480	-1466
1030.546	-3028
1030.612	-2258
1030.678	-2411
1030.744	-2756
1030.810	-2972
1030.876	-2060
1030.942	-2477
1031.008	-1970
1031.074	-3186
1031.140	-2116
1031.206	-2515
1031.272	-2660
1031.337	-2753
1031.403	-1964
1031.469	-2033
1031.534	-2788
1031.600	-2050
1031.666	-2794
1031.731	-2002
1031.797	-2067
1031.863	-1895
1031.928	-1794
1031.994	-2578
1032.059	-2038
1032.125	-2381
1032.190	-2086
1032.256	-3146
1032.321	-3343
1032.386	-2021
1032.452	-1528
1032.517	-2598
1032.582	-2675
1032.647	-2019
1032.713	-1388
1032.778	-2925
1032.843	-1937
1032.908	-2875
1032.974	-2577
1033.039	-2556
1033.104	-2111
1033.169	-2498
1033.234	-2637
1033.299	-1559
1033.364	-3260
1033.429	-2145
1033.494	-1403
1033.559	-1745
1033.624	-2280
1033.688	-1666
1033.753	-2714
1033.818	-2343
1033.883	-2790
1033.948	-2695
1034.013	-2308
1034.077	-2319
1034.142	-1956
1034.207	-3090
1034.271	-2262
1034.336	-1917
1034.400	-2052
1034.465	-1263
1034.530	-1726
1034.594	-3033
1034.658	-2615
1034.723	-2448
1034.787	-1844
1034.852	-2248
1034.916	-2806
1034.981	-2391
1035.045	-1927
1035.109	-1861
1035.173	-1785
1035.238	-2705
1035.302	-1594
1035.366	-2325
1035.430	-2523
1035.495	-2781
1035.559	-2481
1035.623	-2108
1035.687	-2793
1035.751	-2443
1035.815	-1836
1035.879	-2545
1035.943	-1703
1036.007	-2331
1036.071	-1886
1036.135	-1740
1036.198	-2219
1036.262	-3245
1036.326	-1726
1036.390	-2157
1036.454	-2729
1036.517	-2433
1036.581	-2192
1036.645	-2682
1036.709	-1955
1036.772	-1748
1036.836	-2052
1036.900	-1777
1036.963	-1808
1037.026	-2551
1037.090	-2416
1037.154	-2182
1037.217	-2108
1037.280	-2038
1037.344	-2264
1037.407	-2523
1037.471	-2265
1037.534	-2269
1037.597	-2556
1037.661	-2215
1037.724	-2044
1037.787	-2776
1037.850	-2648
1037.913	-2275
1037.977	-1797
1038.040	-2889
1038.103	-1760
1038.166	-2574
1038.229	-1538
1038.292	-2472
1038.355	-1896
1038.418	-2501
1038.481	-2033
1038.544	-2820
1038.607	-1517
1038.670	-2428
1038.732	-2402
1038.795	-2791
1038.858	-1995
1038.921	-3293
1038.984	-1365
1039.046	-2626
1039.109	-2591
1039.172	-2428
1039.234	-2017
1039.297	-2421
1039.360	-2465
1039.422	-2647
1039.485	-1543
1039.547	-2725
1039.610	-1943
1039.672	-2530
1039.734	-2678
1039.797	-2919
1039.859	-2259
1039.922	-2724
1039.984	-1914
1040.046	-2719
1040.109	-2430
1040.171	-3126
1040.233	-3069
1040.295	-2779
1040.358	-2952
1040.420	-1755
1040.482	-2142
1040.544	-1833
1040.606	-2357
1040.668	-2536
1040.730	-2015
1040.792	-3168
1040.854	-1760
1040.916	-2968
1040.978	-2802
1041.040	-2423
1041.102	-2191
1041.164	-2572
1041.225	-2423
1041.287	-2648
1041.349	-2195
1041.411	-2502
1041.472	-1902
1041.534	-2502
1041.596	-2458
1041.657	-2083
1041.719	-2324
1041.781	-2738
1041.842	-2659
1041.904	-2583
1041.965	-2334
1042.027	-2602
1042.088	-2246
1042.150	-1699
1042.211	-2774
1042.272	-1853
1042.334	-2284
1042.395	-2571
1042.456	-2695
1042.518	-2214
1042.579	-2570
1042.640	-2945
1042.701	-2045
1042.763	-1899
1042.824	-2612
1042.885	-2935
1042.946	-2448
1043.007	-2593
1043.068	-2528
1043.129	-1766
1043.190	-2152
1043.251	-2449
1043.312	-1750
1043.373	-2419
1043.434	-2025
1043.495	-2775
1043.556	-2112
1043.616	-2487
1043.677	-2281
1043.738	-2203
1043.799	-2270
1043.859	-2106
1043.920	-2203
1043.981	-2764
1044.041	-1913
1044.102	-1781
1044.162	-2861
1044.223	-2062
1044.284	-1733
1044.344	-2355
1044.405	-2187
1044.465	-1982
1044.525	-1943
1044.586	-1747
1044.646	-2032
1044.707	-2153
1044.767	-2742
1044.827	-2375
1044.887	-2713
1044.948	-2362
1045.008	-2066
1045.068	-2469
1045.128	-2413
1045.188	-2575
1045.249	-2502
1045.309	-1698
1045.369	-2123
1045.429	-2134
1045.489	-1049
1045.549	-2243
1045.609	-1978
1045.669	-2186
1045.729	-2489
1045.789	-2127
1045.848	-2044
1045.908	-2350
1045.968	-2054
1046.028	-2296
1046.088	-2017
1046.147	-1269
1046.207	-1766
1046.267	-1372
1046.326	-1199
1046.386	-2382
1046.446	-1443
1046.505	-1759
1046.565	-1241
1046.624	-1523
1046.684	-1048
1046.743	-1068
1046.803	-857
1046.862	-926
1046.922	0
