'Start Wavelength	183.907
'End Wavelength	1046.922
'Gate Delay	5.000
'Gate Width (ms)	1.050
'Laser Output Level	0.000
'X Position	0.000
'Y Position	0.000
'Z Position	0.000
'Grid Point Number	1.000
'Shot Number	100.000
183.907	39.000
183.977	-234.000
184.047	-386
184.116	626
184.186	241
184.256	555
184.325	-317
184.395	112
184.465	-63
184.534	-82
184.604	-300
184.674	-412
184.743	-120
184.813	56
184.883	251
184.952	-97
185.022	102
185.092	708
185.161	-484
185.231	11
185.301	-445
185.370	664
185.440	-306
185.509	188
185.579	173
185.649	322
185.718	26
185.788	-630
185.857	-914
185.927	-538
185.996	-531
186.066	50
186.136	-291
186.205	56
186.275	-215
186.344	-79
186.414	-554
186.483	28
186.553	-379
186.622	-200
186.692	-88
186.761	-180
186.831	-50
186.900	-409
186.970	-272
187.039	284
187.109	1230
187.178	-173
187.248	717
187.317	-44
187.387	-535
187.456	751
187.526	594
187.595	-417
187.664	-388
187.734	-188
187.803	428
187.873	509
187.942	559
188.012	250
188.081	287
188.150	373
188.220	791
188.289	330
188.358	209
188.428	206
188.497	337
188.567	121
188.636	-24
188.705	206
188.775	-66
188.844	-333
188.913	329
188.983	-375
189.052	593
189.121	67
189.191	770
189.260	383
189.329	136
189.399	80
189.468	-616
189.537	-227
189.606	755
189.676	539
189.745	518
189.814	688
189.883	391
189.953	460
190.022	538
190.091	1635
190.161	1855
190.230	532
190.299	-36
190.368	-46
190.437	438
190.507	292
190.576	-157
190.645	413
190.714	492
190.783	-855
190.853	-62
190.922	679
190.991	262
191.060	162
191.129	538
191.198	26
191.268	350
191.337	640
191.406	621
191.475	225
191.544	251
191.613	263
191.682	-96
191.752	381
191.821	-348
191.890	438
191.959	869
192.028	-283
192.097	162
192.166	550
192.235	-147
192.304	-67
192.373	186
192.442	186
192.511	332
192.580	253
192.650	-208
192.719	281
192.788	643
192.857	231
192.926	504
192.995	428
193.064	1350
193.133	803
193.202	1390
193.271	1161
193.340	1002
193.409	741
193.478	1201
193.547	1450
193.615	2093
193.684	1942
193.753	1297
193.822	1254
193.891	-47
193.960	116
194.029	412
194.098	378
194.167	-173
194.236	708
194.305	35
194.374	350
194.443	630
194.512	782
194.580	504
194.649	848
194.718	409
194.787	750
194.856	542
194.925	882
194.994	611
195.062	141
195.131	441
195.200	378
195.269	366
195.338	494
195.407	540
195.475	102
195.544	669
195.613	932
195.682	674
195.751	1109
195.819	716
195.888	1046
195.957	937
196.026	46
196.094	1083
196.163	521
196.232	802
196.301	1147
196.369	573
196.438	900
196.507	248
196.576	136
196.644	394
196.713	468
196.782	-18
196.850	1136
196.919	347
196.988	119
197.056	146
197.125	187
197.194	527
197.262	-3
197.331	517
197.400	395
197.468	277
197.537	719
197.606	478
197.674	957
197.743	2865
197.812	1067
197.880	2093
197.949	1191
198.017	2404
198.086	1268
198.155	725
198.223	1657
198.292	3321
198.360	1065
198.429	822
198.497	1150
198.566	2539
198.635	2947
198.703	1207
198.772	1878
198.840	3549
198.909	3087
198.977	491
199.046	685
199.114	566
199.183	1423
199.251	847
199.320	902
199.388	81
199.457	785
199.525	550
199.594	484
199.662	677
199.731	1066
199.799	502
199.867	57
199.936	-110
200.004	508
200.073	489
200.141	416
200.210	70
200.278	146
200.346	835
200.415	481
200.483	732
200.552	279
200.620	390
200.688	163
200.757	571
200.825	789
200.893	47
200.962	715
201.030	141
201.098	814
201.167	139
201.235	1221
201.303	897
201.372	207
201.440	861
201.508	213
201.577	1035
201.645	1103
201.713	555
201.781	490
201.850	1174
201.918	940
201.986	391
202.055	1249
202.123	562
202.191	696
202.259	1391
202.327	838
202.396	491
202.464	685
202.532	619
202.600	2554
202.669	1247
202.737	1251
202.805	752
202.873	1059
202.941	1161
203.009	815
203.078	615
203.146	797
203.214	503
203.282	294
203.350	606
203.418	1092
203.487	904
203.555	540
203.623	609
203.691	516
203.759	595
203.827	715
203.895	920
203.963	1241
204.031	846
204.099	496
204.168	1151
204.236	903
204.304	543
204.372	587
204.440	1271
204.508	726
204.576	999
204.644	1011
204.712	281
204.780	1144
204.848	1054
204.916	544
204.984	323
205.052	1827
205.120	1122
205.188	783
205.256	748
205.324	853
205.392	1317
205.460	1753
205.528	1306
205.596	747
205.664	1293
205.732	904
205.799	3408
205.867	4611
205.935	1739
206.003	2106
206.071	1473
206.139	1171
206.207	576
206.275	1284
206.343	1200
206.411	1358
206.478	1058
206.546	2122
206.614	849
206.682	1397
206.750	780
206.818	1296
206.885	1169
206.953	574
207.021	1418
207.089	821
207.157	1327
207.225	731
207.292	898
207.360	1733
207.428	1134
207.496	1063
207.563	1333
207.631	769
207.699	593
207.767	724
207.834	866
207.902	1935
207.970	1121
208.038	851
208.105	954
208.173	1400
208.241	1519
208.309	1992
208.376	1531
208.444	3037
208.512	1397
208.579	1387
208.647	1306
208.715	1560
208.782	1128
208.850	941
208.918	442
208.985	1064
209.053	855
209.120	1878
209.188	599
209.256	1718
209.323	816
209.391	1615
209.459	2206
209.526	1264
209.594	1212
209.661	972
209.729	1501
209.796	983
209.864	810
209.932	695
209.999	1832
210.067	1123
210.134	1432
210.202	1352
210.269	2064
210.337	1972
210.404	861
210.472	1457
210.539	1307
210.607	1785
210.674	1120
210.742	2142
210.809	1565
210.877	2139
210.944	1973
211.012	957
211.079	1706
211.146	1463
211.214	1856
211.281	1454
211.349	1879
211.416	1933
211.484	1888
211.551	1070
211.618	1488
211.686	1381
211.753	968
211.821	2423
211.888	1172
211.955	1952
212.023	1620
212.090	1405
212.157	2312
212.225	1366
212.292	3113
212.359	7630
212.427	16006
212.494	6239
212.561	2202
212.629	3061
212.696	2516
212.763	2039
212.831	1481
212.898	2532
212.965	1051
213.032	1750
213.100	2408
213.167	1952
213.234	2053
213.301	1378
213.369	1538
213.436	2411
213.503	2014
213.570	2466
213.638	1643
213.705	2065
213.772	1687
213.839	1799
213.906	2469
213.973	2073
214.041	1563
214.108	838
214.175	2156
214.242	2608
214.309	1779
214.376	2159
214.444	1641
214.511	3266
214.578	1733
214.645	2282
214.712	2420
214.779	1485
214.846	1895
214.913	2213
214.980	2953
215.048	2923
215.115	2789
215.182	2634
215.249	2044
215.316	1621
215.383	1467
215.450	2461
215.517	1491
215.584	1788
215.651	1086
215.718	1282
215.785	2512
215.852	1574
215.919	2060
215.986	2518
216.053	1793
216.120	1842
216.187	1901
216.254	1855
216.321	1444
216.388	1414
216.455	2489
216.522	2623
216.589	2835
216.656	4244
216.722	3702
216.789	3567
216.856	3678
216.923	3660
216.990	2719
217.057	3162
217.124	2656
217.191	3416
217.258	3217
217.324	4931
217.391	4173
217.458	3801
217.525	3706
217.592	2345
217.659	2662
217.725	3009
217.792	3201
217.859	3940
217.926	2803
217.993	2186
218.059	2226
218.126	2220
218.193	1848
218.260	1681
218.327	1627
218.393	1649
218.460	2325
218.527	1805
218.594	1979
218.660	3526
218.727	3616
218.794	1584
218.860	1934
218.927	1981
218.994	1026
219.061	1783
219.127	2442
219.194	3360
219.261	2065
219.327	1695
219.394	1257
219.461	1092
219.527	1303
219.594	2796
219.661	2001
219.727	1692
219.794	1766
219.860	1758
219.927	3323
219.994	3955
220.060	3939
220.127	2322
220.193	2912
220.260	2704
220.326	3767
220.393	6376
220.460	6879
220.526	4464
220.593	3058
220.659	4059
220.726	4871
220.792	9326
220.859	7600
220.925	10362
220.992	12655
221.058	13188
221.125	11804
221.191	9030
221.258	3787
221.324	3546
221.391	2730
221.457	2498
221.524	3150
221.590	4300
221.657	11322
221.723	6600
221.789	7742
221.856	5615
221.922	3114
221.989	3232
222.055	2099
222.121	2317
222.188	3294
222.254	1745
222.321	1334
222.387	1516
222.453	1278
222.520	1953
222.586	2335
222.652	2062
222.719	1358
222.785	2921
222.851	1171
222.918	1586
222.984	3511
223.050	2235
223.116	1345
223.183	2215
223.249	1233
223.315	1254
223.382	1293
223.448	1829
223.514	959
223.580	888
223.647	1699
223.713	861
223.779	1980
223.845	1833
223.911	1502
223.978	1652
224.044	1530
224.110	1759
224.176	1780
224.242	733
224.309	1352
224.375	1113
224.441	2203
224.507	889
224.573	1062
224.639	1733
224.705	1753
224.772	1770
224.838	1525
224.904	1805
224.970	1696
225.036	1106
225.102	2057
225.168	1485
225.234	1121
225.300	1147
225.366	1444
225.432	1537
225.499	1448
225.565	1892
225.631	1233
225.697	2952
225.763	2268
225.829	3406
225.895	2975
225.961	4218
226.027	2994
226.093	3759
226.159	3677
226.225	6381
226.291	14775
226.357	19913
226.423	9419
226.489	5328
226.554	3831
226.620	3512
226.686	4786
226.752	7809
226.818	12190
226.884	29283
226.950	21230
227.016	8799
227.082	6127
227.148	3801
227.214	4323
227.279	3078
227.345	2602
227.411	2151
227.477	3377
227.543	3069
227.609	3046
227.674	2668
227.740	2065
227.806	2363
227.872	1601
227.938	2018
228.003	3019
228.069	1790
228.135	1615
228.201	1957
228.267	1501
228.332	2788
228.398	1934
228.464	2002
228.530	1563
228.595	1528
228.661	981
228.727	2904
228.792	1956
228.858	1325
228.924	1418
228.990	2960
229.055	1442
229.121	2222
229.187	1593
229.252	1476
229.318	1848
229.384	1998
229.449	2295
229.515	1408
229.581	1098
229.646	2069
229.712	2162
229.777	5896
229.843	4452
229.909	3132
229.974	4122
230.040	3125
230.105	2996
230.171	3344
230.236	4209
230.302	5349
230.368	4147
230.433	3385
230.499	2972
230.564	2873
230.630	1808
230.695	1789
230.761	2281
230.826	1602
230.892	3034
230.957	1775
231.023	1763
231.088	935
231.154	1557
231.219	1875
231.284	3090
231.350	3755
231.415	1443
231.481	2162
231.546	1551
231.612	1983
231.677	1585
231.742	1286
231.808	2258
231.873	1919
231.939	426
232.004	3095
232.069	2464
232.135	1868
232.200	1531
232.265	1263
232.331	988
232.396	709
232.461	1810
232.527	1346
232.592	229
232.657	1347
232.723	2348
232.788	2405
232.853	1327
232.918	1047
232.984	647
233.049	1099
233.114	2004
233.179	1908
233.245	3494
233.310	3907
233.375	1933
233.440	2392
233.506	1784
233.571	1259
233.636	1393
233.701	2932
233.766	2333
233.832	3131
233.897	1718
233.962	1669
234.027	2047
234.092	1478
234.157	1473
234.222	1381
234.288	3673
234.353	7380
234.418	6377
234.483	4759
234.548	3048
234.613	3158
234.678	2432
234.743	3156
234.808	8590
234.873	5001
234.938	3266
235.004	2935
235.069	2228
235.134	2087
235.199	2599
235.264	2565
235.329	1931
235.394	2221
235.459	2197
235.524	2195
235.589	2151
235.654	1751
235.719	1432
235.784	2392
235.849	2223
235.913	4981
235.978	4535
236.043	4868
236.108	2774
236.173	3001
236.238	2311
236.303	2264
236.368	1739
236.433	3782
236.498	6004
236.563	4356
236.627	11063
236.692	37858
236.757	24593
236.822	9847
236.887	6121
236.952	6549
237.017	5045
237.081	5793
237.146	6936
237.211	15340
237.276	39499
237.341	53010
237.405	21120
237.470	9452
237.535	6820
237.600	4941
237.664	4124
237.729	3597
237.794	5149
237.859	8276
237.923	5135
237.988	3260
238.053	4312
238.118	4293
238.182	11908
238.247	8711
238.312	3974
238.376	3543
238.441	1421
238.506	3443
238.570	1650
238.635	2894
238.700	1683
238.764	2239
238.829	4833
238.893	4852
238.958	3377
239.023	2704
239.087	1739
239.152	2570
239.216	2333
239.281	2203
239.346	2439
239.410	1964
239.475	2853
239.539	10887
239.604	6687
239.668	3084
239.733	1414
239.797	2254
239.862	3539
239.926	6990
239.991	3004
240.055	2276
240.120	1647
240.184	1554
240.249	1628
240.313	1800
240.378	2021
240.442	6314
240.507	8238
240.571	2298
240.635	4676
240.700	4347
240.764	3116
240.829	2414
240.893	1187
240.957	1505
241.022	6378
241.086	8704
241.151	3534
241.215	1814
241.279	3424
241.344	4185
241.408	2631
241.472	3136
241.537	3174
241.601	2875
241.665	1513
241.730	2600
241.794	2856
241.858	2747
241.922	2897
241.987	2382
242.051	2587
242.115	1348
242.179	2185
242.244	1945
242.308	2393
242.372	2728
242.436	2781
242.501	1814
242.565	1796
242.629	1687
242.693	2505
242.757	2018
242.822	1850
242.886	2673
242.950	2466
243.014	1777
243.078	3008
243.142	1965
243.206	2246
243.271	3313
243.335	3034
243.399	5425
243.463	23655
243.527	46600
243.591	12772
243.655	5671
243.719	3706
243.783	4082
243.847	7051
243.911	8136
243.975	7783
244.040	3579
244.104	3624
244.168	2497
244.232	4086
244.296	5459
244.360	6605
244.424	3314
244.488	2180
244.552	2360
244.615	1270
244.679	2298
244.743	2568
244.807	2560
244.871	1845
244.935	1993
244.999	986
245.063	2481
245.127	3457
245.191	5211
245.255	3833
245.319	3617
245.383	1880
245.446	3439
245.510	1637
245.574	2859
245.638	1614
245.702	2406
245.766	6115
245.829	4747
245.893	2620
245.957	2608
246.021	3037
246.085	2191
246.149	3599
246.212	10685
246.276	12868
246.340	5158
246.404	4181
246.467	4413
246.531	6089
246.595	3824
246.659	3781
246.722	3185
246.786	3802
246.850	4579
246.913	4729
246.977	2472
247.041	2010
247.104	2850
247.168	3079
247.232	9078
247.295	20001
247.359	7100
247.423	4631
247.486	6356
247.550	4046
247.614	3005
247.677	4676
247.741	3462
247.804	2587
247.868	3878
247.932	8894
247.995	16692
248.059	4847
248.122	3125
248.186	4831
248.249	8365
248.313	31961
248.376	27329
248.440	18016
248.503	5690
248.567	6152
248.630	8381
248.694	11248
248.757	14542
248.821	32448
248.884	15810
248.948	18073
249.011	24583
249.075	38415
249.138	27935
249.202	10537
249.265	6213
249.328	8017
249.392	6174
249.455	5074
249.519	4886
249.582	5570
249.645	8959
249.709	6405
249.772	6059
249.835	5264
249.899	5264
249.962	5012
250.025	4398
250.089	13197
250.152	15271
250.215	5976
250.279	4723
250.342	5840
250.405	5530
250.468	5054
250.532	6749
250.595	12895
250.658	55387
250.721	68901
250.785	21612
250.848	12266
250.911	8082
250.974	8183
251.038	11918
251.101	19558
251.164	9188
251.227	9828
251.290	9108
251.354	16586
251.417	73531
251.480	55226
251.543	47868
251.606	126365
251.669	74589
251.732	29762
251.795	29795
251.859	34288
251.922	77118
251.985	35564
252.048	14844
252.111	10271
252.174	9762
252.237	20038
252.300	38304
252.363	48308
252.426	91643
252.489	32131
252.552	16050
252.615	11515
252.678	13415
252.741	31139
252.804	49748
252.867	95145
252.930	46741
252.993	23903
253.056	14210
253.119	10237
253.182	8985
253.245	14804
253.308	9911
253.371	7984
253.434	7701
253.497	7944
253.559	17537
253.622	10617
253.685	10804
253.748	9435
253.811	5552
253.874	7942
253.937	6209
254.000	5293
254.062	12729
254.125	17278
254.188	13972
254.251	10143
254.314	6083
254.376	9610
254.439	9776
254.502	7083
254.565	12573
254.628	18845
254.690	8835
254.753	4212
254.816	4666
254.878	5608
254.941	14318
255.004	11789
255.067	5281
255.129	3579
255.192	3040
255.255	2447
255.317	3399
255.380	2474
255.443	2066
255.505	1614
255.568	1498
255.631	1353
255.693	2750
255.756	1139
255.819	2358
255.881	1889
255.944	2244
256.006	1536
256.069	2477
256.132	1300
256.194	3348
256.257	7354
256.319	5405
256.382	4288
256.444	3644
256.507	3086
256.569	2238
256.632	3065
256.694	5803
256.757	22481
256.819	52972
256.882	17426
256.944	7303
257.007	5906
257.069	6019
257.132	3860
257.194	3074
257.257	3098
257.319	2576
257.381	4687
257.444	16113
257.506	70941
257.569	54427
257.631	18938
257.693	11908
257.756	6975
257.818	5301
257.880	3688
257.943	3207
258.005	2652
258.067	3370
258.130	2638
258.192	3788
258.254	5376
258.317	3023
258.379	3913
258.441	10816
258.503	8234
258.566	11907
258.628	11698
258.690	3395
258.753	4178
258.815	5842
258.877	2910
258.939	2579
259.001	2924
259.064	2780
259.126	2881
259.188	4378
259.250	3349
259.312	3849
259.375	6422
259.437	3693
259.499	2942
259.561	2791
259.623	1915
259.685	2318
259.747	2444
259.809	10761
259.872	15818
259.934	29545
259.996	20969
260.058	6068
260.120	2748
260.182	2567
260.244	2268
260.306	1294
260.368	2157
260.430	2025
260.492	6215
260.554	8247
260.616	5144
260.678	15327
260.740	16151
260.802	3993
260.864	3342
260.926	2224
260.988	3259
261.050	2741
261.112	9978
261.174	22071
261.236	11783
261.298	4080
261.359	8419
261.421	9919
261.483	2434
261.545	3039
261.607	1425
261.669	1967
261.731	5565
261.793	10108
261.854	4392
261.916	3357
261.978	2982
262.040	3645
262.102	2789
262.164	4004
262.225	2400
262.287	2828
262.349	7415
262.411	4942
262.472	2761
262.534	5319
262.596	8377
262.658	3391
262.719	2029
262.781	3423
262.843	8611
262.904	4095
262.966	2719
263.028	5002
263.090	30857
263.151	60236
263.213	17386
263.275	8637
263.336	3689
263.398	3754
263.459	2113
263.521	2411
263.583	7024
263.644	2958
263.706	1660
263.767	1189
263.829	1604
263.891	915
263.952	754
264.014	799
264.075	4541
264.137	9253
264.198	3269
264.260	973
264.321	2155
264.383	7012
264.444	14017
264.506	3692
264.567	2913
264.629	8067
264.690	11696
264.752	3503
264.813	2673
264.875	1731
264.936	2669
264.998	1154
265.059	782
265.120	2060
265.182	4271
265.243	29872
265.305	21092
265.366	5326
265.427	2927
265.489	2300
265.550	1359
265.611	2261
265.673	1881
265.734	1118
265.795	1213
265.857	1166
265.918	2020
265.979	8987
266.040	50797
266.102	29377
266.163	8471
266.224	5868
266.286	2975
266.347	1954
266.408	1618
266.469	2108
266.530	2106
266.592	735
266.653	4821
266.714	5284
266.775	1638
266.836	245
266.898	1184
266.959	2745
267.020	1026
267.081	1366
267.142	1191
267.203	976
267.264	693
267.326	1563
267.387	972
267.448	428
267.509	1197
267.570	1426
267.631	1227
267.692	756
267.753	1265
267.814	780
267.875	5051
267.936	9104
267.997	5434
268.058	4417
268.119	2098
268.180	1475
268.241	1193
268.302	1248
268.363	818
268.424	1927
268.485	1753
268.546	349
268.607	690
268.668	855
268.729	1027
268.790	840
268.851	1429
268.912	5753
268.972	5032
269.033	2698
269.094	352
269.155	1576
269.216	682
269.277	472
269.338	1223
269.398	1267
269.459	1561
269.520	2478
269.581	3251
269.642	3297
269.702	2014
269.763	2323
269.824	1418
269.885	2302
269.945	3270
270.006	1865
270.067	477
270.128	1249
270.188	633
270.249	575
270.310	1293
270.370	1608
270.431	1234
270.492	903
270.553	1551
270.613	4085
270.674	8698
270.734	2460
270.795	1680
270.856	2352
270.916	1181
270.977	1625
271.038	1873
271.098	1455
271.159	3636
271.219	3393
271.280	1586
271.340	1150
271.401	958
271.462	5542
271.522	2445
271.583	1545
271.643	1755
271.704	992
271.764	2768
271.825	7243
271.885	29800
271.946	32486
272.006	8720
272.066	19198
272.127	27408
272.187	5997
272.248	3926
272.308	5562
272.369	22310
272.429	8997
272.489	7274
272.550	5949
272.610	6804
272.671	3703
272.731	4912
272.791	6751
272.852	3188
272.912	3030
272.972	1318
273.033	1868
273.093	2930
273.153	3505
273.214	1919
273.274	2777
273.334	17280
273.394	26223
273.455	8051
273.515	10338
273.575	19643
273.635	7067
273.696	13264
273.756	25826
273.816	8101
273.876	4378
273.936	11296
273.997	15160
274.057	3598
274.117	2924
274.177	7220
274.237	35659
274.297	23342
274.358	14445
274.418	22959
274.478	11642
274.538	4012
274.598	4230
274.658	14372
274.718	14709
274.778	5529
274.838	3901
274.898	9733
274.958	22261
275.018	29135
275.078	14254
275.138	4843
275.198	3295
275.258	2319
275.318	3162
275.378	5591
275.438	5389
275.498	4451
275.558	13026
275.618	24861
275.678	15086
275.738	8777
275.798	6195
275.858	3052
275.918	2144
275.978	3277
276.038	2170
276.098	2270
276.157	6078
276.217	14223
276.277	4937
276.337	4223
276.397	2074
276.457	2843
276.517	1497
276.576	2014
276.636	1328
276.696	3477
276.756	8507
276.815	3886
276.875	2116
276.935	2733
276.995	1802
277.055	736
277.114	2079
277.174	4581
277.234	12574
277.293	4009
277.353	2177
277.413	1997
277.472	1388
277.532	1304
277.592	2558
277.651	7956
277.711	11726
277.771	4831
277.830	19243
277.890	11483
277.950	13884
278.009	33357
278.069	9158
278.128	10919
278.188	11682
278.248	5369
278.307	15057
278.367	7603
278.426	3043
278.486	2024
278.545	699
278.605	1475
278.664	1319
278.724	2148
278.783	13710
278.843	28442
278.902	5832
278.962	3473
279.021	3435
279.081	4478
279.140	3744
279.199	3238
279.259	4166
279.318	3877
279.378	6276
279.437	10702
279.496	38778
279.556	103356
279.615	58793
279.675	15390
279.734	10117
279.793	16722
279.853	25345
279.912	7485
279.971	4394
280.031	3860
280.090	10986
280.149	14854
280.208	14237
280.268	73718
280.327	51770
280.386	11689
280.445	11322
280.505	8538
280.564	4501
280.623	3494
280.682	8001
280.742	9069
280.801	2366
280.860	2063
280.919	2084
280.978	2205
281.037	1142
281.097	1178
281.156	1528
281.215	1661
281.274	3575
281.333	19234
281.392	10236
281.451	3135
281.510	1684
281.569	1145
281.628	1221
281.688	2209
281.747	1875
281.806	1061
281.865	1399
281.924	1365
281.983	904
282.042	637
282.101	659
282.160	341
282.219	-22
282.278	1312
282.337	7906
282.396	3025
282.454	2178
282.513	3180
282.572	12542
282.631	4901
282.690	1214
282.749	635
282.808	1483
282.867	1798
282.926	1279
282.985	814
283.043	233
283.102	1527
283.161	1973
283.220	7447
283.279	13002
283.338	3565
283.396	2037
283.455	2070
283.514	2128
283.573	3444
283.631	2220
283.690	992
283.749	1907
283.808	4327
283.866	3228
283.925	546
283.984	2185
284.043	2506
284.101	2559
284.160	1279
284.219	2271
284.277	2374
284.336	5456
284.395	17027
284.453	11508
284.512	3729
284.570	4962
284.629	4029
284.688	3281
284.746	2663
284.805	3492
284.863	4790
284.922	5535
284.981	6119
285.039	10098
285.098	21202
285.156	65503
285.215	179412
285.273	146747
285.332	59425
285.390	27910
285.449	17347
285.507	12120
285.566	8432
285.624	6110
285.683	4033
285.741	3809
285.799	2806
285.858	2108
285.916	2938
285.975	1857
286.033	1518
286.091	1284
286.150	970
286.208	1381
286.267	2538
286.325	2881
286.383	3296
286.442	2851
286.500	879
286.558	1472
286.616	1103
286.675	2443
286.733	1099
286.791	1966
286.850	2119
286.908	3478
286.966	4724
287.024	1310
287.083	1673
287.141	788
287.199	1286
287.257	2164
287.315	1375
287.374	2495
287.432	6854
287.490	4056
287.548	2587
287.606	1354
287.664	1612
287.723	2622
287.781	3685
287.839	2269
287.897	3169
287.955	4565
288.013	9524
288.071	26752
288.129	110787
288.187	235644
288.245	86313
288.303	29384
288.361	18382
288.419	13729
288.477	9069
288.535	6186
288.593	4444
288.651	2934
288.709	2109
288.767	1402
288.825	2087
288.883	1485
288.941	1139
288.999	1494
289.057	1424
289.115	1188
289.173	792
289.231	1369
289.289	1230
289.346	1178
289.404	1209
289.462	2649
289.520	2350
289.578	1224
289.636	703
289.694	1073
289.751	1030
289.809	1127
289.867	780
289.925	1764
289.983	1770
290.040	1325
290.098	508
290.156	667
290.214	1874
290.271	514
290.329	70
290.387	158
290.444	97
290.502	-384
290.560	-103
290.617	245
290.675	427
290.733	938
290.790	661
290.848	450
290.906	701
290.963	1156
291.021	399
291.078	1109
291.136	1354
291.194	8671
291.251	14922
291.309	2676
291.366	387
291.424	700
291.481	656
291.539	885
291.596	316
291.654	1071
291.711	254
291.769	849
291.826	2094
291.884	1295
291.941	258
291.999	474
292.056	1119
292.114	956
292.171	852
292.228	476
292.286	718
292.343	2887
292.401	3283
292.458	837
292.515	632
292.573	1579
292.630	1679
292.687	1871
292.745	729
292.802	3207
292.859	8305
292.917	14604
292.974	6256
293.031	1386
293.089	1884
293.146	840
293.203	234
293.260	801
293.318	1409
293.375	1389
293.432	871
293.489	642
293.546	685
293.604	3164
293.661	13180
293.718	31082
293.775	10442
293.832	4157
293.889	3225
293.947	1762
294.004	1881
294.061	2789
294.118	7247
294.175	15822
294.232	18782
294.289	4692
294.346	3649
294.403	3731
294.460	2335
294.517	1966
294.574	1354
294.631	986
294.688	2709
294.745	10862
294.802	38273
294.859	31370
294.916	9687
294.973	4920
295.030	3645
295.087	3812
295.144	2432
295.201	2919
295.258	2413
295.315	3593
295.372	14438
295.429	24220
295.486	7434
295.542	5682
295.599	16338
295.656	24138
295.713	17468
295.770	20752
295.827	6836
295.883	3892
295.940	2760
295.997	5169
296.054	3468
296.111	1290
296.167	1744
296.224	242
296.281	1268
296.338	754
296.394	1567
296.451	1815
296.508	10076
296.564	16878
296.621	11786
296.678	30326
296.734	35910
296.791	11277
296.848	5573
296.904	6879
296.961	15013
297.018	25849
297.074	16043
297.131	6543
297.187	5129
297.244	8764
297.301	34025
297.357	49379
297.414	13956
297.470	5181
297.527	4285
297.583	3441
297.640	2576
297.696	1966
297.753	1839
297.809	1180
297.866	796
297.922	1301
297.979	125
298.035	1092
298.092	4110
298.148	14236
298.204	11579
298.261	5543
298.317	14487
298.374	35179
298.430	15927
298.486	6430
298.543	4375
298.599	4009
298.656	5733
298.712	10063
298.768	25805
298.824	16264
298.881	5020
298.937	2748
298.993	2773
299.050	2531
299.106	2923
299.162	1555
299.218	1990
299.275	1915
299.331	3218
299.387	8882
299.443	31922
299.500	24144
299.556	8302
299.612	3811
299.668	3171
299.724	2290
299.780	2045
299.837	2065
299.893	5646
299.949	21185
300.005	20667
300.061	22386
300.117	38210
300.173	14882
300.229	5920
300.285	7832
300.341	7216
300.397	3233
300.453	2088
300.510	1365
300.566	1740
300.622	2315
300.678	5928
300.734	13519
300.790	20839
300.845	27174
300.901	12534
300.957	16655
301.013	13147
301.069	4811
301.125	2737
301.181	2951
301.237	2553
301.293	1477
301.349	1486
301.405	656
301.461	1691
301.516	1961
301.572	2421
301.628	3388
301.684	4151
301.740	8554
301.796	12480
301.851	8278
301.907	13682
301.963	16072
302.019	36045
302.074	89063
302.130	75192
302.186	30039
302.242	12198
302.297	8164
302.353	8733
302.409	15891
302.464	12025
302.520	11733
302.576	28712
302.631	29074
302.687	12175
302.743	5798
302.798	3674
302.854	2558
302.910	3311
302.965	4166
303.021	6565
303.076	5452
303.132	7467
303.187	8057
303.243	3884
303.299	2470
303.354	1329
303.410	1965
303.465	1306
303.521	1271
303.576	2043
303.632	3606
303.687	10032
303.743	29923
303.798	19262
303.853	7786
303.909	2889
303.964	3271
304.020	4515
304.075	7246
304.130	5700
304.186	10385
304.241	10302
304.297	7794
304.352	3796
304.358	3664
304.407	2584
304.449	2484
304.463	2450
304.518	2131
304.539	2257
304.573	2463
304.629	3570
304.630	3637
304.684	6993
304.720	17187
304.739	22384
304.794	31274
304.811	26324
304.850	13445
304.902	5271
304.905	4803
304.960	3366
304.992	3669
305.015	3870
305.071	3560
305.083	3349
305.126	2541
305.173	1913
305.181	1832
305.236	1787
305.264	2282
305.292	2827
305.347	1911
305.354	2207
305.402	4031
305.445	3898
305.457	3869
305.512	5156
305.535	4820
305.567	4248
305.622	5743
305.626	5985
305.678	13745
305.716	27435
305.733	32082
305.788	33947
305.807	30894
305.843	25006
305.897	33556
305.898	33655
305.953	29903
305.988	20161
306.008	14521
306.063	8553
306.078	7280
306.118	5387
306.168	3599
306.173	3484
306.228	3086
306.259	2723
306.283	2543
306.338	2702
306.349	2785
306.393	3372
306.440	4432
306.448	4539
306.503	4331
306.530	4733
306.558	7502
306.613	16852
306.620	17998
306.668	25446
306.711	33873
306.723	34075
306.778	24375
306.801	19315
306.833	13226
306.888	5450
306.892	5049
306.943	3804
306.982	3583
306.997	3686
307.052	3559
307.072	3699
307.107	4611
307.162	6497
307.163	6517
307.217	11458
307.253	14418
307.272	14839
307.327	15382
307.343	14817
307.381	11894
307.434	9679
307.436	10186
307.491	23336
307.524	33202
307.546	34892
307.600	34087
307.614	31715
307.655	19683
307.704	10100
307.710	10157
307.765	11958
307.795	14056
307.819	19010
307.874	33133
307.885	34442
307.929	26138
307.975	17780
307.984	18455
308.038	27555
308.065	34073
308.093	61120
308.148	128197
308.156	142222
308.202	243238
308.246	308758
308.257	293250
308.312	157803
308.336	105414
308.366	80406
308.421	45961
308.426	42797
308.475	28400
308.517	18771
308.530	17662
308.585	14942
308.607	13699
308.639	13756
308.694	15098
308.697	15220
308.748	30849
308.787	44339
308.803	43575
308.857	35493
308.877	31825
308.912	26860
308.967	22021
308.967	21901
309.021	28865
309.058	34955
309.076	45565
309.130	83118
309.148	97709
309.185	188452
309.238	340294
309.239	342412
309.293	400075
309.328	397038
309.348	335993
309.402	161343
309.418	115132
309.457	80388
309.508	42553
309.511	41905
309.566	33481
309.598	28740
309.620	30315
309.674	35394
309.688	36786
309.729	35588
309.778	32578
309.783	31972
309.837	24177
309.868	20225
309.892	25307
309.946	38784
309.959	42308
310.001	61667
310.049	81307
310.055	78303
310.109	46303
310.139	28682
310.163	23280
310.218	13143
310.229	11191
310.272	9805
310.319	8541
310.326	8521
310.381	8122
310.409	7997
310.435	7648
310.489	6913
310.499	6743
310.543	7611
310.589	8614
310.598	8658
310.652	8910
310.679	8809
310.706	7640
310.760	5466
310.769	5077
310.814	4658
310.859	4308
310.868	4355
310.923	4627
310.948	4746
310.977	5255
311.031	6228
311.038	6330
311.085	6523
311.128	6730
311.139	6781
311.193	6817
311.218	6755
311.247	6152
311.301	5138
311.308	4988
311.356	5458
311.398	5831
311.410	5777
311.464	5370
311.488	5192
311.518	4985
311.572	4571
311.578	4511
311.626	7002
311.668	9122
311.680	9288
311.734	9826
311.758	10049
311.788	10181
311.842	10332
311.847	10306
311.896	12298
311.937	13995
311.950	14352
312.004	15656
312.027	16137
312.058	13131
312.112	7686
312.117	7117
312.165	6853
312.207	6589
312.297	10229
312.386	10020
312.476	7087
312.566	14953
312.656	9198
312.745	5623
312.835	6615
312.925	7819
313.015	7036
313.104	9133
313.194	5990
313.284	5898
313.374	7466
313.463	8485
313.553	5553
313.643	5029
313.732	5722
313.822	4994
313.912	5448
314.001	7072
314.091	7774
314.180	12221
314.270	9205
314.360	10832
314.449	9798
314.539	5836
314.628	4920
314.718	7314
314.808	10114
314.897	6189
314.987	5197
315.076	7280
315.166	9247
315.255	10436
315.345	9299
315.434	10341
315.524	7849
315.613	9721
315.703	11137
315.792	11143
315.881	12523
315.971	10428
316.060	16278
316.150	32243
316.239	35685
316.328	15932
316.418	6537
316.507	6517
316.597	8710
316.686	8280
316.775	11732
316.865	38587
316.954	10157
317.043	4860
317.133	5170
317.222	5369
317.311	5851
317.400	4482
317.490	7503
317.579	9796
317.668	5998
317.757	7464
317.847	10912
317.936	21675
318.025	22261
318.114	11946
318.203	10419
318.293	16680
318.382	33084
318.471	26990
318.560	36004
318.649	89451
318.738	25713
318.828	11483
318.917	13727
319.006	15384
319.095	40247
319.184	103226
319.273	65701
319.362	27828
319.451	10368
319.540	8383
319.629	16436
319.718	34965
319.807	18626
319.896	29901
319.985	127907
320.074	61774
320.163	14328
320.252	22825
320.341	17362
320.430	16001
320.519	16484
320.608	12099
320.697	8913
320.786	8541
320.875	9216
320.964	13417
321.053	19922
321.142	28055
321.230	35003
321.319	22333
321.408	53540
321.497	29480
321.586	22336
321.675	30191
321.764	34279
321.852	20315
321.941	29880
322.030	25150
322.119	21817
322.207	58288
322.296	54202
322.385	26109
322.474	22361
322.562	63683
322.651	44254
322.740	22627
322.829	35977
322.917	46912
323.006	27443
323.095	18805
323.183	16044
323.272	25177
323.361	40661
323.449	147915
323.538	63035
323.626	90213
323.715	79479
323.804	25805
323.892	85521
323.981	60677
324.069	16940
324.158	43588
324.246	58858
324.335	15138
324.424	21747
324.512	11451
324.601	17039
324.689	47952
324.778	112940
324.866	43632
324.954	14122
325.043	9784
325.131	19364
325.220	38200
325.308	48126
325.397	29673
325.485	22302
325.574	5994
325.662	5494
325.750	6062
325.839	6042
325.927	5256
326.015	8959
326.104	13933
326.192	27231
326.280	7368
326.369	6135
326.457	8681
326.545	17201
326.634	9685
326.722	4693
326.810	5869
326.898	5000
326.987	6368
327.075	15068
327.163	21334
327.251	16710
327.340	37407
327.428	71250
327.516	10412
327.604	6513
327.692	7764
327.781	9012
327.869	17712
327.957	11863
328.045	8935
328.133	5227
328.221	8333
328.309	7326
328.397	5956
328.485	7239
328.574	10112
328.662	33574
328.750	27264
328.838	12517
328.926	7183
329.014	5837
329.102	9042
329.190	23474
329.278	17637
329.366	5542
329.454	5552
329.542	6028
329.630	5688
329.718	6814
329.806	9165
329.893	9943
329.981	14451
330.069	25413
330.157	88728
330.245	277171
330.333	187491
330.421	34354
330.509	17060
330.597	41864
330.684	37311
330.772	13385
330.860	18343
330.948	23657
331.036	12145
331.123	5201
331.211	5562
331.299	8676
331.387	14866
331.475	37035
331.562	12640
331.650	5440
331.738	6099
331.825	11813
331.913	5345
332.001	4884
332.089	7579
332.176	19652
332.264	43678
332.352	45286
332.439	12265
332.527	7429
332.614	6411
332.702	10581
332.790	6851
332.877	16734
332.965	47136
333.052	12366
333.140	8917
333.228	20505
333.315	7527
333.403	7665
333.490	23830
333.578	25570
333.665	17642
333.753	11061
333.840	6811
333.928	8879
334.015	26534
334.103	41393
334.190	142688
334.278	48301
334.365	13173
334.452	8097
334.540	5971
334.627	8184
334.715	15006
334.802	26271
334.889	146121
334.977	201401
335.064	22671
335.151	8829
335.239	9747
335.326	14362
335.413	52959
335.501	108621
335.588	14811
335.675	7731
335.762	8305
335.850	18669
335.937	12929
336.024	29918
336.111	161049
336.199	84743
336.286	11500
336.373	5317
336.460	5712
336.547	4699
336.635	6699
336.722	6858
336.809	7529
336.896	10641
336.983	34156
337.070	93624
337.157	153396
337.245	111637
337.332	103470
337.419	12300
337.506	7197
337.593	9122
337.680	24232
337.767	100264
337.854	31660
337.941	29529
338.028	38462
338.115	16174
338.202	13122
338.289	27034
338.376	111635
338.463	47277
338.550	47788
338.637	72790
338.724	20080
338.811	38002
338.898	9738
338.984	4825
339.071	8103
339.158	7755
339.245	20026
339.332	16754
339.419	19474
339.506	25818
339.593	5090
339.679	4289
339.766	5392
339.853	6177
339.940	15870
340.027	6788
340.113	5119
340.200	7914
340.287	6805
340.374	6373
340.460	14320
340.547	7129
340.634	10173
340.720	38562
340.807	32638
340.894	5115
340.980	5497
341.067	5091
341.154	5985
341.240	7483
341.327	21355
341.414	7208
341.500	7554
341.587	5119
341.674	4656
341.760	12547
341.847	17423
341.933	5844
342.020	2672
342.106	2582
342.193	4593
342.279	10672
342.366	8150
342.452	14848
342.539	9544
342.625	15398
342.712	46497
342.798	22248
342.885	8807
342.971	3875
343.058	3952
343.144	3166
343.230	4492
343.317	4433
343.403	4601
343.490	2742
343.576	3640
343.662	4383
343.749	6228
343.835	8344
343.921	15603
344.008	75319
344.094	237765
344.180	65646
344.267	17220
344.353	50121
344.439	76578
344.525	25900
344.612	12643
344.698	11760
344.784	8787
344.870	4054
344.957	4144
345.043	8149
345.129	6039
345.215	12545
345.301	8015
345.387	4832
345.474	3003
345.560	3404
345.646	6206
345.732	5860
345.818	5902
345.904	5579
345.990	6795
346.076	6615
346.162	15851
346.249	6838
346.335	3698
346.421	5506
346.507	18418
346.593	89244
346.679	29927
346.765	6443
346.851	4646
346.937	4766
347.023	4261
347.108	5323
347.194	5778
347.280	5047
347.366	6000
347.452	17931
347.538	100090
347.624	77779
347.710	69370
347.796	13185
347.882	5359
347.967	4087
348.053	7558
348.139	6051
348.225	3669
348.311	3973
348.397	3700
348.482	5226
348.568	7409
348.654	3011
348.740	3124
348.825	3615
348.911	7856
348.997	36955
349.083	107332
349.168	22328
349.254	5825
349.340	5669
349.425	3793
349.511	5977
349.597	8145
349.682	12731
349.768	51598
349.854	34637
349.939	6173
350.025	4714
350.110	4404
350.196	3073
350.282	2749
350.367	3061
350.453	8644
350.538	12091
350.624	6072
350.709	7058
350.795	3797
350.880	4163
350.966	4699
351.051	8730
351.137	8964
351.222	5059
351.308	11613
351.393	46904
351.479	14560
351.564	4284
351.649	4683
351.735	3470
351.820	3478
351.906	3772
351.991	6485
352.076	24076
352.162	50643
352.247	10685
352.332	6115
352.418	11002
352.503	14323
352.588	56380
352.673	61614
352.759	13017
352.844	7067
352.929	5529
353.014	9415
353.100	4950
353.185	6271
353.270	13296
353.355	17133
353.441	4855
353.526	5727
353.611	11782
353.696	17718
353.781	9827
353.866	5095
353.952	5278
354.037	11489
354.122	30950
354.207	29223
354.292	13541
354.377	5078
354.462	4183
354.547	6272
354.632	5838
354.717	7991
354.802	7257
354.887	3976
354.972	3555
355.057	3398
355.142	2495
355.227	5241
355.312	8080
355.397	18025
355.482	48375
355.567	30493
355.652	15874
355.737	18819
355.822	56564
355.907	67320
355.991	9271
356.076	5425
356.161	4570
356.246	4156
356.331	5200
356.416	13773
356.501	91408
356.585	140862
356.670	21169
356.755	9126
356.840	12698
356.924	49547
357.009	254593
357.094	127436
357.179	21342
357.263	13244
357.348	11152
357.433	12959
357.517	10593
357.602	9328
357.687	6799
357.771	10504
357.856	40514
357.941	32105
358.025	42428
358.110	243615
358.195	151515
358.279	20449
358.364	11468
358.448	33232
358.533	110890
358.617	91332
358.702	85664
358.787	38068
358.871	14743
358.956	14982
359.040	5869
359.125	4027
359.209	4320
359.294	16075
359.378	37025
359.462	15522
359.547	7928
359.631	7003
359.716	4482
359.800	4178
359.885	8174
359.969	6325
360.053	4888
360.138	4983
360.222	7133
360.306	14995
360.391	13657
360.475	18582
360.559	52708
360.644	42902
360.728	37899
360.812	43172
360.896	175041
360.981	78716
361.065	38426
361.149	9626
361.233	8034
361.318	6652
361.402	7221
361.486	6614
361.570	5082
361.654	7730
361.739	18563
361.823	84743
361.907	189332
361.991	38301
362.075	13006
362.159	29661
362.243	22228
362.327	13485
362.411	11005
362.495	10137
362.580	6385
362.664	3878
362.748	4223
362.832	3975
362.916	4976
363.000	14863
363.084	70680
363.168	203920
363.252	55953
363.336	14422
363.420	17866
363.503	75547
363.587	127505
363.671	22287
363.755	9528
363.839	15982
363.923	7687
364.007	14033
364.091	19891
364.175	24233
364.258	133806
364.342	87107
364.426	22252
364.510	15083
364.594	16568
364.677	23194
364.761	128666
364.845	128216
364.929	28833
365.013	23152
365.096	16466
365.180	26010
365.264	27706
365.347	147578
365.431	80719
365.515	18331
365.598	8459
365.682	5777
365.766	11412
365.849	19793
365.933	7833
366.017	10950
366.100	10603
366.184	4874
366.267	4997
366.351	4379
366.435	4229
366.518	3248
366.602	3107
366.685	4132
366.769	4811
366.852	10152
366.936	21902
367.019	12363
367.103	8078
367.186	21212
367.270	6901
367.353	2885
367.436	4145
367.520	2874
367.603	5341
367.687	7734
367.770	18474
367.853	10516
367.937	29184
368.020	77241
368.104	19619
368.187	11602
368.270	19051
368.353	18117
368.437	23484
368.520	73981
368.603	47509
368.687	37477
368.770	97220
368.853	27054
368.936	19018
369.020	22174
369.103	8332
369.186	5211
369.269	5595
369.352	9837
369.436	18348
369.519	11779
369.602	5844
369.685	6083
369.768	6916
369.851	6083
369.934	4105
370.018	5152
370.101	14584
370.184	13022
370.267	8692
370.350	14224
370.433	23238
370.516	61403
370.599	97797
370.682	23847
370.765	38359
370.848	49862
370.931	114212
371.014	54567
371.097	10021
371.180	6379
371.263	3557
371.346	3278
371.429	3201
371.511	4005
371.594	8387
371.677	16535
371.760	22952
371.843	15888
371.926	64803
372.009	222113
372.091	80242
372.174	34662
372.257	108628
372.340	53653
372.423	25755
372.505	37645
372.588	17004
372.671	23599
372.754	104543
372.836	68206
372.919	34067
373.002	91407
373.085	31560
373.167	14501
373.250	36596
373.332	102368
373.415	117097
373.498	299302
373.580	124271
373.663	97003
373.746	192472
373.828	48577
373.911	17048
373.993	17625
374.076	72705
374.159	94583
374.241	28655
374.324	82501
374.406	69717
374.489	59912
374.571	239044
374.654	123204
374.736	37030
374.819	136224
374.901	192590
374.983	242622
375.066	49195
375.148	14196
375.231	52048
375.313	139406
375.395	56293
375.478	11572
375.560	7300
375.643	9262
375.725	29379
375.807	169615
375.890	174754
375.972	79033
376.054	31984
376.136	62492
376.219	31492
376.301	35831
376.383	161463
376.465	76401
376.548	30566
376.630	35586
376.712	125714
376.794	78890
376.877	9307
376.959	4802
377.041	6426
377.123	13383
377.205	23257
377.287	5562
377.369	3216
377.452	4445
377.534	4343
377.616	5403
377.698	4176
377.780	3842
377.862	5199
377.944	5322
378.026	2389
378.108	3277
378.190	3349
378.272	3839
378.354	2123
378.436	3879
378.518	6643
378.600	32354
378.682	27069
378.764	53584
378.846	56424
378.928	13962
379.010	16973
379.091	10562
379.173	4437
379.255	3798
379.337	6713
379.419	19833
379.501	86655
379.583	45965
379.664	9290
379.746	17400
379.828	50497
379.910	78618
379.991	82607
380.073	17070
380.155	8374
380.237	6998
380.318	4348
380.400	5687
380.482	10042
380.564	19983
380.645	15834
380.727	16027
380.809	11115
380.890	7382
380.972	4907
381.053	5421
381.135	6137
381.217	13906
381.298	59383
381.380	37398
381.461	21529
381.543	105203
381.624	185702
381.706	37782
381.787	13951
381.869	14515
381.951	36738
382.032	205363
382.113	162684
382.195	31559
382.276	15620
382.358	27699
382.439	107911
382.521	119637
382.602	216472
382.684	96190
382.765	140216
382.846	150554
382.928	131913
383.009	84219
383.090	43596
383.172	159133
383.253	322651
383.334	129818
383.416	169348
383.497	106199
383.578	28686
383.659	43795
383.741	136540
383.822	458962
383.903	290137
383.984	96117
384.066	202071
384.147	154251
384.228	30154
384.309	16927
384.390	13543
384.471	8629
384.553	9943
384.634	13684
384.715	16959
384.796	8089
384.877	8952
384.958	44360
385.039	74100
385.120	27242
385.201	10539
385.282	12004
385.363	14330
385.444	11943
385.525	16629
385.606	79432
385.687	96234
385.768	21249
385.849	19901
385.930	75264
386.011	188131
386.092	62004
386.173	12792
386.254	8441
386.335	8304
386.416	8671
386.496	27134
386.577	63608
386.658	26450
386.739	14715
386.820	12563
386.901	11562
386.981	9671
387.062	6552
387.143	9800
387.224	49428
387.304	61571
387.385	19360
387.466	10947
387.547	14984
387.627	9097
387.708	13892
387.789	87394
387.869	147555
387.950	48142
388.031	7336
388.111	6356
388.192	19277
388.273	31821
388.353	21900
388.434	9955
388.514	15247
388.595	87673
388.676	147700
388.756	66878
388.837	50719
388.917	39408
388.998	8381
389.078	6223
389.159	5928
389.239	5591
389.320	9491
389.400	7985
389.480	16141
389.561	64872
389.641	40034
389.722	8860
389.802	16442
389.883	21385
389.963	73787
390.043	61003
390.124	20564
390.204	15924
390.284	62040
390.365	51603
390.445	51813
390.525	186089
390.605	208360
390.686	53860
390.766	14375
390.846	8034
390.927	4420
391.007	5632
391.087	6650
391.167	6765
391.247	5304
391.328	10865
391.408	19231
391.488	14645
391.568	3856
391.648	6191
391.728	10701
391.808	9883
391.888	11559
391.969	25309
392.049	59131
392.129	27913
392.209	20039
392.289	69173
392.369	45941
392.449	33495
392.529	22560
392.609	12340
392.689	14252
392.769	60037
392.849	68454
392.929	28547
393.009	90886
393.089	77241
393.169	22458
393.248	45963
393.328	302909
393.408	465738
393.488	100834
393.568	20687
393.648	13350
393.728	9514
393.807	7824
393.887	8458
393.967	8834
394.047	12124
394.127	17850
394.206	30014
394.286	95299
394.366	490033
394.446	704575
394.525	200525
394.605	44646
394.685	25927
394.764	45411
394.844	82967
394.924	71337
395.003	20025
395.083	12532
395.163	10730
395.242	9639
395.322	10786
395.402	8378
395.481	11412
395.561	26995
395.640	91556
395.720	67282
395.799	98678
395.879	106868
395.958	54352
396.038	148251
396.117	644105
396.197	914941
396.276	319890
396.356	91855
396.435	53330
396.515	31302
396.594	23475
396.673	28130
396.753	64158
396.832	321097
396.912	326395
396.991	88560
397.070	18760
397.150	11276
397.229	8119
397.308	6165
397.388	7908
397.467	7150
397.546	4791
397.625	3874
397.705	6932
397.784	8499
397.863	5353
397.942	3373
398.022	4797
398.101	19238
398.180	89575
398.259	58822
398.338	12880
398.417	6776
398.497	4912
398.576	5690
398.655	3321
398.734	3744
398.813	3863
398.892	17243
398.971	96309
399.050	65781
399.129	8194
399.208	3007
399.287	4502
399.366	3266
399.445	3546
399.524	2842
399.603	2791
399.682	7473
399.761	20986
399.840	94209
399.919	102914
399.998	15645
400.077	3800
400.156	2249
400.235	4716
400.313	3382
400.392	4969
400.471	21222
400.550	51997
400.629	17154
400.708	5889
400.786	5460
400.865	17375
400.944	24348
401.023	10803
401.102	2498
401.180	2165
401.259	2810
401.338	4515
401.416	5935
401.495	5456
401.574	5402
401.652	3783
401.731	5217
401.810	4503
401.888	2367
401.967	1513
402.046	2664
402.124	4218
402.203	7970
402.281	4901
402.360	5163
402.438	22315
402.517	22493
402.596	5529
402.674	5627
402.753	3329
402.831	2533
402.910	2573
402.988	8343
403.066	33253
403.145	25012
403.223	10676
403.302	26655
403.380	20292
403.459	17191
403.537	9217
403.615	4364
403.694	584
403.772	1751
403.850	1787
403.929	1143
404.007	937
404.085	4921
404.164	4445
404.242	2914
404.320	9488
404.398	43836
404.477	57674
404.555	141972
404.633	177236
404.711	49222
404.789	26598
404.868	6757
404.946	2037
405.024	1442
405.102	1692
405.180	1851
405.258	858
405.336	2278
405.415	1713
405.493	7828
405.571	6171
405.649	1343
405.727	1184
405.805	5616
405.883	5072
405.961	4881
406.039	8457
406.117	3837
406.195	4838
406.273	20702
406.351	125448
406.429	102166
406.507	15442
406.585	6117
406.663	3055
406.740	4798
406.818	4963
406.896	3178
406.974	3104
407.052	6152
407.130	55744
407.208	123290
407.285	29499
407.363	4322
407.441	3512
407.519	2597
407.596	2981
407.674	8389
407.752	26481
407.830	37369
407.907	17365
407.985	4515
408.063	2601
408.141	1474
408.218	5304
408.296	5785
408.373	2737
408.451	2644
408.529	3284
408.606	1099
408.684	1404
408.762	965
408.839	518
408.917	-190
408.994	249
409.072	1152
409.149	922
409.227	1932
409.304	2193
409.382	877
409.459	-78
409.537	2036
409.614	2406
409.692	1546
409.769	1160
409.846	2331
409.924	3651
410.001	2916
410.079	3017
410.156	3180
410.233	2211
410.311	3470
410.388	2042
410.465	2115
410.543	3081
410.620	1390
410.697	1352
410.775	4232
410.852	348
410.929	2507
411.006	5027
411.083	1697
411.161	6892
411.238	9383
411.315	5891
411.392	1834
411.469	2670
411.547	4761
411.624	1613
411.701	1966
411.778	2352
411.855	7705
411.932	4719
412.009	1897
412.086	1950
412.163	2740
412.240	3599
412.317	5268
412.394	4971
412.471	2347
412.548	596
412.625	2333
412.702	2679
412.779	7523
412.856	5477
412.933	1716
413.010	1102
413.087	3444
413.164	18913
413.241	41056
413.318	11555
413.395	4050
413.471	7227
413.548	4186
413.625	1497
413.702	2789
413.779	3315
413.855	1277
413.932	362
414.009	436
414.086	1127
414.162	1472
414.239	3200
414.316	17274
414.393	59850
414.469	29109
414.546	3052
414.623	1413
414.699	1077
414.776	3223
414.853	1437
414.929	1914
415.006	1569
415.082	3305
415.159	2719
415.236	1877
415.312	1877
415.389	5028
415.465	7671
415.542	4384
415.618	1421
415.695	5171
415.771	3244
415.848	2924
415.924	3320
416.000	2521
416.077	1402
416.153	-347
416.230	-20
416.306	167
416.383	1856
416.459	1793
416.535	652
416.612	491
416.688	830
416.764	1060
416.841	661
416.917	1098
416.993	1392
417.069	2369
417.146	3462
417.222	8393
417.298	5471
417.374	2126
417.451	2674
417.527	2855
417.603	4135
417.679	2759
417.755	2712
417.831	731
417.908	405
417.984	957
418.060	883
418.136	5127
418.212	9523
418.288	3251
418.364	1409
418.440	1304
418.516	3660
418.592	5872
418.668	10604
418.744	16122
418.820	14618
418.896	3813
418.972	1158
419.048	1236
419.124	5615
419.200	5774
419.276	2281
419.352	-517
419.428	1311
419.504	408
419.579	3048
419.655	2193
419.731	2116
419.807	7736
419.883	19172
419.959	16176
420.034	4580
420.110	4761
420.186	29373
420.262	35377
420.337	6390
420.413	2922
420.489	1138
420.565	971
420.640	134
420.716	762
420.792	-448
420.867	2220
420.943	1059
421.019	3976
421.094	4237
421.170	1345
421.245	111
421.321	758
421.397	1674
421.472	3138
421.548	12631
421.623	12032
421.699	2842
421.774	2217
421.850	1745
421.925	5053
422.001	4895
422.076	2773
422.152	1499
422.227	4853
422.302	5808
422.378	5096
422.453	8333
422.529	18264
422.604	79789
422.679	274296
422.755	180193
422.830	37034
422.905	9343
422.981	4591
423.056	3077
423.131	2611
423.207	1747
423.282	1948
423.357	8384
423.432	7030
423.508	3981
423.583	13173
423.658	14584
423.733	4044
423.808	3680
423.883	4810
423.959	3521
424.034	1695
424.109	1848
424.184	730
424.259	585
424.334	305
424.409	213
424.484	1101
424.559	1715
424.634	1352
424.709	2731
424.784	4060
424.859	2568
424.934	3385
425.009	18203
425.084	41459
425.159	21069
425.234	3367
425.309	232
425.384	5681
425.459	16997
425.534	6876
425.609	1967
425.683	1857
425.758	708
425.833	1909
425.908	2518
425.983	7823
426.058	39747
426.132	24530
426.207	4886
426.282	5723
426.357	7018
426.431	2487
426.506	1922
426.581	2016
426.655	2843
426.730	2403
426.805	1456
426.879	2374
426.954	1425
427.029	5194
427.103	28302
427.178	106764
427.253	67664
427.327	8644
427.402	5774
427.476	20350
427.551	13177
427.625	3963
427.700	4066
427.774	1784
427.849	2805
427.923	1760
427.998	884
428.072	957
428.147	4453
428.221	12148
428.296	28550
428.370	16387
428.444	3480
428.519	6339
428.593	16418
428.667	17454
428.742	17896
428.816	15555
428.890	23560
428.965	43114
429.039	22502
429.113	22442
429.188	9983
429.262	2251
429.336	3042
429.410	17627
429.485	15880
429.559	12788
429.633	15214
429.707	3376
429.781	4709
429.855	32192
429.930	58461
430.004	44300
430.078	83154
430.152	79275
430.226	40069
430.300	46836
430.374	10109
430.448	5237
430.522	17438
430.596	85826
430.670	61043
430.744	48256
430.818	126775
430.892	42413
430.966	5534
431.040	3050
431.114	1161
431.188	1216
431.262	1481
431.336	1826
431.410	5513
431.484	21750
431.557	19087
431.631	2449
431.705	690
431.779	2396
431.853	17549
431.927	18070
432.000	3548
432.074	1166
432.148	3266
432.222	4145
432.295	1992
432.369	1580
432.443	3749
432.516	26648
432.590	111816
432.664	62275
432.737	7192
432.811	1908
432.885	707
432.958	1087
433.032	729
433.106	679
433.179	419
433.253	288
433.326	394
433.400	143
433.473	68
433.547	-184
433.620	456
433.694	3205
433.767	4932
433.841	2217
433.914	-128
433.988	338
434.061	1712
434.134	490
434.208	432
434.281	100
434.355	728
434.428	1154
434.501	1152
434.575	623
434.648	1025
434.721	374
434.795	46
434.868	729
434.941	-475
435.014	-438
435.088	-258
435.161	1540
435.234	2321
435.307	5321
435.381	2314
435.454	763
435.527	465
435.600	100
435.673	1111
435.746	468
435.819	288
435.892	1340
435.966	198
436.039	556
436.112	224
436.185	-317
436.258	71
436.331	-122
436.404	-371
436.477	-274
436.550	455
436.623	114
436.696	107
436.769	753
436.842	1179
436.915	1421
436.987	2778
437.060	1736
437.133	334
437.206	720
437.279	1246
437.352	173
437.425	-300
437.498	969
437.570	3870
437.643	5164
437.716	1388
437.789	619
437.861	2725
437.934	11292
438.007	8002
438.080	2185
438.152	1921
438.225	5453
438.298	33863
438.370	158662
438.443	95291
438.516	18268
438.588	4543
438.661	1135
438.734	1599
438.806	1894
438.879	2260
438.951	2287
439.024	6150
439.096	3737
439.169	1363
439.241	556
439.314	23
439.386	2911
439.459	6115
439.531	8392
439.604	4875
439.676	752
439.749	629
439.821	723
439.893	860
439.966	707
440.038	1322
440.110	2401
440.183	1603
440.255	818
440.327	2815
440.400	12875
440.472	81811
440.544	86388
440.617	12800
440.689	5167
440.761	5036
440.833	9282
440.905	7980
440.978	2300
441.050	111
441.122	561
441.194	-414
441.266	1475
441.338	253
441.411	2402
441.483	17176
441.555	43830
441.627	13339
441.699	5227
441.771	5966
441.843	1728
441.915	74
441.987	758
442.059	101
442.131	1603
442.203	3001
442.275	3516
442.347	3606
442.419	1908
442.491	4327
442.563	14362
442.635	12833
442.706	17813
442.778	20984
442.850	3632
442.922	514
442.994	994
443.066	4273
443.137	2817
443.209	519
443.281	1633
443.353	3564
443.425	9165
443.496	25553
443.568	31564
443.640	13853
443.711	4593
443.783	1253
443.855	1607
443.926	259
443.998	1137
444.070	3355
444.141	2908
444.213	3221
444.285	5154
444.356	4422
444.428	4809
444.499	1685
444.571	80
444.642	1
444.714	365
444.785	3329
444.857	4154
444.928	13849
445.000	11192
445.071	8060
445.143	12404
445.214	4788
445.285	5584
445.357	20163
445.428	27780
445.500	56670
445.571	54438
445.642	21368
445.714	13217
445.785	27348
445.856	10095
445.928	5162
445.999	4854
446.070	3691
446.141	2732
446.213	4860
446.284	2652
446.355	3565
446.426	2105
446.497	1392
446.569	4075
446.640	6488
446.711	6141
446.782	2342
446.853	3132
446.924	4029
446.995	2210
447.066	2020
447.138	5413
447.209	4242
447.280	615
447.351	864
447.422	465
447.493	2087
447.564	2880
447.635	4404
447.706	2236
447.777	618
447.847	681
447.918	667
447.989	2257
448.060	3828
448.131	9850
448.202	11279
448.273	6147
448.344	3725
448.414	1866
448.485	1302
448.556	838
448.627	856
448.698	1328
448.768	-140
448.839	1337
448.910	4581
448.981	6335
449.051	2348
449.122	1760
449.193	155
449.263	1141
449.334	1592
449.405	2349
449.475	6641
449.546	5763
449.616	5961
449.687	7425
449.758	3028
449.828	1541
449.899	787
449.969	1183
450.040	1263
450.110	3335
450.181	3184
450.251	1692
450.322	1304
450.392	2091
450.463	1583
450.533	1375
450.604	1803
450.674	951
450.744	1900
450.815	1359
450.885	1684
450.955	688
451.026	792
451.096	1539
451.166	2032
451.237	4648
451.307	18323
451.377	10556
451.447	1606
451.518	983
451.588	1208
451.658	1198
451.728	2221
451.799	14651
451.869	25953
451.939	8049
452.009	1937
452.079	1315
452.149	1348
452.219	3466
452.289	18715
452.360	22422
452.430	4651
452.500	2142
452.570	3131
452.640	3487
452.710	7060
452.780	20280
452.850	13612
452.920	11912
452.990	5112
453.060	2756
453.129	3946
453.199	4940
453.269	15580
453.339	61232
453.409	106939
453.479	75100
453.549	120236
453.619	139236
453.688	74547
453.758	13689
453.828	4092
453.898	2960
453.968	1799
454.037	1641
454.087	2106
454.107	2296
454.168	1828
454.177	1756
454.247	1272
454.249	1298
454.316	1817
454.330	1766
454.386	1587
454.411	3832
454.456	7492
454.492	12922
454.525	17752
454.574	10667
454.595	7623
454.655	2974
454.665	2223
454.734	2499
454.736	2555
454.804	4590
454.817	6427
454.873	13810
454.898	18198
454.943	26010
454.979	18959
455.013	12652
455.060	6610
455.082	3973
455.141	3421
455.152	3322
455.221	9354
455.222	9585
455.291	27849
455.303	27425
455.360	24872
455.384	34127
455.430	49366
455.465	44902
455.499	40863
455.546	26934
455.569	20523
455.627	16578
455.638	15921
455.707	4033
455.708	4025
455.777	1664
455.789	1729
455.846	1996
455.869	1660
455.916	1106
455.950	1288
455.985	1411
456.031	1150
456.054	962
456.112	1274
456.124	1385
456.193	996
456.193	987
456.262	1589
456.274	1765
456.332	2541
456.355	2777
456.401	3049
456.436	2434
456.470	1832
456.516	943
456.540	558
456.597	409
456.609	355
456.678	1286
456.678	1285
456.747	401
456.759	320
456.817	-55
456.840	81
456.886	308
456.920	464
456.955	640
457.001	367
457.024	386
457.082	1640
457.093	1822
457.162	2873
457.163	2884
457.232	4585
457.243	4360
457.301	2671
457.324	2110
457.370	1311
457.405	1138
457.439	1089
457.485	854
457.508	756
457.566	1150
457.577	1215
457.646	865
457.647	881
457.715	1873
457.727	1959
457.784	2407
457.808	2297
457.853	2137
457.889	3124
457.922	3695
457.969	3161
457.991	3057
458.050	2658
458.060	2662
458.129	3436
458.130	3486
458.198	4467
458.211	4187
458.267	2763
458.292	2120
458.336	1228
458.372	998
458.405	1347
458.453	2292
458.474	2640
458.533	3273
458.543	3378
458.611	5439
458.614	5541
458.680	5972
458.694	5371
458.749	3481
458.775	2604
458.818	1477
458.855	1374
458.887	1348
458.936	877
458.955	701
459.016	1186
459.024	1254
459.093	1348
459.097	1346
459.162	1362
459.177	1486
459.230	1926
459.257	2091
459.299	2509
459.338	2718
459.368	2560
459.418	2844
459.437	2913
459.499	2827
459.505	2830
459.574	1497
459.579	1495
459.643	1861
459.659	1870
459.711	1666
459.740	1446
459.780	1334
459.820	1986
459.849	2268
459.900	2207
459.917	2256
459.981	2676
459.986	2677
460.054	2301
460.061	2248
460.123	1825
460.141	1740
460.191	2050
460.222	2532
460.260	3114
460.302	4107
460.328	4240
460.382	3451
460.397	3407
460.462	3123
460.465	3124
460.534	3151
460.543	3206
460.602	8497
460.623	10737
460.671	18146
460.703	25939
460.739	27756
460.783	31138
460.808	29665
460.864	9935
460.876	7875
460.944	3025
460.945	2965
461.013	2180
461.024	2043
461.081	1834
461.104	2068
461.150	2361
461.184	2258
461.218	2273
461.264	2043
461.286	1800
461.345	1432
461.355	1418
461.423	2062
461.425	2061
461.491	1839
461.505	1787
461.559	3176
461.585	3957
461.628	7057
461.665	10405
461.696	12477
461.745	19151
461.764	18459
461.825	10555
461.832	10446
461.901	3582
461.905	3483
461.969	2209
461.985	2092
462.037	2210
462.065	2089
462.105	1841
462.145	1942
462.173	3239
462.225	5549
462.241	6112
462.305	9899
462.310	9816
462.378	9363
462.385	8736
462.446	4561
462.465	3450
462.514	2135
462.545	2215
462.582	2164
462.625	2171
462.650	2298
462.705	1771
462.718	1701
462.785	2257
462.786	2281
462.854	3400
462.865	3630
462.922	5157
462.945	6143
462.990	5569
463.025	4139
463.058	3248
463.104	1848
463.126	1729
463.184	1813
463.194	1811
463.262	1991
463.264	2007
463.330	2218
463.344	2252
463.398	2639
463.424	2708
463.466	2591
463.504	2689
463.533	2658
463.583	2374
463.601	2601
463.663	3403
463.669	3398
463.737	3444
463.743	3469
463.805	5448
463.823	5990
463.873	10009
463.903	12769
463.940	14660
463.982	17748
464.008	15698
464.062	9071
464.076	8375
464.142	3002
464.144	2945
464.211	2774
464.221	2841
464.279	2522
464.301	2412
464.347	2686
464.381	2900
464.414	3062
464.461	3396
464.482	3779
464.540	4963
464.550	4893
464.617	4134
464.620	4101
464.685	3872
464.699	3803
464.753	5598
464.779	6525
464.820	6566
464.859	6907
464.888	6853
464.938	6440
464.956	6604
465.018	7216
465.023	7132
465.091	5836
465.098	5681
465.158	5365
465.177	5291
465.226	5496
465.257	5761
465.293	5600
465.336	5329
465.361	5791
465.416	6767
465.428	7003
465.495	8463
465.496	8502
465.563	13477
465.575	14373
465.631	18436
465.654	20640
465.698	15676
465.734	10471
465.765	8945
465.813	5948
465.833	5543
465.893	5518
465.900	5478
465.968	5225
465.972	5194
466.035	5975
466.052	6241
466.102	6182
466.131	6043
466.170	6036
466.210	6113
466.237	6477
466.290	7128
466.304	7352
466.369	8367
466.372	8373
466.439	8336
466.449	8312
466.506	9545
466.528	10031
466.573	11223
466.607	12081
466.641	16859
466.687	23529
466.708	26210
466.766	33809
466.775	31995
466.842	18321
466.845	17633
466.909	12788
466.925	11718
466.977	11130
467.004	10945
467.044	10482
467.083	10010
467.111	11158
467.163	13306
467.178	13410
467.242	13775
467.245	13702
467.312	11939
467.321	11696
467.379	10960
467.400	10674
467.446	10800
467.480	10874
467.559	10195
467.638	8165
467.717	9041
467.796	8327
467.875	8932
467.955	8302
468.034	10289
468.113	23430
468.192	36098
468.271	15281
468.350	6791
468.429	7327
468.508	7258
468.588	5720
468.667	6658
468.746	6702
468.825	6777
468.904	6037
468.983	7150
469.062	10342
469.141	12393
469.220	6717
469.299	5345
469.378	6989
469.456	9172
469.535	8788
469.614	7722
469.693	6987
469.772	9501
469.851	10560
469.930	10429
470.009	6790
470.088	5696
470.166	7231
470.245	7540
470.324	9931
470.403	7056
470.482	6714
470.560	5396
470.639	6343
470.718	7599
470.797	5707
470.875	7219
470.954	8941
471.033	10416
471.111	5906
471.190	5212
471.269	4067
471.347	5510
471.426	5121
471.505	6956
471.583	8016
471.662	6809
471.740	6359
471.819	5253
471.898	5392
471.976	6509
472.055	6225
472.133	6006
472.212	8724
472.290	8876
472.369	6527
472.447	5702
472.526	4967
472.604	5841
472.683	5204
472.761	6374
472.839	5465
472.918	5800
472.996	5165
473.075	6139
473.153	6303
473.231	4798
473.310	5930
473.388	6343
473.466	5485
473.545	5980
473.623	7529
473.701	8181
473.780	5786
473.858	4919
473.936	6445
474.014	4976
474.093	5759
474.171	7725
474.249	12313
474.327	8599
474.405	4802
474.484	4264
474.562	5096
474.640	4127
474.718	5431
474.796	6381
474.874	6267
474.952	4822
475.030	4957
475.108	5755
475.187	7613
475.265	7259
475.343	7050
475.421	8101
475.499	5022
475.577	5467
475.655	6936
475.733	12213
475.811	19588
475.889	20531
475.966	16643
476.044	4907
476.122	4737
476.200	5834
476.278	5197
476.356	4086
476.434	3953
476.512	4708
476.590	5866
476.667	6316
476.745	3830
476.823	4639
476.901	4381
476.979	3811
477.056	4501
477.134	4821
477.212	4515
477.290	4632
477.367	4105
477.445	3796
477.523	4175
477.601	3650
477.678	3650
477.756	4946
477.834	6032
477.911	4192
477.989	4142
478.066	3272
478.144	4051
478.222	5106
478.299	5326
478.377	5626
478.454	4114
478.532	3446
478.609	2997
478.687	4220
478.764	2796
478.842	2949
478.919	3984
478.997	4026
479.074	3730
479.152	4444
479.229	6899
479.307	4034
479.384	2158
479.461	2724
479.539	3012
479.616	4837
479.694	2984
479.771	3851
479.848	3743
479.926	4789
480.003	8300
480.080	3730
480.157	3628
480.235	2413
480.312	3105
480.389	3883
480.467	5686
480.544	9097
480.621	4420
480.698	3233
480.775	3949
480.853	3979
480.930	3245
481.007	4015
481.084	4046
481.161	4352
481.238	5056
481.315	2456
481.392	2600
481.470	2818
481.547	2428
481.624	3336
481.701	3371
481.778	3588
481.855	3163
481.932	5414
482.009	10023
482.086	9032
482.163	3473
482.240	3433
482.317	5343
482.393	6394
482.470	3788
482.547	2958
482.624	2538
482.701	3007
482.778	3553
482.855	2688
482.932	3443
483.009	2851
483.085	2910
483.162	3627
483.239	4382
483.316	2165
483.393	2771
483.469	2391
483.546	2789
483.623	4498
483.699	2365
483.776	3006
483.853	3375
483.930	5465
484.006	14739
484.083	31740
484.160	23457
484.236	32040
484.313	26890
484.389	18830
484.466	15421
484.543	13923
484.619	14434
484.696	14179
484.772	14918
484.849	16267
484.925	13759
485.002	13154
485.078	13698
485.155	14104
485.231	14526
485.308	12640
485.384	12388
485.461	14228
485.537	21709
485.614	28533
485.690	14997
485.766	12684
485.843	12912
485.919	14240
485.995	17882
486.072	11670
486.148	11189
486.224	10306
486.301	10738
486.377	12687
486.453	12931
486.530	12334
486.606	16488
486.682	20851
486.758	20665
486.835	24978
486.911	18144
486.987	27235
487.063	29672
487.139	31425
487.215	25855
487.292	15638
487.368	12125
487.444	12572
487.520	14459
487.596	13834
487.672	12344
487.748	17735
487.824	26035
487.900	16033
487.976	11108
488.052	11323
488.128	14157
488.204	13073
488.280	11565
488.356	11845
488.432	20407
488.508	38083
488.584	19027
488.660	10529
488.736	11440
488.812	9716
488.888	13118
488.964	15047
489.039	25182
489.115	42518
489.191	34299
489.267	12432
489.343	11514
489.418	9119
489.494	9121
489.570	7926
489.646	9861
489.722	8307
489.797	9516
489.873	11420
489.949	24966
490.024	28899
490.100	10386
490.176	8133
490.251	9420
490.327	11369
490.403	9033
490.478	8042
490.554	6697
490.629	7522
490.705	6862
490.781	8275
490.856	7822
490.932	7845
491.007	8222
491.083	8881
491.158	8127
491.234	8655
491.309	17944
491.385	23845
491.460	9884
491.536	7618
491.611	7413
491.686	7918
491.762	8884
491.837	15252
491.913	28915
491.988	36424
492.063	55128
492.139	21101
492.214	12832
492.289	5956
492.365	5992
492.440	7433
492.515	6802
492.590	7950
492.666	5465
492.741	6472
492.816	11880
492.891	8488
492.967	6253
493.042	5365
493.117	6857
493.192	7883
493.267	11940
493.342	44837
493.418	90742
493.493	22386
493.568	5623
493.643	5301
493.718	6628
493.793	8877
493.868	10480
493.943	7123
494.018	5161
494.093	4650
494.168	4576
494.243	4123
494.318	4318
494.393	4255
494.468	4222
494.543	4506
494.618	5711
494.693	5360
494.768	4467
494.842	5339
494.917	3201
494.992	4259
495.067	4385
495.142	3767
495.217	4932
495.292	4100
495.366	4940
495.441	6191
495.516	8445
495.591	9660
495.665	26884
495.740	82763
495.815	54153
495.890	8705
495.964	4580
496.039	7096
496.114	6633
496.188	6103
496.263	7440
496.338	6155
496.412	6789
496.487	8931
496.561	8117
496.636	9733
496.710	7384
496.785	7133
496.860	9965
496.934	7478
497.009	8155
497.083	8914
497.158	8663
497.232	10621
497.307	12467
497.381	12163
497.455	12939
497.530	17570
497.604	15119
497.679	15284
497.753	22648
497.827	34262
497.902	37220
497.976	37789
498.050	52794
498.125	182286
498.199	289740
498.273	68633
498.348	45573
498.422	36705
498.496	30656
498.570	26653
498.645	20992
498.719	18494
498.793	19219
498.867	23913
498.941	29341
499.016	58067
499.090	212010
499.164	138434
499.238	13928
499.312	8568
499.386	10014
499.460	10040
499.534	8344
499.609	9660
499.683	13962
499.757	16811
499.831	23395
499.905	111554
499.979	176355
500.053	28080
500.127	17841
500.201	12977
500.275	8737
500.349	7601
500.422	8416
500.496	10686
500.570	20339
500.644	54193
500.718	146487
500.792	60912
500.866	7855
500.940	9619
501.013	8858
501.087	6841
501.161	11778
501.235	16943
501.309	30736
501.382	97174
501.456	137907
501.530	26963
501.603	34496
501.677	22130
501.751	6293
501.825	6877
501.898	10651
501.972	37535
502.046	39659
502.119	7530
502.193	14018
502.266	43956
502.340	33735
502.413	16108
502.487	40892
502.561	28267
502.634	9336
502.708	5071
502.781	4727
502.855	3552
502.928	2545
503.002	3151
503.075	3764
503.149	2758
503.222	4142
503.295	4318
503.369	6590
503.442	7498
503.516	21193
503.589	76027
503.662	71562
503.736	18968
503.809	30939
503.882	36274
503.956	36017
504.029	49499
504.102	14712
504.175	13607
504.249	6678
504.322	4800
504.395	5772
504.468	3313
504.542	4274
504.615	2947
504.688	2936
504.761	2532
504.834	4167
504.907	5025
504.980	8194
505.053	5465
505.127	3273
505.200	6966
505.273	6320
505.346	4926
505.419	2722
505.492	2307
505.565	1893
505.638	1609
505.711	2168
505.784	1487
505.857	2061
505.930	3499
506.003	2525
506.076	3348
506.149	3458
506.221	5368
506.294	5695
506.367	10987
506.440	52148
506.513	49524
506.586	7228
506.659	3621
506.731	2350
506.804	2411
506.877	5321
506.950	4498
507.022	1680
507.095	2746
507.168	5809
507.241	4068
507.313	2251
507.386	1933
507.459	3822
507.531	2682
507.604	1666
507.677	2922
507.749	699
507.822	2642
507.894	6685
507.967	13108
508.040	7986
508.112	5604
508.185	4665
508.257	4150
508.330	6120
508.402	5526
508.475	5092
508.547	5391
508.620	4721
508.692	7880
508.765	6109
508.837	4049
508.909	3461
508.982	3761
509.054	3986
509.127	3694
509.199	3121
509.271	3217
509.344	3073
509.416	3341
509.488	2765
509.560	3112
509.633	3644
509.705	3984
509.777	5377
509.849	5873
509.922	4566
509.994	3948
510.066	4316
510.138	3110
510.210	11185
510.283	12239
510.355	8968
510.427	7181
510.499	13051
510.571	22359
510.643	6785
510.715	8010
510.787	8382
510.859	6386
510.931	6917
511.003	7095
511.076	9528
511.148	5098
511.219	5225
511.291	6944
511.363	11877
511.435	6146
511.507	3706
511.579	5386
511.651	4779
511.723	4399
511.795	4351
511.867	4132
511.939	4906
512.010	9021
512.082	11550
512.154	5118
512.226	5086
512.298	7126
512.369	12231
512.441	9814
512.513	8927
512.585	6826
512.656	6698
512.728	7266
512.800	6878
512.871	5609
512.943	5987
513.015	4478
513.086	5096
513.158	5742
513.230	5695
513.301	7214
513.373	9629
513.444	6562
513.516	4825
513.588	4675
513.659	5142
513.731	7401
513.802	4809
513.874	8507
513.945	18633
514.016	9225
514.088	4475
514.159	5000
514.231	6358
514.302	11284
514.374	8280
514.445	7492
514.516	12299
514.588	12425
514.659	7391
514.730	11174
514.802	13661
514.873	10175
514.944	14935
515.016	9386
515.087	8281
515.158	9379
515.229	16372
515.301	16571
515.372	23756
515.443	13876
515.514	8430
515.585	5395
515.656	5550
515.728	5302
515.799	4215
515.870	5122
515.941	5438
516.012	4697
516.083	7003
516.154	7500
516.225	10413
516.296	8540
516.367	7516
516.438	7483
516.509	9813
516.580	11634
516.651	22414
516.722	94891
516.793	84720
516.864	14895
516.935	13629
517.006	13151
517.077	16505
517.148	30462
517.219	80656
517.289	209531
517.360	90838
517.431	43731
517.502	7988
517.573	6647
517.643	7041
517.714	7643
517.785	9054
517.856	7294
517.926	10390
517.997	10855
518.068	12911
518.138	16415
518.209	19987
518.280	51717
518.350	259602
518.421	190622
518.492	20746
518.562	9664
518.633	8422
518.703	6308
518.774	8631
518.845	12497
518.915	15700
518.986	10014
519.056	9465
519.127	14188
519.197	22812
519.268	56824
519.338	65529
519.408	12734
519.479	11393
519.549	9454
519.620	6233
519.690	4666
519.760	4992
519.831	3903
519.901	5185
519.971	4432
520.042	4543
520.112	5951
520.182	6884
520.253	6475
520.323	5693
520.393	6100
520.463	12208
520.534	6086
520.604	16840
520.674	10447
520.744	7020
520.814	15164
520.885	19465
520.955	14997
521.025	69603
521.095	55868
521.165	7865
521.235	4838
521.305	4254
521.375	4315
521.445	4013
521.515	5387
521.585	6274
521.655	7231
521.725	6940
521.795	12593
521.865	8750
521.935	7269
522.005	7131
522.075	4240
522.145	4774
522.215	4218
522.285	6906
522.355	8631
522.424	16812
522.494	19192
522.564	8893
522.634	10784
522.704	35806
522.774	24966
522.843	4584
522.913	3353
522.983	5293
523.053	4988
523.122	4049
523.192	5395
523.262	15533
523.331	25854
523.401	5893
523.471	2922
523.540	3306
523.610	1671
523.680	2553
523.749	2168
523.819	2966
523.888	4152
523.958	2612
524.027	2729
524.097	2560
524.166	2303
524.236	2652
524.305	4020
524.375	2128
524.444	1428
524.514	3389
524.583	2453
524.653	3748
524.722	4557
524.791	3611
524.861	2796
524.930	2636
524.999	2114
525.069	4306
525.138	3495
525.207	4451
525.277	4269
525.346	2969
525.415	2812
525.484	2086
525.554	2894
525.623	3756
525.692	3072
525.761	2787
525.830	1741
525.900	3087
525.969	4155
526.038	4947
526.107	4794
526.176	15822
526.245	16631
526.314	9094
526.383	11691
526.452	13639
526.522	20618
526.591	32678
526.660	20748
526.729	12775
526.797	9772
526.867	17332
526.935	89192
527.004	126271
527.073	59112
527.142	7638
527.211	4487
527.280	4183
527.349	4084
527.418	977
527.487	2299
527.555	830
527.624	1178
527.693	969
527.762	1911
527.831	1340
527.899	1190
527.968	1882
528.037	741
528.106	2419
528.174	5516
528.243	5453
528.312	4853
528.380	11408
528.449	2818
528.518	2237
528.586	223
528.655	1942
528.723	425
528.792	735
528.861	1259
528.929	500
528.998	1831
529.066	1662
529.135	1440
529.203	634
529.272	0
529.340	1532
529.409	1616
529.477	1589
529.545	1606
529.614	3965
529.682	1315
529.751	4026
529.819	5201
529.887	2396
529.956	1024
530.024	2258
530.092	858
530.161	2332
530.229	3173
530.297	3000
530.365	1990
530.434	831
530.502	171
530.570	1555
530.638	-515
530.707	2337
530.775	2037
530.843	798
530.911	1043
530.979	1301
531.047	897
531.115	1567
531.183	271
531.252	1138
531.320	1415
531.388	999
531.456	1791
531.524	-491
531.592	1757
531.660	2192
531.728	822
531.796	1090
531.864	783
531.932	1418
532.000	668
532.067	1465
532.135	1831
532.203	2962
532.271	1315
532.339	4421
532.407	14059
532.475	13852
532.542	4472
532.610	4424
532.678	4891
532.746	17791
532.814	84519
532.881	35988
532.949	4484
533.017	3078
533.084	1109
533.152	1099
533.220	1182
533.287	1067
533.355	1086
533.423	1434
533.490	885
533.558	1312
533.625	1426
533.693	1982
533.761	1701
533.828	2586
533.896	1060
533.963	5449
534.031	8112
534.098	9085
534.166	5622
534.233	2119
534.300	3100
534.368	3283
534.435	1780
534.503	1883
534.570	1966
534.637	1007
534.705	1089
534.772	2298
534.840	1664
534.907	6442
534.974	12471
535.041	3044
535.109	2983
535.176	1151
535.243	1484
535.310	2014
535.378	1243
535.445	1944
535.512	1407
535.579	1515
535.646	348
535.714	1587
535.781	2954
535.848	3461
535.915	3058
535.982	3791
536.049	3308
536.116	4357
536.183	1231
536.250	1902
536.317	2558
536.384	3073
536.451	4704
536.518	5796
536.585	2370
536.652	4470
536.719	6317
536.786	5177
536.853	3837
536.920	5746
536.987	9752
537.053	8692
537.120	27959
537.187	48530
537.254	4438
537.321	1969
537.388	2618
537.454	1745
537.521	1376
537.588	2115
537.654	1533
537.721	2852
537.788	3780
537.855	2726
537.921	1743
537.988	2100
538.055	2480
538.121	2268
538.188	1800
538.254	4169
538.321	9102
538.388	8357
538.454	2470
538.521	2035
538.587	1572
538.654	1884
538.720	1709
538.787	1758
538.853	2045
538.920	2805
538.986	3352
539.053	2767
539.119	2397
539.185	3534
539.252	2756
539.318	5471
539.385	5652
539.451	3688
539.517	4795
539.583	4533
539.650	7411
539.716	27869
539.782	14389
539.849	3591
539.915	3012
539.981	2701
540.047	3162
540.114	3494
540.180	3667
540.246	3318
540.312	4486
540.378	7382
540.444	12591
540.510	8044
540.576	29851
540.643	18100
540.709	2400
540.775	2356
540.841	2335
540.907	4392
540.973	7089
541.039	6989
541.105	7258
541.171	3918
541.237	2167
541.303	2904
541.369	4310
541.435	4426
541.500	8668
541.566	6624
541.632	2611
541.698	2232
541.764	2215
541.830	2353
541.896	1738
541.961	3160
542.027	1652
542.093	2499
542.159	2285
542.224	2201
542.290	5224
542.356	7166
542.421	12678
542.487	6690
542.553	3319
542.618	3275
542.684	3615
542.750	1916
542.815	3687
542.881	5359
542.947	20171
543.012	30398
543.078	3848
543.143	2178
543.209	4164
543.274	2860
543.340	4253
543.405	6799
543.471	17950
543.536	7089
543.602	3218
543.667	1589
543.732	3566
543.798	1695
543.863	2496
543.928	2384
543.994	2300
544.059	2475
544.124	2282
544.190	2107
544.255	2987
544.320	2702
544.386	2018
544.451	4919
544.516	5548
544.581	4753
544.646	10709
544.712	33236
544.777	10132
544.842	3779
544.907	3879
544.972	3566
545.037	3502
545.102	4315
545.168	3840
545.233	4389
545.298	4402
545.363	6030
545.428	6084
545.493	8229
545.558	20821
545.623	15089
545.688	4031
545.753	4460
545.818	2976
545.883	4132
545.947	3637
546.012	4089
546.077	4467
546.142	4448
546.207	3268
546.272	5034
546.337	5682
546.401	4746
546.466	4020
546.531	3570
546.596	4715
546.661	3589
546.725	4942
546.790	3794
546.855	4248
546.919	2639
546.984	3118
547.049	3881
547.113	5199
547.178	3745
547.243	4632
547.307	6075
547.372	5138
547.436	7099
547.501	5174
547.565	4975
547.630	6080
547.695	6189
547.759	6735
547.823	6946
547.888	4587
547.952	4544
548.017	5050
548.081	6007
548.146	7515
548.210	8037
548.274	4770
548.339	4015
548.403	4863
548.468	3963
548.532	3933
548.596	3773
548.660	4700
548.725	5054
548.789	5066
548.853	7959
548.917	6270
548.982	6517
549.046	9128
549.110	4559
549.174	3601
549.238	4292
549.303	3181
549.367	5603
549.431	4587
549.495	4172
549.559	3702
549.623	4647
549.687	5202
549.751	8058
549.815	6561
549.879	7117
549.943	3881
550.007	5634
550.071	5918
550.135	6935
550.199	5668
550.263	5423
550.327	6489
550.391	7719
550.455	7006
550.519	5107
550.582	6637
550.646	7096
550.710	8513
550.774	6186
550.838	5118
550.901	6433
550.965	6710
551.029	7590
551.093	7793
551.156	9442
551.220	15899
551.284	26303
551.347	12196
551.411	17225
551.475	32350
551.538	11678
551.602	5743
551.666	5157
551.729	4125
551.793	4723
551.856	5698
551.920	5118
551.983	6055
552.047	4974
552.110	5535
552.174	5245
552.237	5431
552.301	5560
552.364	4553
552.428	4934
552.491	4203
552.554	5810
552.618	4628
552.681	5496
552.745	5047
552.808	8122
552.871	11890
552.934	9076
552.998	6595
553.061	6605
553.124	6290
553.187	6256
553.251	6312
553.314	7687
553.377	7585
553.440	11622
553.503	27742
553.567	79650
553.630	26562
553.693	6927
553.756	5297
553.819	5693
553.882	4544
553.945	4065
554.008	4689
554.071	3867
554.134	4660
554.197	3560
554.260	3419
554.323	5569
554.386	4908
554.449	4441
554.512	5545
554.575	3497
554.638	4346
554.701	4693
554.764	3452
554.827	4668
554.889	4066
554.952	4471
555.015	2927
555.078	4365
555.141	4256
555.203	4267
555.266	3808
555.329	4014
555.391	3295
555.454	4225
555.517	4004
555.580	4333
555.642	2281
555.705	3391
555.768	3947
555.830	4626
555.893	3335
555.955	3651
556.018	3774
556.080	3890
556.143	3546
556.206	3678
556.268	3594
556.330	4569
556.393	3714
556.455	4193
556.518	6326
556.580	8454
556.643	3726
556.705	3328
556.767	3177
556.830	3683
556.892	4221
556.955	6110
557.017	6635
557.079	4193
557.142	4187
557.204	4561
557.266	9087
557.328	10446
557.391	4331
557.453	3195
557.515	3644
557.577	4094
557.639	5079
557.701	3373
557.764	2423
557.826	2881
557.888	5102
557.950	3388
558.012	3988
558.074	4306
558.136	5952
558.198	13207
558.260	10698
558.322	4781
558.384	3559
558.446	6712
558.508	5104
558.570	8022
558.632	11013
558.694	20115
558.756	15541
558.818	21902
558.880	76605
558.942	41225
559.003	15803
559.065	11807
559.127	5450
559.189	5268
559.251	6266
559.312	6523
559.374	11534
559.436	39126
559.498	35955
559.559	7091
559.621	6119
559.683	6501
559.744	9353
559.806	18884
559.868	36642
559.929	13563
559.991	7716
560.052	7485
560.114	12742
560.176	13685
560.237	8783
560.299	16076
560.360	8256
560.422	4676
560.483	5388
560.545	5219
560.606	4520
560.667	5095
560.729	3875
560.790	4478
560.852	4683
560.913	4417
560.974	4568
561.036	3950
561.097	3935
561.158	4775
561.220	5020
561.281	4878
561.342	4613
561.403	6483
561.465	5734
561.526	13047
561.587	24597
561.648	9928
561.709	4642
561.771	5291
561.832	5061
561.893	4919
561.954	5237
562.015	4765
562.076	4825
562.137	5518
562.198	5197
562.259	5182
562.320	4341
562.381	4861
562.442	6909
562.503	8017
562.564	5137
562.625	4625
562.686	4261
562.747	5265
562.808	5373
562.869	5418
562.930	6797
562.991	6956
563.051	6298
563.112	5284
563.173	5928
563.234	5145
563.294	5297
563.355	4552
563.416	5703
563.477	5645
563.537	6099
563.598	6351
563.659	5566
563.720	5888
563.780	6212
563.841	6918
563.901	5893
563.962	5928
564.023	5977
564.083	5804
564.144	5585
564.204	6501
564.265	6649
564.325	7119
564.386	12405
564.446	16477
564.507	7057
564.567	5759
564.628	6010
564.688	6238
564.749	6343
564.809	7670
564.869	8434
564.930	6842
564.990	5822
565.050	6199
565.111	6632
565.171	6178
565.231	6670
565.292	6940
565.352	5648
565.412	7893
565.472	7162
565.532	6696
565.593	7118
565.653	7014
565.713	7453
565.773	8542
565.833	8555
565.893	10876
565.953	8552
566.013	8365
566.074	9577
566.134	10656
566.194	14779
566.254	18475
566.314	13505
566.374	10401
566.434	9861
566.494	11090
566.554	11076
566.614	12126
566.673	12249
566.733	11999
566.793	13843
566.853	14352
566.913	16064
566.973	16564
567.033	16674
567.092	15976
567.152	15082
567.212	16109
567.272	16911
567.331	19026
567.391	18518
567.451	19614
567.511	23487
567.570	26370
567.630	20000
567.690	18340
567.749	18679
567.809	20137
567.868	23782
567.928	27375
567.988	32188
568.047	38227
568.107	46608
568.166	63291
568.226	94506
568.285	151053
568.345	149471
568.404	115510
568.464	97365
568.523	87101
568.582	85978
568.642	94148
568.701	109458
568.761	153261
568.820	245112
568.879	288304
568.939	221429
568.998	160389
569.057	116414
569.116	90623
569.176	72479
569.235	59798
569.294	50618
569.353	42765
569.413	37190
569.472	33313
569.531	28898
569.590	27007
569.649	23861
569.708	21468
569.767	21117
569.827	20652
569.886	18957
569.945	16087
570.004	15910
570.063	15605
570.122	14409
570.181	14420
570.240	14179
570.299	16345
570.358	13789
570.417	12596
570.475	11155
570.534	11454
570.593	10118
570.652	10450
570.711	9995
570.770	10911
570.829	10854
570.887	10079
570.946	11387
571.005	10498
571.064	8355
571.122	9353
571.181	10564
571.240	9312
571.299	8307
571.357	8676
571.416	9939
571.475	9710
571.533	10539
571.592	8418
571.650	8750
571.709	8259
571.768	8067
571.826	6965
571.885	7387
571.943	7011
572.002	7658
572.060	8611
572.119	7633
572.177	6686
572.236	7133
572.294	7068
572.352	7613
572.411	6322
572.469	6657
572.528	6493
572.586	6865
572.644	7174
572.703	9300
572.761	8351
572.819	7332
572.877	7025
572.936	6769
572.994	7054
573.052	7250
573.110	6745
573.169	6993
573.227	6362
573.285	6708
573.343	6468
573.401	6845
573.459	7016
573.517	5847
573.576	6927
573.634	6594
573.692	7609
573.750	7278
573.808	6618
573.866	7038
573.924	9061
573.982	9308
574.040	7298
574.098	6125
574.155	6125
574.213	6727
574.271	5860
574.329	6018
574.387	6238
574.445	6358
574.503	5990
574.560	6398
574.618	5703
574.676	5536
574.734	5984
574.792	6608
574.849	6084
574.907	5935
574.965	5720
575.022	6058
575.080	5934
575.138	6200
575.195	7191
575.253	6737
575.311	6918
575.368	6051
575.426	6623
575.483	6386
575.541	6373
575.598	5628
575.656	6849
575.713	7247
575.771	6168
575.828	6263
575.886	6191
575.943	7523
576.001	6202
576.058	6740
576.115	8704
576.173	8492
576.230	8340
576.287	9757
576.345	10055
576.402	7669
576.459	7615
576.517	7098
576.574	8830
576.631	8613
576.688	8290
576.746	7351
576.803	8022
576.860	7972
576.917	7057
576.974	6623
577.031	7688
577.089	7699
577.146	7930
577.203	7986
577.260	8479
577.317	8958
577.374	9061
577.431	10279
577.488	8726
577.545	7356
577.602	8481
577.659	8626
577.716	8352
577.773	9618
577.830	8951
577.886	8463
577.943	8844
578.000	9320
578.057	9197
578.114	9509
578.171	11554
578.227	14652
578.284	13068
578.341	11783
578.398	10059
578.454	10519
578.511	10454
578.568	10551
578.625	9613
578.681	8843
578.738	8194
578.794	8428
578.851	8610
578.908	9051
578.964	8682
579.021	9184
579.077	8889
579.134	8280
579.190	8228
579.247	7826
579.303	9006
579.360	7974
579.416	8054
579.473	7778
579.529	8277
579.586	8460
579.642	9351
579.698	8760
579.755	9289
579.811	9613
579.867	9172
579.924	10160
579.980	10609
580.036	10718
580.093	12891
580.149	15848
580.205	19212
580.261	17341
580.317	14154
580.374	13213
580.430	13062
580.486	12686
580.542	10822
580.598	10299
580.619	10707
580.654	11419
580.692	10227
580.710	9635
580.765	10245
580.767	10264
580.823	9744
580.838	10023
580.879	10764
580.911	10415
580.935	10162
580.984	10319
580.991	10341
581.047	10489
581.057	10647
581.103	11335
581.130	11554
581.159	11787
581.203	12723
581.215	12964
581.270	13519
581.276	13391
581.326	12125
581.349	12009
581.382	11843
581.422	11581
581.438	11459
581.494	11834
581.494	11842
581.550	12376
581.567	12196
581.606	11825
581.640	12104
581.661	12244
581.713	12586
581.717	12609
581.773	10929
581.786	11230
581.829	12281
581.859	11992
581.885	11700
581.932	11993
581.940	12070
581.996	12176
582.004	12336
582.052	12936
582.077	12736
582.107	12593
582.150	13016
582.163	13131
582.219	13789
582.223	13735
582.274	13139
582.296	13217
582.330	13272
582.368	13927
582.386	14188
582.441	13193
582.441	13186
582.497	13804
582.514	13864
582.552	14021
582.587	14691
582.608	15113
582.659	15086
582.663	15075
582.719	14818
582.732	14859
582.774	15053
582.805	15431
582.830	15703
582.877	15874
582.885	15901
582.941	16520
582.950	16617
582.996	17141
583.023	17049
583.052	17130
583.095	18792
583.107	19243
583.162	20437
583.168	20658
583.218	22451
583.240	22020
583.273	21143
583.313	20794
583.328	20598
583.384	19290
583.385	19274
583.439	19095
583.458	19127
583.494	19182
583.531	18847
583.549	18746
583.603	19044
583.605	19055
583.660	19995
583.676	19932
583.715	19735
583.748	20231
583.770	20672
583.820	20571
583.825	20566
583.881	21365
583.893	21368
583.936	21045
583.965	21088
583.991	21227
584.038	21331
584.046	21397
584.101	22048
584.110	22059
584.156	22175
584.183	22850
584.211	23425
584.255	22686
584.266	22546
584.321	23571
584.328	23566
584.376	23669
584.400	24110
584.431	24859
584.472	24655
584.486	24535
584.541	25569
584.545	25535
584.596	25269
584.617	25582
584.651	26321
584.689	27151
584.706	27611
584.761	28828
584.762	28810
584.816	28549
584.834	28770
584.871	29579
584.906	29641
584.926	29749
584.978	31552
584.980	31651
585.035	32089
585.051	32365
585.090	33196
585.123	33614
585.145	33953
585.195	34879
585.200	35008
585.254	36520
585.267	36923
585.309	39113
585.340	40772
585.364	41907
585.412	43319
585.419	43350
585.473	41247
585.484	41182
585.528	42388
585.556	43436
585.583	45311
585.628	48704
585.637	50240
585.692	60410
585.700	62850
585.747	78734
585.772	81580
585.801	73011
585.845	57667
585.856	55562
585.910	49956
585.917	49404
585.965	50076
585.989	49938
586.019	50492
586.061	52029
586.074	52425
586.128	53887
586.133	53853
586.183	55332
586.205	56517
586.237	58267
586.277	59424
586.292	59911
586.346	61436
586.349	61441
586.401	63527
586.421	64109
586.455	65608
586.493	67817
586.509	70678
586.564	80359
586.565	80506
586.618	101715
586.637	108457
586.672	106321
586.709	96801
586.727	91064
586.781	79174
586.781	79316
586.835	82276
586.853	83108
586.889	85389
586.925	87013
586.944	88266
586.996	91118
586.998	91394
587.052	96656
587.068	97788
587.106	101168
587.140	103931
587.161	105968
587.212	110533
587.215	111013
587.269	116835
587.284	118318
587.323	123417
587.356	126984
587.377	129928
587.427	136723
587.431	137580
587.485	146499
587.499	148410
587.539	155292
587.571	160296
587.593	165211
587.643	175786
587.648	177195
587.702	189486
587.715	192308
587.755	205653
587.786	214854
587.810	222748
587.858	238625
587.864	241330
587.917	264224
587.930	269184
587.971	292207
588.001	308654
588.025	324137
588.073	353408
588.079	358573
588.133	400519
588.145	409474
588.187	452613
588.217	482173
588.241	512748
588.288	572573
588.295	583557
588.348	668858
588.360	686347
588.402	774962
588.431	836432
588.456	903671
588.503	1033186
588.510	1060070
588.564	1266632
588.575	1308724
588.617	1543800
588.646	1704989
588.671	1908180
588.718	2298202
588.725	2379968
588.778	2995267
588.789	3115856
588.832	3517517
588.861	3765766
588.886	3662227
588.932	3368184
588.939	3289373
588.993	2495832
589.004	2373222
589.047	3084829
589.075	3554528
589.100	3715332
589.147	3856371
589.154	3796270
589.207	3235040
589.218	3117257
589.261	2819600
589.290	2620688
589.314	2623798
589.361	2638355
589.368	2689424
589.421	3086672
589.433	3167083
589.475	3486813
589.504	3692202
589.528	3525445
589.576	3061950
589.582	3079539
589.635	3233443
589.647	3261869
589.689	3448018
589.718	3500724
589.742	3128483
589.790	2362886
589.795	2306808
589.849	1742961
589.861	1610500
589.902	1373117
589.932	1195175
589.955	1103366
590.004	904891
590.009	894726
590.062	761694
590.075	727447
590.115	658300
590.146	602783
590.168	576545
590.218	513507
590.222	511090
590.275	461754
590.289	447684
590.328	420432
590.360	396249
590.381	383581
590.431	350115
590.435	349603
590.488	323918
590.503	315870
590.541	302459
590.574	289272
590.594	282300
590.645	261894
590.647	262120
590.700	246483
590.716	241263
590.753	233496
590.787	224913
590.806	221326
590.859	208814
590.859	209312
590.912	199525
590.930	195772
590.965	191615
591.001	186245
591.018	183929
591.071	174978
591.072	174327
591.124	169359
591.143	166790
591.177	162640
591.214	157151
591.230	157065
591.283	155172
591.285	154581
591.336	149547
591.356	146894
591.389	145262
591.427	142193
591.442	141119
591.495	135353
591.498	134485
591.547	130583
591.569	128162
591.600	126838
591.640	124123
591.653	124120
591.706	122332
591.711	121738
591.759	120303
591.782	118929
591.811	121201
591.853	123608
591.864	122671
591.917	115618
591.924	114197
591.969	111210
591.995	108912
592.022	108595
592.066	107063
592.075	107658
592.127	109083
592.137	108962
592.180	115814
592.208	119655
592.233	115097
592.279	105038
592.285	104708
592.338	98875
592.350	97202
592.390	94933
592.421	92619
592.443	92539
592.491	91370
592.495	91637
592.548	90872
592.562	90340
592.600	89564
592.633	88298
592.653	88367
592.704	87230
592.705	87686
592.775	85156
592.846	84301
592.916	83551
592.987	84745
593.058	82400
593.128	78461
593.199	75965
593.270	74187
593.341	72864
593.411	72923
593.482	72409
593.553	70236
593.623	69763
593.694	67319
593.764	70679
593.835	67617
593.906	65291
593.976	64579
594.047	66248
594.117	70456
594.188	75987
594.258	62321
594.329	59530
594.399	58762
594.470	59511
594.540	56974
594.611	57200
594.681	55369
594.751	57005
594.822	58176
594.892	59644
594.963	58603
595.033	58435
595.103	56267
595.174	58915
595.244	72755
595.314	103166
595.384	67095
595.455	52929
595.525	54233
595.595	53428
595.665	54070
595.736	52723
595.806	51114
595.876	51407
595.946	51110
596.016	48945
596.087	50391
596.157	48705
596.227	49043
596.297	50014
596.367	51345
596.437	54062
596.507	64797
596.577	90180
596.647	62576
596.717	48807
596.787	49181
596.857	48002
596.927	46549
596.997	47727
597.067	48284
597.137	50148
597.207	50236
597.277	47213
597.347	48419
597.417	47150
597.487	46020
597.557	47690
597.626	46913
597.696	50960
597.766	57723
597.836	77116
597.906	62447
597.975	45900
598.045	44574
598.115	45400
598.185	43301
598.254	46115
598.324	46188
598.394	47627
598.464	46177
598.533	47037
598.603	42287
598.672	43804
598.742	43814
598.812	43110
598.881	43826
598.951	42193
599.020	41450
599.090	42028
599.159	41182
599.229	41391
599.299	40846
599.368	41674
599.437	40690
599.507	40640
599.576	43015
599.646	42798
599.715	43844
599.785	41736
599.854	43509
599.924	48579
599.993	47343
600.062	41894
600.132	40313
600.201	40488
600.270	43388
600.340	43466
600.409	41069
600.478	41650
600.547	40313
600.617	41107
600.686	40830
600.755	39736
600.824	41087
600.894	40533
600.963	38038
601.032	37299
601.101	37224
601.170	37495
601.239	37309
601.308	39074
601.378	37674
601.447	37534
601.516	36326
601.585	37094
601.654	37857
601.723	38396
601.792	38191
601.861	39738
601.930	43232
601.999	44021
602.068	39248
602.137	37873
602.206	38999
602.275	39480
602.343	43401
602.412	44104
602.481	40371
602.550	37045
602.619	37620
602.688	38118
602.756	39097
602.825	37469
602.894	36994
602.963	36574
603.032	36227
603.100	36499
603.169	36186
603.238	36259
603.307	36178
603.375	36434
603.444	36885
603.513	36257
603.581	35381
603.650	36178
603.719	35067
603.787	34353
603.856	35779
603.924	34678
603.993	37338
604.061	34725
604.130	35399
604.198	36310
604.267	36867
604.335	34676
604.404	34897
604.472	35636
604.541	35701
604.609	35366
604.678	35127
604.746	35529
604.815	35856
604.883	36583
604.951	36649
605.020	36300
605.088	36488
605.156	36410
605.225	35969
605.293	35235
605.361	36408
605.429	36608
605.498	34840
605.566	38247
605.634	36570
605.702	36667
605.771	36219
605.839	38376
605.907	36144
605.975	35736
606.043	36034
606.111	36198
606.180	35922
606.248	38437
606.316	44209
606.384	38931
606.452	44829
606.520	44407
606.588	40326
606.656	32830
606.724	32040
606.792	31700
606.860	30237
606.928	29282
606.996	28710
607.064	28530
607.132	28057
607.200	29642
607.267	29301
607.335	29325
607.403	29574
607.471	30316
607.539	29355
607.607	29641
607.674	28205
607.742	29080
607.810	30760
607.878	29890
607.946	28115
608.013	28875
608.081	29500
608.149	30600
608.216	28668
608.284	29883
608.352	28712
608.419	31543
608.487	43155
608.555	41072
608.622	28574
608.690	28523
608.757	28878
608.825	31569
608.893	31025
608.960	34148
609.028	41247
609.095	49982
609.163	40076
609.230	30406
609.298	30636
609.365	27934
609.432	28226
609.500	29062
609.567	30403
609.635	33854
609.702	34270
609.769	34682
609.837	37739
609.904	35486
609.971	31459
610.039	35071
610.106	43954
610.173	70953
610.241	146831
610.308	235508
610.375	194157
610.442	70471
610.509	39579
610.577	33366
610.644	31093
610.711	30146
610.778	29827
610.845	30799
610.912	30987
610.980	33455
611.047	41260
611.114	40147
611.181	30563
611.248	28434
611.315	28980
611.382	28763
611.449	28894
611.516	30193
611.583	29601
611.650	30879
611.717	30903
611.784	29853
611.851	31303
611.918	34581
611.984	38658
612.051	47220
612.118	78587
612.185	178180
612.252	219148
612.319	58025
612.386	37230
612.452	34825
612.519	36294
612.586	47465
612.653	47557
612.719	33201
612.786	30954
612.853	30549
612.919	27771
612.986	29226
613.053	29003
613.120	26978
613.186	25217
613.253	28913
613.319	26619
613.386	27151
613.453	28246
613.519	31216
613.586	34401
613.652	50289
613.719	42851
613.785	43101
613.852	30185
613.918	29230
613.985	30314
614.051	36964
614.118	65489
614.184	97744
614.250	38280
614.317	29649
614.383	26263
614.449	27651
614.516	26557
614.582	29504
614.648	30012
614.715	27361
614.781	28646
614.847	28555
614.914	31180
614.980	32482
615.046	30345
615.112	31868
615.179	34992
615.245	42999
615.311	60749
615.377	116522
615.443	193822
615.509	119734
615.575	61964
615.642	45785
615.708	43671
615.774	46357
615.840	53760
615.906	72178
615.972	118133
616.038	250942
616.104	417022
616.170	386373
616.236	418525
616.302	124292
616.368	63952
616.434	50899
616.500	44415
616.565	43683
616.631	45293
616.697	41829
616.763	39982
616.829	44603
616.895	64572
616.961	78324
617.026	53863
617.092	37016
617.158	33538
617.224	32254
617.289	31602
617.355	32380
617.421	32719
617.487	33279
617.552	31575
617.618	29627
617.684	29440
617.749	30727
617.815	29102
617.880	28361
617.946	28420
618.012	29966
618.077	29103
618.143	29435
618.208	28670
618.274	30715
618.339	31652
618.405	30205
618.470	29763
618.536	30751
618.601	35215
618.667	35688
618.732	31009
618.798	30001
618.863	30444
618.928	29672
618.994	31240
619.059	35149
619.124	43226
619.190	41739
619.255	30416
619.320	30670
619.386	30874
619.451	28405
619.516	29075
619.581	29410
619.647	29507
619.712	29479
619.777	28498
619.842	29610
619.907	30509
619.972	30102
620.038	31383
620.103	30192
620.168	28739
620.233	27345
620.298	28389
620.363	28118
620.428	28082
620.493	29476
620.558	28137
620.623	28134
620.688	28258
620.753	28107
620.818	28242
620.883	28702
620.948	27484
621.013	28043
621.078	29885
621.143	29257
621.207	33341
621.272	32730
621.337	34267
621.402	35883
621.467	43040
621.532	54916
621.596	42838
621.661	36861
621.726	32188
621.791	33714
621.855	34766
621.920	38018
621.985	39264
622.049	46821
622.114	44367
622.179	40707
622.243	39225
622.308	38595
622.373	38244
622.437	38268
622.502	36650
622.566	35710
622.631	37081
622.695	37362
622.760	36443
622.824	35383
622.889	37051
622.953	39606
623.018	48764
623.082	60044
623.147	38399
623.211	36205
623.276	36766
623.340	35679
623.404	34001
623.469	33424
623.533	34590
623.597	33104
623.662	32711
623.726	33393
623.790	31806
623.854	32828
623.919	34206
623.983	32283
624.047	33770
624.111	32233
624.176	32760
624.240	34107
624.304	38662
624.368	34746
624.432	32046
624.496	34402
624.560	34384
624.625	39414
624.689	34935
624.753	32691
624.817	31663
624.881	31785
624.945	30780
625.009	31084
625.073	30310
625.137	32638
625.201	39015
625.265	42206
625.329	33204
625.393	33396
625.456	33119
625.520	33550
625.584	36360
625.648	44246
625.712	65324
625.776	147443
625.839	226150
625.903	129573
625.967	43135
626.031	57443
626.095	116522
626.158	64184
626.222	30944
626.286	27817
626.349	27726
626.413	27332
626.477	29586
626.540	28591
626.604	26654
626.668	27475
626.731	25997
626.795	27892
626.858	29308
626.922	27731
626.986	25877
627.049	25322
627.113	27145
627.176	25216
627.240	24343
627.303	25592
627.366	24945
627.430	25262
627.493	25842
627.557	26030
627.620	26690
627.684	25378
627.747	26017
627.810	25149
627.874	25318
627.937	24472
628.000	25455
628.064	26298
628.127	23859
628.190	23393
628.253	24806
628.317	23471
628.380	23086
628.443	23713
628.506	25005
628.569	22232
628.632	22598
628.696	22884
628.759	23042
628.822	22234
628.885	21781
628.948	22268
629.011	22329
629.074	21901
629.137	21674
629.200	20908
629.263	23297
629.326	22064
629.389	21119
629.452	20791
629.515	22982
629.578	22459
629.641	23347
629.704	23027
629.767	23558
629.830	21274
629.892	20553
629.955	20861
630.018	21258
630.081	22302
630.144	27479
630.207	24131
630.269	23832
630.332	25425
630.395	25822
630.458	20129
630.520	20465
630.583	20378
630.646	18767
630.708	18259
630.771	19322
630.834	19533
630.896	17439
630.959	18293
631.021	19503
631.084	19302
631.146	20914
631.209	25810
631.272	21845
631.334	20040
631.397	18313
631.459	19192
631.522	18701
631.584	18746
631.646	18941
631.709	19213
631.771	24042
631.834	23274
631.896	18627
631.958	16717
632.021	16517
632.083	16689
632.145	18025
632.208	18305
632.270	18351
632.332	17680
632.395	17189
632.457	18736
632.519	19126
632.581	17508
632.643	16056
632.706	17981
632.768	15972
632.830	17212
632.892	16082
632.954	16068
633.016	17960
633.078	16013
633.141	15591
633.203	16998
633.265	16773
633.327	15960
633.389	15942
633.451	18025
633.513	21631
633.575	22445
633.637	21891
633.698	21394
633.760	17659
633.822	16812
633.884	16195
633.946	16102
634.008	16829
634.070	16714
634.132	18767
634.193	19477
634.255	16272
634.317	15723
634.379	16627
634.441	16052
634.502	16562
634.564	14877
634.626	16185
634.687	17016
634.749	15769
634.811	15377
634.873	14002
634.934	15198
634.996	14887
635.057	15214
635.119	14423
635.181	15440
635.242	14510
635.304	13778
635.365	15614
635.427	15104
635.488	15188
635.550	15073
635.611	14815
635.673	13529
635.734	16565
635.796	15541
635.857	16860
635.918	15479
635.980	15840
636.041	15493
636.102	15355
636.164	15549
636.225	15725
636.286	15318
636.348	15665
636.409	14881
636.470	14234
636.531	14004
636.593	17399
636.654	18310
636.715	14023
636.776	13119
636.838	13307
636.899	13876
636.960	13368
637.021	13640
637.082	12797
637.143	14357
637.204	13122
637.265	11805
637.326	13038
637.387	12350
637.448	11209
637.509	12270
637.570	13173
637.631	12362
637.692	11951
637.753	11039
637.814	11461
637.875	11880
637.936	12717
637.997	11915
638.058	14188
638.119	14161
638.179	12710
638.240	12850
638.301	12692
638.362	11784
638.423	12560
638.483	12992
638.544	11679
638.605	12095
638.666	11572
638.726	12447
638.787	11919
638.848	11727
638.908	11234
638.969	11494
639.030	11994
639.090	11915
639.151	10856
639.211	12310
639.272	15019
639.332	22445
639.393	20733
639.453	12533
639.514	12098
639.574	11661
639.635	10684
639.695	11031
639.756	11703
639.816	12127
639.877	13070
639.937	18294
639.997	28475
640.058	18059
640.118	11359
640.178	11060
640.239	10748
640.299	10560
640.359	11082
640.420	10726
640.480	10599
640.540	10345
640.600	10327
640.661	10750
640.721	10972
640.781	14633
640.841	13932
640.901	12099
640.961	11096
641.021	11886
641.082	12659
641.142	16826
641.202	15806
641.262	10604
641.322	10729
641.382	10278
641.442	11510
641.502	10224
641.562	10818
641.622	10938
641.682	10293
641.742	10581
641.802	10860
641.861	11748
641.921	11644
641.981	11600
642.041	12540
642.101	14785
642.161	13555
642.221	9440
642.280	9868
642.340	9433
642.400	9457
642.460	10487
642.519	10345
642.579	9752
642.639	10096
642.698	9497
642.758	11281
642.818	10500
642.877	9899
642.937	11323
642.997	11774
643.056	16808
643.116	13669
643.175	11112
643.235	9910
643.294	10263
643.354	9883
643.414	10112
643.473	10862
643.532	11551
643.592	12640
643.651	15047
643.711	21848
643.770	35688
643.830	69039
643.889	199890
643.948	117756
644.008	17723
644.067	11658
644.126	10395
644.186	9615
644.245	10021
644.304	8255
644.363	10338
644.423	8437
644.482	9429
644.541	9519
644.600	8405
644.659	10896
644.719	9707
644.778	12022
644.837	12285
644.896	18585
644.955	36152
645.014	30194
645.073	14211
645.132	10545
645.191	10115
645.250	9063
645.309	10029
645.368	9245
645.427	9980
645.486	9229
645.545	13676
645.604	10025
645.663	8892
645.722	7697
645.781	8935
645.840	8880
645.898	9537
645.957	11416
646.016	11919
646.075	19242
646.134	30178
646.192	61227
646.251	153621
646.310	53364
646.369	13009
646.427	10310
646.486	8772
646.545	8989
646.603	8829
646.662	7891
646.721	8832
646.779	7933
646.838	7014
646.896	9128
646.955	9110
647.014	10328
647.072	12351
647.131	21141
647.189	24063
647.248	8406
647.306	8292
647.365	7784
647.423	7207
647.481	9129
647.540	6110
647.598	8329
647.657	7275
647.715	8206
647.773	7613
647.832	9137
647.890	7614
647.948	8138
648.007	8982
648.065	7959
648.123	8308
648.181	9967
648.240	9316
648.298	9819
648.356	8050
648.414	8378
648.472	8902
648.531	8186
648.589	8068
648.647	6666
648.705	8250
648.763	7752
648.821	6871
648.879	7375
648.937	8345
648.995	8445
649.053	7711
649.111	9477
649.169	11763
649.227	16222
649.285	22248
649.343	58140
649.401	68239
649.459	29248
649.516	31798
649.574	15780
649.632	22168
649.690	41601
649.748	20974
649.806	14239
649.863	24273
649.921	21049
649.979	21277
650.037	9657
650.094	7122
650.152	6574
650.210	6710
650.268	8131
650.325	7733
650.383	8617
650.440	6205
650.498	7988
650.556	7200
650.613	6224
650.671	7158
650.728	6773
650.786	8597
650.843	7906
650.901	6719
650.958	7368
651.016	7723
651.073	7036
651.131	7107
651.188	5794
651.246	7843
651.303	6857
651.360	7220
651.418	6588
651.475	6594
651.532	5430
651.590	6952
651.647	6576
651.704	7097
651.762	6892
651.819	6574
651.876	6692
651.933	6809
651.990	6246
652.048	5522
652.105	6165
652.162	7711
652.219	5778
652.276	5968
652.333	6254
652.390	5280
652.448	6546
652.505	6808
652.562	6511
652.619	6417
652.676	9148
652.733	12976
652.790	6729
652.847	5575
652.904	6903
652.961	5462
653.017	5583
653.074	6971
653.131	7064
653.188	5956
653.245	5885
653.302	6063
653.359	5223
653.415	5862
653.472	5399
653.529	6132
653.586	5396
653.642	5363
653.699	5219
653.756	5045
653.813	5354
653.869	6166
653.926	4429
653.983	5146
654.039	5603
654.096	6050
654.152	6342
654.209	5338
654.266	6181
654.322	5823
654.379	7619
654.435	7138
654.492	7415
654.548	8796
654.605	16626
654.661	13960
654.717	6605
654.774	6846
654.830	7069
654.887	7335
654.943	6280
655.000	6724
655.056	6188
655.112	6388
655.168	6627
655.225	7229
655.281	7844
655.337	9060
655.394	16341
655.450	16862
655.506	11626
655.562	14726
655.618	20154
655.675	7178
655.731	7231
655.787	6252
655.843	6529
655.899	5332
655.955	6506
656.011	5641
656.067	4558
656.123	6147
656.179	6849
656.235	7412
656.291	5576
656.347	6951
656.403	6962
656.459	7000
656.515	6837
656.571	7842
656.627	7447
656.683	6587
656.739	7373
656.795	6658
656.850	6389
656.906	7475
656.962	7186
657.018	5483
657.074	5312
657.129	6900
657.185	5707
657.241	6591
657.297	6269
657.352	6748
657.408	5609
657.464	7011
657.519	6962
657.575	5283
657.630	6163
657.686	6483
657.742	5181
657.797	5865
657.853	5342
657.908	7721
657.964	5132
658.019	5302
658.075	5953
658.130	6501
658.186	5239
658.241	6449
658.297	5138
658.352	5029
658.407	6079
658.463	5134
658.518	5508
658.573	6066
658.629	4187
658.684	5105
658.739	5929
658.795	4235
658.850	5169
658.905	4882
658.960	6147
659.016	5027
659.071	5188
659.126	6303
659.181	5316
659.236	8467
659.291	11687
659.346	7732
659.401	7436
659.457	6935
659.512	9722
659.567	8583
659.622	5821
659.677	5967
659.732	4948
659.787	5862
659.842	6356
659.897	8988
659.952	7904
660.007	5203
660.061	5315
660.116	5180
660.171	4985
660.226	5445
660.281	6327
660.336	4943
660.391	5394
660.445	4442
660.500	5673
660.555	5441
660.610	4986
660.664	5963
660.719	5681
660.774	6078
660.828	5257
660.883	5608
660.938	5418
660.992	5082
661.047	6210
661.101	5653
661.156	5593
661.211	5114
661.265	4922
661.320	5999
661.374	5557
661.429	4795
661.483	5374
661.538	4971
661.592	4844
661.647	6890
661.701	5077
661.755	5734
661.810	5253
661.864	5319
661.919	5033
661.973	5555
662.027	5705
662.081	5074
662.136	5719
662.190	6348
662.244	6263
662.299	6160
662.353	6142
662.407	5157
662.461	5328
662.515	5535
662.569	5074
662.624	6376
662.678	5252
662.732	5663
662.786	5192
662.840	5101
662.894	5931
662.948	5443
663.002	5322
663.056	5073
663.110	4668
663.164	4899
663.218	6019
663.272	5518
663.326	5119
663.380	5772
663.434	6290
663.488	5674
663.542	5163
663.595	5671
663.649	5573
663.703	6184
663.757	5084
663.811	4849
663.864	4884
663.918	5584
663.972	4887
664.026	4500
664.079	5059
664.133	6188
664.187	5694
664.240	4433
664.294	4728
664.348	4860
664.401	5417
664.455	5359
664.508	4155
664.562	5312
664.615	4547
664.669	4250
664.722	5138
664.776	5306
664.829	4988
664.883	5588
664.936	4686
664.990	5521
665.043	5957
665.097	5697
665.150	7375
665.203	6411
665.257	6150
665.310	6274
665.363	5471
665.417	6977
665.470	5751
665.523	5987
665.576	5921
665.630	5368
665.683	5322
665.736	6464
665.789	6225
665.842	5024
665.895	5481
665.949	6386
666.002	5067
666.055	6437
666.108	6229
666.161	6400
666.214	6360
666.267	6834
666.320	6851
666.373	6847
666.426	5666
666.479	5518
666.532	6125
666.585	7748
666.638	8286
666.691	8607
666.744	8913
666.796	7608
666.849	7652
666.902	6382
666.955	5544
667.008	5469
667.060	4518
667.113	5070
667.166	5036
667.219	5239
667.271	5982
667.324	5224
667.377	5234
667.430	5752
667.482	5742
667.535	7666
667.587	5877
667.640	6650
667.693	7547
667.745	8725
667.798	11885
667.850	7625
667.903	5784
667.955	5671
668.008	5482
668.060	7414
668.113	5741
668.165	6986
668.218	7085
668.270	5885
668.322	6668
668.375	6138
668.427	6155
668.479	6227
668.532	6582
668.584	6819
668.636	6137
668.689	6599
668.741	5752
668.793	6809
668.845	5216
668.898	7045
668.950	5724
669.002	7259
669.054	5908
669.106	6937
669.158	6894
669.211	6429
669.263	6697
669.315	7591
669.367	8208
669.419	7409
669.471	7755
669.523	9294
669.575	9607
669.627	11402
669.679	7869
669.731	7129
669.783	7699
669.835	8754
669.886	8282
669.938	8079
669.990	7472
670.042	7158
670.094	7112
670.146	8312
670.197	8534
670.249	10648
670.301	11466
670.353	16010
670.404	21113
670.456	30164
670.508	48622
670.560	81453
670.611	146545
670.663	257447
670.715	505615
670.766	1135594
670.818	713602
670.869	117605
670.921	42362
670.972	27870
671.024	21256
671.075	16293
671.127	13335
671.178	10735
671.230	10320
671.281	10127
671.333	8769
671.384	8649
671.436	8481
671.487	9049
671.538	8728
671.590	8441
671.641	9665
671.692	10783
671.744	12306
671.795	15494
671.846	10309
671.897	8226
671.949	8070
672.000	6963
672.051	6501
672.102	7041
672.153	5884
672.204	7144
672.256	6220
672.307	7330
672.358	6296
672.409	7323
672.460	6929
672.511	5114
672.562	5853
672.613	6133
672.664	5318
672.715	6155
672.766	5375
672.817	6380
672.868	5630
672.919	5468
672.970	5477
673.021	6265
673.071	5717
673.122	6445
673.173	6148
673.224	5726
673.275	5188
673.326	5462
673.376	5192
673.427	5113
673.478	5707
673.528	5320
673.579	4838
673.630	4655
673.680	5637
673.731	5301
673.782	5027
673.832	5325
673.883	5785
673.934	5531
673.984	5700
674.035	5164
674.085	5444
674.136	5890
674.186	5390
674.237	6697
674.287	10214
674.338	9526
674.388	5590
674.438	5385
674.489	4497
674.539	6458
674.589	5764
674.640	6125
674.690	6148
674.740	5361
674.791	6662
674.841	6470
674.891	6095
674.942	6141
674.992	5521
675.042	4885
675.092	3852
675.142	5184
675.193	5208
675.243	4783
675.293	4679
675.343	5386
675.393	5171
675.443	5479
675.493	5204
675.543	3932
675.593	5314
675.643	5147
675.693	4982
675.743	4621
675.793	4323
675.843	4326
675.893	5056
675.943	4747
675.993	4351
676.043	4886
676.093	5526
676.142	4669
676.192	4346
676.242	4620
676.292	5040
676.341	4212
676.391	5054
676.441	4657
676.491	4629
676.540	4111
676.590	4285
676.640	3832
676.689	4522
676.739	4468
676.789	4665
676.838	4456
676.888	4197
676.937	4231
676.987	3586
677.037	3715
677.086	4022
677.136	3003
677.185	4230
677.235	4313
677.284	3409
677.333	4141
677.383	3360
677.432	3357
677.482	4925
677.531	4342
677.580	4120
677.630	4000
677.679	3377
677.728	4086
677.778	4414
677.827	3746
677.876	3748
677.925	3147
677.975	3970
678.024	3865
678.073	4311
678.122	4333
678.171	4324
678.220	4014
678.269	4116
678.319	5138
678.368	3963
678.417	4364
678.466	4372
678.515	4655
678.564	5379
678.613	4513
678.662	4474
678.711	4598
678.760	4098
678.809	3683
678.857	4093
678.906	3898
678.955	4149
679.004	3942
679.053	3717
679.102	3572
679.151	4591
679.199	4852
679.248	3818
679.297	5368
679.346	4024
679.394	4581
679.443	3600
679.492	4527
679.540	3251
679.589	3677
679.638	4830
679.686	4022
679.735	3200
679.784	4222
679.832	3978
679.881	3946
679.929	4258
679.978	3919
680.026	3159
680.075	3982
680.123	3950
680.172	3586
680.220	3440
680.268	4176
680.317	3891
680.365	3466
680.414	3281
680.462	3434
680.510	4111
680.559	2784
680.607	3359
680.655	3900
680.703	3232
680.752	3624
680.800	3404
680.848	3139
680.896	2379
680.945	3273
680.993	3421
681.041	3758
681.089	3320
681.137	3527
681.185	2654
681.233	3008
681.258	3477
681.281	3847
681.329	3675
681.377	3358
681.380	3456
681.425	3795
681.473	4445
681.502	4659
681.521	4668
681.569	4433
681.617	4647
681.624	4702
681.665	4426
681.713	5415
681.745	4966
681.761	4636
681.809	4741
681.857	5770
681.867	5550
681.904	4467
681.952	5653
681.989	5977
682.000	5987
682.048	5676
682.096	5507
682.111	5691
682.143	5857
682.191	6431
682.233	6802
682.239	6773
682.286	6875
682.334	6270
682.354	6604
682.382	6897
682.430	6075
682.476	6741
682.477	6689
682.525	6720
682.572	7080
682.598	7122
682.620	7023
682.667	7499
682.715	7321
682.720	7506
682.763	8655
682.810	8091
682.841	8319
682.857	8288
682.905	8588
682.952	8490
682.963	8607
683.000	8873
683.047	9030
683.085	9536
683.095	9570
683.142	8884
683.190	8987
683.206	9113
683.237	9231
683.284	9336
683.328	9670
683.332	9633
683.379	9715
683.426	8776
683.449	9496
683.473	10187
683.521	10090
683.568	9970
683.571	10032
683.615	9929
683.662	10156
683.693	10814
683.709	11170
683.757	10149
683.804	10920
683.814	10950
683.851	10721
683.898	11743
683.936	12009
683.945	12036
683.992	10949
684.039	11780
684.057	11898
684.086	11973
684.133	12739
684.179	13081
684.180	13048
684.227	12393
684.274	12546
684.300	13196
684.321	13562
684.368	12375
684.415	12605
684.422	12656
684.462	12867
684.509	13360
684.543	13569
684.556	13568
684.603	13941
684.649	13701
684.665	13740
684.696	13749
684.743	14392
684.786	14091
684.790	14039
684.837	14369
684.883	14490
684.908	15116
684.930	15783
684.977	16447
685.023	16842
685.029	16958
685.070	16711
685.117	16193
685.150	15744
685.164	15765
685.210	17269
685.257	17500
685.272	17731
685.303	17725
685.350	17275
685.393	17528
685.396	17536
685.443	17356
685.490	18488
685.514	18439
685.536	18338
685.583	18836
685.629	18777
685.636	18772
685.675	18331
685.722	18149
685.757	18114
685.768	18141
685.815	18831
685.861	18491
685.878	18497
685.908	18480
685.954	18917
686.000	20171
686.000	20180
686.047	20531
686.093	21426
686.121	22187
686.139	22424
686.185	21473
686.232	21611
686.242	21652
686.278	21220
686.324	20426
686.363	20038
686.370	20036
686.416	19676
686.463	20028
686.484	19900
686.509	19876
686.555	20296
686.601	20769
686.606	20743
686.647	20059
686.693	20286
686.727	20004
686.739	19963
686.785	19974
686.831	20212
686.848	20375
686.877	20559
686.923	20291
686.969	20201
686.969	20197
687.015	20290
687.061	20171
687.090	20283
687.107	20430
687.153	21183
687.199	21008
687.211	20920
687.245	20571
687.291	21060
687.332	21891
687.336	22016
687.382	22399
687.428	23055
687.453	23281
687.474	22913
687.520	21856
687.565	21320
687.574	21183
687.611	21363
687.657	21626
687.695	21915
687.702	22026
687.748	22275
687.794	23636
687.816	23742
687.839	23560
687.885	23471
687.931	22623
687.937	22695
687.976	22920
688.022	22900
688.058	22504
688.067	22603
688.113	22951
688.158	23605
688.179	23950
688.204	23839
688.249	23240
688.295	23362
688.300	23312
688.340	24076
688.386	24705
688.421	24640
688.431	24427
688.477	24724
688.522	24697
688.542	24505
688.567	24577
688.613	24910
688.658	25125
688.663	25149
688.703	25228
688.749	24349
688.784	24890
688.794	25144
688.839	25296
688.884	25487
688.905	25623
688.930	25528
688.975	25082
689.020	25110
689.026	24986
689.065	24964
689.110	25721
689.146	26067
689.155	26028
689.201	25305
689.246	25291
689.267	25215
689.291	25449
689.336	25356
689.381	25731
689.388	25714
689.426	25871
689.471	26157
689.509	26037
689.516	25958
689.561	26036
689.606	25335
689.630	25244
689.651	25531
689.696	25850
689.741	26365
689.750	26492
689.785	26989
689.830	27058
689.871	27162
689.875	27141
689.920	26329
689.965	26412
689.992	25835
690.010	25840
690.054	26420
690.099	26693
690.112	26734
690.144	27036
690.189	27454
690.233	27614
690.233	27650
690.278	27576
690.323	27937
690.354	27603
690.367	27652
690.412	28251
690.457	28548
690.474	28716
690.501	29351
690.546	30100
690.590	31283
690.595	31257
690.635	31250
690.680	32188
690.716	32725
690.724	33335
690.769	36327
690.813	39462
690.836	40795
690.857	43287
690.902	48903
690.946	55245
690.957	56567
690.991	70735
691.035	90365
691.077	109460
691.080	110750
691.124	130175
691.168	147105
691.198	159371
691.213	152169
691.257	129966
691.301	108033
691.318	99205
691.346	89825
691.390	74903
691.434	59327
691.439	57566
691.478	52822
691.522	47059
691.559	42341
691.567	42121
691.611	40061
691.655	38321
691.680	36908
691.699	36431
691.743	35799
691.787	34728
691.800	34492
691.831	34677
691.875	34537
691.919	34566
691.921	34498
691.964	34927
692.008	35733
692.041	35940
692.052	35821
692.096	35448
692.139	34764
692.162	34433
692.183	34296
692.227	33683
692.271	33417
692.282	33159
692.315	33307
692.359	33868
692.402	34619
692.403	34681
692.447	33685
692.490	33206
692.523	32862
692.534	33104
692.578	33709
692.622	34295
692.643	34384
692.666	34527
692.709	34814
692.753	35001
692.763	35007
692.797	34855
692.840	34418
692.884	34160
692.884	34234
692.928	35064
692.971	35966
693.004	36314
693.015	36455
693.059	36769
693.102	37331
693.124	37386
693.146	37536
693.189	37765
693.233	38468
693.245	38392
693.276	39667
693.320	42000
693.363	43418
693.365	43416
693.407	46369
693.450	48859
693.485	50901
693.493	52096
693.537	57434
693.580	63436
693.605	66486
693.624	72318
693.667	86310
693.710	100341
693.725	105214
693.753	134637
693.797	180282
693.840	227818
693.845	233027
693.883	272172
693.926	313140
693.966	350879
693.970	346301
694.013	291859
694.056	237227
694.086	199138
694.099	188848
694.142	155038
694.185	121084
694.206	104574
694.229	97733
694.272	84774
694.315	71561
694.326	68005
694.358	64506
694.401	59376
694.444	54305
694.446	53937
694.487	51616
694.530	48966
694.566	46489
694.573	46272
694.616	44554
694.659	42579
694.686	41326
694.702	40820
694.745	39208
694.787	37431
694.806	36537
694.830	36697
694.873	37179
694.916	37202
694.926	37190
694.959	36782
695.002	36109
695.044	35354
695.046	35243
695.087	35792
695.130	36386
695.166	36554
695.172	36558
695.215	36182
695.258	35778
695.286	35483
695.301	35606
695.343	35758
695.386	35734
695.406	35545
695.428	35297
695.471	35178
695.514	34805
695.526	34597
695.556	34640
695.599	34773
695.641	34686
695.646	34588
695.684	34553
695.726	34660
695.766	34554
695.769	34645
695.811	34818
695.854	34896
695.886	34979
695.896	34983
695.938	34489
695.981	34158
696.005	33746
696.023	33706
696.065	33670
696.108	33325
696.125	33260
696.150	33939
696.192	34661
696.235	35501
696.245	35577
696.277	35225
696.319	34978
696.361	34421
696.365	34314
696.404	35367
696.446	36176
696.485	36954
696.488	37047
696.530	36942
696.572	36853
696.604	36733
696.614	36709
696.656	36265
696.698	35768
696.724	35341
696.740	35272
696.783	34877
696.825	34582
696.844	34313
696.867	34366
696.909	34302
696.951	34238
696.964	34182
696.992	34216
697.034	33935
697.076	33745
697.083	33605
697.118	33735
697.160	33929
697.202	34056
697.203	33973
697.244	34325
697.286	34584
697.323	34670
697.327	34701
697.369	34223
697.411	33767
697.442	33272
697.453	33411
697.494	33683
697.536	33874
697.562	33995
697.578	34091
697.620	33953
697.661	33919
697.682	33810
697.703	33876
697.744	33816
697.786	33817
697.801	33693
697.828	34486
697.869	35663
697.911	36746
697.921	36934
697.952	36426
697.994	35602
698.035	34787
698.040	34599
698.077	34734
698.118	34718
698.160	34759
698.160	34667
698.201	34201
698.243	33678
698.279	33072
698.284	33215
698.325	33779
698.367	34312
698.399	34624
698.408	34621
698.449	34224
698.491	33824
698.518	33438
698.532	33508
698.573	33478
698.614	33431
698.638	33331
698.656	33538
698.697	33793
698.738	34049
698.757	34068
698.779	34320
698.820	34653
698.862	34979
698.877	35006
698.903	35387
698.944	35843
698.985	36299
698.996	36331
699.026	36263
699.067	36032
699.116	35663
699.235	34684
699.354	33895
699.474	34428
699.593	36336
699.713	39325
699.832	33615
699.951	34775
700.070	33895
700.190	34089
700.309	32772
700.428	33879
700.547	34548
700.667	34288
700.786	34210
700.905	33718
701.024	32606
701.143	34913
701.262	29764
701.381	30067
701.500	31710
701.619	32108
701.738	29887
701.857	30707
701.976	30684
702.095	29684
702.214	30349
702.333	31725
702.452	29454
702.571	29814
702.690	28639
702.809	29625
702.928	28160
703.047	29377
703.165	28796
703.284	28435
703.403	27524
703.522	29171
703.640	31159
703.759	31576
703.878	40555
703.997	34306
704.115	28812
704.234	27565
704.353	26921
704.471	27522
704.590	26515
704.708	27826
704.827	27305
704.946	26728
705.064	29343
705.183	28382
705.301	30191
705.420	45286
705.538	48255
705.656	41539
705.775	39138
705.893	54770
706.012	97286
706.130	47978
706.249	39851
706.367	38389
706.485	39551
706.604	38946
706.722	38571
706.840	41135
706.958	43086
707.077	40785
707.195	36589
707.313	36310
707.431	34260
707.549	34464
707.668	33592
707.786	34896
707.904	33574
708.022	34158
708.140	32700
708.258	32339
708.376	31957
708.494	33998
708.612	34612
708.730	46845
708.848	53290
708.966	46410
709.084	42344
709.202	41380
709.320	43139
709.438	42869
709.556	42775
709.674	43179
709.791	42895
709.909	41581
710.027	41518
710.145	41632
710.263	40159
710.380	40113
710.498	39867
710.616	39665
710.733	39333
710.851	40592
710.969	40752
711.086	38507
711.204	38476
711.322	38199
711.439	38161
711.557	40131
711.674	37448
711.792	37799
711.909	39440
712.027	43782
712.144	38748
712.262	35945
712.379	38115
712.497	51089
712.614	63646
712.732	52646
712.849	47121
712.966	46578
713.084	49876
713.201	51701
713.318	47091
713.436	46948
713.553	46786
713.670	47415
713.787	48565
713.905	52008
714.022	45391
714.139	43914
714.256	44842
714.373	46193
714.490	46542
714.608	52401
714.725	91880
714.842	180782
714.959	57206
715.076	43934
715.193	40576
715.310	40762
715.427	39689
715.544	39689
715.661	38207
715.778	39985
715.895	42994
716.011	42897
716.128	41636
716.245	38265
716.362	40304
716.479	42301
716.596	39039
716.713	39166
716.829	38831
716.946	39261
717.063	36627
717.180	37306
717.296	35666
717.413	37749
717.530	35134
717.646	36771
717.763	35173
717.880	33641
717.996	33834
718.113	35708
718.229	32952
718.346	35045
718.462	32258
718.579	34891
718.695	38888
718.812	44010
718.928	39724
719.045	39224
719.161	30911
719.277	31705
719.394	31023
719.510	32747
719.626	31430
719.743	37024
719.859	35020
719.975	35929
720.092	42817
720.208	78294
720.324	48741
720.440	33988
720.557	32154
720.673	37416
720.789	47668
720.905	86862
721.021	75763
721.137	32514
721.253	30810
721.369	31327
721.486	33012
721.602	40717
721.718	34896
721.834	28388
721.950	28372
722.066	28077
722.181	27278
722.297	28430
722.413	27256
722.529	27184
722.645	28398
722.761	26923
722.877	28091
722.993	26058
723.108	27865
723.224	26662
723.340	26875
723.456	26361
723.571	25342
723.687	25983
723.803	25217
723.918	25787
724.034	24975
724.150	26536
724.265	26114
724.381	35933
724.497	64280
724.612	29194
724.728	23841
724.843	24315
724.959	26716
725.074	33961
725.190	58447
725.305	27748
725.421	25524
725.536	22937
725.651	21893
725.767	23554
725.882	20896
725.997	22199
726.113	21619
726.228	20979
726.343	22045
726.459	20916
726.574	21957
726.689	22274
726.804	19954
726.920	21677
727.035	21711
727.150	22363
727.265	21123
727.380	21974
727.495	21247
727.610	20129
727.725	21547
727.841	22699
727.956	33316
728.071	45681
728.186	22928
728.301	19027
728.416	19252
728.531	20599
728.645	18360
728.760	18722
728.875	20527
728.990	18776
729.105	20123
729.220	19092
729.335	18993
729.449	19155
729.564	17558
729.679	17376
729.794	18213
729.908	19802
730.023	18841
730.138	17987
730.253	16960
730.367	17555
730.482	16674
730.596	17845
730.711	17626
730.826	17916
730.940	17260
731.055	17920
731.169	16528
731.284	15533
731.398	16545
731.513	18447
731.627	18182
731.742	18182
731.856	20758
731.970	15853
732.085	15509
732.199	17616
732.313	17419
732.428	19577
732.542	29734
732.656	34443
732.771	18219
732.885	16941
732.999	15858
733.113	17032
733.227	16410
733.342	15805
733.456	14168
733.570	15539
733.684	14233
733.798	16420
733.912	15524
734.026	15138
734.140	14018
734.254	16160
734.368	19900
734.482	34730
734.596	16616
734.710	15097
734.824	13763
734.938	13997
735.052	13735
735.166	16469
735.280	15133
735.393	15076
735.507	13754
735.621	15922
735.735	24884
735.849	22734
735.962	14123
736.076	14566
736.190	15751
736.303	17457
736.417	25172
736.531	15262
736.644	14517
736.758	13521
736.872	13077
736.985	13273
737.099	13689
737.212	12816
737.326	13136
737.439	13618
737.553	13065
737.666	12505
737.780	13381
737.893	13016
738.007	12266
738.120	12678
738.233	12255
738.347	12749
738.460	12062
738.573	12965
738.687	12650
738.800	12553
738.913	12781
739.026	14418
739.140	13099
739.253	14826
739.366	13622
739.479	12329
739.592	10737
739.705	11960
739.818	12624
739.932	12112
740.045	12616
740.158	12140
740.271	12440
740.384	12918
740.497	11896
740.610	12450
740.723	12208
740.836	13186
740.949	12691
741.062	13871
741.174	14110
741.287	12980
741.400	11191
741.513	12397
741.626	12023
741.739	12800
741.851	11913
741.964	12755
742.077	10726
742.189	12383
742.302	12956
742.415	12980
742.527	12447
742.640	11315
742.753	11923
742.865	11231
742.978	10947
743.090	11211
743.203	11307
743.316	12105
743.428	11060
743.541	12020
743.653	11115
743.766	11208
743.878	11175
743.990	12524
744.103	14574
744.215	11534
744.327	10847
744.440	11797
744.552	13803
744.664	12473
744.777	10378
744.889	10675
745.001	10267
745.113	10614
745.226	10074
745.338	11563
745.450	10523
745.562	10943
745.674	11247
745.786	10253
745.898	10362
746.010	11126
746.122	10781
746.234	11303
746.347	11332
746.459	11668
746.570	10687
746.682	10398
746.794	10324
746.906	10572
747.018	10760
747.130	10781
747.242	10222
747.354	10625
747.466	10493
747.577	10519
747.689	10894
747.801	10467
747.913	10232
748.024	9784
748.136	9399
748.248	10321
748.359	9820
748.471	10100
748.583	10889
748.694	11898
748.806	13623
748.918	13392
749.029	12853
749.141	10445
749.252	10449
749.364	10430
749.475	12731
749.587	14924
749.698	11385
749.809	10572
749.921	9999
750.032	10364
750.144	9474
750.255	9731
750.366	9980
750.478	10423
750.589	10637
750.700	10948
750.811	10491
750.923	11450
751.034	13887
751.145	18423
751.256	11820
751.367	10826
751.479	11278
751.590	11133
751.701	10532
751.812	11594
751.923	10549
752.034	10820
752.145	9998
752.256	10036
752.367	9556
752.478	11024
752.589	10099
752.700	10153
752.811	10445
752.922	10634
753.032	9799
753.143	11437
753.254	10073
753.365	11422
753.476	9592
753.586	10101
753.697	9441
753.808	10748
753.919	9788
754.029	10822
754.140	10463
754.251	10309
754.361	10133
754.472	10487
754.582	10071
754.693	10130
754.804	10407
754.914	10365
755.025	10418
755.135	11078
755.246	9868
755.356	10314
755.466	10179
755.577	10555
755.687	10902
755.798	10992
755.908	10050
756.018	11217
756.129	9996
756.239	11047
756.349	11106
756.460	10752
756.570	11420
756.680	10946
756.790	11558
756.900	12275
757.011	11909
757.121	11180
757.231	10619
757.341	11693
757.451	11347
757.561	12094
757.671	10642
757.781	12021
757.891	12846
758.001	12698
758.111	12219
758.221	12330
758.331	12246
758.441	14252
758.551	12845
758.661	15044
758.771	13530
758.880	13341
758.990	14066
759.100	13933
759.210	14009
759.320	14280
759.429	13986
759.539	14995
759.649	14343
759.758	14971
759.868	14726
759.978	14998
760.087	14614
760.197	16521
760.307	15057
760.416	15791
760.526	16331
760.635	15903
760.745	16417
760.854	17940
760.964	16148
761.073	17701
761.182	16821
761.292	18517
761.401	18685
761.511	19828
761.620	18197
761.729	19735
761.839	19674
761.948	21623
762.057	20826
762.166	22752
762.276	21602
762.385	22732
762.494	23520
762.603	23720
762.712	24114
762.822	26370
762.931	27373
763.040	28527
763.149	28927
763.258	29976
763.367	31228
763.476	33741
763.585	34152
763.694	36276
763.803	38713
763.912	40932
764.021	41805
764.130	43791
764.238	47643
764.347	51839
764.456	54130
764.565	58457
764.674	64734
764.783	68495
764.891	75723
765.000	85065
765.109	94953
765.217	107997
765.326	125806
765.435	149898
765.543	179120
765.652	218910
765.761	278742
765.869	367577
765.978	505563
766.086	728381
766.195	1095945
766.303	1638695
766.412	1880574
766.520	1393193
766.629	1724310
766.737	1413771
766.846	941126
766.954	643897
767.062	458888
767.171	343188
767.279	263359
767.387	207024
767.496	168833
767.604	143919
767.712	124940
767.820	110248
767.928	98202
768.037	93035
768.145	86375
768.253	83882
768.361	78206
768.469	78684
768.577	79743
768.685	83657
768.793	86196
768.901	95167
769.009	107022
769.117	126034
769.225	159412
769.333	212918
769.441	302440
769.549	473085
769.657	811547
769.765	1417461
769.873	1598226
769.981	1431891
770.088	1196587
770.196	691290
770.304	427710
770.412	294432
770.519	215570
770.627	166721
770.735	136928
770.842	111986
770.950	96134
771.058	83008
771.165	74379
771.273	65809
771.380	59848
771.488	53657
771.595	49312
771.703	45865
771.810	42163
771.918	40256
772.025	38136
772.133	35310
772.240	34274
772.348	32225
772.455	29845
772.562	29243
772.670	28360
772.777	27116
772.884	25371
772.991	25330
773.099	23673
773.206	22943
773.313	23020
773.420	22263
773.528	20778
773.635	20656
773.742	20151
773.849	19917
773.956	19364
774.063	18386
774.170	18239
774.277	18469
774.384	17142
774.491	17258
774.598	17025
774.705	16736
774.812	16912
774.919	17836
775.026	15982
775.133	16694
775.239	15103
775.346	15569
775.453	14716
775.560	16143
775.667	15303
775.773	14775
775.880	15580
775.987	14647
776.093	14185
776.200	14280
776.307	13869
776.413	14514
776.520	12835
776.627	13412
776.733	13757
776.840	13158
776.946	13015
777.053	12465
777.159	13971
777.266	12906
777.372	13155
777.478	14143
777.585	12362
777.691	12650
777.798	11203
777.904	13041
778.010	13615
778.117	14560
778.223	11768
778.329	11463
778.435	11187
778.542	11457
778.648	11405
778.754	10992
778.860	10522
778.966	11952
779.072	12048
779.178	11350
779.284	10482
779.391	10277
779.497	12140
779.603	15584
779.708	19013
779.815	34707
779.920	94231
780.026	326586
780.132	156759
780.238	23656
780.344	13992
780.450	13656
780.556	10608
780.661	10741
780.767	9658
780.873	9106
780.979	10157
781.085	9740
781.190	9244
781.296	8684
781.402	8119
781.507	8783
781.613	7837
781.719	8468
781.824	8285
781.930	9159
782.035	8401
782.141	8596
782.246	8526
782.352	7804
782.457	7931
782.563	8322
782.668	8587
782.773	8572
782.879	9133
782.984	9080
783.090	8901
783.195	10091
783.300	9703
783.405	8657
783.511	8133
783.616	8872
783.721	8224
783.826	8182
783.932	8216
784.037	8354
784.142	8303
784.247	8403
784.352	7564
784.457	8224
784.562	7376
784.667	8498
784.772	6996
784.877	7427
784.982	6730
785.087	7798
785.192	7058
785.297	7748
785.402	7330
785.507	8029
785.611	7492
785.716	7769
785.821	7127
785.926	7506
786.031	6624
786.135	7720
786.240	7627
786.345	6819
786.450	6826
786.554	6692
786.659	6595
786.763	6630
786.868	6922
786.973	7639
787.077	6077
787.182	6978
787.286	7175
787.391	5639
787.495	5260
787.600	6763
787.704	5041
787.809	6990
787.913	6567
788.017	6184
788.122	6517
788.226	6403
788.330	5512
788.435	6442
788.539	6164
788.643	5796
788.747	6271
788.852	6010
788.956	5259
789.060	6091
789.164	6139
789.268	5261
789.372	5812
789.476	5911
789.580	5469
789.684	5447
789.788	6137
789.892	5905
789.996	6679
790.100	6375
790.204	5243
790.308	6218
790.412	5608
790.516	6395
790.620	7363
790.724	6302
790.828	5880
790.931	6655
791.035	6516
791.139	6237
791.242	5878
791.346	6469
791.450	5144
791.554	5565
791.657	5116
791.761	5885
791.864	5799
791.968	6094
792.072	5831
792.175	6243
792.279	5861
792.382	5835
792.486	7045
792.589	6832
792.693	6898
792.796	5925
792.899	5236
793.003	5757
793.106	4758
793.209	4911
793.313	5213
793.416	5574
793.519	5524
793.623	5826
793.726	7618
793.829	6760
793.932	5538
794.035	6112
794.138	6113
794.242	7363
794.345	7491
794.448	12035
794.551	18256
794.654	51899
794.757	170509
794.860	97482
794.963	13728
795.066	7577
795.169	6367
795.272	5852
795.375	6154
795.477	4822
795.580	5257
795.683	4695
795.786	4982
795.889	4790
795.991	5567
796.094	5783
796.197	5241
796.300	6227
796.402	4808
796.505	5006
796.608	4242
796.710	5393
796.813	3840
796.915	4329
797.018	4229
797.120	4583
797.223	3798
797.326	4495
797.428	4246
797.530	4623
797.633	3658
797.735	5710
797.838	6466
797.940	10430
798.042	4915
798.145	4570
798.247	4409
798.349	3898
798.452	3856
798.554	4085
798.656	4046
798.758	5016
798.860	4072
798.962	4490
799.065	4031
799.167	4752
799.269	4353
799.371	4914
799.473	4174
799.575	4577
799.677	5604
799.779	6384
799.881	5322
799.983	6141
800.085	3942
800.187	4363
800.289	4002
800.390	4987
800.492	3814
800.594	4724
800.696	4017
800.798	4051
800.899	3697
801.001	3975
801.103	3928
801.205	4167
801.306	3690
801.408	3457
801.509	3866
801.611	3592
801.713	3827
801.814	3341
801.916	3107
802.017	4199
802.119	2886
802.220	4152
802.322	2869
802.423	5732
802.525	5404
802.626	4732
802.727	4000
802.829	3939
802.930	2705
803.031	5202
803.133	2742
803.234	3765
803.335	3302
803.436	3469
803.538	3542
803.639	3652
803.740	3720
803.841	3811
803.942	2707
804.043	4064
804.144	3216
804.245	4117
804.346	3230
804.447	4268
804.548	3191
804.649	5247
804.750	2763
804.851	2958
804.952	3157
805.053	4156
805.154	2838
805.255	4099
805.355	3432
805.456	3467
805.557	2863
805.658	3514
805.758	3986
805.859	4133
805.960	3744
806.061	3526
806.161	2492
806.262	4119
806.362	3134
806.463	4201
806.564	3637
806.664	3959
806.765	4187
806.865	5502
806.966	4348
807.066	4720
807.166	4439
807.267	4068
807.367	2853
807.468	4371
807.568	3107
807.668	3402
807.769	3159
807.869	3103
807.969	3882
808.069	3185
808.170	2965
808.270	4035
808.370	3662
808.470	3862
808.570	3711
808.670	3466
808.770	3095
808.870	3214
808.970	3493
809.070	3362
809.170	3676
809.271	3478
809.370	2842
809.470	3149
809.570	2634
809.670	3461
809.770	3556
809.870	4282
809.970	3497
810.070	3563
810.169	3791
810.269	3359
810.369	3335
810.469	3854
810.568	2420
810.668	3866
810.768	3077
810.867	4375
810.967	3962
811.066	3358
811.166	3536
811.265	4622
811.365	2807
811.464	3824
811.564	4237
811.663	4286
811.763	3725
811.862	4168
811.962	3912
812.061	3495
812.160	3427
812.260	4044
812.359	4270
812.458	5103
812.557	8053
812.657	15050
812.756	13150
812.855	6750
812.954	4930
813.053	4816
813.153	5513
813.252	5116
813.351	3926
813.450	4965
813.549	4734
813.648	4399
813.747	3956
813.846	4756
813.945	4642
814.044	5512
814.143	5605
814.242	4987
814.341	4996
814.439	5851
814.538	5506
814.637	5591
814.736	5326
814.835	5665
814.933	6044
815.032	7590
815.131	6099
815.229	6387
815.328	6658
815.427	6295
815.525	7245
815.624	7691
815.722	7143
815.821	8090
815.919	8044
816.018	8785
816.116	9440
816.215	10151
816.313	10200
816.412	11028
816.510	11809
816.609	12735
816.707	12644
816.805	14702
816.904	15558
817.002	17230
817.100	18708
817.198	20915
817.296	24403
817.395	27608
817.493	34013
817.591	41015
817.689	50475
817.787	67672
817.885	95455
817.983	145006
818.081	247816
818.179	462131
818.277	884571
818.375	1107206
818.473	752150
818.571	407165
818.669	244025
818.767	181432
818.865	160695
818.963	168706
819.061	203326
819.158	277081
819.256	438823
819.354	743422
819.452	1198720
819.549	1172657
819.647	856581
819.745	532043
819.842	327516
819.940	217668
820.038	154453
820.135	116516
820.233	91153
820.330	73349
820.428	59260
820.525	51051
820.623	44298
820.720	38275
820.818	32922
820.915	29869
821.012	26021
821.110	24132
821.207	21789
821.304	20161
821.402	17740
821.499	17533
821.596	16186
821.693	15779
821.791	14352
821.888	13970
821.985	13922
822.082	15182
822.179	12237
822.276	10719
822.373	9980
822.470	9149
822.567	9273
822.664	8783
822.761	7560
822.858	7060
822.955	7274
823.052	7100
823.149	7465
823.246	6873
823.343	5909
823.440	7185
823.536	6633
823.633	6159
823.730	5640
823.827	6394
823.923	5664
824.020	6257
824.117	5108
824.213	5263
824.310	6930
824.407	5436
824.503	4825
824.600	4799
824.696	4839
824.793	4958
824.889	3996
824.986	4662
825.082	3360
825.179	4699
825.275	3322
825.371	3786
825.468	3904
825.564	3727
825.660	3667
825.757	4333
825.853	3644
825.949	3726
826.045	3058
826.142	3300
826.238	3065
826.334	3584
826.430	2480
826.526	4147
826.622	2407
826.718	3686
826.814	2504
826.910	3738
827.006	2304
827.102	2438
827.198	3385
827.294	2938
827.390	2763
827.486	3083
827.582	2714
827.678	1950
827.774	2994
827.869	1404
827.965	3216
828.061	2078
828.157	2508
828.252	3361
828.348	1634
828.444	3005
828.539	1923
828.635	2235
828.731	2414
828.826	2299
828.922	2622
829.017	2536
829.113	2053
829.208	3071
829.304	2802
829.399	3543
829.495	2008
829.590	2575
829.685	2167
829.781	2614
829.876	1156
829.971	2289
830.066	1785
830.162	2091
830.257	1067
830.352	2336
830.447	2505
830.543	2556
830.638	1477
830.733	2778
830.828	2090
830.923	3043
831.018	2218
831.113	2541
831.208	943
831.303	2464
831.398	1599
831.493	3365
831.588	2162
831.683	1390
831.778	2193
831.873	1563
831.967	2186
832.062	1745
832.157	412
832.252	3078
832.346	1667
832.441	2136
832.536	2403
832.631	5028
832.725	7402
832.820	3476
832.914	1455
833.009	1997
833.104	1857
833.198	3478
833.293	2131
833.387	2727
833.482	2119
833.576	1497
833.670	2169
833.765	1622
833.859	1775
833.954	3010
834.048	1761
834.142	1781
834.237	1784
834.331	1231
834.425	1255
834.519	1149
834.613	2334
834.708	1538
834.802	1363
834.896	1896
834.990	1162
835.084	2196
835.178	1658
835.272	2386
835.366	1867
835.460	2145
835.554	2160
835.648	1807
835.742	1311
835.836	2318
835.930	907
836.024	2326
836.117	1688
836.211	2871
836.305	2775
836.399	4353
836.493	2701
836.586	2390
836.680	1216
836.774	1830
836.867	1537
836.961	1021
837.055	1289
837.148	682
837.242	1357
837.335	1751
837.429	1062
837.522	2106
837.616	2615
837.709	4883
837.803	5503
837.896	2851
837.989	2061
838.083	3524
838.176	5061
838.269	8261
838.363	4574
838.456	2618
838.549	2431
838.642	3340
838.735	5348
838.829	5598
838.922	2158
839.015	2020
839.108	970
839.201	1096
839.294	1689
839.387	2061
839.480	2363
839.573	3422
839.666	4957
839.759	3322
839.852	352
839.945	2255
840.038	1443
840.131	1452
840.223	1215
840.316	1941
840.409	955
840.502	1552
840.594	2207
840.687	1483
840.780	1991
840.873	1896
840.965	2177
841.058	2877
841.150	4909
841.243	6537
841.336	3210
841.428	1326
841.521	484
841.613	1284
841.706	1591
841.798	2248
841.890	1345
841.983	837
842.075	1914
842.167	1893
842.260	2027
842.352	3405
842.444	3048
842.537	5674
842.629	12073
842.721	6557
842.813	1840
842.905	1078
842.997	1135
843.090	2547
843.182	2184
843.274	5643
843.366	12782
843.458	25636
843.550	29632
843.642	8815
843.734	1242
843.826	2235
843.918	3232
844.009	2551
844.101	1561
844.193	1055
844.285	783
844.377	1976
844.469	1702
844.560	1792
844.652	1473
844.744	1480
844.835	1331
844.927	2114
845.019	2153
845.110	2910
845.202	971
845.293	2205
845.385	1324
845.476	1081
845.568	1352
845.659	1812
845.751	1681
845.842	1018
845.934	684
846.025	1468
846.116	1109
846.208	1636
846.299	327
846.390	1990
846.482	1402
846.573	2526
846.664	2466
846.755	2795
846.846	4432
846.937	1598
847.029	752
847.120	642
847.211	1142
847.302	2027
847.393	1735
847.484	1445
847.575	566
847.666	911
847.757	607
847.847	1209
847.938	1339
848.029	1264
848.120	236
848.211	1315
848.302	1366
848.392	1828
848.483	1851
848.574	1500
848.664	859
848.755	2312
848.846	223
848.936	1869
849.027	778
849.118	817
849.208	1367
849.299	1548
849.389	1166
849.480	2052
849.570	1970
849.661	3529
849.751	4065
849.841	3236
849.932	1429
850.022	1126
850.112	1676
850.203	635
850.293	515
850.383	2041
850.474	777
850.564	1787
850.654	1696
850.744	1064
850.834	1010
850.924	1599
851.014	1043
851.104	1761
851.194	1445
851.284	1475
851.374	3024
851.464	1708
851.554	1891
851.644	2000
851.734	2634
851.824	3961
851.914	3603
852.004	6414
852.094	9203
852.183	5445
852.273	1938
852.363	1978
852.452	1361
852.542	801
852.632	1406
852.721	1184
852.811	806
852.901	1884
852.990	564
853.080	1648
853.169	1009
853.259	1735
853.348	1012
853.438	1332
853.527	1717
853.617	2035
853.706	1155
853.795	2201
853.885	3540
853.974	6653
854.063	10455
854.152	20669
854.242	15791
854.331	4708
854.420	1775
854.509	1680
854.598	1099
854.687	2598
854.777	1706
854.866	1257
854.955	1813
855.044	865
855.133	1294
855.222	1138
855.311	347
855.400	1956
855.488	259
855.577	1566
855.666	1092
855.755	2661
855.844	1882
855.933	3895
856.021	2709
856.110	1838
856.199	975
856.288	1636
856.376	449
856.465	1338
856.554	1550
856.642	1594
856.731	1025
856.819	1799
856.908	754
856.996	1448
857.085	408
857.173	1954
857.262	361
857.350	1507
857.438	-26
857.527	1756
857.615	377
857.703	2103
857.792	163
857.880	1556
857.968	745
858.056	1021
858.145	1421
858.233	962
858.321	680
858.409	1710
858.497	653
858.585	36
858.673	996
858.761	640
858.849	907
858.937	850
859.025	940
859.113	1577
859.201	196
859.289	698
859.377	1339
859.465	1456
859.552	485
859.640	1158
859.728	1032
859.816	1154
859.903	1147
859.991	1071
860.079	428
860.166	646
860.254	496
860.342	274
860.429	110
860.517	1049
860.604	923
860.692	690
860.779	34
860.867	1109
860.954	903
861.042	1383
861.129	1585
861.216	1553
861.304	365
861.391	1025
861.478	442
861.565	1022
861.653	1505
861.740	-146
861.827	618
861.914	1490
862.001	1155
862.089	688
862.176	300
862.263	517
862.350	1539
862.437	76
862.524	78
862.611	965
862.698	436
862.785	1265
862.871	1062
862.958	1118
863.045	-377
863.132	437
863.219	327
863.306	-103
863.392	816
863.479	802
863.566	545
863.652	797
863.739	1149
863.826	1554
863.912	262
863.999	1021
864.086	823
864.172	1113
864.259	274
864.345	1495
864.432	944
864.518	383
864.604	441
864.691	464
864.777	894
864.863	1111
864.950	719
865.036	1240
865.122	426
865.209	2095
865.295	404
865.381	910
865.467	349
865.553	896
865.639	422
865.726	1576
865.812	1226
865.898	3059
865.984	5168
866.070	8250
866.156	13980
866.242	7287
866.328	1806
866.414	620
866.499	585
866.585	943
866.671	-32
866.757	555
866.843	880
866.928	31
867.014	194
867.100	1027
867.186	1119
867.271	2213
867.357	877
867.442	2925
867.528	2089
867.614	644
867.699	1093
867.785	1152
867.870	709
867.956	1557
868.041	1384
868.127	1552
868.212	1295
868.297	2553
868.383	723
868.468	1826
868.553	2723
868.639	3891
868.724	3786
868.809	8766
868.894	3494
868.979	868
869.065	735
869.150	620
869.235	357
869.320	-319
869.405	-169
869.490	668
869.575	-165
869.660	466
869.745	558
869.830	627
869.915	323
870.000	612
870.085	237
870.169	584
870.254	1108
870.339	548
870.424	-543
870.509	1225
870.593	591
870.678	-364
870.763	332
870.847	561
870.932	-616
871.016	285
871.101	-66
871.186	691
871.270	704
871.355	746
871.439	901
871.523	498
871.608	-263
871.692	325
871.777	586
871.861	1179
871.945	-405
872.030	1196
872.114	-159
872.198	726
872.282	-318
872.367	374
872.451	234
872.535	920
872.619	108
872.703	793
872.787	-345
872.871	188
872.955	830
873.039	-488
873.123	154
873.207	1299
873.291	-125
873.375	683
873.459	2
873.543	615
873.627	-631
873.711	-103
873.794	1
873.878	1065
873.962	-89
874.045	290
874.129	859
874.137	831
874.213	550
874.245	451
874.296	296
874.352	161
874.380	94
874.460	140
874.464	142
874.547	871
874.568	702
874.631	185
874.676	576
874.714	928
874.784	539
874.798	455
874.881	902
874.892	725
874.965	-448
874.999	52
875.048	697
875.107	163
875.131	-40
875.215	300
875.215	300
875.298	491
875.323	484
875.381	519
875.430	138
875.465	-158
875.538	963
875.548	1113
875.631	356
875.646	339
875.714	336
875.753	32
875.798	-369
875.861	32
875.881	168
875.964	-133
875.968	-122
876.047	157
876.076	151
876.130	39
876.183	31
876.213	89
876.291	215
876.296	215
876.379	662
876.398	624
876.462	474
876.506	527
876.545	647
876.613	757
876.628	763
876.711	-141
876.721	-103
876.794	155
876.828	228
876.877	388
876.935	263
876.960	189
877.043	835
877.043	834
877.125	654
877.150	791
877.208	966
877.258	796
877.291	777
877.365	189
877.374	102
877.456	670
877.472	655
877.539	696
877.579	665
877.622	510
877.687	799
877.704	935
877.787	680
877.794	678
877.869	408
877.901	215
877.952	-18
878.008	387
878.034	600
878.115	351
878.117	344
878.199	31
878.222	163
878.282	537
878.329	337
878.364	232
878.437	280
878.447	247
878.529	1063
878.544	806
878.611	-233
878.651	6
878.694	318
878.758	58
878.776	4
878.858	-202
878.865	-158
878.941	95
878.972	130
879.023	293
879.078	80
879.105	-62
879.185	667
879.187	682
879.269	113
879.292	159
879.351	372
879.399	171
879.433	-16
879.506	406
879.516	440
879.598	274
879.613	189
879.680	64
879.720	227
879.762	202
879.827	-11
879.844	45
879.926	258
879.933	308
880.007	401
880.040	234
880.089	100
880.147	311
880.171	317
880.253	576
880.254	579
880.335	1241
880.360	1421
880.417	1669
880.467	2099
880.499	2419
880.574	3806
880.580	3891
880.662	2700
880.680	2233
880.744	588
880.787	398
880.825	253
880.893	-267
880.907	-351
880.989	37
881.000	73
881.070	353
881.106	106
881.152	-170
881.213	-220
881.233	-265
881.315	155
881.319	140
881.396	-114
881.426	-40
881.478	-113
881.532	-481
881.559	-491
881.639	18
881.641	26
881.722	-412
881.745	-277
881.803	357
881.852	645
881.885	446
881.958	85
881.966	126
882.047	371
882.064	500
882.129	539
882.171	389
882.210	533
882.277	1087
882.291	1099
882.372	455
882.383	410
882.454	516
882.489	392
882.535	-103
882.596	-133
882.616	92
882.697	491
882.702	529
882.778	462
882.808	340
882.859	184
882.914	236
882.940	139
883.020	-354
883.021	-355
883.102	-133
883.127	-215
883.183	-488
883.233	-350
883.264	-140
883.339	195
883.345	180
883.426	-386
883.445	-439
883.507	-72
883.551	49
883.587	-203
883.657	-866
883.668	-868
883.749	353
883.763	329
883.830	-181
883.869	-166
883.910	97
883.975	372
883.991	325
884.072	116
884.081	86
884.152	314
884.187	405
884.233	298
884.292	324
884.314	344
884.394	244
884.398	245
884.475	-11
884.504	-204
884.555	53
884.610	265
884.636	38
884.716	-250
884.716	-246
884.797	-22
884.821	108
884.877	-122
884.927	-583
884.958	-529
885.033	132
885.038	131
885.118	-338
885.139	-377
885.199	131
885.244	369
885.279	331
885.350	371
885.359	334
885.439	-109
885.456	-180
885.520	254
885.561	431
885.600	265
885.667	336
885.680	363
885.760	185
885.773	179
885.840	184
885.878	123
885.920	118
885.984	8
886.000	-57
886.080	-22
886.089	-48
886.160	-579
886.195	-782
886.240	-183
886.300	685
886.320	560
886.400	-113
886.406	-149
886.480	-129
886.511	-180
886.560	-45
886.616	211
886.640	283
886.720	503
886.722	504
886.800	-368
886.827	-546
886.879	-208
886.932	-187
886.959	-203
887.038	18
887.039	21
887.119	248
887.143	282
887.198	-250
887.248	-656
887.278	-516
887.354	-254
887.358	-253
887.437	-22
887.459	-38
887.517	-72
887.564	10
887.596	-44
887.669	-276
887.676	-264
887.755	7
887.774	76
887.835	-301
887.880	-614
887.914	-289
887.985	336
887.994	351
888.073	558
888.090	569
888.153	-11
888.195	-303
888.232	-219
888.300	-159
888.311	-87
888.391	548
888.405	623
888.470	-68
888.510	-399
888.549	-20
888.615	558
888.628	457
888.708	-147
888.720	-235
888.787	119
888.825	292
888.866	274
888.930	268
888.945	338
889.024	715
889.035	765
889.103	156
889.140	-165
889.182	-171
889.245	-180
889.261	-205
889.340	-321
889.349	-327
889.419	140
889.454	358
889.498	227
889.559	73
889.577	143
889.656	454
889.664	487
889.735	-139
889.768	-433
889.814	-235
889.873	36
889.978	-318
890.083	939
890.187	-176
890.292	-322
890.397	282
890.501	507
890.606	224
890.710	545
890.815	-56
890.919	-89
891.024	-660
891.128	738
891.233	-24
891.337	565
891.442	-626
891.546	245
891.650	-56
891.755	743
891.859	609
891.963	-43
892.068	-378
892.172	-591
892.276	-984
892.380	-291
892.484	40
892.589	-545
892.693	-459
892.797	292
892.901	-236
893.005	362
893.109	-293
893.213	138
893.317	429
893.421	1049
893.525	-173
893.629	574
893.733	-434
893.837	-264
893.941	-471
894.045	78
894.148	-194
894.252	1292
894.356	-565
894.460	331
894.564	-155
894.667	-334
894.771	-437
894.875	20
894.978	242
895.082	271
895.186	247
895.289	-176
895.393	-751
895.496	687
895.600	-631
895.703	279
895.807	575
895.910	-76
896.014	221
896.117	130
896.221	219
896.324	455
896.427	-268
896.531	-730
896.634	-241
896.737	76
896.840	-129
896.944	-100
897.047	-418
897.150	68
897.253	76
897.356	645
897.460	-433
897.563	313
897.666	-512
897.769	-287
897.872	33
897.975	519
898.078	518
898.181	114
898.284	-428
898.387	-460
898.490	-1211
898.593	411
898.695	-1106
898.798	122
898.901	-440
899.004	427
899.107	-55
899.209	-18
899.312	160
899.415	128
899.518	-106
899.620	-200
899.723	-387
899.826	236
899.928	-293
900.031	443
900.133	-286
900.236	14
900.338	-167
900.441	492
900.543	-689
900.646	-453
900.748	-187
900.851	42
900.953	-46
901.055	-92
901.158	7
901.260	-128
901.362	629
901.465	643
901.567	-67
901.669	-482
901.771	-158
901.873	117
901.976	149
902.078	-187
902.180	-351
902.282	83
902.384	76
902.486	-8
902.588	-294
902.690	-473
902.792	669
902.894	309
902.996	207
903.098	460
903.200	-233
903.302	180
903.404	-711
903.505	541
903.607	-795
903.709	439
903.811	-407
903.913	-162
904.014	545
904.116	907
904.218	1
904.319	-74
904.421	160
904.523	447
904.624	335
904.726	-122
904.827	-393
904.929	128
905.030	375
905.132	-160
905.233	740
905.335	174
905.436	-742
905.537	-276
905.639	-527
905.740	-573
905.841	-169
905.943	211
906.044	-250
906.145	40
906.247	-320
906.348	71
906.449	-403
906.550	256
906.651	259
906.752	-61
906.854	-503
906.955	-337
907.056	132
907.157	414
907.258	-269
907.359	424
907.460	-316
907.561	-564
907.662	-266
907.762	307
907.863	-41
907.964	-652
908.065	239
908.166	245
908.267	-575
908.367	-198
908.468	-75
908.569	714
908.670	-309
908.770	653
908.871	-312
908.971	515
909.072	-693
909.173	-65
909.273	357
909.374	368
909.474	96
909.575	439
909.675	164
909.776	294
909.876	4
909.977	386
910.077	-383
910.177	171
910.278	-888
910.378	-475
910.478	-955
910.579	-412
910.679	-784
910.779	-266
910.879	-133
910.980	-595
911.080	-984
911.180	459
911.280	-646
911.380	164
911.480	-442
911.580	186
911.680	33
911.780	-187
911.880	-192
911.980	-137
912.080	-391
912.180	-485
912.280	-509
912.380	-300
912.480	-968
912.580	897
912.679	-524
912.779	-333
912.879	-483
912.979	-342
913.078	-955
913.178	-286
913.278	-154
913.377	-207
913.477	253
913.577	-343
913.676	-671
913.776	-353
913.875	-247
913.975	-166
914.074	-338
914.174	51
914.273	-148
914.373	-2
914.472	-660
914.572	-554
914.671	-1065
914.770	-481
914.870	-402
914.969	-580
915.068	-974
915.167	329
915.267	-430
915.366	250
915.465	-44
915.564	-719
915.663	-223
915.763	4
915.862	-46
915.961	217
916.060	-374
916.159	-222
916.258	-905
916.357	-911
916.456	-360
916.555	-383
916.654	151
916.752	21
916.851	-159
916.950	408
917.049	228
917.148	-28
917.247	121
917.345	264
917.444	-688
917.543	-323
917.642	-1069
917.740	26
917.839	-265
917.937	-17
918.036	-321
918.135	-265
918.233	-426
918.332	-781
918.430	-1330
918.529	-18
918.627	136
918.726	-341
918.824	-546
918.923	-346
919.021	-498
919.119	-796
919.218	-221
919.316	716
919.414	-5
919.512	-35
919.611	-1396
919.709	1
919.807	-243
919.905	-507
920.003	-460
920.102	-1199
920.200	-575
920.298	-383
920.396	-389
920.494	687
920.592	-1025
920.690	-593
920.788	-1015
920.886	260
920.984	-362
921.082	-639
921.180	-573
921.277	-463
921.375	-347
921.473	-491
921.571	-643
921.669	-109
921.766	-200
921.864	-619
921.962	-598
922.060	-460
922.157	-371
922.255	-431
922.352	-134
922.450	-386
922.548	-212
922.645	-1243
922.743	-256
922.840	-591
922.938	62
923.035	-120
923.133	-955
923.230	-239
923.327	-697
923.425	-58
923.522	-1292
923.619	39
923.717	-602
923.814	-407
923.911	-881
924.008	-277
924.106	-437
924.203	-895
924.300	-1068
924.397	174
924.494	230
924.591	60
924.688	-87
924.786	66
924.883	-808
924.979	-640
925.077	-593
925.173	19
925.270	-250
925.367	-334
925.464	-65
925.561	-348
925.658	-1117
925.755	-399
925.852	-482
925.948	-216
926.045	-524
926.142	32
926.239	-988
926.335	343
926.432	-393
926.529	-398
926.625	-561
926.722	-455
926.818	-969
926.915	-353
927.011	-1036
927.108	-656
927.204	-527
927.301	-526
927.397	-940
927.494	-390
927.590	-806
927.687	181
927.783	-1069
927.879	-301
927.976	-822
928.072	-28
928.168	-399
928.264	-401
928.361	-226
928.457	-466
928.553	-649
928.649	-245
928.745	-1248
928.841	-289
928.937	-741
929.033	-461
929.129	-721
929.225	-410
929.321	-542
929.417	-465
929.513	-1116
929.609	-236
929.705	-524
929.801	-926
929.897	-1055
929.993	-982
930.089	-401
930.184	-554
930.280	-420
930.376	-978
930.471	-628
930.567	-602
930.663	-890
930.758	-334
930.854	-1002
930.950	-771
931.045	-668
931.141	-1016
931.236	-272
931.332	-706
931.427	-839
931.523	-145
931.618	-600
931.714	-743
931.809	-509
931.905	-921
932.000	-1033
932.095	-597
932.191	-597
932.286	-316
932.381	-790
932.476	-1022
932.572	-788
932.667	-279
932.762	-1262
932.857	201
932.952	-1458
933.047	-444
933.142	-398
933.237	-969
933.332	-967
933.427	-545
933.522	-843
933.617	-788
933.712	-972
933.807	-649
933.902	-1040
933.997	-492
934.092	-500
934.187	-409
934.282	-802
934.376	-818
934.471	-1005
934.566	-952
934.661	-820
934.755	-362
934.850	-512
934.945	-362
935.039	-179
935.134	-1263
935.228	-935
935.323	-474
935.417	-1115
935.512	-788
935.606	-600
935.701	-514
935.795	-1355
935.890	-783
935.984	-746
936.079	289
936.173	-1137
936.267	-602
936.362	-1184
936.456	-91
936.550	-294
936.644	-593
936.738	-712
936.833	-316
936.927	-1056
937.021	-639
937.115	-1175
937.209	-660
937.303	-889
937.397	-822
937.491	-1300
937.585	-714
937.679	-1432
937.773	314
937.867	-1057
937.961	-508
938.055	-630
938.149	-747
938.243	-182
938.337	-205
938.430	-647
938.524	-845
938.618	-1222
938.712	-984
938.805	-509
938.899	-951
938.993	-425
939.086	-848
939.180	-1355
939.274	-1
939.367	-1088
939.461	-524
939.554	-590
939.648	-878
939.741	-368
939.835	-669
939.928	-883
940.022	-887
940.115	-1276
940.208	-457
940.302	-214
940.395	336
940.488	-1042
940.582	-656
940.675	-823
940.768	-982
940.861	-1398
940.954	-570
941.048	-271
941.141	-702
941.234	-1244
941.327	-153
941.420	-32
941.513	-496
941.606	-535
941.699	133
941.792	-664
941.885	-564
941.978	-613
942.071	-580
942.164	-1037
942.257	-717
942.349	-633
942.442	-843
942.535	-1309
942.628	-379
942.721	-497
942.813	-773
942.906	-574
942.999	-752
943.091	-1019
943.184	-561
943.277	-1388
943.369	23
943.462	-494
943.554	-907
943.647	-1078
943.739	-1030
943.832	-580
943.924	-1718
944.017	-986
944.109	-899
944.201	-1539
944.294	-1307
944.386	-1143
944.478	-435
944.571	-544
944.663	-827
944.755	-634
944.847	-257
944.940	-1121
945.032	-646
945.124	-1092
945.216	310
945.308	-1104
945.400	-73
945.492	-563
945.584	494
945.676	-1087
945.768	-797
945.860	-853
945.952	-417
946.044	-1436
946.136	-402
946.228	-1499
946.320	-470
946.412	-1240
946.503	-1069
946.595	-545
946.687	-515
946.779	-929
946.870	-640
946.962	-1308
947.054	-623
947.145	-901
947.237	-398
947.329	-588
947.420	-796
947.512	-1095
947.603	-1125
947.695	-442
947.786	-1277
947.878	-827
947.969	-799
948.061	-1175
948.152	-842
948.243	-384
948.335	-735
948.426	-876
948.517	-755
948.609	-1045
948.700	18
948.791	-676
948.882	-468
948.973	-1349
949.065	-649
949.156	-1047
949.247	-1079
949.338	-1023
949.429	-972
949.520	-517
949.611	-1074
949.702	-510
949.793	-903
949.884	-1354
949.975	-616
950.066	-626
950.157	-738
950.247	-1067
950.338	-1815
950.429	-1632
950.520	-414
950.611	-744
950.701	-663
950.792	-1067
950.883	-336
950.973	-1111
951.064	-618
951.155	-887
951.245	-937
951.336	-1296
951.427	-136
951.517	-1026
951.608	-4
951.698	-1072
951.788	-1011
951.879	-1324
951.969	-1185
952.060	-1433
952.150	-715
952.240	-1081
952.331	-922
952.421	-1428
952.511	-480
952.602	-1665
952.692	-842
952.782	-271
952.872	-1141
952.962	-1356
953.052	-1304
953.143	-775
953.233	-799
953.323	-1036
953.413	-520
953.503	-973
953.593	-335
953.683	-590
953.773	-1466
953.863	-1826
953.953	-1198
954.042	-1484
954.132	-918
954.222	46
954.312	-554
954.402	-791
954.492	-98
954.581	-809
954.671	-883
954.761	-1433
954.850	-629
954.940	-1038
955.030	-1060
955.119	-1214
955.209	-570
955.298	-1206
955.388	-1102
955.477	-1320
955.567	-632
955.656	-874
955.746	-98
955.835	-1551
955.925	-727
956.014	-344
956.103	-1631
956.193	-1246
956.282	-273
956.371	-885
956.461	-955
956.550	-1615
956.639	-789
956.728	-605
956.817	-1427
956.906	-1303
956.995	-160
957.085	-1499
957.174	-1071
957.263	-1848
957.352	-1011
957.441	-1104
957.530	-955
957.619	-322
957.708	-765
957.796	-1369
957.885	-222
957.974	-1454
958.063	-575
958.152	-1795
958.241	-740
958.329	-1620
958.418	-842
958.507	-1018
958.596	-51
958.684	-978
958.773	-935
958.861	-1634
958.950	-1106
959.039	-1010
959.127	-99
959.216	-1030
959.304	-813
959.393	-1065
959.481	-2172
959.570	-1415
959.658	-1062
959.746	-590
959.835	105
959.923	-563
960.011	-313
960.100	-567
960.188	-555
960.276	-1769
960.365	-726
960.453	-1338
960.541	-1470
960.629	-1028
960.717	-166
960.805	-1241
960.893	-809
960.981	-1691
961.069	-792
961.158	-1616
961.245	-1506
961.333	-1208
961.421	-777
961.509	-1738
961.597	-942
961.685	-1626
961.773	-1769
961.861	-2061
961.949	-890
962.036	-1680
962.124	-1295
962.212	-1554
962.299	-1514
962.387	-1459
962.475	-1140
962.562	-1922
962.650	-883
962.738	-1331
962.825	-1914
962.913	-1481
963.000	-1174
963.088	-1397
963.175	-858
963.263	-1038
963.350	-1480
963.438	-1742
963.525	-981
963.612	-223
963.700	-336
963.787	1617
963.874	1517
963.962	-979
964.049	-1351
964.136	-2038
964.223	-1701
964.310	-1470
964.398	-1317
964.485	-916
964.572	-1359
964.659	-1025
964.746	-309
964.833	-784
964.920	-1054
965.007	-1395
965.094	-1508
965.181	-1154
965.268	-1090
965.355	-986
965.441	-1440
965.528	-1291
965.615	-823
965.702	-1718
965.789	-1275
965.875	-1395
965.962	-1337
966.049	-1285
966.136	-1579
966.222	-1739
966.309	-2014
966.395	-2385
966.482	-1518
966.569	-2044
966.655	-2128
966.742	-1585
966.828	-1072
966.915	-760
967.001	-1211
967.087	-1326
967.174	-1096
967.260	-1492
967.347	-491
967.433	-1483
967.519	308
967.605	-176
967.692	-1105
967.778	-1708
967.864	-804
967.950	-1602
968.036	-1549
968.123	-1154
968.209	-1580
968.295	-2274
968.381	-528
968.467	-916
968.553	-394
968.639	-1137
968.725	-1613
968.811	-1002
968.897	-1163
968.983	-1712
969.069	-1841
969.154	-1801
969.240	-1086
969.326	-1697
969.412	-1017
969.497	-2533
969.583	-1059
969.669	-2196
969.755	-537
969.840	-1325
969.926	-2236
970.012	-1784
970.097	-763
970.183	-2051
970.268	-375
970.354	-1516
970.439	-1455
970.525	-255
970.610	-1440
970.696	-1488
970.781	-699
970.866	-1853
970.952	-744
971.037	-2172
971.122	-1601
971.208	-1872
971.293	-1581
971.378	-2009
971.463	-1155
971.549	-1063
971.634	-1707
971.719	-1764
971.804	-2117
971.889	-777
971.974	-1405
972.059	-1821
972.144	-1814
972.229	-1691
972.314	-1471
972.399	-1556
972.484	-1277
972.569	-2079
972.654	-1353
972.739	-1443
972.824	-1005
972.908	-1889
972.993	-1193
973.078	-900
973.163	-1638
973.247	-1714
973.332	-2244
973.417	-440
973.501	-1589
973.586	-1387
973.671	-1167
973.755	-1744
973.840	-1378
973.924	-1188
974.009	-844
974.093	-2294
974.178	-1149
974.262	-1242
974.346	-1309
974.431	-1720
974.515	-1704
974.600	-1784
974.684	-955
974.768	-1436
974.852	-1441
974.937	-1725
975.021	-1098
975.105	-1459
975.189	-1519
975.273	-2394
975.358	-1726
975.442	-2403
975.526	-674
975.610	-1905
975.694	-1392
975.778	-1345
975.862	-797
975.946	-3160
976.030	-480
976.114	-1952
976.198	-1714
976.281	-1347
976.365	-577
976.449	-1889
976.533	-1606
976.617	-1818
976.700	-1398
976.784	-1942
976.868	-545
976.951	-1186
977.035	-1145
977.119	-1702
977.202	-1060
977.286	-1640
977.369	-1399
977.453	-1983
977.536	-1322
977.620	-1443
977.703	-1049
977.787	-2400
977.870	-414
977.953	-1295
978.037	-1883
978.120	-1199
978.203	-1776
978.287	-1299
978.370	-1412
978.453	-1835
978.536	-1614
978.620	-1184
978.703	-578
978.786	-1450
978.869	-1064
978.952	-1913
979.035	-765
979.118	-899
979.201	-2376
979.284	-1447
979.367	-1495
979.450	-638
979.533	-1905
979.616	-1658
979.699	-780
979.782	-1772
979.865	-1432
979.948	-1413
980.030	-1878
980.113	-1928
980.196	-1530
980.279	-903
980.361	-1682
980.444	-1384
980.526	-1096
980.609	-1140
980.692	-1769
980.774	-1129
980.857	-1886
980.939	-1411
981.022	-690
981.104	-1518
981.187	-1483
981.269	-1296
981.352	-1511
981.434	-2321
981.516	-1695
981.599	-611
981.681	-1437
981.763	-1467
981.846	-2105
981.928	-2010
982.010	-1282
982.092	-2379
982.174	-1215
982.256	-2184
982.339	-1672
982.421	-2184
982.503	-866
982.585	-2041
982.667	-1319
982.749	-1792
982.831	-1458
982.913	-2560
982.995	-695
983.077	-2012
983.158	-1110
983.240	-1794
983.322	-1086
983.404	-1470
983.486	-1317
983.568	-2066
983.649	-2033
983.731	-1883
983.813	-1654
983.894	-580
983.976	-2058
984.058	-2540
984.139	-1564
984.221	-1985
984.302	-1227
984.384	-2595
984.465	-2502
984.547	-932
984.628	-1560
984.710	-1753
984.791	-1944
984.872	-2402
984.954	-1735
985.035	-1135
985.116	-1845
985.198	-2704
985.279	-1042
985.360	-2338
985.441	-1482
985.522	-930
985.604	-1433
985.685	-2707
985.766	-574
985.847	-1680
985.928	-1659
986.009	-1491
986.090	-1448
986.171	-1341
986.252	-1540
986.333	-1553
986.414	-1400
986.495	-937
986.576	-1341
986.656	-1868
986.737	-977
986.818	-1883
986.899	-1680
986.980	-2865
987.060	-836
987.141	-2135
987.222	-1507
987.302	-1686
987.383	-1922
987.464	-1991
987.544	-879
987.625	-1941
987.705	-933
987.786	-1803
987.866	-1615
987.947	-1964
988.027	-1710
988.108	-1625
988.188	-1100
988.268	-1733
988.349	-1547
988.429	-1528
988.509	-1395
988.589	-2006
988.670	-2551
988.750	-634
988.830	-1102
988.910	-1639
988.990	-1003
989.070	-1928
989.151	-1172
989.231	-2368
989.311	-1116
989.391	-2575
989.471	-1801
989.551	-2098
989.631	-2461
989.711	-1443
989.791	-1120
989.870	-2264
989.950	-1039
990.030	-1485
990.110	-1275
990.190	-1428
990.269	-2187
990.349	-1957
990.429	-2208
990.509	-2043
990.588	-2141
990.668	-1818
990.747	-1906
990.827	-1628
990.907	-646
990.986	-2167
991.066	-1231
991.145	-2277
991.225	-2192
991.304	-2090
991.383	-1927
991.463	-2298
991.542	-1649
991.622	-1683
991.701	-1511
991.780	-1783
991.859	-1656
991.939	-1963
992.018	-1739
992.097	-1900
992.176	-2017
992.256	-1934
992.335	-2375
992.414	-1250
992.493	-922
992.572	-2433
992.651	-697
992.730	-2227
992.809	-1448
992.888	-2265
992.967	-1476
993.046	-1985
993.125	-1709
993.203	-2508
993.282	-2742
993.361	-1614
993.440	-2364
993.519	-1966
993.597	-2064
993.676	-2594
993.755	-1991
993.834	-1810
993.912	-1533
993.991	-1327
994.069	-2330
994.148	-2553
994.226	-1651
994.305	-2112
994.384	-1984
994.462	-2139
994.540	-2108
994.619	-2190
994.697	-2160
994.776	-2195
994.854	-1155
994.932	-1738
995.011	-1076
995.089	-1807
995.167	-2247
995.245	-2154
995.324	-2049
995.402	-1290
995.480	-2016
995.558	-1608
995.636	-2074
995.714	-2130
995.792	-1209
995.870	-2914
995.948	-1623
996.026	-1732
996.104	-2344
996.182	-1926
996.260	-1861
996.338	-1654
996.416	-1886
996.494	-1781
996.572	-1490
996.649	-2620
996.727	-1588
996.805	-2300
996.883	-2116
996.960	-2454
997.038	-2217
997.116	-2595
997.193	-2975
997.271	-1645
997.348	-2235
997.426	-2566
997.504	-2430
997.581	-2316
997.658	-1788
997.736	-2273
997.813	-1729
997.891	-1855
997.968	-1576
998.046	-1416
998.123	-2215
998.200	-1724
998.277	-2385
998.355	-1594
998.432	-3082
998.509	-2350
998.586	-2013
998.663	-1718
998.741	-2054
998.818	-1347
998.895	-2174
998.972	-1798
999.049	-1811
999.126	-2749
999.203	-1504
999.280	-2873
999.357	-2167
999.434	-2419
999.511	-1890
999.587	-1003
999.664	-1644
999.741	-2435
999.818	-1879
999.895	-2072
999.971	-1082
1000.048	-2191
1000.125	-1629
1000.202	-2811
1000.278	-1938
1000.355	-2070
1000.431	-1987
1000.508	-3312
1000.584	-1523
1000.661	-1802
1000.738	-2415
1000.814	-2839
1000.890	-1991
1000.967	-2892
1001.043	-1781
1001.120	-2865
1001.196	-2482
1001.272	-2494
1001.349	-1660
1001.425	-2529
1001.501	-2157
1001.577	-2488
1001.654	-1314
1001.730	-2714
1001.806	-1586
1001.882	-2507
1001.958	-1662
1002.034	-1979
1002.110	-1877
1002.186	-2476
1002.262	-2324
1002.338	-2383
1002.414	-1740
1002.490	-2164
1002.566	-2218
1002.642	-2755
1002.718	-1517
1002.794	-2114
1002.870	-2841
1002.945	-2623
1003.021	-1594
1003.097	-2873
1003.173	-1842
1003.248	-3006
1003.324	-2368
1003.400	-2109
1003.475	-2415
1003.551	-2371
1003.626	-2281
1003.702	-3081
1003.777	-1313
1003.853	-2078
1003.928	-2450
1004.004	-2474
1004.079	-1479
1004.155	-2364
1004.230	-3070
1004.305	-1871
1004.381	-2418
1004.456	-2676
1004.531	-2649
1004.607	-2072
1004.682	-2323
1004.757	-2064
1004.832	-2750
1004.907	-2620
1004.982	-2240
1005.057	-2053
1005.133	-2336
1005.208	-2913
1005.283	-2117
1005.358	-2152
1005.433	-2359
1005.508	-2027
1005.583	-2736
1005.657	-2173
1005.732	-1806
1005.807	-2982
1005.882	-2117
1005.957	-1882
1006.032	-2313
1006.106	-2276
1006.181	-2325
1006.256	-3368
1006.331	-1662
1006.405	-2669
1006.480	-2231
1006.554	-2263
1006.629	-2021
1006.704	-2551
1006.778	-2169
1006.853	-1893
1006.927	-1849
1007.002	-2356
1007.076	-2837
1007.150	-2448
1007.225	-1203
1007.299	-2016
1007.373	-2520
1007.448	-1726
1007.522	-1959
1007.596	-2656
1007.671	-3234
1007.745	-1811
1007.819	-1770
1007.893	-2479
1007.967	-1859
1008.041	-2934
1008.115	-1916
1008.190	-2721
1008.264	-2063
1008.338	-3000
1008.412	-2483
1008.486	-2744
1008.560	-2469
1008.633	-2593
1008.707	-2705
1008.781	-2709
1008.855	-2386
1008.929	-3055
1009.003	-2639
1009.076	-2511
1009.150	-2828
1009.224	-2374
1009.298	-2247
1009.371	-2912
1009.445	-2337
1009.519	-2683
1009.592	-2917
1009.666	-2444
1009.739	-1698
1009.813	-3142
1009.886	-1570
1009.960	-2348
1010.033	-1197
1010.107	-1865
1010.180	-2184
1010.253	-2690
1010.327	-3018
1010.400	-2734
1010.473	-2214
1010.547	-1724
1010.620	-2921
1010.693	-2711
1010.766	-2510
1010.840	-2107
1010.913	-2729
1010.986	-2784
1011.059	-1650
1011.132	-3050
1011.205	-2322
1011.278	-2825
1011.351	-1978
1011.424	-2535
1011.497	-2141
1011.570	-2632
1011.643	-2220
1011.716	-3443
1011.789	-1985
1011.862	-2255
1011.934	-1704
1012.007	-3578
1012.080	-2209
1012.153	-2186
1012.225	-1542
1012.298	-3051
1012.371	-1935
1012.443	-2292
1012.516	-3101
1012.588	-1872
1012.661	-2634
1012.733	-2901
1012.806	-2599
1012.879	-2975
1012.951	-2189
1013.023	-2689
1013.096	-1819
1013.168	-2572
1013.241	-1760
1013.313	-3014
1013.385	-2438
1013.458	-3027
1013.530	-2346
1013.602	-2929
1013.674	-2627
1013.746	-2536
1013.819	-2751
1013.891	-2568
1013.963	-3058
1014.035	-2464
1014.107	-2213
1014.179	-2537
1014.251	-2657
1014.323	-2406
1014.395	-1846
1014.467	-2159
1014.539	-2419
1014.611	-2522
1014.683	-2701
1014.754	-2331
1014.826	-2952
1014.898	-2813
1014.970	-3329
1015.042	-2293
1015.113	-1757
1015.185	-3449
1015.257	-2431
1015.328	-2288
1015.400	-2989
1015.471	-2473
1015.543	-2247
1015.615	-2333
1015.686	-2846
1015.757	-2459
1015.829	-2310
1015.901	-2199
1015.972	-2354
1016.043	-3746
1016.115	-2712
1016.186	-2318
1016.257	-2925
1016.328	-2640
1016.400	-2069
1016.471	-3070
1016.542	-2287
1016.613	-2233
1016.685	-2557
1016.756	-2158
1016.827	-2133
1016.898	-3217
1016.969	-2255
1017.040	-2092
1017.111	-2402
1017.182	-2460
1017.253	-2826
1017.324	-2946
1017.395	-2308
1017.466	-2797
1017.537	-1820
1017.608	-2136
1017.678	-2604
1017.749	-2926
1017.820	-1912
1017.891	-2614
1017.961	-2148
1018.032	-2835
1018.103	-2026
1018.173	-2530
1018.244	-1882
1018.315	-2865
1018.385	-1781
1018.456	-2828
1018.526	-2278
1018.597	-1633
1018.667	-2612
1018.738	-2605
1018.808	-2421
1018.878	-2924
1018.949	-1733
1019.019	-2113
1019.089	-2569
1019.160	-2648
1019.230	-2878
1019.300	-2684
1019.371	-3025
1019.441	-2724
1019.511	-2297
1019.581	-3047
1019.651	-2237
1019.721	-2140
1019.791	-2884
1019.861	-2801
1019.931	-2776
1020.001	-4084
1020.071	-2588
1020.141	-2746
1020.211	-2279
1020.281	-2719
1020.351	-2477
1020.421	-2366
1020.491	-2427
1020.560	-2698
1020.630	-2444
1020.700	-2383
1020.770	-2186
1020.839	-2613
1020.909	-3390
1020.979	-2710
1021.048	-2512
1021.118	-3178
1021.187	-2200
1021.257	-2259
1021.326	-2520
1021.396	-2680
1021.465	-3055
1021.535	-2228
1021.604	-3046
1021.674	-2688
1021.743	-2136
1021.812	-2809
1021.882	-1906
1021.951	-3317
1022.020	-1827
1022.089	-2883
1022.159	-3041
1022.228	-2670
1022.297	-1879
1022.366	-2989
1022.435	-3146
1022.504	-2538
1022.573	-2054
1022.642	-2742
1022.711	-2963
1022.781	-2171
1022.849	-3213
1022.918	-2542
1022.987	-2385
1023.056	-1950
1023.125	-2529
1023.194	-2707
1023.263	-2587
1023.331	-2769
1023.400	-2735
1023.469	-2999
1023.538	-2537
1023.606	-2355
1023.675	-2609
1023.744	-2751
1023.812	-2835
1023.881	-3114
1023.949	-2549
1024.018	-2751
1024.086	-2548
1024.155	-2968
1024.223	-2626
1024.292	-2421
1024.360	-1128
1024.429	-2689
1024.497	-3167
1024.565	-2101
1024.634	-2502
1024.702	-2554
1024.770	-2098
1024.838	-3070
1024.907	-2177
1024.975	-3234
1025.043	-2121
1025.111	-2994
1025.179	-1935
1025.247	-2916
1025.315	-2253
1025.383	-2595
1025.451	-2977
1025.519	-2446
1025.587	-3223
1025.655	-2589
1025.723	-2104
1025.791	-2613
1025.859	-2671
1025.927	-1781
1025.995	-2041
1026.062	-3173
1026.130	-2610
1026.198	-2989
1026.266	-2940
1026.333	-2394
1026.401	-2396
1026.469	-3512
1026.536	-1804
1026.604	-2969
1026.671	-3282
1026.739	-2593
1026.806	-2832
1026.874	-3032
1026.941	-2272
1027.009	-2413
1027.076	-2317
1027.144	-2058
1027.211	-2169
1027.278	-3048
1027.345	-2383
1027.413	-2461
1027.480	-2469
1027.547	-2790
1027.614	-3252
1027.682	-3068
1027.749	-1980
1027.816	-2338
1027.883	-2718
1027.950	-2884
1028.017	-2705
1028.084	-2687
1028.151	-2481
1028.218	-2969
1028.285	-2452
1028.352	-2742
1028.419	-2770
1028.486	-2923
1028.553	-2412
1028.619	-3524
1028.686	-2251
1028.753	-2245
1028.820	-2898
1028.886	-3436
1028.953	-2298
1029.020	-2329
1029.086	-2978
1029.153	-3289
1029.220	-1725
1029.286	-2858
1029.353	-2711
1029.419	-3534
1029.486	-2080
1029.552	-3261
1029.619	-2558
1029.685	-1968
1029.751	-2686
1029.818	-2049
1029.884	-2136
1029.951	-2459
1030.017	-2423
1030.083	-4072
1030.149	-2243
1030.216	-2459
1030.282	-1987
1030.348	-3273
1030.414	-2502
1030.480	-3057
1030.546	-2723
1030.612	-2577
1030.678	-3051
1030.744	-2576
1030.810	-2765
1030.876	-3041
1030.942	-2783
1031.008	-2728
1031.074	-2729
1031.140	-2212
1031.206	-2280
1031.272	-3707
1031.337	-2289
1031.403	-2377
1031.469	-3157
1031.534	-3242
1031.600	-2609
1031.666	-3376
1031.731	-3140
1031.797	-2454
1031.863	-2190
1031.928	-2880
1031.994	-2559
1032.059	-2497
1032.125	-2747
1032.190	-3049
1032.256	-2303
1032.321	-3280
1032.386	-2554
1032.452	-3045
1032.517	-2813
1032.582	-2567
1032.647	-2835
1032.713	-2300
1032.778	-2606
1032.843	-3431
1032.908	-3315
1032.974	-3157
1033.039	-2773
1033.104	-2319
1033.169	-2175
1033.234	-3031
1033.299	-2087
1033.364	-2490
1033.429	-2098
1033.494	-2863
1033.559	-2790
1033.624	-2560
1033.688	-2541
1033.753	-2745
1033.818	-2776
1033.883	-2972
1033.948	-3218
1034.013	-3023
1034.077	-2085
1034.142	-3395
1034.207	-2678
1034.271	-2912
1034.336	-2210
1034.400	-2777
1034.465	-2817
1034.530	-2848
1034.594	-2213
1034.658	-3278
1034.723	-3235
1034.787	-2663
1034.852	-1734
1034.916	-3490
1034.981	-3023
1035.045	-2948
1035.109	-2953
1035.173	-1781
1035.238	-3455
1035.302	-2701
1035.366	-3040
1035.430	-2921
1035.495	-2180
1035.559	-2531
1035.623	-2312
1035.687	-3203
1035.751	-2242
1035.815	-2589
1035.879	-2486
1035.943	-3484
1036.007	-2723
1036.071	-2789
1036.135	-2190
1036.198	-2590
1036.262	-2895
1036.326	-2789
1036.390	-2833
1036.454	-2696
1036.517	-2304
1036.581	-2866
1036.645	-2584
1036.709	-2572
1036.772	-2732
1036.836	-2892
1036.900	-2260
1036.963	-3779
1037.026	-2678
1037.090	-2591
1037.154	-2230
1037.217	-2987
1037.280	-2818
1037.344	-2680
1037.407	-2497
1037.471	-2677
1037.534	-3061
1037.597	-2995
1037.661	-2925
1037.724	-2965
1037.787	-2946
1037.850	-3095
1037.913	-3398
1037.977	-2187
1038.040	-2803
1038.103	-2228
1038.166	-3245
1038.229	-3206
1038.292	-3247
1038.355	-2305
1038.418	-2531
1038.481	-3627
1038.544	-2930
1038.607	-2589
1038.670	-2554
1038.732	-2630
1038.795	-3189
1038.858	-2579
1038.921	-3172
1038.984	-2538
1039.046	-2381
1039.109	-3616
1039.172	-2184
1039.234	-3370
1039.297	-3310
1039.360	-2905
1039.422	-2353
1039.485	-2440
1039.547	-2835
1039.610	-2607
1039.672	-2520
1039.734	-2934
1039.797	-2260
1039.859	-3310
1039.922	-2246
1039.984	-2820
1040.046	-2690
1040.109	-3464
1040.171	-2763
1040.233	-2729
1040.295	-3469
1040.358	-2573
1040.420	-2191
1040.482	-2826
1040.544	-3091
1040.606	-3511
1040.668	-3289
1040.730	-2309
1040.792	-2450
1040.854	-3598
1040.916	-2697
1040.978	-2924
1041.040	-1861
1041.102	-3511
1041.164	-2616
1041.225	-3050
1041.287	-2951
1041.349	-3178
1041.411	-2415
1041.472	-2692
1041.534	-3208
1041.596	-3061
1041.657	-2914
1041.719	-2806
1041.781	-3333
1041.842	-2631
1041.904	-3017
1041.965	-3556
1042.027	-3184
1042.088	-2652
1042.150	-2300
1042.211	-3473
1042.272	-2545
1042.334	-2482
1042.395	-1810
1042.456	-3596
1042.518	-3017
1042.579	-2771
1042.640	-2479
1042.701	-3186
1042.763	-2238
1042.824	-3175
1042.885	-2915
1042.946	-3794
1043.007	-2825
1043.068	-2352
1043.129	-2829
1043.190	-4183
1043.251	-2140
1043.312	-2957
1043.373	-2464
1043.434	-3325
1043.495	-2573
1043.556	-2921
1043.616	-2032
1043.677	-3084
1043.738	-2788
1043.799	-3379
1043.859	-2024
1043.920	-2985
1043.981	-2590
1044.041	-2447
1044.102	-3048
1044.162	-3014
1044.223	-3092
1044.284	-2650
1044.344	-2787
1044.405	-2875
1044.465	-2774
1044.525	-3010
1044.586	-2433
1044.646	-2194
1044.707	-1912
1044.767	-1821
1044.827	-2919
1044.887	-2955
1044.948	-2810
1045.008	-2993
1045.068	-3000
1045.128	-3243
1045.188	-3137
1045.249	-2657
1045.309	-2380
1045.369	-2645
1045.429	-2962
1045.489	-3112
1045.549	-2162
1045.609	-2508
1045.669	-2314
1045.729	-3197
1045.789	-1947
1045.848	-3227
1045.908	-2485
1045.968	-2490
1046.028	-2531
1046.088	-2648
1046.147	-2684
1046.207	-2489
1046.267	-2624
1046.326	-2670
1046.386	-1870
1046.446	-2113
1046.505	-1055
1046.565	-2221
1046.624	-1358
1046.684	-1828
1046.743	-1696
1046.803	-2146
1046.862	-1402
1046.922	0
