'Start Wavelength	183.907
'End Wavelength	1046.922
'Gate Delay	5.000
'Gate Width (ms)	1.050
'Laser Output Level	0.000
'X Position	0.000
'Y Position	0.000
'Z Position	0.000
'Grid Point Number	1.000
'Shot Number	100.000
183.907	1217.000
183.977	426.000
184.047	494
184.116	127
184.186	757
184.256	179
184.325	1017
184.395	326
184.465	726
184.534	60
184.604	-60
184.674	114
184.743	365
184.813	786
184.883	963
184.952	-152
185.022	139
185.092	630
185.161	684
185.231	615
185.301	448
185.370	730
185.440	392
185.509	-350
185.579	863
185.649	453
185.718	261
185.788	708
185.857	530
185.927	690
185.996	379
186.066	-646
186.136	684
186.205	-131
186.275	943
186.344	259
186.414	937
186.483	-2
186.553	1647
186.622	1648
186.692	434
186.761	-265
186.831	646
186.900	243
186.970	1231
187.039	1021
187.109	1893
187.178	1124
187.248	995
187.317	878
187.387	957
187.456	1152
187.526	1919
187.595	645
187.664	1188
187.734	1179
187.803	1691
187.873	1256
187.942	2116
188.012	590
188.081	960
188.150	1394
188.220	2458
188.289	1321
188.358	1116
188.428	744
188.497	1286
188.567	694
188.636	1446
188.705	510
188.775	772
188.844	1076
188.913	1205
188.983	1086
189.052	779
189.121	537
189.191	2128
189.260	2475
189.329	2800
189.399	1563
189.468	1885
189.537	998
189.606	2276
189.676	1531
189.745	1792
189.814	1216
189.883	2294
189.953	1515
190.022	3261
190.091	7667
190.161	7400
190.230	3407
190.299	1896
190.368	1531
190.437	2803
190.507	1391
190.576	2103
190.645	2093
190.714	1572
190.783	1043
190.853	1551
190.922	1382
190.991	1904
191.060	1711
191.129	2721
191.198	2207
191.268	2124
191.337	1533
191.406	1593
191.475	1588
191.544	1719
191.613	1036
191.682	1887
191.752	1825
191.821	1799
191.890	1684
191.959	1680
192.028	1868
192.097	2392
192.166	1683
192.235	1755
192.304	1443
192.373	2118
192.442	1185
192.511	1963
192.580	1697
192.650	1803
192.719	2584
192.788	2085
192.857	1815
192.926	2202
192.995	3097
193.064	4768
193.133	5850
193.202	6817
193.271	5027
193.340	5149
193.409	4932
193.478	5795
193.547	7762
193.615	10004
193.684	8148
193.753	5147
193.822	3394
193.891	2833
193.960	2661
194.029	2908
194.098	2024
194.167	2536
194.236	1900
194.305	2262
194.374	1957
194.443	2818
194.512	2615
194.580	2645
194.649	3201
194.718	3414
194.787	1772
194.856	2669
194.925	2092
194.994	3098
195.062	2222
195.131	3570
195.200	2964
195.269	4127
195.338	3253
195.407	2767
195.475	2797
195.544	3728
195.613	3338
195.682	2929
195.751	4213
195.819	2712
195.888	2934
195.957	5104
196.026	4166
196.094	4740
196.163	4556
196.232	3733
196.301	2838
196.369	4056
196.438	3275
196.507	3254
196.576	2942
196.644	2662
196.713	2917
196.782	1997
196.850	2708
196.919	2633
196.988	2721
197.056	2529
197.125	3378
197.194	3702
197.262	2638
197.331	3618
197.400	1960
197.468	3067
197.537	2083
197.606	3978
197.674	5553
197.743	8839
197.812	4953
197.880	8864
197.949	5925
198.017	8538
198.086	5635
198.155	4403
198.223	4756
198.292	9509
198.360	4453
198.429	4230
198.497	3541
198.566	8223
198.635	6984
198.703	4939
198.772	5508
198.840	12536
198.909	8709
198.977	4473
199.046	3886
199.114	4494
199.183	4205
199.251	3662
199.320	2804
199.388	3643
199.457	3475
199.525	4279
199.594	3354
199.662	4258
199.731	3311
199.799	4296
199.867	3721
199.936	3512
200.004	2901
200.073	3788
200.141	3095
200.210	3410
200.278	3414
200.346	3712
200.415	3871
200.483	4667
200.552	3691
200.620	4227
200.688	3499
200.757	3338
200.825	3595
200.893	4064
200.962	3514
201.030	3737
201.098	4080
201.167	4071
201.235	3583
201.303	3780
201.372	3606
201.440	4373
201.508	4370
201.577	4875
201.645	3882
201.713	3359
201.781	4017
201.850	4297
201.918	4042
201.986	4191
202.055	3076
202.123	4310
202.191	4063
202.259	4315
202.327	3865
202.396	4225
202.464	4291
202.532	5996
202.600	9689
202.669	6351
202.737	3967
202.805	4412
202.873	4040
202.941	5010
203.009	3997
203.078	4671
203.146	4170
203.214	4541
203.282	4569
203.350	4717
203.418	4140
203.487	4578
203.555	3760
203.623	4236
203.691	4435
203.759	4743
203.827	4650
203.895	5286
203.963	4817
204.031	4841
204.099	4613
204.168	4960
204.236	5124
204.304	5483
204.372	4686
204.440	4897
204.508	3982
204.576	4627
204.644	5459
204.712	4600
204.780	5107
204.848	5203
204.916	4784
204.984	5339
205.052	4890
205.120	6014
205.188	5264
205.256	5297
205.324	4577
205.392	5285
205.460	5289
205.528	6441
205.596	4510
205.664	5079
205.732	6642
205.799	16894
205.867	16923
205.935	8015
206.003	6280
206.071	5673
206.139	5999
206.207	6310
206.275	5845
206.343	5884
206.411	4625
206.478	6096
206.546	4932
206.614	5024
206.682	5652
206.750	5487
206.818	6090
206.885	6313
206.953	5249
207.021	5742
207.089	5196
207.157	5354
207.225	5996
207.292	6246
207.360	6655
207.428	6091
207.496	5701
207.563	5170
207.631	5627
207.699	6328
207.767	5361
207.834	5585
207.902	5582
207.970	6657
208.038	5559
208.105	6835
208.173	7665
208.241	8989
208.309	7487
208.376	8581
208.444	12135
208.512	8102
208.579	5634
208.647	6949
208.715	7209
208.782	7040
208.850	6082
208.918	6851
208.985	6612
209.053	7135
209.120	6249
209.188	6503
209.256	5940
209.323	7822
209.391	7929
209.459	7738
209.526	6691
209.594	7255
209.661	6661
209.729	7132
209.796	6157
209.864	7050
209.932	6647
209.999	7883
210.067	7948
210.134	7346
210.202	8144
210.269	9764
210.337	8150
210.404	6984
210.472	7187
210.539	7353
210.607	7783
210.674	8095
210.742	7442
210.809	7977
210.877	9011
210.944	9172
211.012	8236
211.079	8136
211.146	7196
211.214	7595
211.281	8527
211.349	8105
211.416	8030
211.484	8942
211.551	7933
211.618	8627
211.686	7782
211.753	7846
211.821	7553
211.888	8212
211.955	7964
212.023	7799
212.090	9208
212.157	9478
212.225	10686
212.292	18376
212.359	29539
212.427	43176
212.494	22964
212.561	13385
212.629	11345
212.696	10709
212.763	8766
212.831	9475
212.898	8272
212.965	8903
213.032	8837
213.100	10207
213.167	9673
213.234	9881
213.301	8409
213.369	8754
213.436	8243
213.503	8378
213.570	9341
213.638	10014
213.705	8880
213.772	8262
213.839	9342
213.906	10172
213.973	9619
214.041	8942
214.108	8384
214.175	8339
214.242	9084
214.309	9370
214.376	10104
214.444	10155
214.511	10107
214.578	10337
214.645	9711
214.712	10702
214.779	10073
214.846	10883
214.913	11271
214.980	11891
215.048	11820
215.115	12867
215.182	11049
215.249	10471
215.316	10117
215.383	9292
215.450	9066
215.517	8942
215.584	7479
215.651	8452
215.718	8505
215.785	9928
215.852	10270
215.919	10561
215.986	10262
216.053	8147
216.120	8355
216.187	9899
216.254	9885
216.321	9452
216.388	9640
216.455	10176
216.522	10418
216.589	12236
216.656	16731
216.722	15399
216.789	14103
216.856	15131
216.923	13518
216.990	12675
217.057	12700
217.124	15048
217.191	14364
217.258	17345
217.324	18847
217.391	18522
217.458	15093
217.525	13177
217.592	12279
217.659	12067
217.725	11665
217.792	14933
217.859	11688
217.926	9193
217.993	9243
218.059	8670
218.126	8254
218.193	8737
218.260	7364
218.327	7656
218.393	8132
218.460	7300
218.527	7254
218.594	9656
218.660	13360
218.727	12585
218.794	7964
218.860	6986
218.927	6921
218.994	7422
219.061	7606
219.127	9114
219.194	11747
219.261	7104
219.327	6588
219.394	6470
219.461	6459
219.527	6940
219.594	9528
219.661	7810
219.727	5489
219.794	7712
219.860	7066
219.927	9216
219.994	11979
220.060	15928
220.127	11569
220.193	12613
220.260	13557
220.326	18748
220.393	27031
220.460	29576
220.526	21601
220.593	16175
220.659	16014
220.726	19936
220.792	32943
220.859	32535
220.925	42102
220.992	46090
221.058	43769
221.125	37325
221.191	28646
221.258	16348
221.324	12811
221.391	11707
221.457	10038
221.524	10032
221.590	15958
221.657	35172
221.723	21064
221.789	23679
221.856	18759
221.922	13035
221.989	10004
222.055	9674
222.121	8633
222.188	9863
222.254	8071
222.321	8007
222.387	6769
222.453	6731
222.520	7515
222.586	7637
222.652	6517
222.719	8243
222.785	6801
222.851	6647
222.918	5525
222.984	7493
223.050	7970
223.116	7970
223.183	6661
223.249	6849
223.315	5230
223.382	6909
223.448	5998
223.514	5949
223.580	5543
223.647	5483
223.713	6204
223.779	6600
223.845	6017
223.911	5918
223.978	5741
224.044	6236
224.110	4951
224.176	6372
224.242	5985
224.309	5890
224.375	5173
224.441	5450
224.507	4978
224.573	5795
224.639	5495
224.705	5529
224.772	5419
224.838	6368
224.904	6850
224.970	6089
225.036	6279
225.102	7289
225.168	7312
225.234	6445
225.300	6541
225.366	6714
225.432	5880
225.499	5955
225.565	7552
225.631	9079
225.697	8356
225.763	9973
225.829	11728
225.895	12819
225.961	16743
226.027	14694
226.093	14400
226.159	18787
226.225	30109
226.291	59525
226.357	67196
226.423	39058
226.489	25230
226.554	18673
226.620	19178
226.686	25638
226.752	36679
226.818	58334
226.884	85486
226.950	67752
227.016	36237
227.082	23771
227.148	19678
227.214	17471
227.279	14908
227.345	12663
227.411	11051
227.477	11600
227.543	15950
227.609	15746
227.674	12752
227.740	11185
227.806	9894
227.872	10533
227.938	10022
228.003	15363
228.069	8809
228.135	8132
228.201	7343
228.267	8314
228.332	10201
228.398	11701
228.464	8364
228.530	7229
228.595	6657
228.661	8636
228.727	11340
228.792	9439
228.858	8345
228.924	10044
228.990	10440
229.055	11353
229.121	10799
229.187	7437
229.252	7681
229.318	6851
229.384	6942
229.449	9115
229.515	6077
229.581	4924
229.646	6719
229.712	9243
229.777	17120
229.843	14850
229.909	13009
229.974	14114
230.040	12245
230.105	10918
230.171	12698
230.236	18012
230.302	22860
230.368	17328
230.433	12024
230.499	11596
230.564	12444
230.630	9703
230.695	7295
230.761	8412
230.826	7584
230.892	11964
230.957	8401
231.023	8212
231.088	7615
231.154	8374
231.219	8475
231.284	12641
231.350	10819
231.415	8308
231.481	6296
231.546	7237
231.612	6627
231.677	6769
231.742	6801
231.808	7670
231.873	6985
231.939	7150
232.004	12155
232.069	9805
232.135	8952
232.200	7900
232.265	6966
232.331	6321
232.396	5438
232.461	5928
232.527	5560
232.592	6213
232.657	7436
232.723	13418
232.788	8788
232.853	6723
232.918	6528
232.984	6918
233.049	6644
233.114	12835
233.179	9651
233.245	18205
233.310	15763
233.375	8253
233.440	7282
233.506	8846
233.571	7443
233.636	6581
233.701	6768
233.766	15715
233.832	14009
233.897	8366
233.962	8466
234.027	10015
234.092	8077
234.157	9090
234.222	9718
234.288	16329
234.353	35159
234.418	29474
234.483	16424
234.548	14575
234.613	11724
234.678	11833
234.743	16383
234.808	39954
234.873	22572
234.938	12541
235.004	10463
235.069	10693
235.134	9613
235.199	10276
235.264	9737
235.329	8726
235.394	9354
235.459	13490
235.524	11202
235.589	9306
235.654	7964
235.719	8670
235.784	8556
235.849	12308
235.913	21328
235.978	27344
236.043	22771
236.108	12597
236.173	12085
236.238	12448
236.303	10916
236.368	11538
236.433	18938
236.498	27047
236.563	24525
236.627	55609
236.692	114137
236.757	82027
236.822	44507
236.887	34527
236.952	26171
237.017	24620
237.081	24819
237.146	38462
237.211	72857
237.276	121706
237.341	136567
237.405	77172
237.470	42622
237.535	30565
237.600	19338
237.664	17041
237.729	16484
237.794	27429
237.859	39095
237.923	27023
237.988	16230
238.053	22953
238.118	22023
238.182	52718
238.247	31271
238.312	23834
238.376	15951
238.441	16497
238.506	12539
238.570	9385
238.635	9074
238.700	9289
238.764	10010
238.829	27881
238.893	22865
238.958	14580
239.023	12853
239.087	10085
239.152	10714
239.216	9219
239.281	8889
239.346	8851
239.410	9392
239.475	14942
239.539	49453
239.604	26216
239.668	11339
239.733	10197
239.797	12266
239.862	24040
239.926	33270
239.991	13648
240.055	9074
240.120	10256
240.184	8894
240.249	9299
240.313	8351
240.378	10814
240.442	33261
240.507	35584
240.571	13505
240.635	26156
240.700	21503
240.764	10843
240.829	8978
240.893	8427
240.957	9753
241.022	32206
241.086	39582
241.151	18242
241.215	8915
241.279	17295
241.344	23682
241.408	13234
241.472	12593
241.537	12654
241.601	11575
241.665	11089
241.730	11102
241.794	12832
241.858	11779
241.922	12191
241.987	10830
242.051	9609
242.115	11018
242.179	10096
242.244	9699
242.308	11150
242.372	12759
242.436	15468
242.501	10490
242.565	9717
242.629	9460
242.693	9349
242.757	9529
242.822	10285
242.886	10781
242.950	11732
243.014	11984
243.078	13602
243.142	13033
243.206	12667
243.271	14213
243.335	15401
243.399	26749
243.463	100116
243.527	139714
243.591	45296
243.655	24147
243.719	16566
243.783	18524
243.847	32181
243.911	33869
243.975	38424
244.040	22115
244.104	14699
244.168	12519
244.232	22611
244.296	27013
244.360	29221
244.424	16808
244.488	13565
244.552	13000
244.615	11483
244.679	9770
244.743	15348
244.807	12373
244.871	9571
244.935	9524
244.999	9581
245.063	10290
245.127	12598
245.191	25949
245.255	18980
245.319	15810
245.383	14014
245.446	11229
245.510	10160
245.574	11106
245.638	11212
245.702	15099
245.766	25350
245.829	15246
245.893	14514
245.957	12630
246.021	13639
246.085	13364
246.149	17870
246.212	38097
246.276	42223
246.340	21077
246.404	16774
246.467	20492
246.531	26560
246.595	16485
246.659	16216
246.722	16185
246.786	18799
246.850	22480
246.913	22432
246.977	12855
247.041	13843
247.104	14440
247.168	15850
247.232	38195
247.295	57531
247.359	24057
247.423	19321
247.486	28361
247.550	17742
247.614	16515
247.677	20193
247.741	13486
247.804	13417
247.868	15822
247.932	38027
247.995	49734
248.059	20874
248.122	14076
248.186	19328
248.249	38543
248.313	98881
248.376	82015
248.440	53683
248.503	23359
248.567	23085
248.630	35259
248.694	44447
248.757	58044
248.821	93454
248.884	52915
248.948	63827
249.011	78469
249.075	113482
249.138	79423
249.202	39048
249.265	30672
249.328	37025
249.392	26782
249.455	21602
249.519	19110
249.582	26312
249.645	38136
249.709	28461
249.772	26510
249.835	22010
249.899	22373
249.962	19116
250.025	20167
250.089	48364
250.152	46094
250.215	28027
250.279	23643
250.342	24537
250.405	23536
250.468	23069
250.532	32443
250.595	56143
250.658	182127
250.721	184352
250.785	79919
250.848	44688
250.911	31824
250.974	28996
251.038	43925
251.101	58451
251.164	38343
251.227	41398
251.290	40127
251.354	78620
251.417	220068
251.480	172895
251.543	185667
251.606	319078
251.669	216298
251.732	113619
251.795	107594
251.859	125134
251.922	223619
251.985	108003
252.048	54147
252.111	43399
252.174	42971
252.237	76395
252.300	120395
252.363	180809
252.426	232718
252.489	105975
252.552	68160
252.615	49751
252.678	54309
252.741	104839
252.804	173447
252.867	259330
252.930	148544
252.993	83532
253.056	56330
253.119	46090
253.182	42235
253.245	72442
253.308	44811
253.371	44423
253.434	38214
253.497	39920
253.559	59661
253.622	42818
253.685	62633
253.748	47412
253.811	28326
253.874	41362
253.937	32924
254.000	27387
254.062	52033
254.125	55929
254.188	67211
254.251	43509
254.314	28536
254.376	55561
254.439	47579
254.502	41276
254.565	52726
254.628	66986
254.690	42386
254.753	26320
254.816	24187
254.878	28763
254.941	50799
255.004	36858
255.067	23828
255.129	22389
255.192	13679
255.255	15493
255.317	18021
255.380	12229
255.443	10656
255.505	12271
255.568	12163
255.631	13060
255.693	12202
255.756	11520
255.819	10817
255.881	10368
255.944	10096
256.006	12243
256.069	11451
256.132	11662
256.194	20394
256.257	43137
256.319	30014
256.382	25253
256.444	17204
256.507	14086
256.569	14176
256.632	18311
256.694	34189
256.757	95870
256.819	171194
256.882	68710
256.944	33355
257.007	27278
257.069	29248
257.132	20427
257.194	16338
257.257	17044
257.319	17771
257.381	26534
257.444	72922
257.506	227616
257.569	187114
257.631	89424
257.693	50547
257.756	32733
257.818	28128
257.880	18390
257.943	17024
258.005	16173
258.067	15190
258.130	15012
258.192	20840
258.254	36075
258.317	18802
258.379	16628
258.441	41155
258.503	28164
258.566	60801
258.628	46326
258.690	16105
258.753	20946
258.815	30993
258.877	18707
258.939	13853
259.001	14102
259.064	13344
259.126	21687
259.188	22105
259.250	17579
259.312	21734
259.375	42521
259.437	21977
259.499	14228
259.561	13578
259.623	16139
259.685	14531
259.747	18288
259.809	60223
259.872	74182
259.934	132896
259.996	81569
260.058	27022
260.120	17061
260.182	14590
260.244	13964
260.306	11664
260.368	12589
260.430	14050
260.492	33724
260.554	43294
260.616	28841
260.678	77702
260.740	66116
260.802	19551
260.864	18718
260.926	16216
260.988	16310
261.050	18458
261.112	52662
261.174	99157
261.236	50025
261.298	23145
261.359	49726
261.421	43009
261.483	17235
261.545	15168
261.607	12206
261.669	13094
261.731	36009
261.793	54453
261.854	23090
261.916	16628
261.978	19269
262.040	18447
262.102	15288
262.164	28001
262.225	16600
262.287	14873
262.349	36901
262.411	19079
262.472	13446
262.534	38222
262.596	46955
262.658	16688
262.719	13097
262.781	24325
262.843	52842
262.904	20007
262.966	20319
263.028	29980
263.090	162727
263.151	227318
263.213	70450
263.275	39922
263.336	20820
263.398	15982
263.459	13678
263.521	14487
263.583	32553
263.644	16750
263.706	11404
263.767	9348
263.829	9027
263.891	8100
263.952	8356
264.014	9369
264.075	27717
264.137	40231
264.198	17486
264.260	9703
264.321	12582
264.383	40529
264.444	60970
264.506	17702
264.567	15342
264.629	38402
264.690	52670
264.752	19577
264.813	14168
264.875	10746
264.936	12837
264.998	10713
265.059	10431
265.120	12784
265.182	30053
265.243	128459
265.305	81996
265.366	24413
265.427	16759
265.489	14454
265.550	11125
265.611	14981
265.673	13303
265.734	11516
265.795	10145
265.857	10795
265.918	16121
265.979	45907
266.040	185834
266.102	102232
266.163	37486
266.224	28085
266.286	17680
266.347	13968
266.408	13307
266.469	14066
266.530	11164
266.592	10943
266.653	25390
266.714	28081
266.775	11116
266.836	8359
266.898	11088
266.959	19235
267.020	11305
267.081	10028
267.142	9366
267.203	8883
267.264	8623
267.326	9255
267.387	8653
267.448	8116
267.509	8975
267.570	8492
267.631	8422
267.692	8475
267.753	9578
267.814	9595
267.875	27072
267.936	36673
267.997	26474
268.058	19716
268.119	12929
268.180	12148
268.241	10023
268.302	8944
268.363	8786
268.424	10471
268.485	12443
268.546	8139
268.607	7797
268.668	6668
268.729	7980
268.790	9488
268.851	12412
268.912	33086
268.972	27462
269.033	14087
269.094	10072
269.155	9016
269.216	8649
269.277	9454
269.338	9269
269.398	9169
269.459	12348
269.520	15691
269.581	20269
269.642	20586
269.702	15978
269.763	12275
269.824	10047
269.885	16872
269.945	18378
270.006	9602
270.067	8509
270.128	8196
270.188	9024
270.249	8745
270.310	7384
270.370	9164
270.431	9474
270.492	7359
270.553	11234
270.613	25735
270.674	38829
270.734	15743
270.795	11698
270.856	17747
270.916	12134
270.977	11083
271.038	13183
271.098	12323
271.159	23885
271.219	15887
271.280	10189
271.340	9088
271.401	17273
271.462	30169
271.522	15644
271.583	11391
271.643	13358
271.704	11509
271.764	15799
271.825	37514
271.885	102912
271.946	89734
272.006	36130
272.066	66140
272.127	70677
272.187	23451
272.248	18893
272.308	24162
272.369	61732
272.429	26660
272.489	34176
272.550	27627
272.610	32896
272.671	20810
272.731	30822
272.791	36387
272.852	19344
272.912	16837
272.972	11835
273.033	13692
273.093	22300
273.153	18209
273.214	13763
273.274	17812
273.334	71084
273.394	80701
273.455	34695
273.515	49546
273.575	77557
273.635	30058
273.696	59359
273.756	74588
273.816	29324
273.876	23000
273.936	70486
273.997	71431
274.057	21767
274.117	20358
274.177	36758
274.237	123536
274.297	80504
274.358	69945
274.418	73093
274.478	45999
274.538	23805
274.598	28279
274.658	89073
274.718	82561
274.778	28637
274.838	21381
274.898	67798
274.958	125724
275.018	91583
275.078	46074
275.138	24510
275.198	16062
275.258	14336
275.318	21248
275.378	33647
275.438	28633
275.498	24363
275.558	78126
275.618	105536
275.678	52478
275.738	45023
275.798	31536
275.858	18850
275.918	12307
275.978	17634
276.038	12935
276.098	13716
276.157	35239
276.217	63201
276.277	26062
276.337	22062
276.397	14003
276.457	17470
276.517	11982
276.576	11154
276.636	11609
276.696	21869
276.756	47062
276.815	25107
276.875	15328
276.935	19341
276.995	14202
277.055	11245
277.114	11983
277.174	24078
277.234	47419
277.293	19352
277.353	14320
277.413	11405
277.472	14252
277.532	13706
277.592	14921
277.651	54639
277.711	55381
277.771	31768
277.830	98889
277.890	53365
277.950	69820
278.009	123973
278.069	41035
278.128	61602
278.188	58430
278.248	36841
278.307	83648
278.367	35305
278.426	18187
278.486	14532
278.545	11465
278.605	11693
278.664	11261
278.724	16160
278.783	49407
278.843	74202
278.902	21441
278.962	19037
279.021	20430
279.081	25365
279.140	22003
279.199	20030
279.259	19425
279.318	18424
279.378	24747
279.437	55140
279.496	169522
279.556	413080
279.615	214811
279.675	68889
279.734	50055
279.793	86062
279.853	89937
279.912	34238
279.971	23352
280.031	23515
280.090	49835
280.149	61751
280.208	80814
280.268	321452
280.327	195717
280.386	58140
280.445	58019
280.505	41360
280.564	25687
280.623	22205
280.682	38976
280.742	39361
280.801	15213
280.860	14139
280.919	13160
280.978	12155
281.037	13072
281.097	10487
281.156	11079
281.215	11411
281.274	19391
281.333	66040
281.392	30996
281.451	12805
281.510	11062
281.569	10903
281.628	9677
281.688	10046
281.747	12596
281.806	11839
281.865	8506
281.924	9878
281.983	9021
282.042	8826
282.101	7417
282.160	7607
282.219	8306
282.278	12880
282.337	38166
282.396	18117
282.454	11679
282.513	20439
282.572	53613
282.631	22229
282.690	10910
282.749	10884
282.808	13733
282.867	14671
282.926	11661
282.985	8224
283.043	8026
283.102	9552
283.161	13917
283.220	39012
283.279	49407
283.338	16998
283.396	12556
283.455	12680
283.514	14071
283.573	20809
283.631	15128
283.690	11315
283.749	12694
283.808	29297
283.866	21655
283.925	11026
283.984	11346
284.043	16769
284.101	15105
284.160	13203
284.219	19868
284.277	14859
284.336	28436
284.395	74895
284.453	41858
284.512	20948
284.570	29078
284.629	21655
284.688	18501
284.746	20239
284.805	22766
284.863	29161
284.922	33041
284.981	40696
285.039	59642
285.098	114857
285.156	269549
285.215	401868
285.273	361002
285.332	203872
285.390	114728
285.449	73233
285.507	51344
285.566	40820
285.624	31738
285.683	25533
285.741	20294
285.799	19882
285.858	19070
285.916	16349
285.975	13332
286.033	13117
286.091	11186
286.150	11638
286.208	12199
286.267	15902
286.325	15038
286.383	23636
286.442	15796
286.500	10806
286.558	10618
286.616	10385
286.675	15643
286.733	12461
286.791	12577
286.850	15530
286.908	22354
286.966	26499
287.024	12603
287.083	11412
287.141	9114
287.199	12673
287.257	16589
287.315	14157
287.374	17348
287.432	35466
287.490	19573
287.548	16068
287.606	13231
287.664	14895
287.723	21855
287.781	24204
287.839	17307
287.897	22321
287.955	28986
288.013	50965
288.071	126269
288.129	411559
288.187	628672
288.245	290060
288.303	120118
288.361	74028
288.419	58336
288.477	40694
288.535	28496
288.593	23015
288.651	19294
288.709	14813
288.767	14449
288.825	12924
288.883	12358
288.941	12600
288.999	11128
289.057	10813
289.115	10861
289.173	10630
289.231	11223
289.289	11720
289.346	10647
289.404	13403
289.462	22818
289.520	19471
289.578	10302
289.636	9160
289.694	7881
289.751	7932
289.809	7491
289.867	9503
289.925	12133
289.983	13365
290.040	9009
290.098	8942
290.156	11810
290.214	12141
290.271	9623
290.329	8439
290.387	7046
290.444	7682
290.502	6055
290.560	8991
290.617	9604
290.675	8538
290.733	8857
290.790	9444
290.848	8424
290.906	11334
290.963	9515
291.021	8796
291.078	10272
291.136	13918
291.194	45784
291.251	57388
291.309	16487
291.366	9719
291.424	9426
291.481	10546
291.539	9450
291.596	8193
291.654	6656
291.711	6925
291.769	11893
291.826	21173
291.884	11501
291.941	8701
291.999	8777
292.056	11632
292.114	10129
292.171	8197
292.228	9272
292.286	13700
292.343	23545
292.401	25971
292.458	14379
292.515	12954
292.573	13488
292.630	13901
292.687	13661
292.745	13875
292.802	23164
292.859	48885
292.917	62487
292.974	29577
293.031	13987
293.089	10597
293.146	9769
293.203	9006
293.260	8977
293.318	13891
293.375	18595
293.432	10446
293.489	8587
293.546	9805
293.604	18089
293.661	51881
293.718	86840
293.775	40867
293.832	21848
293.889	18176
293.947	18060
294.004	14699
294.061	16924
294.118	38078
294.175	71011
294.232	74057
294.289	28633
294.346	20800
294.403	18755
294.460	17155
294.517	13531
294.574	11392
294.631	11212
294.688	17501
294.745	46829
294.802	126114
294.859	108638
294.916	42514
294.973	26356
295.030	23926
295.087	19282
295.144	15234
295.201	13320
295.258	13905
295.315	19709
295.372	54162
295.429	67873
295.486	31327
295.542	27630
295.599	76147
295.656	89385
295.713	68238
295.770	65896
295.827	27555
295.883	18174
295.940	19886
295.997	30738
296.054	24598
296.111	14714
296.167	11713
296.224	10567
296.281	10050
296.338	10207
296.394	11310
296.451	17035
296.508	45447
296.564	61066
296.621	48512
296.678	100087
296.734	99628
296.791	39885
296.848	25920
296.904	32999
296.961	62646
297.018	88668
297.074	53694
297.131	24969
297.187	21784
297.244	34012
297.301	101722
297.357	112725
297.414	40791
297.470	21552
297.527	16652
297.583	15197
297.640	15863
297.696	12366
297.753	11554
297.809	8885
297.866	9077
297.922	9387
297.979	10904
298.035	13404
298.092	23125
298.148	54742
298.204	40925
298.261	26065
298.317	53871
298.374	96564
298.430	47312
298.486	31751
298.543	25329
298.599	24028
298.656	30639
298.712	56735
298.768	123025
298.824	70417
298.881	27351
298.937	17447
298.993	17135
299.050	21361
299.106	16907
299.162	15480
299.218	14989
299.275	12778
299.331	17552
299.387	34107
299.443	93843
299.500	66909
299.556	29273
299.612	18982
299.668	17961
299.724	16969
299.780	16771
299.837	16399
299.893	31674
299.949	88685
300.005	78033
300.061	82807
300.117	110658
300.173	48529
300.229	28772
300.285	38337
300.341	36384
300.397	19204
300.453	14504
300.510	14086
300.566	14952
300.622	17239
300.678	40295
300.734	68510
300.790	73400
300.845	76428
300.901	52822
300.957	77225
301.013	50103
301.069	22899
301.125	21357
301.181	21219
301.237	15716
301.293	11618
301.349	10869
301.405	11193
301.461	13187
301.516	16242
301.572	18383
301.628	27519
301.684	25985
301.740	44279
301.796	51434
301.851	41162
301.907	67139
301.963	64119
302.019	117577
302.074	235660
302.130	192844
302.186	86664
302.242	42603
302.297	30846
302.353	35228
302.409	59039
302.464	46935
302.520	48370
302.576	102752
302.631	93604
302.687	51955
302.743	25396
302.798	17476
302.854	15499
302.910	18389
302.965	24333
303.021	39673
303.076	34678
303.132	45724
303.187	44162
303.243	23657
303.299	15532
303.354	14545
303.410	13160
303.465	12941
303.521	11571
303.576	13218
303.632	18119
303.687	36981
303.743	80543
303.798	54401
303.853	25050
303.909	18503
303.964	17629
304.020	28438
304.075	36053
304.130	37399
304.186	61176
304.241	55362
304.297	42994
304.352	24411
304.358	23619
304.407	17192
304.449	16939
304.463	16868
304.518	16870
304.539	16504
304.573	15933
304.629	18052
304.630	18323
304.684	31099
304.720	55428
304.739	67806
304.794	77030
304.811	65633
304.850	37969
304.902	22346
304.905	21378
304.960	18977
304.992	20679
305.015	21916
305.071	18250
305.083	17165
305.126	13230
305.173	10882
305.181	10509
305.236	11047
305.264	11784
305.292	12643
305.347	16365
305.354	16450
305.402	16997
305.445	20192
305.457	21075
305.512	23972
305.535	23454
305.567	22699
305.622	26408
305.626	27624
305.678	51333
305.716	89504
305.733	104067
305.788	95189
305.807	84857
305.843	64923
305.897	81531
305.898	81743
305.953	68462
305.988	50441
306.008	39921
306.063	26820
306.078	24348
306.118	19120
306.168	14303
306.173	13895
306.228	12624
306.259	11480
306.283	10775
306.338	12548
306.349	12922
306.393	14870
306.440	18836
306.448	19423
306.503	18648
306.530	22249
306.558	29342
306.613	64514
306.620	67109
306.668	80774
306.711	91766
306.723	92340
306.778	63473
306.801	50128
306.833	33636
306.888	19191
306.892	18575
306.943	15188
306.982	14598
306.997	14376
307.052	14048
307.072	14619
307.107	17363
307.162	24443
307.163	24607
307.217	40710
307.253	48754
307.272	50732
307.327	50212
307.343	46325
307.381	36249
307.434	32505
307.436	33108
307.491	65033
307.524	89662
307.546	97764
307.600	81049
307.614	72853
307.655	44919
307.704	28260
307.710	27904
307.765	34353
307.795	44866
307.819	56828
307.874	90006
307.885	88984
307.929	64849
307.975	48646
307.984	49034
308.038	67847
308.065	87816
308.093	134095
308.148	266592
308.156	291986
308.202	432423
308.246	488858
308.257	471667
308.312	282557
308.336	211454
308.366	163196
308.421	97885
308.426	92826
308.475	62071
308.517	45714
308.530	42859
308.585	36224
308.607	34842
308.639	35239
308.694	39793
308.697	40553
308.748	70123
308.787	101573
308.803	104482
308.857	80284
308.877	71319
308.912	57932
308.967	48781
308.967	48781
309.021	62478
309.058	77888
309.076	96303
309.130	170117
309.148	202129
309.185	329242
309.238	538480
309.239	540224
309.293	578779
309.328	552784
309.348	483581
309.402	263775
309.418	207197
309.457	145098
309.508	87402
309.511	85603
309.566	69077
309.598	62655
309.620	64447
309.674	74495
309.688	77513
309.729	74937
309.778	64403
309.783	62958
309.837	49428
309.868	43269
309.892	49418
309.946	72037
309.959	79380
310.001	106006
310.049	125163
310.055	121275
310.109	73855
310.139	49068
310.163	39066
310.218	24369
310.229	21981
310.272	18596
310.319	15869
310.326	15744
310.381	16153
310.409	16072
310.435	15371
310.489	14254
310.499	14120
310.543	14666
310.589	15864
310.598	15913
310.652	16313
310.679	16012
310.706	13828
310.760	9570
310.769	8990
310.814	8093
310.859	7428
310.868	7469
310.923	8038
310.948	8396
310.977	9343
311.031	11384
311.038	11668
311.085	11474
311.128	11054
311.139	10963
311.193	10565
311.218	10477
311.247	9810
311.301	8413
311.308	8277
311.356	8511
311.398	8893
311.410	8810
311.464	8268
311.488	8029
311.518	7845
311.572	7720
311.578	7739
311.626	10435
311.668	12887
311.680	13237
311.734	14638
311.758	15352
311.788	15166
311.842	14657
311.847	14638
311.896	18203
311.937	21475
311.950	21467
312.004	21358
312.027	21240
312.058	17258
312.112	10317
312.117	9642
312.165	9195
312.207	8862
312.297	14374
312.386	12554
312.476	10723
312.566	20050
312.656	12068
312.745	7494
312.835	9109
312.925	10387
313.015	11183
313.104	13908
313.194	8673
313.284	7973
313.374	10078
313.463	10269
313.553	6978
313.643	7272
313.732	6423
313.822	6427
313.912	8071
314.001	10346
314.091	11137
314.180	16404
314.270	13059
314.360	16295
314.449	13518
314.539	8103
314.628	7495
314.718	9696
314.808	14004
314.897	7928
314.987	7506
315.076	9836
315.166	14729
315.255	15409
315.345	13029
315.434	15769
315.524	13040
315.613	14679
315.703	14675
315.792	17086
315.881	28864
315.971	20564
316.060	27401
316.150	53034
316.239	57016
316.328	24327
316.418	8753
316.507	8577
316.597	11601
316.686	12797
316.775	23368
316.865	60026
316.954	15339
317.043	6627
317.133	7476
317.222	7046
317.311	6574
317.400	6507
317.490	10432
317.579	13229
317.668	8749
317.757	12041
317.847	19374
317.936	51776
318.025	38094
318.114	19781
318.203	16003
318.293	21905
318.382	39046
318.471	35174
318.560	52717
318.649	107081
318.738	32028
318.828	15556
318.917	18821
319.006	25384
319.095	68593
319.184	135618
319.273	80176
319.362	35628
319.451	13339
319.540	12434
319.629	25681
319.718	43380
319.807	25140
319.896	50240
319.985	158856
320.074	70858
320.163	19690
320.252	34934
320.341	26358
320.430	21826
320.519	21421
320.608	15758
320.697	10485
320.786	10734
320.875	15039
320.964	18613
321.053	28892
321.142	40636
321.230	45577
321.319	34812
321.408	74760
321.497	40229
321.586	32730
321.675	50472
321.764	51795
321.852	30376
321.941	42549
322.030	33469
322.119	34349
322.207	81749
322.296	82851
322.385	37567
322.474	38136
322.562	86943
322.651	59842
322.740	35580
322.829	57924
322.917	75031
323.006	42369
323.095	27306
323.183	27155
323.272	39001
323.361	73913
323.449	216987
323.538	101109
323.626	150517
323.715	118503
323.804	45263
323.892	138012
323.981	91063
324.069	28796
324.158	77189
324.246	89779
324.335	20865
324.424	27172
324.512	13037
324.601	15386
324.689	27185
324.778	52158
324.866	54856
324.954	19282
325.043	14559
325.131	32831
325.220	65273
325.308	75528
325.397	47991
325.485	33955
325.574	9243
325.662	7801
325.750	9219
325.839	8500
325.927	7527
326.015	12160
326.104	23734
326.192	42273
326.280	10514
326.369	9004
326.457	12321
326.545	20556
326.634	11560
326.722	6106
326.810	6341
326.898	6486
326.987	8736
327.075	21532
327.163	29348
327.251	17772
327.340	16411
327.428	23333
327.516	7918
327.604	7835
327.692	9897
327.781	14608
327.869	28643
327.957	17788
328.045	12841
328.133	7819
328.221	13355
328.309	10507
328.397	7085
328.485	9705
328.574	15295
328.662	44906
328.750	38232
328.838	17895
328.926	9567
329.014	7428
329.102	13197
329.190	32487
329.278	22908
329.366	7184
329.454	6405
329.542	7225
329.630	6327
329.718	7001
329.806	9701
329.893	11196
329.981	13522
330.069	23091
330.157	84064
330.245	214491
330.333	126637
330.421	26399
330.509	21019
330.597	55162
330.684	46632
330.772	18799
330.860	26776
330.948	32395
331.036	15387
331.123	6121
331.211	7589
331.299	11320
331.387	26309
331.475	47304
331.562	17084
331.650	7875
331.738	11093
331.825	17786
331.913	8056
332.001	7101
332.089	13529
332.176	32040
332.264	77711
332.352	69228
332.439	15479
332.527	10510
332.614	9950
332.702	15789
332.790	11411
332.877	32776
332.965	73185
333.052	18692
333.140	14395
333.228	31532
333.315	11969
333.403	12216
333.490	43875
333.578	40167
333.665	25628
333.753	16977
333.840	9822
333.928	14487
334.015	46740
334.103	76237
334.190	190447
334.278	61922
334.365	19546
334.452	12996
334.540	9279
334.627	15035
334.715	26422
334.802	53285
334.889	259301
334.977	294278
335.064	34366
335.151	13056
335.239	14022
335.326	21496
335.413	89578
335.501	125101
335.588	19187
335.675	11287
335.762	15360
335.850	25734
335.937	20896
336.024	61442
336.111	251841
336.199	121671
336.286	18094
336.373	8404
336.460	6980
336.547	6894
336.635	10235
336.722	10377
336.809	10135
336.896	16953
336.983	56866
337.070	138022
337.157	194881
337.245	179117
337.332	149225
337.419	19500
337.506	10878
337.593	13668
337.680	48542
337.767	124774
337.854	44560
337.941	43335
338.028	60182
338.115	25466
338.202	22415
338.289	51910
338.376	176704
338.463	70961
338.550	77838
338.637	85712
338.724	36284
338.811	60797
338.898	13850
338.984	8106
339.071	10675
339.158	12972
339.245	30422
339.332	22110
339.419	35742
339.506	39916
339.593	6863
339.679	6011
339.766	6739
339.853	10486
339.940	20635
340.027	8613
340.113	7595
340.200	11149
340.287	9017
340.374	10511
340.460	17399
340.547	9555
340.634	15902
340.720	53558
340.807	38149
340.894	7169
340.980	7779
341.067	7167
341.154	8045
341.240	11938
341.327	26019
341.414	8681
341.500	7626
341.587	6192
341.674	6596
341.760	17070
341.847	21613
341.933	8427
342.020	3704
342.106	4541
342.193	6949
342.279	14637
342.366	11105
342.452	18327
342.539	11808
342.625	24830
342.712	60207
342.798	28292
342.885	11562
342.971	4567
343.058	4687
343.144	4622
343.230	4823
343.317	4841
343.403	4941
343.490	3590
343.576	3962
343.662	5025
343.749	8362
343.835	11476
343.921	21481
344.008	109993
344.094	243793
344.180	68102
344.267	24081
344.353	71467
344.439	90162
344.525	35006
344.612	15619
344.698	12767
344.784	9323
344.870	4867
344.957	5436
345.043	10099
345.129	8599
345.215	17207
345.301	10342
345.387	6400
345.474	4758
345.560	5377
345.646	9633
345.732	7889
345.818	7097
345.904	6352
345.990	8462
346.076	11830
346.162	24733
346.249	9891
346.335	5231
346.421	7368
346.507	32359
346.593	100436
346.679	30898
346.765	8081
346.851	6192
346.937	6871
347.023	5441
347.108	8068
347.194	6608
347.280	5934
347.366	8948
347.452	29886
347.538	119458
347.624	94172
347.710	79027
347.796	17892
347.882	7520
347.967	6564
348.053	11050
348.139	7886
348.225	5498
348.311	5366
348.397	4749
348.482	7280
348.568	9115
348.654	4273
348.740	4811
348.825	5970
348.911	13083
348.997	56587
349.083	115136
349.168	26882
349.254	7115
349.340	6665
349.425	4675
349.511	8811
349.597	12218
349.682	21601
349.768	67443
349.854	37118
349.939	8221
350.025	5581
350.110	6021
350.196	4225
350.282	3802
350.367	4647
350.453	15314
350.538	19365
350.624	10066
350.709	9680
350.795	5135
350.880	6485
350.966	7825
351.051	14880
351.137	14029
351.222	7722
351.308	21842
351.393	58777
351.479	18264
351.564	5449
351.649	5697
351.735	4897
351.820	4839
351.906	5259
351.991	10804
352.076	39579
352.162	60016
352.247	13541
352.332	7898
352.418	13438
352.503	21286
352.588	79977
352.673	72719
352.759	17184
352.844	8312
352.929	8000
353.014	12383
353.100	7810
353.185	10725
353.270	20597
353.355	22437
353.441	8002
353.526	10877
353.611	20262
353.696	24789
353.781	12811
353.866	7514
353.952	6497
354.037	17880
354.122	44224
354.207	40808
354.292	17559
354.377	6650
354.462	6192
354.547	9568
354.632	9757
354.717	11862
354.802	12424
354.887	7206
354.972	5541
355.057	4064
355.142	4153
355.227	7422
355.312	12094
355.397	30137
355.482	68080
355.567	40574
355.652	24113
355.737	29633
355.822	82777
355.907	74406
355.991	12315
356.076	6376
356.161	6176
356.246	5675
356.331	7389
356.416	22642
356.501	133812
356.585	155545
356.670	24843
356.755	12760
356.840	19024
356.924	88363
357.009	316306
357.094	140980
357.179	28359
357.263	19579
357.348	16761
357.433	18925
357.517	15623
357.602	13658
357.687	10086
357.771	17198
357.856	50515
357.941	35804
358.025	70601
358.110	292385
358.195	156482
358.279	24885
358.364	17768
358.448	56665
358.533	153560
358.617	119015
358.702	109598
358.787	45991
358.871	22789
358.956	18549
359.040	7417
359.125	5738
359.209	7150
359.294	23495
359.378	40017
359.462	19590
359.547	11682
359.631	10382
359.716	6448
359.800	7329
359.885	12288
359.969	8577
360.053	7395
360.138	8955
360.222	10946
360.306	21882
360.391	18408
360.475	29686
360.559	65976
360.644	61492
360.728	49677
360.812	74170
360.896	213581
360.981	98390
361.065	49896
361.149	13325
361.233	11866
361.318	10203
361.402	11610
361.486	10912
361.570	7269
361.654	11472
361.739	29523
361.823	132130
361.907	212421
361.991	44096
362.075	20670
362.159	42572
362.243	30284
362.327	21193
362.411	19907
362.495	17797
362.580	10198
362.664	6171
362.748	5712
362.832	7086
362.916	10787
363.000	30555
363.084	125415
363.168	240068
363.252	63584
363.336	20337
363.420	31549
363.503	127935
363.587	156640
363.671	28770
363.755	15438
363.839	21556
363.923	11025
364.007	22260
364.091	29639
364.175	51346
364.258	194786
364.342	114336
364.426	49374
364.510	31315
364.594	25274
364.677	40231
364.761	177065
364.845	142204
364.929	40414
365.013	32686
365.096	25656
365.180	35823
365.264	55636
365.347	207622
365.431	98380
365.515	23364
365.598	10704
365.682	9497
365.766	21738
365.849	27231
365.933	13888
366.017	17664
366.100	14521
366.184	6740
366.267	8369
366.351	5996
366.435	5171
366.518	4836
366.602	3861
366.685	5595
366.769	8106
366.852	17382
366.936	29827
367.019	17472
367.103	15521
367.186	29277
367.270	9540
367.353	4237
367.436	4873
367.520	5746
367.603	7669
367.687	13326
367.770	26558
367.853	16631
367.937	49211
368.020	89283
368.104	23996
368.187	18408
368.270	27416
368.353	25566
368.437	43178
368.520	130303
368.603	76293
368.687	63910
368.770	119655
368.853	32935
368.936	28488
369.020	30691
369.103	11119
369.186	6327
369.269	7985
369.352	15999
369.436	26707
369.519	16824
369.602	9029
369.685	7953
369.768	11030
369.851	8842
369.934	6114
370.018	9138
370.101	22966
370.184	18753
370.267	12407
370.350	20938
370.433	35808
370.516	88699
370.599	110079
370.682	36193
370.765	57503
370.848	75915
370.931	148691
371.014	65408
371.097	14163
371.180	7721
371.263	4805
371.346	4982
371.429	5115
371.511	7217
371.594	13869
371.677	25202
371.760	30120
371.843	22917
371.926	96165
372.009	240190
372.091	82650
372.174	55863
372.257	136054
372.340	58995
372.423	41136
372.505	51344
372.588	21429
372.671	41829
372.754	142731
372.836	80846
372.919	61939
373.002	124525
373.085	39738
373.167	21172
373.250	57563
373.332	132763
373.415	163416
373.498	347620
373.580	138666
373.663	139263
373.746	208328
373.828	55059
373.911	24180
373.993	29723
374.076	119197
374.159	121346
374.241	46166
374.324	116859
374.406	85653
374.489	96328
374.571	282392
374.654	130044
374.736	56545
374.819	176355
374.901	248075
374.983	273498
375.066	54353
375.148	22214
375.231	95903
375.313	190444
375.395	71572
375.478	15656
375.560	10217
375.643	14760
375.725	53400
375.807	234632
375.890	220643
375.972	126041
376.054	57228
376.136	109085
376.219	51264
376.301	64355
376.383	207076
376.465	87278
376.548	44562
376.630	57734
376.712	170450
376.794	87372
376.877	11449
376.959	6930
377.041	9852
377.123	23928
377.205	29947
377.287	7668
377.369	5532
377.452	7899
377.534	5887
377.616	5830
377.698	6160
377.780	5514
377.862	6611
377.944	5997
378.026	4316
378.108	5404
378.190	4904
378.272	4861
378.354	3238
378.436	4287
378.518	12745
378.600	49643
378.682	40590
378.764	80235
378.846	68987
378.928	21006
379.010	24906
379.091	13533
379.173	6803
379.255	6875
379.337	10898
379.419	36015
379.501	119294
379.583	54900
379.664	12988
379.746	28824
379.828	77231
379.910	111040
379.991	100156
380.073	21082
380.155	11259
380.237	8750
380.318	5825
380.400	7308
380.482	15904
380.564	27879
380.645	25165
380.727	23615
380.809	13060
380.890	8955
380.972	7686
381.053	7026
381.135	9928
381.217	25363
381.298	82284
381.380	45013
381.461	34878
381.543	162975
381.624	225078
381.706	46155
381.787	18895
381.869	20250
381.951	62604
382.032	266545
382.113	178038
382.195	39760
382.276	21153
382.358	45645
382.439	146360
382.521	159248
382.602	266766
382.684	120939
382.765	202778
382.846	200431
382.928	204520
383.009	121246
383.090	75383
383.172	279352
383.253	482216
383.334	194368
383.416	230946
383.497	124582
383.578	42441
383.659	70865
383.741	245320
383.822	716533
383.903	405285
383.984	152935
384.066	279961
384.147	189708
384.228	39721
384.309	23762
384.390	18928
384.471	12820
384.553	14443
384.634	20944
384.715	22638
384.796	12467
384.877	15517
384.958	69053
385.039	94829
385.120	32814
385.201	13751
385.282	19987
385.363	20902
385.444	16206
385.525	27865
385.606	111373
385.687	105323
385.768	27748
385.849	28615
385.930	107800
386.011	210181
386.092	64710
386.173	15433
386.254	12690
386.335	11906
386.416	14599
386.496	45775
386.577	85785
386.658	36220
386.739	20478
386.820	19065
386.901	17578
386.981	14407
387.062	8887
387.143	18633
387.224	76480
387.304	78041
387.385	27226
387.466	18114
387.547	21812
387.627	14267
387.708	27492
387.789	135158
387.869	184138
387.950	51746
388.031	10684
388.111	11331
388.192	31829
388.273	49736
388.353	30310
388.434	14802
388.514	25690
388.595	126657
388.676	176777
388.756	85038
388.837	72827
388.917	50188
388.998	12582
389.078	9887
389.159	9706
389.239	9547
389.320	12544
389.400	13652
389.480	30695
389.561	88957
389.641	45924
389.722	14099
389.802	24927
389.883	34544
389.963	104298
390.043	78993
390.124	30280
390.204	28232
390.284	91579
390.365	68508
390.445	88916
390.525	250943
390.605	241883
390.686	65770
390.766	19265
390.846	9009
390.927	7131
391.007	7978
391.087	10292
391.167	11445
391.247	9915
391.328	20814
391.408	32017
391.488	20629
391.568	7643
391.648	10163
391.728	15526
391.808	13975
391.888	17907
391.969	42559
392.049	78917
392.129	36231
392.209	35759
392.289	96493
392.369	58814
392.449	52425
392.529	31375
392.609	20661
392.689	26250
392.769	90374
392.849	83924
392.929	52031
393.009	135188
393.089	96613
393.169	45759
393.248	133607
393.328	686916
393.408	885671
393.488	208214
393.568	46821
393.648	25997
393.728	18534
393.807	15849
393.887	16031
393.967	14999
394.047	21647
394.127	29368
394.206	51085
394.286	178707
394.366	761172
394.446	896940
394.525	252988
394.605	63180
394.685	40160
394.764	77469
394.844	136564
394.924	96519
395.003	29366
395.083	19022
395.163	16963
395.242	15802
395.322	17018
395.402	13387
395.481	18475
395.561	52657
395.640	143957
395.720	102934
395.799	165517
395.879	145886
395.958	90283
396.038	272189
396.117	997239
396.197	1186164
396.276	414350
396.356	130909
396.435	81719
396.515	46242
396.594	39023
396.673	53058
396.753	167102
396.832	696925
396.912	600875
396.991	148159
397.070	34509
397.150	19905
397.229	14124
397.308	13646
397.388	20491
397.467	12504
397.546	8625
397.625	8098
397.705	11692
397.784	13831
397.863	8608
397.942	6110
398.022	8506
398.101	41713
398.180	143374
398.259	78073
398.338	16729
398.417	11450
398.497	8445
398.576	8437
398.655	6374
398.734	6208
398.813	8057
398.892	39315
398.971	156092
399.050	82282
399.129	10835
399.208	5347
399.287	5660
399.366	5058
399.445	5663
399.524	5897
399.603	5821
399.682	12045
399.761	40780
399.840	159888
399.919	134727
399.998	20698
400.077	5431
400.156	4321
400.235	7629
400.313	6567
400.392	9233
400.471	38080
400.550	71409
400.629	23340
400.708	9069
400.786	10680
400.865	32011
400.944	36006
401.023	15103
401.102	2986
401.180	4003
401.259	5082
401.338	7622
401.416	9549
401.495	8994
401.574	7380
401.652	5859
401.731	8865
401.810	8418
401.888	3921
401.967	3314
402.046	4615
402.124	7961
402.203	13284
402.281	6561
402.360	10272
402.438	39396
402.517	31606
402.596	10168
402.674	9458
402.753	5432
402.831	4746
402.910	5102
402.988	19930
403.066	70809
403.145	43409
403.223	20641
403.302	53405
403.380	38539
403.459	36144
403.537	16505
403.615	7421
403.694	3060
403.772	2436
403.850	2633
403.929	2973
404.007	3707
404.085	7320
404.164	8845
404.242	5480
404.320	15523
404.398	54899
404.477	71483
404.555	215741
404.633	219491
404.711	62395
404.789	26738
404.868	8000
404.946	4510
405.024	2183
405.102	2959
405.180	3338
405.258	2707
405.336	4077
405.415	4369
405.493	12446
405.571	9971
405.649	3316
405.727	3600
405.805	8344
405.883	7779
405.961	8202
406.039	13360
406.117	6711
406.195	8882
406.273	42035
406.351	187663
406.429	130049
406.507	24260
406.585	8538
406.663	6114
406.740	8876
406.818	8900
406.896	5649
406.974	4661
407.052	13719
407.130	97238
407.208	165672
407.285	37695
407.363	6514
407.441	5657
407.519	5098
407.596	5984
407.674	16967
407.752	67473
407.830	78521
407.907	28093
407.985	9682
408.063	4565
408.141	4084
408.218	9816
408.296	10406
408.373	5072
408.451	6091
408.529	6147
408.606	3112
408.684	2568
408.762	1418
408.839	2256
408.917	810
408.994	1785
409.072	2433
409.149	2066
409.227	4306
409.304	4597
409.382	3139
409.459	2252
409.537	4758
409.614	5153
409.692	3530
409.769	3611
409.846	4720
409.924	7731
410.001	6874
410.079	4699
410.156	3992
410.233	5296
410.311	5391
410.388	3014
410.465	3980
410.543	4123
410.620	2583
410.697	3566
410.775	5894
410.852	1887
410.929	4910
411.006	7999
411.083	4346
411.161	10945
411.238	14324
411.315	10537
411.392	3377
411.469	5376
411.547	7354
411.624	3544
411.701	3568
411.778	3842
411.855	13054
411.932	8319
412.009	3533
412.086	3307
412.163	5381
412.240	7371
412.317	9614
412.394	8843
412.471	2758
412.548	2251
412.625	3377
412.702	5362
412.779	13150
412.856	9326
412.933	3878
413.010	3614
413.087	7685
413.164	35445
413.241	59568
413.318	17090
413.395	7217
413.471	12281
413.548	6529
413.625	3346
413.702	7434
413.779	5792
413.855	1611
413.932	1579
414.009	1466
414.086	2001
414.162	2928
414.239	6246
414.316	33321
414.393	90517
414.469	39460
414.546	5544
414.623	2705
414.699	2895
414.776	4130
414.853	2952
414.929	3923
415.006	4412
415.082	6623
415.159	4656
415.236	4260
415.312	2412
415.389	8268
415.465	13426
415.542	7726
415.618	3598
415.695	8467
415.771	6459
415.848	5130
415.924	4343
416.000	3949
416.077	3220
416.153	1595
416.230	972
416.306	2143
416.383	3476
416.459	3109
416.535	1744
416.612	1889
416.688	2675
416.764	3114
416.841	1960
416.917	3065
416.993	1620
417.069	5237
417.146	7991
417.222	11527
417.298	6229
417.374	3524
417.451	3692
417.527	5249
417.603	6811
417.679	5303
417.755	3557
417.831	2377
417.908	1806
417.984	1930
418.060	1876
418.136	8992
418.212	15080
418.288	5988
418.364	3037
418.440	2121
418.516	7152
418.592	12055
418.668	18891
418.744	26624
418.820	20807
418.896	6426
418.972	1811
419.048	3002
419.124	9422
419.200	10699
419.276	2854
419.352	1530
419.428	2113
419.504	2855
419.579	5220
419.655	3764
419.731	3584
419.807	14483
419.883	30795
419.959	24645
420.034	7438
420.110	11086
420.186	51361
420.262	49197
420.337	10597
420.413	6207
420.489	3491
420.565	2976
420.640	2060
420.716	2678
420.792	1841
420.867	2629
420.943	2433
421.019	7435
421.094	5849
421.170	3130
421.245	1331
421.321	2098
421.397	3460
421.472	8734
421.548	32566
421.623	27436
421.699	6562
421.774	5272
421.850	4491
421.925	9340
422.001	8796
422.076	5387
422.152	5155
422.227	10526
422.302	10960
422.378	11802
422.453	22044
422.529	51376
422.604	207042
422.679	523655
422.755	325181
422.830	83870
422.905	25731
422.981	13026
423.056	8383
423.131	7098
423.207	5221
423.282	6517
423.357	15031
423.432	12197
423.508	7932
423.583	23909
423.658	22637
423.733	7819
423.808	8380
423.883	9001
423.959	8074
424.034	5468
424.109	2887
424.184	3073
424.259	2577
424.334	2914
424.409	1788
424.484	1925
424.559	3897
424.634	2986
424.709	5532
424.784	7946
424.859	4878
424.934	7173
425.009	31836
425.084	65705
425.159	30294
425.234	5333
425.309	2685
425.384	9844
425.459	22900
425.534	8347
425.609	4472
425.683	3511
425.758	2403
425.833	3062
425.908	4918
425.983	16326
426.058	65074
426.132	37855
426.207	8122
426.282	10907
426.357	13042
426.431	4496
426.506	2599
426.581	4474
426.655	4701
426.730	2910
426.805	2492
426.879	4216
426.954	4575
427.029	9291
427.103	47930
427.178	164481
427.253	94959
427.327	13682
427.402	9669
427.476	32055
427.551	17650
427.625	7018
427.700	6203
427.774	3704
427.849	5569
427.923	3296
427.998	3322
428.072	3843
428.147	9295
428.221	25455
428.296	74120
428.370	45000
428.444	9789
428.519	13238
428.593	32214
428.667	28422
428.742	32623
428.816	26521
428.890	54109
428.965	92845
429.039	44487
429.113	40093
429.188	17585
429.262	5006
429.336	7293
429.410	28611
429.485	24080
429.559	25972
429.633	24903
429.707	6445
429.781	13686
429.855	72130
429.930	115662
430.004	86074
430.078	147827
430.152	128455
430.226	108427
430.300	127192
430.374	28012
430.448	10456
430.522	35402
430.596	145467
430.670	91487
430.744	98439
430.818	210523
430.892	65192
430.966	10277
431.040	5131
431.114	3445
431.188	3284
431.262	3339
431.336	4820
431.410	10327
431.484	38546
431.557	30172
431.631	5333
431.705	3322
431.779	8854
431.853	52918
431.927	52684
432.000	8882
432.074	3088
432.148	6059
432.222	5798
432.295	3086
432.369	3360
432.443	7403
432.516	45822
432.590	169215
432.664	86573
432.737	12610
432.811	3208
432.885	1675
432.958	1132
433.032	2056
433.106	1464
433.179	1135
433.253	1819
433.326	833
433.400	1607
433.473	1498
433.547	1137
433.620	1601
433.694	5657
433.767	8158
433.841	4377
433.914	1797
433.988	1490
434.061	1658
434.134	2451
434.208	978
434.281	253
434.355	705
434.428	2244
434.501	1767
434.575	2085
434.648	2225
434.721	2098
434.795	738
434.868	762
434.941	590
435.014	457
435.088	804
435.161	2383
435.234	5785
435.307	8446
435.381	4856
435.454	2081
435.527	2357
435.600	2367
435.673	1592
435.746	1905
435.819	1607
435.892	1994
435.966	711
436.039	2127
436.112	2391
436.185	609
436.258	654
436.331	378
436.404	890
436.477	998
436.550	793
436.623	636
436.696	739
436.769	1636
436.842	2195
436.915	2717
436.987	5388
437.060	3173
437.133	1410
437.206	1154
437.279	2248
437.352	1619
437.425	1231
437.498	1991
437.570	6823
437.643	9103
437.716	2266
437.789	1321
437.861	4760
437.934	16502
438.007	11788
438.080	3507
438.152	3078
438.225	8287
438.298	53828
438.370	233316
438.443	132420
438.516	28193
438.588	8067
438.661	2877
438.734	2186
438.806	3031
438.879	4364
438.951	4224
439.024	8968
439.096	6096
439.169	2195
439.241	2189
439.314	1854
439.386	5427
439.459	10706
439.531	16693
439.604	8924
439.676	2010
439.749	1269
439.821	1422
439.893	1176
439.966	2187
440.038	4244
440.110	4636
440.183	3184
440.255	2218
440.327	5432
440.400	22079
440.472	128010
440.544	123355
440.617	23758
440.689	7613
440.761	8762
440.833	15070
440.905	12283
440.978	3653
441.050	2042
441.122	2042
441.194	880
441.266	1737
441.338	1831
441.411	4379
441.483	29407
441.555	67265
441.627	23181
441.699	9019
441.771	11116
441.843	5389
441.915	1649
441.987	1960
442.059	1955
442.131	2838
442.203	6960
442.275	9006
442.347	7316
442.419	5533
442.491	13413
442.563	49176
442.635	38463
442.706	34876
442.778	34970
442.850	7942
442.922	2668
442.994	4024
443.066	7509
443.137	6509
443.209	3363
443.281	4375
443.353	8944
443.425	25231
443.496	89031
443.568	107911
443.640	48091
443.711	13392
443.783	4949
443.855	4594
443.926	1891
443.998	2972
444.070	5740
444.141	4757
444.213	6349
444.285	8700
444.356	9753
444.428	10850
444.499	4845
444.571	515
444.642	1410
444.714	2128
444.785	5620
444.857	9097
444.928	26020
445.000	19687
445.071	15731
445.143	22500
445.214	10435
445.285	11810
445.357	39853
445.428	69112
445.500	181590
445.571	149728
445.642	67497
445.714	35573
445.785	47700
445.856	19483
445.928	9353
445.999	8542
446.070	6812
446.141	6091
446.213	8549
446.284	6092
446.355	6142
446.426	5156
446.497	3599
446.569	6788
446.640	14235
446.711	10911
446.782	5275
446.853	7750
446.924	8998
446.995	4824
447.066	4357
447.138	10760
447.209	8350
447.280	2590
447.351	1897
447.422	983
447.493	4245
447.564	5645
447.635	7448
447.706	5857
447.777	1390
447.847	1911
447.918	824
447.989	4450
448.060	7082
448.131	18341
448.202	18174
448.273	11687
448.344	6770
448.414	3378
448.485	3200
448.556	2706
448.627	1498
448.698	2791
448.768	1165
448.839	2368
448.910	8608
448.981	9886
449.051	4970
449.122	2621
449.193	1464
449.263	2153
449.334	2288
449.405	3234
449.475	10646
449.546	10893
449.616	10690
449.687	12296
449.758	5643
449.828	3634
449.899	2014
449.969	3129
450.040	2788
450.110	4593
450.181	7175
450.251	4006
450.322	2720
450.392	3281
450.463	2788
450.533	2880
450.604	2903
450.674	2574
450.744	2865
450.815	2256
450.885	2548
450.955	2691
451.026	1778
451.096	2280
451.166	3369
451.237	8399
451.307	30201
451.377	17233
451.447	4831
451.518	1963
451.588	2075
451.658	3904
451.728	5347
451.799	25571
451.869	41544
451.939	15123
452.009	4195
452.079	3099
452.149	2535
452.219	6255
452.289	30914
452.360	34452
452.430	10107
452.500	4231
452.570	5813
452.640	5765
452.710	15297
452.780	34652
452.850	23166
452.920	21817
452.990	11307
453.060	5031
453.129	6813
453.199	10404
453.269	25605
453.339	94210
453.409	162867
453.479	130119
453.549	188753
453.619	221746
453.688	119759
453.758	26859
453.828	7868
453.898	5242
453.968	5109
454.037	3842
454.087	3574
454.107	3410
454.168	3478
454.177	3432
454.247	2937
454.249	3007
454.316	3578
454.330	3923
454.386	5342
454.411	9505
454.456	14753
454.492	22876
454.525	29469
454.574	19344
454.595	15208
454.655	6834
454.665	5561
454.734	7059
454.736	7323
454.804	13779
454.817	18218
454.873	31893
454.898	38382
454.943	46411
454.979	35548
455.013	26518
455.060	15173
455.082	11514
455.141	12776
455.152	13070
455.221	28565
455.222	29474
455.291	66342
455.303	68007
455.360	73597
455.384	98615
455.430	125810
455.465	108870
455.499	93267
455.546	62173
455.569	47764
455.627	31900
455.638	29480
455.707	10779
455.708	10806
455.777	6419
455.789	6438
455.846	5833
455.869	5576
455.916	5366
455.950	5538
455.985	5459
456.031	6150
456.054	6261
456.112	5208
456.124	5100
456.193	4696
456.193	4644
456.262	7384
456.274	7885
456.332	9553
456.355	11006
456.401	11586
456.436	10294
456.470	8787
456.516	5627
456.540	4643
456.597	4154
456.609	3979
456.678	4489
456.678	4455
456.747	4153
456.759	4141
456.817	4061
456.840	4188
456.886	4282
456.920	4236
456.955	4463
457.001	5182
457.024	6249
457.082	9290
457.093	9983
457.162	14947
457.163	15076
457.232	19386
457.243	19006
457.301	11258
457.324	8044
457.370	6140
457.405	5903
457.439	5765
457.485	6092
457.508	6236
457.566	6646
457.577	6710
457.646	7256
457.647	7307
457.715	9236
457.727	9692
457.784	12079
457.808	13286
457.853	15856
457.889	18523
457.922	17975
457.969	15477
457.991	15932
458.050	17302
458.060	17734
458.129	22734
458.130	22990
458.198	24306
458.211	23579
458.267	16025
458.292	12419
458.336	10530
458.372	9580
458.405	10040
458.453	12367
458.474	15398
458.533	24317
458.543	25437
458.611	38877
458.614	39408
458.680	29587
458.694	26046
458.749	16983
458.775	12988
458.818	10154
458.855	8666
458.887	8091
458.936	8523
458.955	8585
459.016	8793
459.024	8711
459.093	8683
459.097	8686
459.162	9730
459.177	10051
459.230	11291
459.257	12122
459.299	12603
459.338	12757
459.368	13355
459.418	15378
459.437	14786
459.499	12015
459.505	11897
459.574	9638
459.579	9607
459.643	9756
459.659	9617
459.711	9858
459.740	10171
459.780	10937
459.820	11804
459.849	12506
459.900	14165
459.917	14238
459.981	14692
459.986	14560
460.054	12279
460.061	12069
460.123	12383
460.141	12597
460.191	14889
460.222	16445
460.260	18543
460.302	21441
460.328	19964
460.382	16387
460.397	16340
460.462	14354
460.465	14412
460.534	17983
460.543	18445
460.602	46097
460.623	56396
460.671	102862
460.703	139752
460.739	134637
460.783	129241
460.808	106676
460.864	29427
460.876	26107
460.944	14915
460.945	14781
461.013	13328
461.024	13152
461.081	14057
461.104	14678
461.150	13848
461.184	13073
461.218	12644
461.264	12059
461.286	12533
461.345	13452
461.355	13413
461.423	13746
461.425	13757
461.491	14908
461.505	15226
461.559	24504
461.585	28693
461.628	56904
461.665	82758
461.696	98552
461.745	129747
461.764	110097
461.825	36922
461.832	35815
461.901	19019
461.905	18296
461.969	16463
461.985	16603
462.037	15243
462.065	13990
462.105	15107
462.145	16768
462.173	25882
462.225	42916
462.241	49919
462.305	79592
462.310	77495
462.378	46939
462.385	42614
462.446	23398
462.465	17456
462.514	15611
462.545	15630
462.582	15626
462.625	15883
462.650	15555
462.705	14856
462.718	15239
462.785	16551
462.786	16723
462.854	27486
462.865	29130
462.922	38415
462.945	42821
462.990	31873
463.025	21868
463.058	18868
463.104	14252
463.126	13847
463.184	13693
463.194	13874
463.262	15071
463.264	15119
463.330	16329
463.344	16536
463.398	18478
463.424	19378
463.466	20271
463.504	21228
463.533	20718
463.583	19585
463.601	20156
463.663	22166
463.669	22952
463.737	31751
463.743	32555
463.805	46397
463.823	50486
463.873	82296
463.903	101689
463.940	119673
463.982	141522
464.008	112829
464.062	48498
464.076	44281
464.142	20127
464.144	19999
464.211	17422
464.221	17247
464.279	18101
464.301	18390
464.347	20521
464.381	22158
464.414	25263
464.461	29500
464.482	32138
464.540	39430
464.550	37921
464.617	26507
464.620	26065
464.685	26926
464.699	27126
464.753	31808
464.779	34224
464.820	36894
464.859	39400
464.888	40093
464.938	40858
464.956	41496
465.018	43528
465.023	42794
465.091	32447
465.098	31296
465.158	30216
465.177	29948
465.226	31383
465.257	32267
465.293	32759
465.336	33070
465.361	35608
465.416	41302
465.428	43547
465.495	55465
465.496	55827
465.563	98735
465.575	106030
465.631	143805
465.654	160230
465.698	105267
465.734	58179
465.765	48057
465.813	31864
465.833	31964
465.893	33283
465.900	33287
465.968	33345
465.972	33285
466.035	33110
466.052	32992
466.102	34751
466.131	35695
466.170	36397
466.210	36997
466.237	38034
466.290	39889
466.304	40425
466.369	42386
466.372	42555
466.439	45309
466.449	45615
466.506	50527
466.528	52287
466.573	61516
466.607	68278
466.641	103672
466.687	152609
466.708	177405
466.766	245333
466.775	229207
466.842	104676
466.845	98540
466.909	65817
466.925	57884
466.977	54550
467.004	52846
467.044	54208
467.083	55388
467.111	58316
467.163	63507
467.178	65417
467.242	72720
467.245	72586
467.312	66701
467.321	65784
467.379	63440
467.400	62392
467.446	66338
467.480	68956
467.559	64394
467.638	51183
467.717	52971
467.796	54473
467.875	60832
467.955	58866
468.034	68714
468.113	161875
468.192	283328
468.271	102216
468.350	43934
468.429	43746
468.508	43684
468.588	39705
468.667	42017
468.746	46399
468.825	46878
468.904	39978
468.983	43703
469.062	71582
469.141	98307
469.220	47118
469.299	35863
469.378	41998
469.456	47460
469.535	46998
469.614	44356
469.693	45668
469.772	54086
469.851	82952
469.930	69953
470.009	39657
470.088	39536
470.166	40275
470.245	47639
470.324	59692
470.403	52428
470.482	43100
470.560	38082
470.639	40114
470.718	48017
470.797	42437
470.875	44060
470.954	63722
471.033	81146
471.111	36706
471.190	31115
471.269	29312
471.347	31181
471.426	31845
471.505	39693
471.583	42883
471.662	39830
471.740	34652
471.819	35547
471.898	32847
471.976	32671
472.055	33677
472.133	36912
472.212	51016
472.290	60797
472.369	40599
472.447	31166
472.526	30500
472.604	31239
472.683	33178
472.761	35208
472.839	34379
472.918	32250
472.996	31859
473.075	39770
473.153	40595
473.231	31704
473.310	36837
473.388	40820
473.466	34456
473.545	37469
473.623	50496
473.701	55632
473.780	35299
473.858	32130
473.936	36306
474.014	33265
474.093	35968
474.171	52659
474.249	88760
474.327	70365
474.405	31305
474.484	29117
474.562	31647
474.640	32181
474.718	34622
474.796	39670
474.874	36088
474.952	32298
475.030	33084
475.108	34180
475.187	41175
475.265	43057
475.343	46617
475.421	52761
475.499	37681
475.577	36783
475.655	43863
475.733	88453
475.811	180257
475.889	177170
475.966	140780
476.044	33810
476.122	33307
476.200	41540
476.278	40707
476.356	29409
476.434	31648
476.512	33138
476.590	41568
476.667	42221
476.745	28469
476.823	30655
476.901	30388
476.979	32684
477.056	30750
477.134	31673
477.212	33141
477.290	31433
477.367	26461
477.445	26115
477.523	26523
477.601	27554
477.678	27526
477.756	35474
477.834	45106
477.911	29357
477.989	28402
478.066	26629
478.144	31847
478.222	32966
478.299	39796
478.377	46140
478.454	26678
478.532	23744
478.609	26432
478.687	29838
478.764	24492
478.842	26654
478.919	31344
478.997	31466
479.074	25127
479.152	31287
479.229	46533
479.307	34358
479.384	22350
479.461	22586
479.539	24221
479.616	34668
479.694	28921
479.771	30516
479.848	33501
479.926	47139
480.003	60198
480.080	27394
480.157	23991
480.235	24473
480.312	24695
480.389	27587
480.467	50231
480.544	78129
480.621	38769
480.698	27453
480.775	33398
480.853	35982
480.930	28448
481.007	27976
481.084	33322
481.161	39386
481.238	37182
481.315	24479
481.392	22868
481.470	24702
481.547	26708
481.624	25867
481.701	24473
481.778	26316
481.855	29821
481.932	43122
482.009	89280
482.086	79513
482.163	26161
482.240	28363
482.317	45441
482.393	46329
482.470	26270
482.547	27374
482.624	24544
482.701	26257
482.778	27429
482.855	21273
482.932	21475
483.009	20676
483.085	23619
483.162	30889
483.239	32678
483.316	22702
483.393	21424
483.469	21525
483.546	27827
483.623	35658
483.699	26625
483.776	27229
483.853	33460
483.930	44066
484.006	111041
484.083	260679
484.160	130034
484.236	136526
484.313	121444
484.389	87604
484.466	73466
484.543	69040
484.619	70697
484.696	71086
484.772	77255
484.849	88477
484.925	72161
485.002	64824
485.078	69034
485.155	73122
485.231	66336
485.308	64073
485.384	67067
485.461	76523
485.537	135153
485.614	209254
485.690	82517
485.766	62238
485.843	63663
485.919	83488
485.995	103652
486.072	61757
486.148	55991
486.224	55453
486.301	58236
486.377	69013
486.453	74918
486.530	65295
486.606	81232
486.682	99630
486.758	119942
486.835	166382
486.911	112289
486.987	184684
487.063	197544
487.139	220080
487.215	175171
487.292	88646
487.368	64445
487.444	68340
487.520	80310
487.596	78812
487.672	76175
487.748	115829
487.824	199012
487.900	118688
487.976	67444
488.052	69215
488.128	85402
488.204	78294
488.280	65774
488.356	72267
488.432	141550
488.508	301999
488.584	124034
488.660	59363
488.736	59191
488.812	60234
488.888	76672
488.964	89847
489.039	171200
489.115	319064
489.191	245213
489.267	70422
489.343	62396
489.418	50228
489.494	48629
489.570	47236
489.646	50134
489.722	50532
489.797	53363
489.873	69993
489.949	185264
490.024	221372
490.100	59437
490.176	48384
490.251	54960
490.327	77634
490.403	55477
490.478	43999
490.554	38320
490.629	39397
490.705	38881
490.781	44487
490.856	44407
490.932	51905
491.007	51805
491.083	53476
491.158	49346
491.234	57205
491.309	131907
491.385	194710
491.460	59842
491.536	51724
491.611	49267
491.686	47838
491.762	64147
491.837	111713
491.913	224401
491.988	273152
492.063	444600
492.139	161924
492.214	93023
492.289	41351
492.365	35269
492.440	45260
492.515	48863
492.590	48197
492.666	39039
492.741	47140
492.816	93054
492.891	62381
492.967	39956
493.042	38533
493.117	46660
493.192	53166
493.267	79644
493.342	293999
493.418	639796
493.493	141347
493.568	38106
493.643	34200
493.718	43094
493.793	67098
493.868	83400
493.943	51440
494.018	35710
494.093	33670
494.168	35151
494.243	30409
494.318	28540
494.393	27676
494.468	29270
494.543	27429
494.618	33791
494.693	34730
494.768	29230
494.842	35679
494.917	27026
494.992	30270
495.067	29261
495.142	26484
495.217	31820
495.292	31225
495.366	36546
495.441	48217
495.516	60157
495.591	73677
495.665	188213
495.740	636337
495.815	410786
495.890	65494
495.964	44737
496.039	42812
496.114	41580
496.188	45074
496.263	48392
496.338	41165
496.412	46808
496.487	59617
496.561	57071
496.636	66499
496.710	51249
496.785	55181
496.860	70107
496.934	57071
497.009	53273
497.083	54440
497.158	57721
497.232	65506
497.307	88469
497.381	76443
497.455	84100
497.530	123076
497.604	99655
497.679	92817
497.753	133141
497.827	191290
497.902	185277
497.976	200018
498.050	286283
498.125	1018700
498.199	1677999
498.273	344798
498.348	210211
498.422	181981
498.496	164185
498.570	152751
498.645	125113
498.719	119250
498.793	125029
498.867	163940
498.941	211388
499.016	353179
499.090	1342875
499.164	806318
499.238	91595
499.312	65224
499.386	71298
499.460	70982
499.534	62361
499.609	68756
499.683	108498
499.757	117706
499.831	154732
499.905	709862
499.979	1137748
500.053	182961
500.127	142960
500.201	99369
500.275	62175
500.349	55630
500.422	62491
500.496	83054
500.570	158345
500.644	358157
500.718	1011358
500.792	362089
500.866	58487
500.940	69736
501.013	66689
501.087	56182
501.161	88736
501.235	129943
501.309	222423
501.382	685564
501.456	962985
501.530	178287
501.603	271513
501.677	156092
501.751	47615
501.825	51064
501.898	79011
501.972	289825
502.046	296783
502.119	62536
502.193	102306
502.266	340013
502.340	250649
502.413	110975
502.487	317919
502.561	227411
502.634	74899
502.708	40218
502.781	37913
502.855	31089
502.928	26380
503.002	26371
503.075	27251
503.149	30005
503.222	32282
503.295	37306
503.369	49091
503.442	63188
503.516	160728
503.589	604951
503.662	552292
503.736	132610
503.809	246792
503.882	281847
503.956	256340
504.029	356444
504.102	110171
504.175	110427
504.249	58971
504.322	43320
504.395	46045
504.468	30445
504.542	32519
504.615	25137
504.688	21507
504.761	22122
504.834	29738
504.907	31730
504.980	62283
505.053	36517
505.127	35521
505.200	46399
505.273	51501
505.346	37501
505.419	24946
505.492	21722
505.565	18135
505.638	17303
505.711	19449
505.784	20032
505.857	18904
505.930	20492
506.003	20339
506.076	23241
506.149	31408
506.221	55869
506.294	41135
506.367	79156
506.440	369004
506.513	337048
506.586	59652
506.659	35668
506.731	24308
506.804	26873
506.877	45273
506.950	37191
507.022	21988
507.095	27522
507.168	46869
507.241	26690
507.313	19664
507.386	22402
507.459	34220
507.531	26306
507.604	19740
507.677	19428
507.749	17257
507.822	22597
507.894	47377
507.967	70265
508.040	42032
508.112	31242
508.185	29741
508.257	26505
508.330	39925
508.402	32258
508.475	29888
508.547	33682
508.620	29670
508.692	54310
508.765	41473
508.837	23391
508.909	22747
508.982	23268
509.054	26351
509.127	26419
509.199	21691
509.271	21587
509.344	20682
509.416	20670
509.488	21246
509.560	22905
509.633	24656
509.705	31074
509.777	28629
509.849	39612
509.922	37332
509.994	26052
510.066	24918
510.138	26176
510.210	46881
510.283	53873
510.355	43692
510.427	35474
510.499	32996
510.571	31946
510.643	32211
510.715	43101
510.787	52716
510.859	32367
510.931	39730
511.003	46768
511.076	49890
511.148	31602
511.219	32547
511.291	46657
511.363	77115
511.435	35065
511.507	27217
511.579	28038
511.651	26607
511.723	27165
511.795	27202
511.867	28218
511.939	32255
512.010	73828
512.082	86360
512.154	32621
512.226	31658
512.298	36266
512.369	64709
512.441	53015
512.513	49502
512.585	42307
512.656	37296
512.728	43715
512.800	36000
512.871	31728
512.943	34318
513.015	29385
513.086	30255
513.158	34784
513.230	36119
513.301	48243
513.373	63713
513.444	39342
513.516	30177
513.588	30067
513.659	32751
513.731	41251
513.802	38837
513.874	55275
513.945	136075
514.016	67184
514.088	31149
514.159	32951
514.231	40434
514.302	60500
514.374	48328
514.445	43053
514.516	78598
514.588	90576
514.659	42272
514.730	76489
514.802	76437
514.873	57893
514.944	65722
515.016	53820
515.087	52111
515.158	56999
515.229	96994
515.301	63295
515.372	91411
515.443	77519
515.514	52183
515.585	38660
515.656	33871
515.728	31331
515.799	30353
515.870	31126
515.941	32088
516.012	33792
516.083	39775
516.154	47625
516.225	56532
516.296	56884
516.367	48342
516.438	50942
516.509	63724
516.580	80318
516.651	153079
516.722	676116
516.793	593879
516.864	103263
516.935	91363
517.006	92410
517.077	117841
517.148	216812
517.219	551035
517.289	1547835
517.360	635630
517.431	278840
517.502	59150
517.573	47384
517.643	43972
517.714	48662
517.785	51173
517.856	50220
517.926	59308
517.997	68673
518.068	87573
518.138	114205
518.209	146102
518.280	350567
518.350	1758254
518.421	1354339
518.492	152948
518.562	72078
518.633	63911
518.703	55322
518.774	59410
518.845	96895
518.915	123905
518.986	71142
519.056	63868
519.127	100873
519.197	158197
519.268	380483
519.338	414470
519.408	79471
519.479	72573
519.549	65025
519.620	39582
519.690	30172
519.760	30160
519.831	30701
519.901	35520
519.971	26458
520.042	30136
520.112	39983
520.182	39913
520.253	49461
520.323	35437
520.393	39569
520.463	71454
520.534	49559
520.604	100342
520.674	63953
520.744	48180
520.814	102626
520.885	127562
520.955	98091
521.025	455997
521.095	347178
521.165	46300
521.235	37578
521.305	32640
521.375	26218
521.445	28295
521.515	39433
521.585	42704
521.655	50868
521.725	36114
521.795	37096
521.865	28019
521.935	38779
522.005	49562
522.075	28289
522.145	29064
522.215	33930
522.285	52624
522.355	64683
522.424	132210
522.494	155856
522.564	69852
522.634	73353
522.704	251962
522.774	172980
522.843	35665
522.913	30631
522.983	40006
523.053	35614
523.122	31501
523.192	36760
523.262	110842
523.331	202733
523.401	44830
523.471	24010
523.540	24613
523.610	21203
523.680	17892
523.749	20409
523.819	26710
523.888	36000
523.958	20841
524.027	20995
524.097	22914
524.166	21870
524.236	24679
524.305	25185
524.375	20723
524.444	20070
524.514	22235
524.583	22858
524.653	33257
524.722	38001
524.791	29703
524.861	21869
524.930	19715
524.999	20461
525.069	32649
525.138	29582
525.207	36821
525.277	27253
525.346	23104
525.415	21923
525.484	21657
525.554	27086
525.623	32415
525.692	23048
525.761	24163
525.830	22086
525.900	24094
525.969	32082
526.038	46087
526.107	51564
526.176	140224
526.245	172419
526.314	81242
526.383	97797
526.452	143209
526.522	160283
526.591	301941
526.660	172994
526.729	99555
526.797	72701
526.867	115163
526.935	515139
527.004	802415
527.073	503535
527.142	69413
527.211	33788
527.280	27380
527.349	36400
527.418	21501
527.487	19546
527.555	19714
527.624	17255
527.693	15791
527.762	17471
527.831	17267
527.899	16224
527.968	17943
528.037	19156
528.106	21345
528.174	43834
528.243	45721
528.312	46525
528.380	92518
528.449	34433
528.518	18167
528.586	13577
528.655	15031
528.723	13592
528.792	14166
528.861	17614
528.929	18014
528.998	14617
529.066	13659
529.135	13453
529.203	13480
529.272	12700
529.340	16279
529.409	16468
529.477	16525
529.545	22288
529.614	29550
529.682	27500
529.751	44032
529.819	32117
529.887	31807
529.956	16395
530.024	18427
530.092	15298
530.161	18113
530.229	32950
530.297	25472
530.365	15950
530.434	13557
530.502	13230
530.570	13998
530.638	13090
530.707	14710
530.775	18056
530.843	14183
530.911	13901
530.979	13244
531.047	13096
531.115	14837
531.183	14616
531.252	14709
531.320	15662
531.388	15106
531.456	14232
531.524	13803
531.592	14822
531.660	16539
531.728	14988
531.796	14663
531.864	14486
531.932	15890
532.000	16321
532.067	16975
532.135	18874
532.203	22155
532.271	24773
532.339	35734
532.407	102392
532.475	103667
532.542	37102
532.610	36597
532.678	43709
532.746	105372
532.814	496498
532.881	216745
532.949	33766
533.017	22258
533.084	18873
533.152	17648
533.220	16394
533.287	20526
533.355	17354
533.423	15387
533.490	15701
533.558	15740
533.625	17915
533.693	22027
533.761	21009
533.828	21247
533.896	21190
533.963	36273
534.031	55635
534.098	64528
534.166	47405
534.233	21247
534.300	20386
534.368	22267
534.435	20269
534.503	19033
534.570	22257
534.637	20735
534.705	19471
534.772	20680
534.840	25111
534.907	55074
534.974	120432
535.041	33941
535.109	28335
535.176	21319
535.243	15052
535.310	16769
535.378	18164
535.445	14059
535.512	13917
535.579	14507
535.646	14199
535.714	15447
535.781	20297
535.848	21223
535.915	21863
535.982	23770
536.049	23665
536.116	23213
536.183	22569
536.250	20832
536.317	22211
536.384	24822
536.451	34731
536.518	42503
536.585	31714
536.652	32940
536.719	48164
536.786	48547
536.853	32700
536.920	40674
536.987	74095
537.053	67484
537.120	167383
537.187	289965
537.254	37741
537.321	20231
537.388	20599
537.454	16406
537.521	16335
537.588	15547
537.654	19020
537.721	23378
537.788	21967
537.855	18808
537.921	18482
537.988	21151
538.055	19927
538.121	20738
538.188	21606
538.254	30282
538.321	67371
538.388	61391
538.454	24539
538.521	19669
538.587	16648
538.654	16533
538.720	16530
538.787	15943
538.853	16985
538.920	23980
538.986	29371
539.053	24783
539.119	21525
539.185	22484
539.252	22825
539.318	39203
539.385	35195
539.451	28145
539.517	29070
539.583	29727
539.650	46494
539.716	174944
539.782	90752
539.849	23618
539.915	21390
539.981	21593
540.047	28394
540.114	27863
540.180	25808
540.246	26222
540.312	33093
540.378	62323
540.444	85059
540.510	56389
540.576	179930
540.643	113664
540.709	24181
540.775	21427
540.841	20936
540.907	27535
540.973	51858
541.039	45205
541.105	49020
541.171	29983
541.237	23164
541.303	24039
541.369	25959
541.435	31938
541.500	58575
541.566	53128
541.632	21818
541.698	18125
541.764	17717
541.830	18576
541.896	18662
541.961	20109
542.027	19854
542.093	20252
542.159	20713
542.224	25140
542.290	34569
542.356	55185
542.421	81470
542.487	41840
542.553	26522
542.618	28182
542.684	26780
542.750	23936
542.815	27077
542.881	39265
542.947	130875
543.012	179710
543.078	29681
543.143	21225
543.209	22688
543.274	23463
543.340	25156
543.405	42743
543.471	115045
543.536	40043
543.602	19959
543.667	21009
543.732	19132
543.798	18381
543.863	20251
543.928	17532
543.994	16454
544.059	17669
544.124	17039
544.190	18105
544.255	19510
544.320	19812
544.386	22432
544.451	29714
544.516	39349
544.581	36099
544.646	69971
544.712	191927
544.777	57602
544.842	27028
544.907	29089
544.972	25788
545.037	22593
545.102	25543
545.168	26358
545.233	27589
545.298	28533
545.363	34329
545.428	38498
545.493	51649
545.558	130412
545.623	90674
545.688	29766
545.753	26370
545.818	23838
545.883	25081
545.947	24236
546.012	25460
546.077	31532
546.142	27539
546.207	26256
546.272	33360
546.337	39627
546.401	30337
546.466	27190
546.531	25771
546.596	27093
546.661	27317
546.725	25589
546.790	22686
546.855	23130
546.919	22771
546.984	23382
547.049	26837
547.113	32210
547.178	30349
547.243	29217
547.307	34278
547.372	38269
547.436	49127
547.501	34762
547.565	31076
547.630	37975
547.695	44261
547.759	45039
547.823	48706
547.888	31159
547.952	29937
548.017	30213
548.081	38846
548.146	52671
548.210	54884
548.274	31506
548.339	29277
548.403	27837
548.468	27018
548.532	26034
548.596	28274
548.660	29043
548.725	30497
548.789	39189
548.853	47651
548.917	35087
548.982	43042
549.046	58869
549.110	32518
549.174	27734
549.238	26638
549.303	26559
549.367	29287
549.431	29640
549.495	27858
549.559	28101
549.623	28968
549.687	31927
549.751	45839
549.815	42736
549.879	34931
549.943	32226
550.007	35082
550.071	36488
550.135	42086
550.199	42434
550.263	33391
550.327	35077
550.391	52816
550.455	46063
550.519	33222
550.582	35905
550.646	43694
550.710	56940
550.774	39744
550.838	37397
550.901	38458
550.965	41721
551.029	43867
551.093	48988
551.156	61143
551.220	105141
551.284	168739
551.347	79948
551.411	113309
551.475	210102
551.538	66511
551.602	37677
551.666	35786
551.729	32704
551.793	33319
551.856	34287
551.920	35072
551.983	34174
552.047	32610
552.110	30451
552.174	31096
552.237	31034
552.301	30563
552.364	29292
552.428	29815
552.491	29303
552.554	31191
552.618	32921
552.681	33934
552.745	35892
552.808	45867
552.871	69212
552.934	55896
552.998	38549
553.061	39077
553.124	38488
553.187	36419
553.251	39530
553.314	44953
553.377	46198
553.440	59308
553.503	132788
553.567	384837
553.630	127685
553.693	38651
553.756	34587
553.819	31074
553.882	30171
553.945	29150
554.008	28245
554.071	27046
554.134	27442
554.197	26889
554.260	25037
554.323	29427
554.386	29367
554.449	29022
554.512	28089
554.575	26757
554.638	27944
554.701	28710
554.764	25414
554.827	26309
554.889	24626
554.952	23302
555.015	23570
555.078	24116
555.141	23849
555.203	22826
555.266	24003
555.329	24480
555.391	23972
555.454	25996
555.517	27835
555.580	24805
555.642	21858
555.705	23046
555.768	25057
555.830	24774
555.893	22513
555.955	22829
556.018	21395
556.080	22158
556.143	21950
556.206	22144
556.268	25217
556.330	26345
556.393	25996
556.455	23813
556.518	36180
556.580	53569
556.643	27030
556.705	22504
556.767	21055
556.830	23482
556.892	25868
556.955	40598
557.017	40869
557.079	23882
557.142	21763
557.204	25251
557.266	50016
557.328	63933
557.391	26360
557.453	20102
557.515	21620
557.577	25550
557.639	32186
557.701	21892
557.764	19893
557.826	19907
557.888	22936
557.950	23074
558.012	22712
558.074	25457
558.136	37445
558.198	100425
558.260	75401
558.322	29696
558.384	29136
558.446	33857
558.508	35872
558.570	48075
558.632	67103
558.694	126901
558.756	99756
558.818	156653
558.880	568014
558.942	348099
559.003	112535
559.065	94505
559.127	37676
559.189	34870
559.251	39013
559.312	47246
559.374	77794
559.436	278956
559.498	292156
559.559	52108
559.621	36875
559.683	38524
559.744	51672
559.806	116319
559.868	274137
559.929	103032
559.991	39821
560.052	44360
560.114	89974
560.176	104117
560.237	55272
560.299	116632
560.360	58131
560.422	25518
560.483	22788
560.545	22284
560.606	22327
560.667	20789
560.729	20287
560.790	19630
560.852	19593
560.913	21277
560.974	19890
561.036	20243
561.097	21079
561.158	21387
561.220	22568
561.281	22753
561.342	24121
561.403	27084
561.465	32087
561.526	62569
561.587	130609
561.648	53537
561.709	25063
561.771	22609
561.832	21739
561.893	21722
561.954	20500
562.015	20058
562.076	20690
562.137	20362
562.198	20551
562.259	20759
562.320	21871
562.381	23045
562.442	32553
562.503	34568
562.564	22002
562.625	20099
562.686	20015
562.747	23045
562.808	23143
562.869	20415
562.930	25476
562.991	26119
563.051	24765
563.112	21929
563.173	21491
563.234	20554
563.294	20950
563.355	20830
563.416	22509
563.477	21575
563.537	21036
563.598	23800
563.659	23890
563.720	22783
563.780	23769
563.841	25132
563.901	23492
563.962	22429
564.023	22474
564.083	23758
564.144	23941
564.204	24173
564.265	24160
564.325	29437
564.386	51649
564.446	75126
564.507	28723
564.567	23122
564.628	22666
564.688	22616
564.749	23676
564.809	26374
564.869	35191
564.930	29392
564.990	22050
565.050	21818
565.111	22312
565.171	22537
565.231	22720
565.292	23157
565.352	21365
565.412	24015
565.472	25113
565.532	27842
565.593	27177
565.653	24561
565.713	25707
565.773	27763
565.833	29829
565.893	41348
565.953	33785
566.013	27870
566.074	30717
566.134	36639
566.194	54726
566.254	74329
566.314	51567
566.374	35722
566.434	33899
566.494	36610
566.554	35913
566.614	37610
566.673	38375
566.733	41932
566.793	45207
566.853	47934
566.913	48021
566.973	50541
567.033	50910
567.092	49707
567.152	49503
567.212	51146
567.272	51553
567.331	56126
567.391	58110
567.451	62383
567.511	71625
567.570	81507
567.630	60815
567.690	51987
567.749	52985
567.809	58510
567.868	64986
567.928	75826
567.988	88272
568.047	106954
568.107	127252
568.166	164504
568.226	233212
568.285	342091
568.345	373047
568.404	323709
568.464	278645
568.523	250633
568.582	240163
568.642	254440
568.701	295421
568.761	382775
568.820	547838
568.879	668422
568.939	594887
568.998	465587
569.057	351567
569.116	273100
569.176	216342
569.235	175082
569.294	143993
569.353	122905
569.413	106151
569.472	93695
569.531	81431
569.590	73340
569.649	66690
569.708	60866
569.767	55945
569.827	57003
569.886	53985
569.945	45682
570.004	42545
570.063	41927
570.122	40957
570.181	41752
570.240	40973
570.299	43836
570.358	40028
570.417	34870
570.475	31840
570.534	31074
570.593	31452
570.652	30216
570.711	32772
570.770	29899
570.829	33967
570.887	33478
570.946	32944
571.005	28310
571.064	25252
571.122	26086
571.181	31082
571.240	29466
571.299	24307
571.357	24793
571.416	28426
571.475	28066
571.533	33859
571.592	24732
571.650	25521
571.709	23476
571.768	21735
571.826	21947
571.885	20813
571.943	20253
572.002	20661
572.060	23994
572.119	20524
572.177	18897
572.236	17676
572.294	17196
572.352	17575
572.411	18233
572.469	17669
572.528	17991
572.586	18902
572.644	19940
572.703	25767
572.761	23846
572.819	18667
572.877	16729
572.936	17994
572.994	16458
573.052	17360
573.110	17143
573.169	19380
573.227	17189
573.285	16405
573.343	16198
573.401	16656
573.459	17587
573.517	16515
573.576	16853
573.634	16695
573.692	17538
573.750	18060
573.808	17247
573.866	17638
573.924	23934
573.982	28395
574.040	20563
574.098	17272
574.155	16903
574.213	14733
574.271	15144
574.329	16268
574.387	16292
574.445	15883
574.503	15160
574.560	14267
574.618	14455
574.676	15150
574.734	14237
574.792	15114
574.849	14430
574.907	14125
574.965	14488
575.022	14134
575.080	14435
575.138	14977
575.195	16167
575.253	16015
575.311	18266
575.368	16849
575.426	15311
575.483	15071
575.541	15109
575.598	14752
575.656	16318
575.713	16604
575.771	15235
575.828	14902
575.886	15263
575.943	15749
576.001	17519
576.058	17076
576.115	18397
576.173	20855
576.230	23257
576.287	26997
576.345	23807
576.402	17738
576.459	17758
576.517	18993
576.574	19772
576.631	22331
576.688	20133
576.746	17412
576.803	16551
576.860	15972
576.917	15844
576.974	16594
577.031	17164
577.089	16391
577.146	17818
577.203	18249
577.260	19442
577.317	20246
577.374	22083
577.431	22867
577.488	19852
577.545	17377
577.602	17865
577.659	17238
577.716	19080
577.773	22693
577.830	21215
577.886	17600
577.943	17443
578.000	17639
578.057	19145
578.114	21386
578.171	20799
578.227	24558
578.284	26615
578.341	24448
578.398	22225
578.454	22688
578.511	22780
578.568	25175
578.625	23681
578.681	20180
578.738	17093
578.794	16905
578.851	16789
578.908	16067
578.964	17666
579.021	19289
579.077	17280
579.134	17259
579.190	17419
579.247	16379
579.303	17608
579.360	16514
579.416	17267
579.473	16402
579.529	16702
579.586	17054
579.642	18228
579.698	18156
579.755	18959
579.811	19895
579.867	18960
579.924	18907
579.980	20141
580.036	22213
580.093	24238
580.149	29225
580.205	37686
580.261	34061
580.317	28206
580.374	27436
580.430	27855
580.486	28146
580.542	23514
580.598	22268
580.619	21807
580.654	21038
580.692	20404
580.710	20127
580.765	19977
580.767	19999
580.823	19410
580.838	19549
580.879	20011
580.911	19050
580.935	18384
580.984	18593
580.991	18647
581.047	19101
581.057	19091
581.103	19186
581.130	19803
581.159	20468
581.203	21775
581.215	22160
581.270	23953
581.276	23752
581.326	22058
581.349	21408
581.382	20471
581.422	20375
581.438	20381
581.494	19877
581.494	19863
581.550	20286
581.567	20322
581.606	20462
581.640	20125
581.661	19941
581.713	19366
581.717	19341
581.773	19043
581.786	18912
581.829	18453
581.859	19421
581.885	20315
581.932	19385
581.940	19237
581.996	20115
582.004	20080
582.052	19848
582.077	19438
582.107	19081
582.150	19734
582.163	19929
582.219	19597
582.223	19616
582.274	19979
582.296	20359
582.330	20993
582.368	21990
582.386	22455
582.441	20647
582.441	20654
582.497	20735
582.514	20773
582.552	20923
582.587	21971
582.608	22657
582.659	22759
582.663	22754
582.719	21149
582.732	20906
582.774	20379
582.805	20814
582.830	21198
582.877	21477
582.885	21507
582.941	21395
582.950	21467
582.996	21917
583.023	22583
583.052	23352
583.095	23998
583.107	24216
583.162	26118
583.168	26504
583.218	29875
583.240	28916
583.273	27373
583.313	26608
583.328	26286
583.384	23682
583.385	23681
583.439	23859
583.458	23312
583.494	22321
583.531	22377
583.549	22376
583.603	21738
583.605	21718
583.660	22450
583.676	22367
583.715	22160
583.748	22563
583.770	22961
583.820	23304
583.825	23298
583.881	23822
583.893	23665
583.936	23110
583.965	23144
583.991	23101
584.038	22013
584.046	21863
584.101	23813
584.110	23755
584.156	23245
584.183	23376
584.211	23525
584.255	23977
584.266	24105
584.321	22674
584.328	22824
584.376	23823
584.400	24009
584.431	24375
584.472	24261
584.486	24125
584.541	24247
584.545	24224
584.596	23723
584.617	24390
584.651	25607
584.689	25709
584.706	25644
584.761	26279
584.762	26292
584.816	25998
584.834	26204
584.871	26721
584.906	27280
584.926	27484
584.978	27365
584.980	27341
585.035	28390
585.051	28422
585.090	28385
585.123	29087
585.145	29746
585.195	31033
585.200	31123
585.254	33516
585.267	34272
585.309	36977
585.340	40832
585.364	43923
585.412	43805
585.419	43396
585.473	37546
585.484	37622
585.528	39117
585.556	41068
585.583	43842
585.628	51477
585.637	53649
585.692	75994
585.700	83336
585.747	128406
585.772	128740
585.801	114302
585.845	68090
585.856	57474
585.910	41221
585.917	40138
585.965	39187
585.989	39030
586.019	38720
586.061	37742
586.074	37450
586.128	37940
586.133	38112
586.183	40001
586.205	41127
586.237	42159
586.277	42482
586.292	42619
586.346	43094
586.349	43174
586.401	43414
586.421	44082
586.455	45081
586.493	46509
586.509	47529
586.564	53535
586.565	53925
586.618	72006
586.637	77716
586.672	83638
586.709	70180
586.727	61369
586.781	51810
586.781	51720
586.835	51770
586.853	52157
586.889	52744
586.925	53027
586.944	53190
586.996	55108
586.998	55095
587.052	58022
587.068	58809
587.106	59454
587.140	60847
587.161	61875
587.212	63862
587.215	63838
587.269	67027
587.284	67860
587.323	69804
587.356	71376
587.377	72192
587.427	76115
587.431	76236
587.485	79323
587.499	80430
587.539	83954
587.571	87248
587.593	89425
587.643	95611
587.648	95962
587.702	102325
587.715	104072
587.755	109293
587.786	114463
587.810	117715
587.858	124519
587.864	125206
587.917	136927
587.930	140085
587.971	150013
588.001	159382
588.025	166721
588.073	182145
588.079	183692
588.133	202520
588.145	208029
588.187	227307
588.217	243545
588.241	257042
588.288	288601
588.295	292471
588.348	334585
588.360	345805
588.402	387067
588.431	419525
588.456	448313
588.503	515221
588.510	524319
588.564	618579
588.575	642811
588.617	741403
588.646	822698
588.671	903266
588.718	1083481
588.725	1116861
588.778	1425790
588.789	1493621
588.832	1840015
588.861	2053820
588.886	2230106
588.932	2413017
588.939	2379734
588.993	1983796
589.004	1976699
589.047	2162986
589.075	2351853
589.100	2367783
589.147	2144136
589.154	2087374
589.207	1585886
589.218	1493948
589.261	1301451
589.290	1204183
589.314	1175042
589.361	1173868
589.368	1186839
589.421	1367736
589.433	1415870
589.475	1722753
589.504	1924454
589.528	2060006
589.576	2155208
589.582	2127400
589.635	2028400
589.647	2033741
589.689	1939109
589.718	1738298
589.742	1494815
589.790	996939
589.795	960517
589.849	692644
589.861	639769
589.902	531398
589.932	464428
589.955	423857
590.004	347392
590.009	339882
590.062	283364
590.075	271753
590.115	241366
590.146	221951
590.168	210363
590.218	188418
590.222	186017
590.275	166587
590.289	162638
590.328	151571
590.360	143728
590.381	137779
590.431	126095
590.435	124969
590.488	114761
590.503	112638
590.541	106134
590.574	101336
590.594	98450
590.645	92832
590.647	92218
590.700	85680
590.716	84123
590.753	80176
590.787	77237
590.806	75591
590.859	72532
590.859	72184
590.912	67955
590.930	66939
590.965	65558
591.001	64785
591.018	63321
591.071	59418
591.072	59610
591.124	57500
591.143	56988
591.177	55369
591.214	54178
591.230	53349
591.283	51420
591.285	51542
591.336	50494
591.356	50416
591.389	49666
591.427	49073
591.442	48232
591.495	45728
591.498	45729
591.547	43239
591.569	42387
591.600	41706
591.640	40999
591.653	40448
591.706	39120
591.711	39127
591.759	38909
591.782	39132
591.811	39647
591.853	40847
591.864	40516
591.917	39171
591.924	39134
591.969	36166
591.995	34688
592.022	34496
592.066	34652
592.075	34540
592.127	34657
592.137	34841
592.180	37341
592.208	39215
592.233	37826
592.279	35139
592.285	34608
592.338	31372
592.350	30776
592.390	29800
592.421	29257
592.443	29150
592.491	29342
592.495	29172
592.548	28415
592.562	28325
592.600	27609
592.633	27210
592.653	26878
592.704	26177
592.705	26316
592.775	25948
592.846	25940
592.916	25946
592.987	26950
593.058	26413
593.128	24918
593.199	23709
593.270	23606
593.341	22375
593.411	23471
593.482	23380
593.553	22272
593.623	21725
593.694	21556
593.764	22726
593.835	23753
593.906	21296
593.976	21253
594.047	21377
594.117	22784
594.188	26816
594.258	21191
594.329	19558
594.399	19583
594.470	19748
594.540	19130
594.611	18560
594.681	19020
594.751	19306
594.822	20641
594.892	21746
594.963	20648
595.033	20209
595.103	19899
595.174	20285
595.244	25200
595.314	36925
595.384	28034
595.455	19503
595.525	19657
595.595	19941
595.665	19462
595.736	19064
595.806	19094
595.876	19083
595.946	18231
596.016	18450
596.087	17312
596.157	18440
596.227	18760
596.297	18625
596.367	18849
596.437	19873
596.507	23952
596.577	31723
596.647	27317
596.717	18888
596.787	19333
596.857	18899
596.927	19429
596.997	18546
597.067	19638
597.137	20702
597.207	21527
597.277	19512
597.347	18747
597.417	19114
597.487	19427
597.557	19297
597.626	19333
597.696	19660
597.766	21842
597.836	28158
597.906	27059
597.975	18412
598.045	17575
598.115	17935
598.185	17220
598.254	17857
598.324	19326
598.394	20695
598.464	20639
598.533	19620
598.603	18575
598.672	18970
598.742	18401
598.812	18745
598.881	18421
598.951	19086
599.020	17031
599.090	17569
599.159	17847
599.229	17694
599.299	16997
599.368	16568
599.437	17241
599.507	17347
599.576	17703
599.646	18635
599.715	19334
599.785	17847
599.854	16927
599.924	19996
599.993	19968
600.062	17599
600.132	16670
600.201	17048
600.270	18581
600.340	20161
600.409	17917
600.478	17488
600.547	17662
600.617	18303
600.686	18345
600.755	16696
600.824	16704
600.894	17552
600.963	16439
601.032	15141
601.101	16007
601.170	15201
601.239	15507
601.308	15771
601.378	15912
601.447	14277
601.516	14323
601.585	15483
601.654	15950
601.723	16103
601.792	15040
601.861	16154
601.930	18359
601.999	20220
602.068	17003
602.137	16883
602.206	17323
602.275	16055
602.343	17495
602.412	20722
602.481	17215
602.550	15386
602.619	16029
602.688	15931
602.756	16192
602.825	15747
602.894	15063
602.963	15769
603.032	16158
603.100	15522
603.169	15707
603.238	15931
603.307	15761
603.375	14529
603.444	15352
603.513	15929
603.581	15719
603.650	16059
603.719	15499
603.787	15673
603.856	15596
603.924	15958
603.993	15816
604.061	15974
604.130	16729
604.198	16767
604.267	16798
604.335	16717
604.404	16664
604.472	16304
604.541	16395
604.609	16722
604.678	17104
604.746	16920
604.815	17517
604.883	17213
604.951	16839
605.020	16827
605.088	16834
605.156	17430
605.225	17828
605.293	16461
605.361	17941
605.429	17956
605.498	17721
605.566	18455
605.634	19997
605.702	19340
605.771	18708
605.839	18305
605.907	18319
605.975	18217
606.043	18230
606.111	18393
606.180	18490
606.248	19652
606.316	23157
606.384	20802
606.452	21119
606.520	22365
606.588	21821
606.656	17722
606.724	17121
606.792	17200
606.860	15795
606.928	14177
606.996	14400
607.064	14353
607.132	14359
607.200	15240
607.267	14921
607.335	14933
607.403	14547
607.471	15174
607.539	14429
607.607	15137
607.674	14133
607.742	13753
607.810	14822
607.878	15063
607.946	14199
608.013	14305
608.081	14973
608.149	14212
608.216	14836
608.284	14960
608.352	14195
608.419	16259
608.487	17848
608.555	20017
608.622	14020
608.690	14857
608.757	14876
608.825	16321
608.893	16035
608.960	17174
609.028	19900
609.095	22173
609.163	21009
609.230	15381
609.298	14451
609.365	13937
609.432	13488
609.500	13904
609.567	15944
609.635	18206
609.702	18189
609.769	19138
609.837	18317
609.904	17432
609.971	15506
610.039	17767
610.106	22981
610.173	35756
610.241	80639
610.308	134994
610.375	97478
610.442	36379
610.509	18759
610.577	15985
610.644	15469
610.711	14446
610.778	15168
610.845	15141
610.912	15491
610.980	17338
611.047	21711
611.114	25293
611.181	17271
611.248	14937
611.315	15341
611.382	15966
611.449	15636
611.516	15517
611.583	16375
611.650	16005
611.717	17450
611.784	17724
611.851	18840
611.918	20761
611.984	24217
612.051	32482
612.118	57722
612.185	147382
612.252	245367
612.319	58965
612.386	24099
612.452	21449
612.519	20656
612.586	22867
612.653	26125
612.719	18737
612.786	18552
612.853	16986
612.919	15863
612.986	16663
613.053	16491
613.120	14894
613.186	14429
613.253	15814
613.319	15079
613.386	15686
613.453	14755
613.519	16597
613.586	17929
613.652	25878
613.719	24707
613.785	24558
613.852	18171
613.918	16993
613.985	18553
614.051	24067
614.118	45804
614.184	92188
614.250	35141
614.317	16800
614.383	15824
614.449	14726
614.516	15327
614.582	15542
614.648	16834
614.715	15386
614.781	14629
614.847	14780
614.914	15633
614.980	16737
615.046	15567
615.112	16032
615.179	15906
615.245	18486
615.311	23337
615.377	38095
615.443	65487
615.509	43639
615.575	24527
615.642	21394
615.708	20294
615.774	22853
615.840	26506
615.906	32784
615.972	48217
616.038	91313
616.104	174190
616.170	230392
616.236	401409
616.302	126591
616.368	39309
616.434	30131
616.500	24137
616.565	23736
616.631	26609
616.697	27302
616.763	23293
616.829	28994
616.895	47917
616.961	68345
617.026	42482
617.092	20988
617.158	18551
617.224	16671
617.289	15950
617.355	15265
617.421	15652
617.487	15998
617.552	14178
617.618	14148
617.684	13810
617.749	16174
617.815	13379
617.880	13651
617.946	14088
618.012	14208
618.077	13654
618.143	13594
618.208	13543
618.274	14282
618.339	14547
618.405	13843
618.470	12974
618.536	13418
618.601	14822
618.667	14672
618.732	13398
618.798	13793
618.863	12679
618.928	12377
618.994	13451
619.059	14963
619.124	18148
619.190	20485
619.255	13787
619.320	13200
619.386	12986
619.451	12656
619.516	12759
619.581	13131
619.647	12659
619.712	12499
619.777	13097
619.842	12405
619.907	13428
619.972	12948
620.038	12971
620.103	11771
620.168	12090
620.233	12598
620.298	11727
620.363	12182
620.428	12364
620.493	12217
620.558	12661
620.623	11679
620.688	12474
620.753	11535
620.818	12085
620.883	12202
620.948	12661
621.013	12506
621.078	12311
621.143	12121
621.207	14146
621.272	13963
621.337	15293
621.402	14282
621.467	16354
621.532	20798
621.596	17992
621.661	15224
621.726	13776
621.791	13351
621.855	14418
621.920	15479
621.985	15853
622.049	18536
622.114	16999
622.179	15893
622.243	15014
622.308	16447
622.373	15662
622.437	16002
622.502	14517
622.566	14303
622.631	14432
622.695	14225
622.760	14480
622.824	14355
622.889	15287
622.953	15904
623.018	18974
623.082	27139
623.147	18060
623.211	14496
623.276	14198
623.340	14662
623.404	14368
623.469	13023
623.533	13596
623.597	13319
623.662	13594
623.726	13759
623.790	12897
623.854	11825
623.919	13482
623.983	12684
624.047	13838
624.111	12791
624.176	12537
624.240	13300
624.304	15924
624.368	14079
624.432	13517
624.496	13549
624.560	14004
624.625	15867
624.689	15201
624.753	13431
624.817	13418
624.881	12342
624.945	11824
625.009	12612
625.073	12823
625.137	13122
625.201	15480
625.265	18192
625.329	14099
625.393	12610
625.456	14171
625.520	13408
625.584	15601
625.648	18439
625.712	23073
625.776	45911
625.839	83403
625.903	63506
625.967	18917
626.031	19995
626.095	38714
626.158	33134
626.222	12351
626.286	10964
626.349	10483
626.413	10093
626.477	10453
626.540	10893
626.604	10272
626.668	10084
626.731	9731
626.795	10473
626.858	10675
626.922	9630
626.986	9731
627.049	9839
627.113	9533
627.176	9713
627.240	8944
627.303	8742
627.366	8910
627.430	9439
627.493	9670
627.557	9490
627.620	9398
627.684	9585
627.747	9377
627.810	9041
627.874	8827
627.937	8531
628.000	9527
628.064	10050
628.127	8468
628.190	8598
628.253	8639
628.317	8368
628.380	9240
628.443	8057
628.506	8883
628.569	9021
628.632	7597
628.696	7236
628.759	8017
628.822	7504
628.885	7250
628.948	7709
629.011	6835
629.074	8284
629.137	7113
629.200	7686
629.263	8272
629.326	7861
629.389	7270
629.452	7698
629.515	7315
629.578	7542
629.641	8245
629.704	8087
629.767	8058
629.830	7705
629.892	7097
629.955	7040
630.018	7154
630.081	8108
630.144	10290
630.207	9216
630.269	8892
630.332	8157
630.395	9561
630.458	6947
630.520	6918
630.583	7540
630.646	7050
630.708	6761
630.771	5658
630.834	6611
630.896	6662
630.959	6197
631.021	6095
631.084	6521
631.146	7104
631.209	8437
631.272	8154
631.334	7013
631.397	6733
631.459	5936
631.522	6944
631.584	7131
631.646	6372
631.709	7368
631.771	8511
631.834	9850
631.896	6695
631.958	6282
632.021	6217
632.083	5828
632.145	5772
632.208	6416
632.270	6661
632.332	5576
632.395	5786
632.457	6672
632.519	5855
632.581	6661
632.643	4923
632.706	5760
632.768	5712
632.830	5451
632.892	5617
632.954	5273
633.016	6152
633.078	5995
633.141	5340
633.203	5609
633.265	6405
633.327	5544
633.389	5615
633.451	6088
633.513	7362
633.575	8768
633.637	8491
633.698	8705
633.760	6304
633.822	5958
633.884	5933
633.946	5762
634.008	6549
634.070	6602
634.132	7379
634.193	8511
634.255	6867
634.317	6376
634.379	6851
634.441	6725
634.502	6377
634.564	6430
634.626	5476
634.687	5781
634.749	5532
634.811	5804
634.873	4976
634.934	4654
634.996	5557
635.057	5034
635.119	4786
635.181	5042
635.242	5402
635.304	4537
635.365	5789
635.427	5082
635.488	5815
635.550	5561
635.611	5555
635.673	4632
635.734	6172
635.796	5633
635.857	6287
635.918	6098
635.980	6099
636.041	6183
636.102	6358
636.164	7161
636.225	6293
636.286	6747
636.348	5939
636.409	5259
636.470	5118
636.531	5440
636.593	4970
636.654	6720
636.715	5519
636.776	4551
636.838	4360
636.899	4759
636.960	4413
637.021	4452
637.082	5173
637.143	4823
637.204	4447
637.265	4245
637.326	4910
637.387	4709
637.448	4742
637.509	4705
637.570	4884
637.631	4584
637.692	3978
637.753	4081
637.814	3649
637.875	4798
637.936	4859
637.997	4501
638.058	4731
638.119	4280
638.179	4048
638.240	3709
638.301	4982
638.362	3481
638.423	3870
638.483	4657
638.544	4061
638.605	3949
638.666	3091
638.726	4749
638.787	3845
638.848	4104
638.908	4365
638.969	3991
639.030	4017
639.090	4034
639.151	3729
639.211	4291
639.272	6004
639.332	7639
639.393	10361
639.453	4566
639.514	3857
639.574	4365
639.635	3186
639.695	4842
639.756	4319
639.816	4068
639.877	4770
639.937	6616
639.997	12366
640.058	9439
640.118	4132
640.178	3972
640.239	3434
640.299	3305
640.359	3771
640.420	4110
640.480	3462
640.540	3767
640.600	3752
640.661	4489
640.721	3372
640.781	6377
640.841	6324
640.901	5451
640.961	4046
641.021	3982
641.082	5046
641.142	6717
641.202	8244
641.262	2984
641.322	4096
641.382	3022
641.442	3894
641.502	3393
641.562	3949
641.622	3098
641.682	3265
641.742	4053
641.802	4509
641.861	4365
641.921	4354
641.981	4148
642.041	4659
642.101	5724
642.161	5609
642.221	3436
642.280	3229
642.340	3251
642.400	3109
642.460	3052
642.519	3004
642.579	3809
642.639	3125
642.698	2957
642.758	4476
642.818	3140
642.877	3443
642.937	3995
642.997	3984
643.056	5391
643.116	6033
643.175	3943
643.235	3285
643.294	3668
643.354	3876
643.414	3895
643.473	5219
643.532	5574
643.592	7269
643.651	9997
643.711	16269
643.770	28176
643.830	54157
643.889	159337
643.948	171919
644.008	20864
644.067	6897
644.126	6170
644.186	5052
644.245	4620
644.304	3146
644.363	4599
644.423	3032
644.482	3514
644.541	3102
644.600	2658
644.659	3741
644.719	3615
644.778	5167
644.837	6885
644.896	11038
644.955	25155
645.014	33325
645.073	8328
645.132	5292
645.191	4369
645.250	3911
645.309	3964
645.368	2694
645.427	4050
645.486	3514
645.545	7300
645.604	6324
645.663	3386
645.722	3634
645.781	3061
645.840	3611
645.898	4343
645.957	5567
646.016	7972
646.075	13923
646.134	23347
646.192	45385
646.251	135609
646.310	91044
646.369	10111
646.427	5131
646.486	4895
646.545	4081
646.603	3285
646.662	2971
646.721	3246
646.779	2956
646.838	2857
646.896	3652
646.955	4901
647.014	4408
647.072	6268
647.131	12685
647.189	23572
647.248	6410
647.306	3830
647.365	2740
647.423	2473
647.481	2855
647.540	2017
647.598	2977
647.657	2853
647.715	2722
647.773	2350
647.832	2784
647.890	1835
647.948	2256
648.007	3200
648.065	1703
648.123	2325
648.181	3126
648.240	3480
648.298	5283
648.356	3543
648.414	2748
648.472	2291
648.531	2856
648.589	2616
648.647	2540
648.705	2692
648.763	2639
648.821	2282
648.879	2820
648.937	2441
648.995	3563
649.053	3272
649.111	4275
649.169	7200
649.227	10508
649.285	17707
649.343	39482
649.401	78124
649.459	23208
649.516	18442
649.574	10156
649.632	15174
649.690	35814
649.748	22649
649.806	7967
649.863	14003
649.921	15275
649.979	18797
650.037	7279
650.094	2887
650.152	3170
650.210	2209
650.268	3205
650.325	2357
650.383	2780
650.440	2162
650.498	2742
650.556	2587
650.613	1168
650.671	1659
650.728	1781
650.786	2707
650.843	3222
650.901	2003
650.958	1778
651.016	2050
651.073	1819
651.131	2064
651.188	1494
651.246	2475
651.303	1832
651.360	1869
651.418	1637
651.475	2887
651.532	2144
651.590	2216
651.647	1553
651.704	1310
651.762	1587
651.819	1936
651.876	1786
651.933	1764
651.990	1576
652.048	1538
652.105	1971
652.162	2225
652.219	1551
652.276	1691
652.333	2030
652.390	1761
652.448	1740
652.505	1899
652.562	1626
652.619	2340
652.676	2486
652.733	5828
652.790	4011
652.847	1032
652.904	2192
652.961	1485
653.017	1341
653.074	2452
653.131	654
653.188	828
653.245	2170
653.302	1563
653.359	1179
653.415	2042
653.472	1305
653.529	2279
653.586	2421
653.642	1767
653.699	1733
653.756	1168
653.813	1177
653.869	1195
653.926	1165
653.983	1139
654.039	1781
654.096	1687
654.152	2574
654.209	659
654.266	1953
654.322	833
654.379	2093
654.435	2422
654.492	2604
654.548	3140
654.605	5167
654.661	5617
654.717	1766
654.774	1953
654.830	2255
654.887	2577
654.943	2288
655.000	2576
655.056	2274
655.112	1745
655.168	1709
655.225	2407
655.281	2578
655.337	2725
655.394	4461
655.450	6673
655.506	4310
655.562	4494
655.618	7614
655.675	3208
655.731	2417
655.787	1316
655.843	2369
655.899	1108
655.955	3064
656.011	2309
656.067	1624
656.123	3260
656.179	2437
656.235	3582
656.291	2707
656.347	3828
656.403	3075
656.459	2736
656.515	3037
656.571	3025
656.627	2636
656.683	2150
656.739	2637
656.795	2112
656.850	2453
656.906	2563
656.962	3209
657.018	1765
657.074	1459
657.129	1506
657.185	2162
657.241	2077
657.297	2448
657.352	1905
657.408	1766
657.464	2407
657.519	1177
657.575	860
657.630	1941
657.686	1900
657.742	769
657.797	1799
657.853	1546
657.908	2712
657.964	1072
658.019	1439
658.075	1765
658.130	1377
658.186	895
658.241	1531
658.297	1536
658.352	324
658.407	1851
658.463	859
658.518	1346
658.573	1848
658.629	229
658.684	1470
658.739	936
658.795	779
658.850	1074
658.905	1332
658.960	1779
659.016	1301
659.071	1342
659.126	1030
659.181	1481
659.236	2432
659.291	4921
659.346	3680
659.401	2478
659.457	2793
659.512	4533
659.567	5310
659.622	1392
659.677	1918
659.732	1172
659.787	1320
659.842	2136
659.897	2491
659.952	3346
660.007	1489
660.061	1118
660.116	1215
660.171	1306
660.226	984
660.281	1904
660.336	614
660.391	624
660.445	1225
660.500	1743
660.555	1212
660.610	10
660.664	1659
660.719	1209
660.774	1699
660.828	957
660.883	1424
660.938	1126
660.992	1325
661.047	1158
661.101	580
661.156	1356
661.211	1054
661.265	701
661.320	866
661.374	1445
661.429	1003
661.483	1869
661.538	1739
661.592	60
661.647	1878
661.701	1707
661.755	1629
661.810	1759
661.864	855
661.919	1135
661.973	1884
662.027	1842
662.081	358
662.136	827
662.190	1443
662.244	2334
662.299	2317
662.353	1225
662.407	1647
662.461	1291
662.515	945
662.569	1781
662.624	1971
662.678	963
662.732	1449
662.786	771
662.840	1488
662.894	2466
662.948	1578
663.002	1421
663.056	1387
663.110	898
663.164	936
663.218	1861
663.272	1228
663.326	985
663.380	1164
663.434	1878
663.488	1377
663.542	1680
663.595	1254
663.649	1594
663.703	2829
663.757	1626
663.811	1157
663.864	884
663.918	2035
663.972	1340
664.026	1644
664.079	981
664.133	1952
664.187	1899
664.240	686
664.294	1292
664.348	1632
664.401	1344
664.455	1745
664.508	515
664.562	2062
664.615	1422
664.669	1013
664.722	1754
664.776	1615
664.829	943
664.883	1574
664.936	1258
664.990	2202
665.043	2109
665.097	1724
665.150	2441
665.203	1959
665.257	1890
665.310	2277
665.363	1549
665.417	1872
665.470	2024
665.523	2138
665.576	1526
665.630	1636
665.683	2007
665.736	1883
665.789	1851
665.842	1957
665.895	1552
665.949	1950
666.002	1528
666.055	2061
666.108	1745
666.161	1522
666.214	1659
666.267	2085
666.320	2601
666.373	2695
666.426	2722
666.479	1489
666.532	2120
666.585	1685
666.638	2903
666.691	2368
666.744	2464
666.796	2603
666.849	2779
666.902	3116
666.955	1311
667.008	1831
667.060	1783
667.113	1354
667.166	1167
667.219	1784
667.271	1423
667.324	1253
667.377	1774
667.430	2065
667.482	1927
667.535	2817
667.587	2763
667.640	2867
667.693	2055
667.745	3074
667.798	5604
667.850	3815
667.903	2555
667.955	2543
668.008	2333
668.060	2477
668.113	2106
668.165	2281
668.218	2761
668.270	2570
668.322	1840
668.375	1724
668.427	2689
668.479	2173
668.532	2532
668.584	2275
668.636	1744
668.689	2386
668.741	1460
668.793	2687
668.845	2208
668.898	2782
668.950	2323
669.002	2639
669.054	1935
669.106	1856
669.158	1916
669.211	2465
669.263	2075
669.315	2519
669.367	3472
669.419	3791
669.471	3867
669.523	4180
669.575	5315
669.627	6512
669.679	5200
669.731	3065
669.783	2827
669.835	3947
669.886	4199
669.938	4126
669.990	2718
670.042	2377
670.094	2920
670.146	3468
670.197	5203
670.249	4862
670.301	6239
670.353	9061
670.404	12395
670.456	17928
670.508	27403
670.560	41127
670.611	66206
670.663	105591
670.715	190550
670.766	472302
670.818	610752
670.869	164539
670.921	32029
670.972	16606
671.024	11932
671.075	9466
671.127	6571
671.178	4973
671.230	4826
671.281	4771
671.333	4566
671.384	4195
671.436	4309
671.487	4869
671.538	4113
671.590	4074
671.641	5274
671.692	6997
671.744	9586
671.795	15257
671.846	9557
671.897	5143
671.949	3377
672.000	3418
672.051	3109
672.102	2937
672.153	2941
672.204	2912
672.256	2935
672.307	2454
672.358	2484
672.409	3315
672.460	2481
672.511	1932
672.562	1960
672.613	2608
672.664	2544
672.715	1636
672.766	2803
672.817	1803
672.868	2076
672.919	2174
672.970	1746
673.021	2188
673.071	1532
673.122	2768
673.173	2812
673.224	1707
673.275	2673
673.326	1380
673.376	2452
673.427	1386
673.478	1860
673.528	2579
673.579	1907
673.630	2601
673.680	1777
673.731	2072
673.782	1826
673.832	1573
673.883	2645
673.934	2298
673.984	1896
674.035	1498
674.085	2123
674.136	1921
674.186	2518
674.237	2707
674.287	3254
674.338	5636
674.388	3227
674.438	1775
674.489	2509
674.539	2072
674.589	3278
674.640	2740
674.690	1941
674.740	1654
674.791	1984
674.841	2082
674.891	3069
674.942	2829
674.992	1923
675.042	2089
675.092	1857
675.142	1544
675.193	1747
675.243	1816
675.293	2070
675.343	1631
675.393	2095
675.443	2093
675.493	2290
675.543	1290
675.593	1131
675.643	2328
675.693	2227
675.743	1928
675.793	1953
675.843	2401
675.893	1516
675.943	2382
675.993	1469
676.043	2170
676.093	2223
676.142	1777
676.192	1866
676.242	2184
676.292	2060
676.341	1506
676.391	2134
676.441	1107
676.491	1557
676.540	1506
676.590	2117
676.640	1758
676.689	2072
676.739	1403
676.789	1991
676.838	2022
676.888	1073
676.937	1031
676.987	1266
677.037	1938
677.086	1744
677.136	1479
677.185	1319
677.235	1727
677.284	1332
677.333	1422
677.383	883
677.432	1029
677.482	1348
677.531	1576
677.580	797
677.630	1205
677.679	1110
677.728	908
677.778	1164
677.827	1747
677.876	879
677.925	1029
677.975	1564
678.024	1525
678.073	1156
678.122	1856
678.171	1465
678.220	1836
678.269	1415
678.319	1378
678.368	2049
678.417	1446
678.466	2296
678.515	1832
678.564	1838
678.613	1454
678.662	1368
678.711	1086
678.760	1660
678.809	1304
678.857	1381
678.906	1932
678.955	823
679.004	2128
679.053	2063
679.102	1215
679.151	1999
679.199	1997
679.248	2432
679.297	1213
679.346	1817
679.394	1692
679.443	1555
679.492	796
679.540	1406
679.589	1266
679.638	1976
679.686	1591
679.735	672
679.784	469
679.832	1380
679.881	1695
679.929	1317
679.978	1197
680.026	861
680.075	1528
680.123	965
680.172	1177
680.220	765
680.268	599
680.317	1555
680.365	1493
680.414	1082
680.462	2161
680.510	1018
680.559	1390
680.607	822
680.655	1746
680.703	660
680.752	1298
680.800	1380
680.848	554
680.896	467
680.945	790
680.993	998
681.041	1056
681.089	1360
681.137	1764
681.185	334
681.233	1037
681.258	852
681.281	657
681.329	1051
681.377	1328
681.380	1351
681.425	1388
681.473	1055
681.502	1391
681.521	1588
681.569	1980
681.617	1198
681.624	1267
681.665	1544
681.713	958
681.745	1515
681.761	1746
681.809	1854
681.857	1490
681.867	1462
681.904	1292
681.952	1920
681.989	1958
682.000	1944
682.048	1367
682.096	2033
682.111	2071
682.143	2084
682.191	2037
682.233	2179
682.239	2176
682.286	2536
682.334	1574
682.354	1641
682.382	1717
682.430	1778
682.476	2868
682.477	2872
682.525	1062
682.572	1938
682.598	2179
682.620	2379
682.667	2073
682.715	2268
682.720	2276
682.763	2115
682.810	2376
682.841	2301
682.857	2238
682.905	2395
682.952	2027
682.963	2024
683.000	1931
683.047	2553
683.085	2679
683.095	2696
683.142	2492
683.190	2515
683.206	2341
683.237	1984
683.284	3821
683.328	2672
683.332	2561
683.379	3035
683.426	3054
683.449	3036
683.473	2967
683.521	3172
683.568	3010
683.571	3005
683.615	2790
683.662	2914
683.693	2583
683.709	2361
683.757	2873
683.804	3414
683.814	3372
683.851	3190
683.898	3328
683.936	3154
683.945	3090
683.992	3198
684.039	2705
684.057	2866
684.086	3143
684.133	3554
684.179	2728
684.180	2687
684.227	3161
684.274	3689
684.300	3405
684.321	3151
684.368	3656
684.415	3771
684.422	3801
684.462	3857
684.509	3784
684.543	3718
684.556	3704
684.603	3049
684.649	3222
684.665	3364
684.696	3608
684.743	4246
684.786	3580
684.790	3517
684.837	4819
684.883	4273
684.908	4313
684.930	4354
684.977	4439
685.023	5025
685.029	5034
685.070	4743
685.117	4516
685.150	4320
685.164	4311
685.210	4302
685.257	4863
685.272	4941
685.303	4998
685.350	4620
685.393	4754
685.396	4767
685.443	4565
685.490	5549
685.514	5343
685.536	5191
685.583	5477
685.629	6126
685.636	6053
685.675	5123
685.722	5118
685.757	5264
685.768	5388
685.815	5305
685.861	5261
685.878	5125
685.908	4929
685.954	5386
686.000	4995
686.000	4982
686.047	5487
686.093	5465
686.121	6246
686.139	6856
686.185	6685
686.232	6736
686.242	6795
686.278	6382
686.324	6204
686.363	5778
686.370	5766
686.416	5062
686.463	5230
686.484	5244
686.509	5320
686.555	5847
686.601	6073
686.606	6059
686.647	5713
686.693	5477
686.727	5490
686.739	5557
686.785	5630
686.831	6126
686.848	6257
686.877	6362
686.923	6034
686.969	5617
686.969	5613
687.015	5521
687.061	5657
687.090	5514
687.107	5487
687.153	6410
687.199	5604
687.211	5558
687.245	5446
687.291	5502
687.332	5888
687.336	5935
687.382	6199
687.428	6375
687.453	6523
687.474	6515
687.520	6150
687.565	6253
687.574	6138
687.611	5733
687.657	5952
687.695	6133
687.702	6223
687.748	5467
687.794	6721
687.816	6871
687.839	7020
687.885	7033
687.931	7474
687.937	7473
687.976	6836
688.022	6481
688.058	5971
688.067	5974
688.113	6627
688.158	6546
688.179	6471
688.204	6269
688.249	6263
688.295	6111
688.300	6126
688.340	6534
688.386	6774
688.421	7384
688.431	7482
688.477	6628
688.522	6451
688.542	6489
688.567	6686
688.613	7415
688.658	6596
688.663	6596
688.703	6605
688.749	7035
688.784	7483
688.794	7581
688.839	6987
688.884	7419
688.905	7134
688.930	6832
688.975	6604
689.020	6434
689.026	6451
689.065	6840
689.110	6925
689.146	7486
689.155	7587
689.201	7350
689.246	7423
689.267	7302
689.291	7210
689.336	7584
689.381	7749
689.388	7640
689.426	7061
689.471	7426
689.509	7181
689.516	7180
689.561	7195
689.606	7527
689.630	7648
689.651	7657
689.696	7383
689.741	7845
689.750	7684
689.785	7332
689.830	7961
689.871	7891
689.875	7874
689.920	7693
689.965	7437
689.992	7441
690.010	7519
690.054	7502
690.099	7743
690.112	7844
690.144	8208
690.189	8017
690.233	8259
690.233	8271
690.278	8410
690.323	8234
690.354	7983
690.367	7933
690.412	8252
690.457	8212
690.474	8366
690.501	8716
690.546	8650
690.590	8754
690.595	8751
690.635	8825
690.680	9296
690.716	9400
690.724	9529
690.769	10187
690.813	11076
690.836	11365
690.857	12079
690.902	13645
690.946	15215
690.957	15621
690.991	19277
691.035	24235
691.077	29877
691.080	30506
691.124	41738
691.168	50531
691.198	55855
691.213	53208
691.257	46450
691.301	40039
691.318	37401
691.346	33415
691.390	26614
691.434	20112
691.439	19332
691.478	17066
691.522	14670
691.559	12605
691.567	12522
691.611	11949
691.655	11239
691.680	10771
691.699	10620
691.743	10522
691.787	10343
691.800	10230
691.831	10123
691.875	10008
691.919	9987
691.921	9964
691.964	10011
692.008	9940
692.041	10037
692.052	10111
692.096	10158
692.139	10483
692.162	10502
692.183	10397
692.227	10221
692.271	9821
692.282	9771
692.315	9952
692.359	10064
692.402	10275
692.403	10294
692.447	10137
692.490	9956
692.523	9661
692.534	9727
692.578	10142
692.622	10536
692.643	10538
692.666	10230
692.709	10285
692.753	9783
692.763	9690
692.797	9956
692.840	10353
692.884	10704
692.884	10725
692.928	10550
692.971	10296
693.004	9982
693.015	9985
693.059	10465
693.102	10705
693.124	10677
693.146	10755
693.189	11046
693.233	11392
693.245	11462
693.276	11872
693.320	12445
693.363	12841
693.365	12832
693.407	13225
693.450	13547
693.485	13851
693.493	14242
693.537	16076
693.580	18199
693.605	19205
693.624	20756
693.667	24506
693.710	28282
693.725	29570
693.753	37339
693.797	49479
693.840	63038
693.845	64583
693.883	85511
693.926	106984
693.966	125565
693.970	124080
694.013	106972
694.056	90313
694.086	78516
694.099	73698
694.142	58013
694.185	42331
694.206	34727
694.229	32139
694.272	27371
694.315	22479
694.326	21122
694.358	19969
694.401	18589
694.444	16977
694.446	16857
694.487	16102
694.530	15410
694.566	14798
694.573	14742
694.616	14190
694.659	13636
694.686	13069
694.702	12833
694.745	12390
694.787	11807
694.806	11561
694.830	11358
694.873	10883
694.916	10447
694.926	10302
694.959	10574
695.002	11042
695.044	11438
695.046	11425
695.087	11665
695.130	11825
695.166	12006
695.172	12040
695.215	12102
695.258	12039
695.286	11980
695.301	11897
695.343	11564
695.386	11250
695.406	11044
695.428	10827
695.471	10411
695.514	9999
695.526	9864
695.556	10014
695.599	10057
695.641	10348
695.646	10334
695.684	10381
695.726	10435
695.766	10403
695.769	10430
695.811	10426
695.854	10497
695.886	10550
695.896	10654
695.938	10877
695.981	11122
696.005	11272
696.023	11248
696.065	10956
696.108	10750
696.125	10709
696.150	10940
696.192	11159
696.235	11334
696.245	11340
696.277	11263
696.319	11088
696.361	11002
696.365	10970
696.404	11465
696.446	11897
696.485	12261
696.488	12287
696.530	12168
696.572	12107
696.604	12020
696.614	12028
696.656	11898
696.698	11893
696.724	11735
696.740	11670
696.783	11514
696.825	11332
696.844	11221
696.867	11140
696.909	10952
696.951	10733
696.964	10649
696.992	10716
697.034	10701
697.076	10723
697.083	10703
697.118	10723
697.160	10652
697.202	10605
697.203	10574
697.244	10612
697.286	10574
697.323	10575
697.327	10616
697.369	10594
697.411	10758
697.442	10753
697.453	10807
697.494	10950
697.536	11088
697.562	11137
697.578	11129
697.620	11014
697.661	10874
697.682	10775
697.703	10865
697.744	11026
697.786	11216
697.801	11234
697.828	11585
697.869	12123
697.911	12604
697.921	12699
697.952	12416
697.994	11963
698.035	11476
698.040	11392
698.077	11246
698.118	10999
698.160	10756
698.160	10723
698.201	10778
698.243	10803
698.279	10770
698.284	10805
698.325	10871
698.367	10861
698.399	10900
698.408	10996
698.449	11217
698.491	11465
698.518	11600
698.532	11558
698.573	11351
698.614	11093
698.638	10930
698.656	10953
698.697	10934
698.738	10899
698.757	10855
698.779	11052
698.820	11368
698.862	11671
698.877	11753
698.903	11952
698.944	12217
698.985	12481
698.996	12521
699.026	12215
699.067	11745
699.116	11155
699.235	10995
699.354	10577
699.474	11047
699.593	11945
699.713	13526
699.832	12402
699.951	13166
700.070	11955
700.190	11218
700.309	12360
700.428	11846
700.547	12253
700.667	10640
700.786	11296
700.905	11533
701.024	11222
701.143	11934
701.262	10638
701.381	10435
701.500	9947
701.619	12409
701.738	11417
701.857	10801
701.976	11005
702.095	10197
702.214	10589
702.333	11816
702.452	11292
702.571	9714
702.690	11234
702.809	10991
702.928	9585
703.047	8780
703.165	9766
703.284	9795
703.403	10393
703.522	10683
703.640	11759
703.759	11387
703.878	14538
703.997	13790
704.115	9044
704.234	9200
704.353	10325
704.471	8939
704.590	9521
704.708	9373
704.827	9551
704.946	9786
705.064	10492
705.183	10924
705.301	10125
705.420	13112
705.538	15716
705.656	12673
705.775	12448
705.893	17381
706.012	37798
706.130	24636
706.249	13225
706.367	11803
706.485	11976
706.604	12196
706.722	11948
706.840	14041
706.958	15192
707.077	16130
707.195	12234
707.313	12189
707.431	10519
707.549	11502
707.668	11390
707.786	11142
707.904	11666
708.022	10627
708.140	10331
708.258	10309
708.376	10993
708.494	10932
708.612	10982
708.730	12717
708.848	16971
708.966	14514
709.084	14339
709.202	12878
709.320	13392
709.438	13322
709.556	12853
709.674	13343
709.791	13110
709.909	13864
710.027	13484
710.145	12187
710.263	13516
710.380	12810
710.498	13277
710.616	13196
710.733	12448
710.851	12790
710.969	13317
711.086	12718
711.204	13364
711.322	12907
711.439	12356
711.557	12127
711.674	13321
711.792	12312
711.909	12993
712.027	15816
712.144	14318
712.262	11448
712.379	11865
712.497	13988
712.614	18312
712.732	16316
712.849	14957
712.966	14785
713.084	17145
713.201	16461
713.318	14709
713.436	15004
713.553	14812
713.670	14789
713.787	15473
713.905	16463
714.022	15343
714.139	13720
714.256	15141
714.373	15479
714.490	18171
714.608	22368
714.725	55153
714.842	183124
714.959	69482
715.076	15363
715.193	15023
715.310	13020
715.427	12998
715.544	13660
715.661	12280
715.778	12067
715.895	13493
716.011	14218
716.128	13576
716.245	12135
716.362	13284
716.479	14494
716.596	13973
716.713	11804
716.829	12693
716.946	12539
717.063	12032
717.180	11630
717.296	11347
717.413	12162
717.530	10927
717.646	11957
717.763	11664
717.880	10585
717.996	11532
718.113	10988
718.229	11029
718.346	10702
718.462	9450
718.579	11709
718.695	14406
718.812	18365
718.928	13961
719.045	14157
719.161	10851
719.277	10243
719.394	11020
719.510	11465
719.626	10811
719.743	12084
719.859	12797
719.975	13297
720.092	19050
720.208	57315
720.324	55701
720.440	13447
720.557	11550
720.673	13539
720.789	18763
720.905	28427
721.021	38905
721.137	12195
721.253	9371
721.369	11282
721.486	10435
721.602	13264
721.718	13659
721.834	9727
721.950	9172
722.066	8775
722.181	9611
722.297	10013
722.413	10455
722.529	9209
722.645	9873
722.761	8925
722.877	8967
722.993	8960
723.108	8800
723.224	9235
723.340	9031
723.456	8418
723.571	8313
723.687	8881
723.803	8505
723.918	8560
724.034	8423
724.150	8814
724.265	8722
724.381	11275
724.497	23851
724.612	14709
724.728	8203
724.843	8134
724.959	8831
725.074	10353
725.190	22491
725.305	12497
725.421	9165
725.536	8056
725.651	8602
725.767	7597
725.882	7434
725.997	7549
726.113	7439
726.228	7017
726.343	8318
726.459	7262
726.574	7545
726.689	8136
726.804	6895
726.920	6663
727.035	7498
727.150	7474
727.265	7593
727.380	7358
727.495	8433
727.610	6761
727.725	7620
727.841	8249
727.956	11705
728.071	21910
728.186	10452
728.301	7177
728.416	7165
728.531	7838
728.645	6957
728.760	6822
728.875	8438
728.990	7850
729.105	7457
729.220	6999
729.335	8068
729.449	6391
729.564	7375
729.679	5656
729.794	5899
729.908	6593
730.023	6698
730.138	5735
730.253	6271
730.367	6941
730.482	6223
730.596	6143
730.711	6960
730.826	6849
730.940	6712
731.055	7125
731.169	7075
731.284	5844
731.398	5841
731.513	5998
731.627	7188
731.742	6686
731.856	7473
731.970	6631
732.085	6143
732.199	6011
732.313	7393
732.428	9579
732.542	20889
732.656	39513
732.771	13977
732.885	6928
732.999	7065
733.113	6657
733.227	6818
733.342	6365
733.456	6088
733.570	5740
733.684	5565
733.798	6273
733.912	5809
734.026	5954
734.140	5503
734.254	5786
734.368	7706
734.482	13682
734.596	9022
734.710	5547
734.824	5285
734.938	5087
735.052	4893
735.166	6163
735.280	6785
735.393	6182
735.507	4987
735.621	6849
735.735	9559
735.849	11687
735.962	5884
736.076	5637
736.190	6125
736.303	6588
736.417	9902
736.531	7912
736.644	5997
736.758	5804
736.872	4767
736.985	5104
737.099	5189
737.212	4718
737.326	5810
737.439	5002
737.553	5979
737.666	4953
737.780	5439
737.893	5068
738.007	4855
738.120	4969
738.233	4578
738.347	4575
738.460	5574
738.573	5259
738.687	5173
738.800	5491
738.913	5246
739.026	6152
739.140	5018
739.253	6283
739.366	5640
739.479	5002
739.592	5054
739.705	4306
739.818	5033
739.932	4946
740.045	5744
740.158	4414
740.271	4520
740.384	5744
740.497	4639
740.610	5453
740.723	5107
740.836	5309
740.949	5934
741.062	6550
741.174	6029
741.287	4520
741.400	4890
741.513	5178
741.626	5788
741.739	5756
741.851	5241
741.964	4893
742.077	4640
742.189	4703
742.302	5624
742.415	7053
742.527	5525
742.640	5116
742.753	4745
742.865	4617
742.978	3858
743.090	3994
743.203	4500
743.316	3965
743.428	4696
743.541	4848
743.653	4533
743.766	4283
743.878	3871
743.990	4404
744.103	7203
744.215	6795
744.327	5416
744.440	6402
744.552	6381
744.664	5923
744.777	4598
744.889	4414
745.001	4181
745.113	4407
745.226	4543
745.338	4161
745.450	4167
745.562	4746
745.674	3620
745.786	4000
745.898	3401
746.010	4819
746.122	4755
746.234	4946
746.347	4802
746.459	4324
746.570	4787
746.682	4315
746.794	6023
746.906	6468
747.018	4447
747.130	3594
747.242	4459
747.354	4128
747.466	4317
747.577	4072
747.689	4278
747.801	4073
747.913	3481
748.024	3706
748.136	3268
748.248	3280
748.359	3514
748.471	4628
748.583	3632
748.694	4008
748.806	5706
748.918	5268
749.029	4650
749.141	4878
749.252	5056
749.364	4534
749.475	5205
749.587	8336
749.698	4930
749.809	4746
749.921	3810
750.032	3796
750.144	4165
750.255	3377
750.366	3650
750.478	4051
750.589	3396
750.700	3434
750.811	4445
750.923	4543
751.034	5321
751.145	11011
751.256	5979
751.367	4567
751.479	4497
751.590	4359
751.701	4277
751.812	3161
751.923	4208
752.034	3573
752.145	4371
752.256	3540
752.367	3471
752.478	4141
752.589	3322
752.700	3682
752.811	3787
752.922	3803
753.032	3900
753.143	4289
753.254	3947
753.365	4250
753.476	4370
753.586	4089
753.697	3259
753.808	3541
753.919	4051
754.029	4073
754.140	4089
754.251	3409
754.361	4360
754.472	3637
754.582	3817
754.693	3949
754.804	4575
754.914	4225
755.025	3465
755.135	3634
755.246	3859
755.356	3342
755.466	3411
755.577	3529
755.687	3995
755.798	3939
755.908	4222
756.018	3901
756.129	4486
756.239	3534
756.349	3663
756.460	4087
756.570	3703
756.680	3727
756.790	4258
756.900	5109
757.011	4997
757.121	4468
757.231	4135
757.341	4253
757.451	4075
757.561	4160
757.671	4401
757.781	4318
757.891	4308
758.001	4451
758.111	4448
758.221	4645
758.331	5106
758.441	4203
758.551	5384
758.661	6587
758.771	5105
758.880	4956
758.990	5718
759.100	4827
759.210	6116
759.320	4931
759.429	5441
759.539	4247
759.649	6321
759.758	5105
759.868	5796
759.978	5220
760.087	6625
760.197	6128
760.307	6431
760.416	5903
760.526	5911
760.635	6482
760.745	5848
760.854	6898
760.964	6814
761.073	5924
761.182	6569
761.292	6479
761.401	7498
761.511	7227
761.620	7377
761.729	6704
761.839	6681
761.948	8396
762.057	8123
762.166	8397
762.276	7528
762.385	8448
762.494	8359
762.603	8061
762.712	8446
762.822	9283
762.931	9686
763.040	9808
763.149	9668
763.258	9718
763.367	11229
763.476	11155
763.585	12142
763.694	12292
763.803	12325
763.912	14693
764.021	14417
764.130	15673
764.238	15411
764.347	16846
764.456	17954
764.565	19859
764.674	20689
764.783	22064
764.891	24863
765.000	26984
765.109	31139
765.217	34705
765.326	39482
765.435	48029
765.543	58290
765.652	68461
765.761	88278
765.869	117150
765.978	162747
766.086	241844
766.195	383703
766.303	649442
766.412	1034288
766.520	934765
766.629	903509
766.737	657536
766.846	396614
766.954	255479
767.062	178214
767.171	130291
767.279	101141
767.387	76304
767.496	62566
767.604	52811
767.712	46135
767.820	39655
767.928	36468
768.037	33300
768.145	30810
768.253	30169
768.361	28567
768.469	27317
768.577	28280
768.685	27614
768.793	30485
768.901	32971
769.009	36480
769.117	42073
769.225	52672
769.333	68337
769.441	98781
769.549	154194
769.657	276801
769.765	548095
769.873	922888
769.981	803779
770.088	576836
770.196	295854
770.304	169622
770.412	113530
770.519	80718
770.627	61490
770.735	49054
770.842	40504
770.950	34594
771.058	29466
771.165	27129
771.273	24592
771.380	21771
771.488	18367
771.595	18468
771.703	16770
771.810	15745
771.918	14817
772.025	14575
772.133	12711
772.240	12691
772.348	12221
772.455	11966
772.562	10873
772.670	9718
772.777	9765
772.884	10071
772.991	8859
773.099	8959
773.206	8379
773.313	9075
773.420	9081
773.528	7904
773.635	7311
773.742	7772
773.849	7361
773.956	6467
774.063	7038
774.170	6215
774.277	6596
774.384	6212
774.491	6727
774.598	6467
774.705	5995
774.812	6768
774.919	7143
775.026	6342
775.133	6738
775.239	5599
775.346	5970
775.453	5323
775.560	5267
775.667	5267
775.773	4791
775.880	5836
775.987	5411
776.093	6248
776.200	4922
776.307	4697
776.413	4633
776.520	5329
776.627	5694
776.733	4639
776.840	4817
776.946	5694
777.053	6132
777.159	8648
777.266	10181
777.372	7430
777.478	9573
777.585	8321
777.691	4895
777.798	4636
777.904	4769
778.010	5636
778.117	6757
778.223	4598
778.329	4381
778.435	4100
778.542	4937
778.648	4421
778.754	3922
778.860	3976
778.966	3396
779.072	4965
779.178	4691
779.284	4197
779.391	3490
779.497	4206
779.603	5878
779.708	7111
779.815	12652
779.920	32129
780.026	122260
780.132	106752
780.238	12901
780.344	5576
780.450	5362
780.556	4128
780.661	4238
780.767	3804
780.873	3546
780.979	3399
781.085	3197
781.190	3184
781.296	3518
781.402	3190
781.507	3054
781.613	3058
781.719	2864
781.824	3364
781.930	3542
782.035	3104
782.141	3345
782.246	3094
782.352	3342
782.457	3137
782.563	2909
782.668	3429
782.773	1833
782.879	3090
782.984	3117
783.090	4011
783.195	3417
783.300	4082
783.405	3528
783.511	3343
783.616	3256
783.721	2948
783.826	3201
783.932	4371
784.037	3629
784.142	3211
784.247	3007
784.352	2923
784.457	2904
784.562	2771
784.667	3307
784.772	2599
784.877	2488
784.982	2952
785.087	2801
785.192	3408
785.297	3623
785.402	2407
785.507	2280
785.611	2950
785.716	2022
785.821	2553
785.926	1631
786.031	3233
786.135	2985
786.240	2528
786.345	2166
786.450	2793
786.554	2787
786.659	2233
786.763	1924
786.868	2507
786.973	2283
787.077	2634
787.182	2910
787.286	1652
787.391	1855
787.495	1785
787.600	2610
787.704	2247
787.809	1799
787.913	1692
788.017	1952
788.122	2124
788.226	1916
788.330	1784
788.435	2105
788.539	2676
788.643	1848
788.747	2059
788.852	2244
788.956	1724
789.060	2240
789.164	2093
789.268	1795
789.372	2207
789.476	1544
789.580	2062
789.684	2282
789.788	1748
789.892	1747
789.996	2045
790.100	1533
790.204	2625
790.308	2518
790.412	1780
790.516	2521
790.620	3467
790.724	2514
790.828	1937
790.931	2555
791.035	2553
791.139	2233
791.242	2403
791.346	1766
791.450	2066
791.554	2646
791.657	2186
791.761	1678
791.864	2836
791.968	2104
792.072	2045
792.175	1738
792.279	2022
792.382	2160
792.486	2331
792.589	2122
792.693	2484
792.796	2597
792.899	2480
793.003	2225
793.106	2163
793.209	1513
793.313	1780
793.416	2045
793.519	1417
793.623	2554
793.726	3992
793.829	3360
793.932	2533
794.035	1987
794.138	3167
794.242	2369
794.345	2936
794.448	4235
794.551	6601
794.654	18656
794.757	60096
794.860	61065
794.963	8317
795.066	3691
795.169	2731
795.272	2464
795.375	3265
795.477	1964
795.580	1424
795.683	1783
795.786	1989
795.889	195
795.991	2090
796.094	1610
796.197	2420
796.300	1684
796.402	1416
796.505	2429
796.608	1166
796.710	1275
796.813	841
796.915	1925
797.018	2124
797.120	797
797.223	1338
797.326	2322
797.428	2007
797.530	1040
797.633	1321
797.735	1474
797.838	2221
797.940	3995
798.042	2322
798.145	1336
798.247	1520
798.349	1442
798.452	708
798.554	1275
798.656	639
798.758	1956
798.860	1383
798.962	2708
799.065	1177
799.167	1208
799.269	1332
799.371	1091
799.473	1348
799.575	1161
799.677	2557
799.779	2395
799.881	2226
799.983	3194
800.085	2048
800.187	1119
800.289	1427
800.390	1076
800.492	1126
800.594	1325
800.696	779
800.798	1056
800.899	930
801.001	1867
801.103	1243
801.205	1336
801.306	964
801.408	1112
801.509	1621
801.611	1485
801.713	775
801.814	1228
801.916	1149
802.017	910
802.119	1138
802.220	748
802.322	730
802.423	1362
802.525	2432
802.626	897
802.727	1760
802.829	1219
802.930	614
803.031	789
803.133	1274
803.234	1251
803.335	968
803.436	617
803.538	1336
803.639	238
803.740	1002
803.841	720
803.942	800
804.043	936
804.144	695
804.245	1262
804.346	635
804.447	1128
804.548	1139
804.649	1475
804.750	1523
804.851	1158
804.952	1061
805.053	1206
805.154	564
805.255	1014
805.355	1402
805.456	1126
805.557	1290
805.658	698
805.758	1160
805.859	1203
805.960	892
806.061	901
806.161	825
806.262	1035
806.362	518
806.463	795
806.564	1928
806.664	766
806.765	1480
806.865	1185
806.966	1070
807.066	1124
807.166	1027
807.267	1166
807.367	691
807.468	1138
807.568	-161
807.668	1431
807.769	715
807.869	703
807.969	1195
808.069	1210
808.170	1243
808.270	354
808.370	981
808.470	1072
808.570	1208
808.670	815
808.770	828
808.870	889
808.970	906
809.070	4
809.170	729
809.271	957
809.370	1231
809.470	975
809.570	858
809.670	1052
809.770	908
809.870	873
809.970	934
810.070	791
810.169	1023
810.269	646
810.369	1439
810.469	576
810.568	936
810.668	452
810.768	909
810.867	1019
810.967	973
811.066	1220
811.166	990
811.265	623
811.365	1019
811.464	488
811.564	1144
811.663	739
811.763	1212
811.862	1084
811.962	984
812.061	926
812.160	1055
812.260	1810
812.359	1221
812.458	1211
812.557	2971
812.657	6042
812.756	6939
812.855	2576
812.954	1180
813.053	1598
813.153	1826
813.252	1132
813.351	846
813.450	1059
813.549	1318
813.648	1781
813.747	1960
813.846	1439
813.945	1959
814.044	1061
814.143	1464
814.242	1589
814.341	1328
814.439	1069
814.538	2014
814.637	1405
814.736	1936
814.835	2720
814.933	1335
815.032	1740
815.131	2157
815.229	1774
815.328	1873
815.427	2275
815.525	2451
815.624	2028
815.722	2671
815.821	2452
815.919	2400
816.018	3290
816.116	2869
816.215	3172
816.313	4226
816.412	3271
816.510	3160
816.609	3952
816.707	4152
816.805	4346
816.904	3962
817.002	5377
817.100	5873
817.198	6573
817.296	7954
817.395	8618
817.493	11390
817.591	11805
817.689	16232
817.787	21336
817.885	30073
817.983	49964
818.081	88527
818.179	185058
818.277	412078
818.375	703823
818.473	459467
818.571	185321
818.669	93843
818.767	64251
818.865	55280
818.963	57425
819.061	68787
819.158	100380
819.256	170542
819.354	329576
819.452	676912
819.549	864562
819.647	523432
819.745	247524
819.842	127665
819.940	80661
820.038	55673
820.135	39555
820.233	31742
820.330	24584
820.428	19761
820.525	16527
820.623	14302
820.720	12744
820.818	11525
820.915	9533
821.012	9052
821.110	7763
821.207	6951
821.304	6183
821.402	6364
821.499	6302
821.596	6343
821.693	7043
821.791	5387
821.888	4353
821.985	5198
822.082	7202
822.179	5734
822.276	3293
822.373	4152
822.470	3466
822.567	3389
822.664	2646
822.761	3415
822.858	2018
822.955	2171
823.052	1524
823.149	2727
823.246	2165
823.343	2315
823.440	2074
823.536	1942
823.633	1502
823.730	2391
823.827	2540
823.923	1328
824.020	1769
824.117	1494
824.213	1772
824.310	3002
824.407	1260
824.503	1543
824.600	1545
824.696	1801
824.793	2287
824.889	1700
824.986	1056
825.082	602
825.179	1794
825.275	1184
825.371	687
825.468	1164
825.564	1684
825.660	1042
825.757	1226
825.853	1226
825.949	431
826.045	757
826.142	731
826.238	745
826.334	1149
826.430	804
826.526	1919
826.622	570
826.718	702
826.814	308
826.910	1437
827.006	-192
827.102	262
827.198	972
827.294	613
827.390	453
827.486	940
827.582	-119
827.678	65
827.774	1598
827.869	279
827.965	1065
828.061	-60
828.157	860
828.252	664
828.348	43
828.444	571
828.539	180
828.635	-173
828.731	834
828.826	53
828.922	534
829.017	-418
829.113	987
829.208	167
829.304	206
829.399	1046
829.495	208
829.590	441
829.685	395
829.781	555
829.876	561
829.971	621
830.066	521
830.162	167
830.257	-388
830.352	842
830.447	1292
830.543	548
830.638	365
830.733	623
830.828	-360
830.923	420
831.018	-436
831.113	451
831.208	849
831.303	1444
831.398	733
831.493	-56
831.588	-498
831.683	132
831.778	184
831.873	12
831.967	413
832.062	-479
832.157	79
832.252	813
832.346	98
832.441	958
832.536	1094
832.631	2053
832.725	3668
832.820	1504
832.914	1099
833.009	70
833.104	582
833.198	798
833.293	56
833.387	-47
833.482	165
833.576	-478
833.670	543
833.765	802
833.859	1011
833.954	593
834.048	352
834.142	728
834.237	220
834.331	317
834.425	-156
834.519	168
834.613	1212
834.708	-96
834.802	13
834.896	155
834.990	-845
835.084	641
835.178	-511
835.272	-22
835.366	247
835.460	268
835.554	300
835.648	-25
835.742	155
835.836	-328
835.930	-50
836.024	-133
836.117	541
836.211	-72
836.305	594
836.399	1430
836.493	967
836.586	163
836.680	-904
836.774	23
836.867	620
836.961	-590
837.055	-258
837.148	-869
837.242	715
837.335	-684
837.429	343
837.522	-314
837.616	675
837.709	945
837.803	2858
837.896	769
837.989	48
838.083	921
838.176	2720
838.269	3701
838.363	1928
838.456	516
838.549	772
838.642	1086
838.735	2581
838.829	2941
838.922	348
839.015	611
839.108	-32
839.201	-374
839.294	56
839.387	-155
839.480	391
839.573	624
839.666	1076
839.759	799
839.852	177
839.945	-565
840.038	568
840.131	-346
840.223	400
840.316	-34
840.409	-248
840.502	-459
840.594	-60
840.687	-177
840.780	-12
840.873	-184
840.965	77
841.058	227
841.150	1712
841.243	2077
841.336	1480
841.428	-410
841.521	276
841.613	323
841.706	214
841.798	-693
841.890	124
841.983	-26
842.075	16
842.167	58
842.260	-548
842.352	1057
842.444	855
842.537	2030
842.629	4565
842.721	3610
842.813	-114
842.905	-591
842.997	781
843.090	412
843.182	1257
843.274	1893
843.366	5380
843.458	12267
843.550	16890
843.642	6472
843.734	1041
843.826	496
843.918	1326
844.009	101
844.101	-22
844.193	-667
844.285	-175
844.377	232
844.469	962
844.560	701
844.652	1515
844.744	548
844.835	265
844.927	277
845.019	52
845.110	-93
845.202	405
845.293	277
845.385	-603
845.476	355
845.568	-180
845.659	-283
845.751	1253
845.842	-617
845.934	-127
846.025	187
846.116	13
846.208	-640
846.299	-603
846.390	-9
846.482	892
846.573	-115
846.664	736
846.755	1551
846.846	1219
846.937	43
847.029	-247
847.120	-149
847.211	-459
847.302	220
847.393	163
847.484	-483
847.575	-848
847.666	71
847.757	-115
847.847	234
847.938	127
848.029	95
848.120	323
848.211	162
848.302	-223
848.392	-219
848.483	91
848.574	-887
848.664	64
848.755	-60
848.846	-45
848.936	-602
849.027	-29
849.118	-361
849.208	-73
849.299	110
849.389	-21
849.480	1407
849.570	1537
849.661	2831
849.751	6563
849.841	6351
849.932	1065
850.022	-253
850.112	270
850.203	258
850.293	363
850.383	125
850.474	-524
850.564	-533
850.654	76
850.744	-154
850.834	81
850.924	-427
851.014	-376
851.104	-383
851.194	-94
851.284	550
851.374	263
851.464	-469
851.554	1096
851.644	29
851.734	613
851.824	2221
851.914	1123
852.004	2401
852.094	3488
852.183	2444
852.273	849
852.363	-846
852.452	-417
852.542	-217
852.632	-550
852.721	-281
852.811	-499
852.901	144
852.990	53
853.080	-547
853.169	-430
853.259	-97
853.348	-251
853.438	-336
853.527	303
853.617	101
853.706	1473
853.795	2154
853.885	6951
853.974	13091
854.063	24666
854.152	50210
854.242	53689
854.331	11725
854.420	1274
854.509	1783
854.598	1059
854.687	-155
854.777	587
854.866	51
854.955	507
855.044	75
855.133	-513
855.222	207
855.311	-911
855.400	-111
855.488	-345
855.577	-335
855.666	140
855.755	746
855.844	589
855.933	591
856.021	1111
856.110	24
856.199	-229
856.288	-522
856.376	-263
856.465	-935
856.554	131
856.642	4
856.731	-213
856.819	-367
856.908	-423
856.996	-93
857.085	-551
857.173	-655
857.262	783
857.350	-507
857.438	-1165
857.527	-333
857.615	-178
857.703	-444
857.792	-981
857.880	-934
857.968	-596
858.056	246
858.145	15
858.233	-798
858.321	-698
858.409	135
858.497	-660
858.585	-342
858.673	111
858.761	-869
858.849	-630
858.937	-521
859.025	79
859.113	91
859.201	-429
859.289	429
859.377	195
859.465	-33
859.552	-710
859.640	-370
859.728	-69
859.816	-19
859.903	-217
859.991	-234
860.079	-324
860.166	551
860.254	137
860.342	-395
860.429	-701
860.517	-93
860.604	-309
860.692	116
860.779	-387
860.867	-1105
860.954	-561
861.042	-224
861.129	39
861.216	113
861.304	-565
861.391	-375
861.478	-352
861.565	-542
861.653	13
861.740	-370
861.827	-520
861.914	-706
862.001	-390
862.089	-99
862.176	-448
862.263	-970
862.350	-189
862.437	-871
862.524	-229
862.611	-712
862.698	-319
862.785	-659
862.871	502
862.958	-450
863.045	-577
863.132	-609
863.219	-150
863.306	-47
863.392	-404
863.479	-2
863.566	-507
863.652	-681
863.739	-537
863.826	-242
863.912	-55
863.999	-834
864.086	485
864.172	-779
864.259	57
864.345	-718
864.432	326
864.518	-266
864.604	-115
864.691	-965
864.777	-335
864.863	306
864.950	-73
865.036	-450
865.122	-137
865.209	-305
865.295	460
865.381	85
865.467	-155
865.553	446
865.639	70
865.726	948
865.812	2487
865.898	6132
865.984	10712
866.070	16049
866.156	34148
866.242	23220
866.328	3572
866.414	34
866.499	598
866.585	128
866.671	-32
866.757	-194
866.843	67
866.928	-306
867.014	-842
867.100	-27
867.186	257
867.271	911
867.357	561
867.442	603
867.528	2040
867.614	38
867.699	-258
867.785	839
867.870	1293
867.956	1105
868.041	1933
868.127	347
868.212	526
868.297	1327
868.383	47
868.468	195
868.553	2035
868.639	2133
868.724	3012
868.809	6901
868.894	3357
868.979	577
869.065	-888
869.150	-904
869.235	-193
869.320	-209
869.405	-24
869.490	-412
869.575	-1516
869.660	-508
869.745	-176
869.830	-338
869.915	-247
870.000	-663
870.085	-736
870.169	-121
870.254	165
870.339	-1290
870.424	-867
870.509	121
870.593	260
870.678	-187
870.763	-229
870.847	-588
870.932	-760
871.016	40
871.101	505
871.186	-150
871.270	-603
871.355	-550
871.439	86
871.523	-577
871.608	-95
871.692	-223
871.777	216
871.861	-14
871.945	-199
872.030	-233
872.114	-469
872.198	-689
872.282	377
872.367	-183
872.451	-555
872.535	-351
872.619	-607
872.703	-459
872.787	-288
872.871	-1126
872.955	-928
873.039	-149
873.123	-154
873.207	428
873.291	-101
873.375	-157
873.459	-218
873.543	-134
873.627	360
873.711	-1070
873.794	-153
873.878	-1222
873.962	-138
874.045	-281
874.129	-277
874.137	-287
874.213	-392
874.245	-213
874.296	71
874.352	-256
874.380	-409
874.460	291
874.464	317
874.547	-588
874.568	-348
874.631	387
874.676	-226
874.714	-747
874.784	-675
874.798	-653
874.881	1199
874.892	1119
874.965	527
874.999	250
875.048	-141
875.107	-490
875.131	-639
875.215	30
875.215	30
875.298	261
875.323	72
875.381	-419
875.430	-237
875.465	-89
875.538	-386
875.548	-435
875.631	-232
875.646	-276
875.714	-420
875.753	-420
875.798	-456
875.861	-178
875.881	-80
875.964	-321
875.968	-282
876.047	457
876.076	267
876.130	-113
876.183	-367
876.213	-518
876.291	-62
876.296	-30
876.379	462
876.398	357
876.462	14
876.506	25
876.545	7
876.613	182
876.628	250
876.711	260
876.721	279
876.794	248
876.828	240
876.877	237
876.935	584
876.960	793
877.043	495
877.043	498
877.125	1395
877.150	1480
877.208	1657
877.258	1523
877.291	1327
877.365	1723
877.374	1814
877.456	1999
877.472	2009
877.539	1803
877.579	1591
877.622	1362
877.687	1850
877.704	2002
877.787	1904
877.794	1862
877.869	1632
877.901	1741
877.952	1556
878.008	960
878.034	916
878.115	1692
878.117	1699
878.199	1172
878.222	1108
878.282	1225
878.329	1392
878.364	1428
878.437	1663
878.447	1698
878.529	558
878.544	628
878.611	990
878.651	731
878.694	521
878.758	642
878.776	653
878.858	876
878.865	890
878.941	1128
878.972	1024
879.023	797
879.078	685
879.105	748
879.185	1044
879.187	1050
879.269	1178
879.292	1114
879.351	951
879.399	1058
879.433	1094
879.506	1308
879.516	1311
879.598	1032
879.613	849
879.680	457
879.720	507
879.762	523
879.827	795
879.844	848
879.926	968
879.933	950
880.007	904
880.040	1018
880.089	1105
880.147	1321
880.171	1548
880.253	1711
880.254	1711
880.335	2378
880.360	2626
880.417	3784
880.467	4791
880.499	6415
880.574	12704
880.580	12784
880.662	8881
880.680	7788
880.744	3579
880.787	1695
880.825	1311
880.893	1122
880.907	1101
880.989	795
881.000	757
881.070	894
881.106	1044
881.152	1030
881.213	732
881.233	692
881.315	1010
881.319	996
881.396	917
881.426	960
881.478	810
881.532	715
881.559	793
881.639	1146
881.641	1150
881.722	440
881.745	462
881.803	764
881.852	663
881.885	724
881.958	1311
881.966	1323
882.047	1017
882.064	1019
882.129	1508
882.171	1741
882.210	2329
882.277	3274
882.291	3393
882.372	4495
882.383	4428
882.454	2168
882.489	1291
882.535	865
882.596	567
882.616	553
882.697	565
882.702	560
882.778	1079
882.808	1166
882.859	978
882.914	867
882.940	758
883.020	610
883.021	619
883.102	645
883.127	841
883.183	983
883.233	887
883.264	749
883.339	237
883.345	240
883.426	520
883.445	688
883.507	1247
883.551	1296
883.587	1225
883.657	1256
883.668	1339
883.749	1643
883.763	1766
883.830	1658
883.869	1169
883.910	752
883.975	772
883.991	892
884.072	1002
884.081	1055
884.152	1490
884.187	1532
884.233	1457
884.292	1509
884.314	1544
884.394	1380
884.398	1367
884.475	1370
884.504	1440
884.555	1312
884.610	1061
884.636	1164
884.716	1561
884.716	1568
884.797	1582
884.821	1567
884.877	1316
884.927	1071
884.958	1299
885.033	1868
885.038	1844
885.118	1253
885.139	1095
885.199	1113
885.244	1330
885.279	1451
885.350	1237
885.359	1223
885.439	1174
885.456	1172
885.520	1613
885.561	1860
885.600	1698
885.667	1414
885.680	1439
885.760	1708
885.773	1681
885.840	1621
885.878	1792
885.920	2049
885.984	2132
886.000	2104
886.080	2094
886.089	2081
886.160	1700
886.195	1548
886.240	1740
886.300	1810
886.320	1900
886.400	2298
886.406	2324
886.480	2318
886.511	2247
886.560	2810
886.616	3495
886.640	3343
886.720	2592
886.722	2567
886.800	2245
886.827	2108
886.879	2048
886.932	1887
886.959	2048
887.038	2728
887.039	2734
887.119	2252
887.143	2097
887.198	2084
887.248	2077
887.278	2073
887.354	2015
887.358	2019
887.437	1848
887.459	1818
887.517	2047
887.564	2238
887.596	2136
887.669	1816
887.676	1793
887.755	1421
887.774	1330
887.835	1712
887.880	2010
887.914	2100
887.985	2085
887.994	2070
888.073	2033
888.090	2011
888.153	1697
888.195	1412
888.232	1609
888.300	2093
888.311	2169
888.391	2556
888.405	2620
888.470	2652
888.510	2643
888.549	2712
888.615	2826
888.628	2717
888.708	1949
888.720	1825
888.787	2477
888.825	2828
888.866	2654
888.930	2416
888.945	2417
889.024	2257
889.035	2244
889.103	2516
889.140	2593
889.182	2388
889.245	2097
889.261	2191
889.340	2598
889.349	2640
889.419	2537
889.454	2457
889.498	2367
889.559	2207
889.577	2240
889.656	2378
889.664	2383
889.735	2551
889.768	2619
889.814	2790
889.873	2991
889.978	3132
890.083	2257
890.187	2929
890.292	2559
890.397	2690
890.501	2447
890.606	2837
890.710	2834
890.815	2477
890.919	2559
891.024	2235
891.128	3285
891.233	3103
891.337	2082
891.442	2586
891.546	1773
891.650	2962
891.755	1869
891.859	2384
891.963	3014
892.068	3246
892.172	2479
892.276	2672
892.380	2877
892.484	2899
892.589	2780
892.693	3112
892.797	2287
892.901	2669
893.005	647
893.109	2323
893.213	2221
893.317	2420
893.421	1519
893.525	1775
893.629	2526
893.733	2354
893.837	1913
893.941	1649
894.045	2080
894.148	2476
894.252	5169
894.356	5960
894.460	2832
894.564	2711
894.667	1560
894.771	2331
894.875	1863
894.978	1530
895.082	1843
895.186	2344
895.289	2094
895.393	2541
895.496	1753
895.600	2216
895.703	1737
895.807	1531
895.910	1387
896.014	1676
896.117	823
896.221	2194
896.324	2077
896.427	1460
896.531	2301
896.634	1605
896.737	1751
896.840	1363
896.944	2133
897.047	2390
897.150	2193
897.253	1339
897.356	1103
897.460	1546
897.563	2015
897.666	2045
897.769	2102
897.872	2213
897.975	1179
898.078	2177
898.181	2010
898.284	1104
898.387	2111
898.490	2804
898.593	1962
898.695	1918
898.798	1840
898.901	2737
899.004	1398
899.107	965
899.209	1189
899.312	1468
899.415	1477
899.518	1777
899.620	1266
899.723	1824
899.826	3515
899.928	5239
900.031	3343
900.133	2283
900.236	2265
900.338	950
900.441	1630
900.543	1328
900.646	2069
900.748	1481
900.851	2399
900.953	1716
901.055	2019
901.158	1870
901.260	2761
901.362	1794
901.465	1163
901.567	2607
901.669	1387
901.771	2007
901.873	2353
901.976	2010
902.078	1291
902.180	1900
902.282	2126
902.384	2357
902.486	2289
902.588	3082
902.690	2950
902.792	2868
902.894	1662
902.996	1840
903.098	1486
903.200	1640
903.302	1677
903.404	1942
903.505	1596
903.607	2680
903.709	1054
903.811	1089
903.913	892
904.014	1931
904.116	1367
904.218	1776
904.319	1621
904.421	2214
904.523	2419
904.624	2347
904.726	1562
904.827	1693
904.929	2516
905.030	1738
905.132	1377
905.233	1663
905.335	1411
905.436	1595
905.537	2024
905.639	1259
905.740	1599
905.841	2120
905.943	2409
906.044	2048
906.145	2091
906.247	2262
906.348	1047
906.449	1869
906.550	2187
906.651	1724
906.752	1332
906.854	1425
906.955	1645
907.056	1623
907.157	1542
907.258	2371
907.359	1371
907.460	1284
907.561	2006
907.662	1837
907.762	2070
907.863	1799
907.964	683
908.065	2125
908.166	1595
908.267	1302
908.367	1958
908.468	2362
908.569	1822
908.670	1989
908.770	3212
908.871	3562
908.971	3308
909.072	3393
909.173	2140
909.273	1452
909.374	1232
909.474	1467
909.575	1009
909.675	1077
909.776	1792
909.876	2277
909.977	1409
910.077	2016
910.177	975
910.278	2104
910.378	1071
910.478	2310
910.579	1622
910.679	1726
910.779	1535
910.879	1836
910.980	1515
911.080	1915
911.180	754
911.280	1636
911.380	1497
911.480	943
911.580	1802
911.680	2032
911.780	2480
911.880	1752
911.980	1614
912.080	1675
912.180	1151
912.280	1963
912.380	1643
912.480	1434
912.580	1462
912.679	1090
912.779	2257
912.879	1490
912.979	892
913.078	1313
913.178	1664
913.278	1443
913.377	1449
913.477	1296
913.577	1795
913.676	1698
913.776	1367
913.875	1764
913.975	1322
914.074	977
914.174	837
914.273	1302
914.373	1308
914.472	1676
914.572	1175
914.671	1920
914.770	1292
914.870	1784
914.969	1164
915.068	1165
915.167	1189
915.267	1999
915.366	1281
915.465	1916
915.564	519
915.663	1519
915.763	1441
915.862	1906
915.961	1444
916.060	764
916.159	2043
916.258	2423
916.357	1388
916.456	2025
916.555	1590
916.654	1466
916.752	2100
916.851	1949
916.950	1237
917.049	1650
917.148	997
917.247	2140
917.345	1346
917.444	992
917.543	1503
917.642	1336
917.740	933
917.839	1027
917.937	2642
918.036	1664
918.135	1592
918.233	1206
918.332	1402
918.430	1536
918.529	1475
918.627	1463
918.726	1520
918.824	1589
918.923	1268
919.021	2330
919.119	1896
919.218	621
919.316	1043
919.414	1324
919.512	1231
919.611	2400
919.709	1378
919.807	2037
919.905	1462
920.003	1427
920.102	1581
920.200	1682
920.298	1666
920.396	1291
920.494	1503
920.592	1921
920.690	1506
920.788	1808
920.886	1813
920.984	2577
921.082	1864
921.180	1839
921.277	2094
921.375	3110
921.473	1102
921.571	1873
921.669	1475
921.766	2606
921.864	1711
921.962	2113
922.060	1767
922.157	1758
922.255	1803
922.352	1459
922.450	2228
922.548	2465
922.645	1666
922.743	1888
922.840	2002
922.938	2754
923.035	2801
923.133	2288
923.230	1787
923.327	2571
923.425	2804
923.522	2419
923.619	2524
923.717	2240
923.814	2014
923.911	2701
924.008	2647
924.106	2051
924.203	2270
924.300	1838
924.397	1225
924.494	2229
924.591	2759
924.688	2679
924.786	2384
924.883	2283
924.979	2492
925.077	3171
925.173	1998
925.270	2291
925.367	1806
925.464	2677
925.561	2611
925.658	2657
925.755	2700
925.852	3701
925.948	3160
926.045	3482
926.142	3084
926.239	3456
926.335	3802
926.432	3326
926.529	3071
926.625	3626
926.722	2790
926.818	3761
926.915	3060
927.011	1999
927.108	1988
927.204	2454
927.301	1734
927.397	3354
927.494	1586
927.590	1276
927.687	1673
927.783	1554
927.879	1470
927.976	1961
928.072	2012
928.168	2301
928.264	2046
928.361	3059
928.457	1237
928.553	3283
928.649	1216
928.745	2319
928.841	2795
928.937	1615
929.033	1525
929.129	2140
929.225	2380
929.321	2561
929.417	2618
929.513	1115
929.609	2305
929.705	2043
929.801	1994
929.897	1681
929.993	1415
930.089	1783
930.184	1533
930.280	2328
930.376	2482
930.471	2388
930.567	2019
930.663	2280
930.758	1722
930.854	1959
930.950	1263
931.045	1950
931.141	1607
931.236	2736
931.332	1650
931.427	1919
931.523	1423
931.618	2632
931.714	1561
931.809	1142
931.905	1582
932.000	2163
932.095	1911
932.191	1986
932.286	1507
932.381	2118
932.476	1780
932.572	1038
932.667	1710
932.762	1429
932.857	1747
932.952	1551
933.047	2750
933.142	1619
933.237	1417
933.332	1834
933.427	2101
933.522	945
933.617	794
933.712	927
933.807	1245
933.902	1788
933.997	1643
934.092	1509
934.187	1094
934.282	2167
934.376	2173
934.471	1214
934.566	1575
934.661	2398
934.755	1761
934.850	1270
934.945	1890
935.039	1254
935.134	1460
935.228	1967
935.323	2279
935.417	1525
935.512	861
935.606	1825
935.701	1283
935.795	1203
935.890	1993
935.984	2369
936.079	901
936.173	2385
936.267	1227
936.362	1635
936.456	2185
936.550	1979
936.644	1829
936.738	1430
936.833	1032
936.927	2020
937.021	2929
937.115	1668
937.209	1061
937.303	1946
937.397	1306
937.491	1906
937.585	1565
937.679	1071
937.773	1395
937.867	1825
937.961	1705
938.055	2523
938.149	1505
938.243	1669
938.337	1755
938.430	1113
938.524	1845
938.618	2431
938.712	2871
938.805	2596
938.899	1834
938.993	2188
939.086	1802
939.180	2785
939.274	4418
939.367	2912
939.461	1725
939.554	1818
939.648	1214
939.741	1780
939.835	1352
939.928	1653
940.022	1991
940.115	1831
940.208	1531
940.302	1485
940.395	499
940.488	1105
940.582	1621
940.675	783
940.768	1861
940.861	1522
940.954	1500
941.048	1544
941.141	1747
941.234	2354
941.327	4283
941.420	6201
941.513	5309
941.606	2407
941.699	1911
941.792	654
941.885	1485
941.978	1800
942.071	916
942.164	856
942.257	1485
942.349	1629
942.442	1815
942.535	1361
942.628	715
942.721	1711
942.813	1249
942.906	1052
942.999	2114
943.091	800
943.184	1442
943.277	2075
943.369	1556
943.462	869
943.554	828
943.647	1397
943.739	669
943.832	1356
943.924	977
944.017	930
944.109	1063
944.201	1470
944.294	978
944.386	1578
944.478	788
944.571	1729
944.663	893
944.755	1313
944.847	1517
944.940	1822
945.032	1164
945.124	554
945.216	1047
945.308	1332
945.400	1787
945.492	1940
945.584	1956
945.676	1438
945.768	1521
945.860	1261
945.952	1037
946.044	2194
946.136	1054
946.228	1008
946.320	1057
946.412	998
946.503	1461
946.595	1750
946.687	40
946.779	1228
946.870	301
946.962	1262
947.054	1566
947.145	776
947.237	1348
947.329	719
947.420	208
947.512	1020
947.603	-51
947.695	180
947.786	648
947.878	1412
947.969	346
948.061	610
948.152	1732
948.243	1498
948.335	830
948.426	1659
948.517	1130
948.609	1140
948.700	937
948.791	1002
948.882	1678
948.973	775
949.065	505
949.156	892
949.247	345
949.338	612
949.429	545
949.520	1185
949.611	1707
949.702	1261
949.793	815
949.884	1228
949.975	735
950.066	1467
950.157	537
950.247	1027
950.338	39
950.429	1218
950.520	1367
950.611	1843
950.701	2105
950.792	1841
950.883	1717
950.973	1459
951.064	1514
951.155	1333
951.245	1271
951.336	1136
951.427	318
951.517	1437
951.608	510
951.698	461
951.788	839
951.879	602
951.969	375
952.060	773
952.150	1554
952.240	1999
952.331	365
952.421	820
952.511	565
952.602	815
952.692	194
952.782	629
952.872	2139
952.962	447
953.052	674
953.143	537
953.233	1029
953.323	757
953.413	462
953.503	763
953.593	1141
953.683	898
953.773	729
953.863	705
953.953	1681
954.042	889
954.132	443
954.222	743
954.312	231
954.402	1273
954.492	1919
954.581	3649
954.671	3995
954.761	1547
954.850	937
954.940	1004
955.030	210
955.119	1289
955.209	1387
955.298	892
955.388	976
955.477	903
955.567	521
955.656	923
955.746	1259
955.835	407
955.925	710
956.014	995
956.103	507
956.193	1761
956.282	801
956.371	1417
956.461	1387
956.550	1317
956.639	1157
956.728	1137
956.817	1051
956.906	1360
956.995	1464
957.085	1703
957.174	1616
957.263	1721
957.352	1134
957.441	939
957.530	946
957.619	796
957.708	1035
957.796	1267
957.885	1668
957.974	661
958.063	1589
958.152	1332
958.241	1545
958.329	1515
958.418	1405
958.507	1501
958.596	1617
958.684	2035
958.773	1545
958.861	1652
958.950	2366
959.039	2629
959.127	1807
959.216	2834
959.304	1758
959.393	2062
959.481	1972
959.570	1791
959.658	2065
959.746	3148
959.835	3711
959.923	5585
960.011	6565
960.100	2405
960.188	1677
960.276	1505
960.365	1290
960.453	1317
960.541	2291
960.629	1595
960.717	1105
960.805	1096
960.893	1944
960.981	1699
961.069	1442
961.158	1737
961.245	1102
961.333	1238
961.421	717
961.509	604
961.597	688
961.685	709
961.773	803
961.861	663
961.949	1422
962.036	855
962.124	1185
962.212	965
962.299	634
962.387	395
962.475	1151
962.562	754
962.650	1079
962.738	996
962.825	694
962.913	1137
963.000	969
963.088	1418
963.175	1222
963.263	1203
963.350	879
963.438	2299
963.525	2781
963.612	4057
963.700	8520
963.787	23058
963.874	25094
963.962	5679
964.049	489
964.136	1464
964.223	-46
964.310	637
964.398	777
964.485	1101
964.572	1809
964.659	2742
964.746	5149
964.833	2253
964.920	258
965.007	-209
965.094	234
965.181	769
965.268	-1016
965.355	712
965.441	815
965.528	-247
965.615	1382
965.702	-240
965.789	118
965.875	620
965.962	538
966.049	445
966.136	446
966.222	817
966.309	412
966.395	236
966.482	301
966.569	76
966.655	221
966.742	463
966.828	-55
966.915	669
967.001	482
967.087	214
967.174	720
967.260	1707
967.347	2863
967.433	6534
967.519	16235
967.605	14234
967.692	2454
967.778	219
967.864	1259
967.950	526
968.036	-129
968.123	-20
968.209	-254
968.295	85
968.381	169
968.467	1275
968.553	1044
968.639	-29
968.725	1462
968.811	1871
968.897	3468
968.983	1214
969.069	-230
969.154	-434
969.240	728
969.326	793
969.412	-933
969.497	292
969.583	283
969.669	211
969.755	-246
969.840	725
969.926	39
970.012	664
970.097	575
970.183	1383
970.268	774
970.354	1860
970.439	3662
970.525	9469
970.610	9032
970.696	1588
970.781	134
970.866	-5
970.952	38
971.037	-39
971.122	-649
971.208	-442
971.293	510
971.378	-691
971.463	-489
971.549	1031
971.634	117
971.719	279
971.804	1045
971.889	2311
971.974	797
972.059	-175
972.144	-641
972.229	-84
972.314	-232
972.399	380
972.484	791
972.569	583
972.654	1756
972.739	3812
972.824	6285
972.908	4618
972.993	261
973.078	253
973.163	76
973.247	129
973.332	326
973.417	610
973.501	-143
973.586	259
973.671	-553
973.755	1085
973.840	835
973.924	887
974.009	217
974.093	-276
974.178	1230
974.262	2828
974.346	4754
974.431	2688
974.515	-281
974.600	242
974.684	351
974.768	-151
974.852	610
974.937	-895
975.021	101
975.105	-229
975.189	30
975.273	153
975.358	-573
975.442	246
975.526	60
975.610	-649
975.694	-541
975.778	289
975.862	-387
975.946	-928
976.030	-584
976.114	-344
976.198	115
976.281	-223
976.365	210
976.449	225
976.533	-440
976.617	-207
976.700	-277
976.784	629
976.868	349
976.951	1630
977.035	2542
977.119	557
977.202	-725
977.286	-409
977.369	-756
977.453	425
977.536	-1128
977.620	-436
977.703	-237
977.787	-1038
977.870	562
977.953	1312
978.037	-118
978.120	1240
978.203	1275
978.287	5743
978.370	4834
978.453	1314
978.536	13
978.620	1076
978.703	2253
978.786	3086
978.869	-34
978.952	-557
979.035	-50
979.118	-172
979.201	666
979.284	-1017
979.367	156
979.450	-229
979.533	-27
979.616	-373
979.699	-91
979.782	-150
979.865	-125
979.948	-169
980.030	-2
980.113	16
980.196	-213
980.279	26
980.361	-1235
980.444	-799
980.526	-720
980.609	-478
980.692	179
980.774	37
980.857	-1013
980.939	89
981.022	-404
981.104	-542
981.187	-685
981.269	-256
981.352	-741
981.434	-528
981.516	-1287
981.599	-22
981.681	43
981.763	-857
981.846	-183
981.928	-66
982.010	-403
982.092	-1169
982.174	-110
982.256	-625
982.339	-453
982.421	-166
982.503	-17
982.585	-368
982.667	-724
982.749	167
982.831	-6
982.913	-602
982.995	257
983.077	-369
983.158	476
983.240	42
983.322	-58
983.404	-536
983.486	-462
983.568	-11
983.649	-836
983.731	-290
983.813	-117
983.894	-491
983.976	-37
984.058	-537
984.139	-725
984.221	-121
984.302	-957
984.384	-312
984.465	-539
984.547	21
984.628	-339
984.710	47
984.791	-541
984.872	90
984.954	-1375
985.035	230
985.116	-190
985.198	-71
985.279	47
985.360	366
985.441	-875
985.522	-15
985.604	-385
985.685	-742
985.766	10
985.847	-441
985.928	-763
986.009	-325
986.090	-865
986.171	-40
986.252	-1247
986.333	141
986.414	-314
986.495	-343
986.576	-427
986.656	-558
986.737	55
986.818	-168
986.899	-1107
986.980	-171
987.060	-118
987.141	55
987.222	-297
987.302	83
987.383	250
987.464	-346
987.544	-848
987.625	-549
987.705	-26
987.786	326
987.866	991
987.947	-194
988.027	-825
988.108	-11
988.188	-405
988.268	169
988.349	-435
988.429	-341
988.509	-441
988.589	-178
988.670	-1262
988.750	443
988.830	-337
988.910	-311
988.990	-13
989.070	-344
989.151	-184
989.231	-900
989.311	-428
989.391	-600
989.471	-491
989.551	-195
989.631	-1111
989.711	-171
989.791	-508
989.870	-381
989.950	-10
990.030	-773
990.110	-287
990.190	-571
990.269	-155
990.349	-432
990.429	-808
990.509	345
990.588	-982
990.668	-118
990.747	-791
990.827	-190
990.907	-360
990.986	-668
991.066	-373
991.145	-501
991.225	-660
991.304	-1036
991.383	-1108
991.463	-659
991.542	-1074
991.622	-403
991.701	-530
991.780	-476
991.859	-1023
991.939	-414
992.018	-471
992.097	-456
992.176	-454
992.256	-707
992.335	-1589
992.414	-123
992.493	-617
992.572	-705
992.651	263
992.730	-632
992.809	44
992.888	-332
992.967	-657
993.046	-720
993.125	-336
993.203	-254
993.282	-631
993.361	-178
993.440	-1150
993.519	-1197
993.597	-277
993.676	-817
993.755	-444
993.834	-524
993.912	-35
993.991	-1227
994.069	-1092
994.148	-954
994.226	-959
994.305	-669
994.384	-1397
994.462	-232
994.540	-1080
994.619	-1046
994.697	-218
994.776	-71
994.854	-363
994.932	-1250
995.011	-772
995.089	-1505
995.167	-631
995.245	-803
995.324	-996
995.402	-238
995.480	-566
995.558	-456
995.636	-669
995.714	-510
995.792	-717
995.870	-388
995.948	-629
996.026	-538
996.104	-576
996.182	-896
996.260	-638
996.338	-482
996.416	-783
996.494	-1138
996.572	-334
996.649	-1277
996.727	-568
996.805	-753
996.883	-786
996.960	-1388
997.038	-1346
997.116	-494
997.193	-1564
997.271	-1151
997.348	-1454
997.426	-709
997.504	-1336
997.581	-864
997.658	-558
997.736	-672
997.813	-915
997.891	-724
997.968	-1023
998.046	-989
998.123	-400
998.200	81
998.277	-1201
998.355	-1117
998.432	-621
998.509	-1074
998.586	-248
998.663	-1247
998.741	-1002
998.818	-1191
998.895	-1235
998.972	-784
999.049	-1073
999.126	-1548
999.203	-1020
999.280	-833
999.357	-1404
999.434	-1275
999.511	-834
999.587	-47
999.664	-1358
999.741	-515
999.818	-465
999.895	-1571
999.971	-969
1000.048	-1020
1000.125	-949
1000.202	-1072
1000.278	-198
1000.355	-535
1000.431	-1045
1000.508	-1912
1000.584	-421
1000.661	-521
1000.738	-1121
1000.814	-860
1000.890	-771
1000.967	-713
1001.043	-1023
1001.120	-1572
1001.196	-1104
1001.272	-1352
1001.349	-1066
1001.425	-946
1001.501	-559
1001.577	-1314
1001.654	-611
1001.730	-1416
1001.806	-1763
1001.882	-2214
1001.958	-1307
1002.034	-887
1002.110	-1492
1002.186	-847
1002.262	-1739
1002.338	-2121
1002.414	-1912
1002.490	-830
1002.566	-1575
1002.642	-1021
1002.718	-346
1002.794	-1006
1002.870	-1404
1002.945	-1300
1003.021	-1643
1003.097	-1863
1003.173	-1392
1003.248	-1205
1003.324	-1026
1003.400	-1106
1003.475	-1040
1003.551	-1138
1003.626	-1464
1003.702	-1193
1003.777	-1475
1003.853	-1245
1003.928	-1229
1004.004	-1820
1004.079	-1132
1004.155	-1326
1004.230	-2003
1004.305	-924
1004.381	-1293
1004.456	-1502
1004.531	-1728
1004.607	-1133
1004.682	-1184
1004.757	-754
1004.832	-1659
1004.907	-2189
1004.982	-1616
1005.057	-559
1005.133	-940
1005.208	-2187
1005.283	-1029
1005.358	-344
1005.433	-1786
1005.508	-1578
1005.583	-1567
1005.657	-1660
1005.732	-238
1005.807	-1182
1005.882	-1442
1005.957	-941
1006.032	-1478
1006.106	-1164
1006.181	-555
1006.256	-985
1006.331	-2053
1006.405	-1757
1006.480	-1787
1006.554	-1174
1006.629	-1117
1006.704	-1789
1006.778	-1022
1006.853	-1398
1006.927	-1183
1007.002	-1435
1007.076	-1380
1007.150	-842
1007.225	-1150
1007.299	-1203
1007.373	-1673
1007.448	-2330
1007.522	-1121
1007.596	-864
1007.671	-2033
1007.745	-931
1007.819	-711
1007.893	-1506
1007.967	-1070
1008.041	-2187
1008.115	-1065
1008.190	-1754
1008.264	-1027
1008.338	-1953
1008.412	-1257
1008.486	-1616
1008.560	-1835
1008.633	-1844
1008.707	-1675
1008.781	-1016
1008.855	-1404
1008.929	-1088
1009.003	-1872
1009.076	-1803
1009.150	-1967
1009.224	-1488
1009.298	-1840
1009.371	-1481
1009.445	-1142
1009.519	-1356
1009.592	-1526
1009.666	-751
1009.739	-1520
1009.813	-1681
1009.886	-1049
1009.960	-1879
1010.033	-868
1010.107	-1648
1010.180	-2141
1010.253	-1512
1010.327	-1854
1010.400	-1526
1010.473	-2049
1010.547	-1758
1010.620	-1799
1010.693	-1364
1010.766	-1836
1010.840	-1223
1010.913	-1444
1010.986	-1815
1011.059	-1831
1011.132	-723
1011.205	-970
1011.278	-1244
1011.351	-735
1011.424	-1372
1011.497	-1957
1011.570	-1142
1011.643	-1620
1011.716	-1588
1011.789	-2377
1011.862	-1617
1011.934	-1495
1012.007	-2064
1012.080	-1668
1012.153	-1939
1012.225	-1144
1012.298	-1522
1012.371	-2213
1012.443	-1313
1012.516	-1663
1012.588	-1686
1012.661	-1717
1012.733	-1496
1012.806	-1550
1012.879	-1812
1012.951	-1349
1013.023	-2009
1013.096	-1754
1013.168	-1302
1013.241	-1139
1013.313	-1714
1013.385	-2112
1013.458	-670
1013.530	-1148
1013.602	-2098
1013.674	-1564
1013.746	-2517
1013.819	-2185
1013.891	-1461
1013.963	-1595
1014.035	-1640
1014.107	-1162
1014.179	-1016
1014.251	-1003
1014.323	-1876
1014.395	-2871
1014.467	-1422
1014.539	-1874
1014.611	-1406
1014.683	-1407
1014.754	-1722
1014.826	-1685
1014.898	-2007
1014.970	-2861
1015.042	-1682
1015.113	-1597
1015.185	-1389
1015.257	-1621
1015.328	-1698
1015.400	-1424
1015.471	-1212
1015.543	-3155
1015.615	-1696
1015.686	-1518
1015.757	-1008
1015.829	-1684
1015.901	-1691
1015.972	-1646
1016.043	-1896
1016.115	-1943
1016.186	-1782
1016.257	-2134
1016.328	-613
1016.400	-1278
1016.471	-1441
1016.542	-1686
1016.613	-2168
1016.685	-1655
1016.756	-801
1016.827	-1824
1016.898	-2542
1016.969	-678
1017.040	-2314
1017.111	-1846
1017.182	-1635
1017.253	-1851
1017.324	-1824
1017.395	-1445
1017.466	-1632
1017.537	-1629
1017.608	-1135
1017.678	-1521
1017.749	-1223
1017.820	-2423
1017.891	-2413
1017.961	-1931
1018.032	-2034
1018.103	-1730
1018.173	-1353
1018.244	-1883
1018.315	-1888
1018.385	-903
1018.456	-1900
1018.526	-2350
1018.597	-1119
1018.667	-1731
1018.738	-1994
1018.808	-1566
1018.878	-2401
1018.949	-1375
1019.019	-1096
1019.089	-1678
1019.160	-1843
1019.230	-1736
1019.300	-1265
1019.371	-2163
1019.441	-1083
1019.511	-1873
1019.581	-1770
1019.651	-1992
1019.721	-1097
1019.791	-1466
1019.861	-1765
1019.931	-2619
1020.001	-1456
1020.071	-1129
1020.141	-1923
1020.211	-1708
1020.281	-2099
1020.351	-2776
1020.421	-2047
1020.491	-1716
1020.560	-1967
1020.630	-1746
1020.700	-1727
1020.770	-2219
1020.839	-2050
1020.909	-1637
1020.979	-2282
1021.048	-2265
1021.118	-1632
1021.187	-2264
1021.257	-2075
1021.326	-1165
1021.396	-1996
1021.465	-2021
1021.535	-2129
1021.604	-1523
1021.674	-1321
1021.743	-741
1021.812	-1393
1021.882	-1902
1021.951	-1970
1022.020	-1806
1022.089	-1912
1022.159	-1384
1022.228	-2308
1022.297	-1737
1022.366	-1983
1022.435	-2107
1022.504	-1074
1022.573	-2106
1022.642	-1456
1022.711	-2361
1022.781	-2057
1022.849	-2514
1022.918	-2257
1022.987	-1613
1023.056	-1533
1023.125	-3210
1023.194	-1465
1023.263	-1605
1023.331	-2021
1023.400	-2412
1023.469	-1658
1023.538	-1712
1023.606	-2139
1023.675	-1789
1023.744	-2049
1023.812	-1100
1023.881	-904
1023.949	-2164
1024.018	-2018
1024.086	-2204
1024.155	-1606
1024.223	-2954
1024.292	-1952
1024.360	-2073
1024.429	-1467
1024.497	-2207
1024.565	-1128
1024.634	-1676
1024.702	-2079
1024.770	-1727
1024.838	-2018
1024.907	-1468
1024.975	-1764
1025.043	-2036
1025.111	-2218
1025.179	-1392
1025.247	-2036
1025.315	-2230
1025.383	-1522
1025.451	-2516
1025.519	-1419
1025.587	-621
1025.655	-1973
1025.723	-1687
1025.791	-1331
1025.859	-1916
1025.927	-1714
1025.995	-1696
1026.062	-1726
1026.130	-2672
1026.198	-2505
1026.266	-1206
1026.333	-1915
1026.401	-2280
1026.469	-2488
1026.536	-2091
1026.604	-2655
1026.671	-2981
1026.739	-1625
1026.806	-2185
1026.874	-1735
1026.941	-1801
1027.009	-1658
1027.076	-2276
1027.144	-1082
1027.211	-2407
1027.278	-2321
1027.345	-1696
1027.413	-1134
1027.480	-2198
1027.547	-2127
1027.614	-2015
1027.682	-1740
1027.749	-2681
1027.816	-1832
1027.883	-1700
1027.950	-1363
1028.017	-2423
1028.084	-2054
1028.151	-2354
1028.218	-1881
1028.285	-2069
1028.352	-1347
1028.419	-2701
1028.486	-2516
1028.553	-2154
1028.619	-2770
1028.686	-2266
1028.753	-1254
1028.820	-2645
1028.886	-1828
1028.953	-2048
1029.020	-1914
1029.086	-1712
1029.153	-2189
1029.220	-2271
1029.286	-1830
1029.353	-2345
1029.419	-1953
1029.486	-1878
1029.552	-1979
1029.619	-2492
1029.685	-1563
1029.751	-2490
1029.818	-1672
1029.884	-2331
1029.951	-1706
1030.017	-2458
1030.083	-2100
1030.149	-1717
1030.216	-1759
1030.282	-2168
1030.348	-1709
1030.414	-2897
1030.480	-996
1030.546	-1285
1030.612	-1542
1030.678	-1552
1030.744	-1125
1030.810	-1625
1030.876	-2637
1030.942	-2627
1031.008	-2589
1031.074	-2294
1031.140	-2838
1031.206	-2118
1031.272	-2203
1031.337	-2305
1031.403	-2253
1031.469	-2211
1031.534	-2632
1031.600	-2396
1031.666	-2392
1031.731	-2459
1031.797	-2865
1031.863	-2649
1031.928	-2639
1031.994	-2781
1032.059	-1378
1032.125	-1941
1032.190	-2465
1032.256	-3218
1032.321	-2512
1032.386	-2283
1032.452	-1781
1032.517	-2624
1032.582	-2628
1032.647	-1508
1032.713	-1684
1032.778	-2252
1032.843	-2070
1032.908	-2963
1032.974	-2854
1033.039	-2124
1033.104	-2496
1033.169	-2706
1033.234	-2636
1033.299	-1260
1033.364	-1799
1033.429	-1585
1033.494	-1448
1033.559	-2023
1033.624	-1687
1033.688	-1641
1033.753	-2174
1033.818	-2297
1033.883	-2070
1033.948	-2421
1034.013	-2336
1034.077	-1778
1034.142	-1801
1034.207	-2449
1034.271	-1587
1034.336	-1744
1034.400	-1447
1034.465	-1197
1034.530	-778
1034.594	-1523
1034.658	-2203
1034.723	-1801
1034.787	-1802
1034.852	-2216
1034.916	-2863
1034.981	-2621
1035.045	-2203
1035.109	-1694
1035.173	-1894
1035.238	-1621
1035.302	-2140
1035.366	-2372
1035.430	-2212
1035.495	-2995
1035.559	-2037
1035.623	-2146
1035.687	-2740
1035.751	-1804
1035.815	-2377
1035.879	-2539
1035.943	-1835
1036.007	-2733
1036.071	-2161
1036.135	-2178
1036.198	-1834
1036.262	-2718
1036.326	-2499
1036.390	-1766
1036.454	-1686
1036.517	-1910
1036.581	-916
1036.645	-855
1036.709	-201
1036.772	-1233
1036.836	-1470
1036.900	-1844
1036.963	-1784
1037.026	-2361
1037.090	-2150
1037.154	-1534
1037.217	-1370
1037.280	-2896
1037.344	-2712
1037.407	-3459
1037.471	-1899
1037.534	-1688
1037.597	-2280
1037.661	-2342
1037.724	-2632
1037.787	-2869
1037.850	-2611
1037.913	-2482
1037.977	-1433
1038.040	-1958
1038.103	-1396
1038.166	-2840
1038.229	-2766
1038.292	-2020
1038.355	-2132
1038.418	-2532
1038.481	-1565
1038.544	-1925
1038.607	-1920
1038.670	-1381
1038.732	-1983
1038.795	-2418
1038.858	-2130
1038.921	-1971
1038.984	-2290
1039.046	-2000
1039.109	-2221
1039.172	-1692
1039.234	-2084
1039.297	-1765
1039.360	-1819
1039.422	-2086
1039.485	-1711
1039.547	-2554
1039.610	-2343
1039.672	-2195
1039.734	-2085
1039.797	-2053
1039.859	-1990
1039.922	-2404
1039.984	-2153
1040.046	-2631
1040.109	-2081
1040.171	-2391
1040.233	-2250
1040.295	-1997
1040.358	-1967
1040.420	-2435
1040.482	-2253
1040.544	-2371
1040.606	-1849
1040.668	-2143
1040.730	-2114
1040.792	-2485
1040.854	-2395
1040.916	-2258
1040.978	-1512
1041.040	-1813
1041.102	-2044
1041.164	-2297
1041.225	-1958
1041.287	-2454
1041.349	-1315
1041.411	-2608
1041.472	-2370
1041.534	-2187
1041.596	-1294
1041.657	-1877
1041.719	-1457
1041.781	-1242
1041.842	-2021
1041.904	-2381
1041.965	-2127
1042.027	-1743
1042.088	-1758
1042.150	-1705
1042.211	-1475
1042.272	-2737
1042.334	-2574
1042.395	-2333
1042.456	-2497
1042.518	-2546
1042.579	-2322
1042.640	-1571
1042.701	-2087
1042.763	-1703
1042.824	-2247
1042.885	-2257
1042.946	-1523
1043.007	-1894
1043.068	-2515
1043.129	-2475
1043.190	-2155
1043.251	-1889
1043.312	-1962
1043.373	-2155
1043.434	-2306
1043.495	-2447
1043.556	-2601
1043.616	-2288
1043.677	-2462
1043.738	-1801
1043.799	-2161
1043.859	-1737
1043.920	-2014
1043.981	-1335
1044.041	-2226
1044.102	-2324
1044.162	-997
1044.223	-2177
1044.284	-1179
1044.344	-1366
1044.405	-2253
1044.465	-2013
1044.525	-1646
1044.586	-2103
1044.646	-1546
1044.707	-1401
1044.767	-2762
1044.827	-2254
1044.887	-2113
1044.948	-2179
1045.008	-1662
1045.068	-1475
1045.128	-1416
1045.188	-1106
1045.249	-1816
1045.309	-1237
1045.369	-1124
1045.429	-1473
1045.489	-863
1045.549	-2098
1045.609	-1814
1045.669	-2566
1045.729	-2257
1045.789	-1911
1045.848	-1955
1045.908	-2507
1045.968	-1908
1046.028	-1206
1046.088	-1908
1046.147	-1497
1046.207	-2145
1046.267	-654
1046.326	-1781
1046.386	-1941
1046.446	-1838
1046.505	-1541
1046.565	-460
1046.624	-1314
1046.684	-953
1046.743	-522
1046.803	-529
1046.862	-1255
1046.922	0
