'Start Wavelength	183.907
'End Wavelength	1046.922
'Gate Delay	5.000
'Gate Width (ms)	1.050
'Laser Output Level	0.000
'X Position	0.000
'Y Position	0.000
'Z Position	0.000
'Grid Point Number	1.000
'Shot Number	100.000
183.907	11.000
183.977	217.000
184.047	174
184.116	331
184.186	-81
184.256	268
184.325	-445
184.395	-389
184.465	704
184.534	-51
184.604	-47
184.674	-293
184.743	-50
184.813	791
184.883	-48
184.952	486
185.022	-340
185.092	403
185.161	263
185.231	-146
185.301	-274
185.370	743
185.440	11
185.509	324
185.579	-20
185.649	-103
185.718	-95
185.788	85
185.857	-221
185.927	-387
185.996	-411
186.066	233
186.136	-69
186.205	400
186.275	-92
186.344	-135
186.414	264
186.483	157
186.553	548
186.622	508
186.692	-114
186.761	-135
186.831	0
186.900	-377
186.970	236
187.039	669
187.109	678
187.178	407
187.248	1236
187.317	440
187.387	-501
187.456	663
187.526	131
187.595	789
187.664	-277
187.734	752
187.803	-682
187.873	741
187.942	-283
188.012	524
188.081	270
188.150	255
188.220	-146
188.289	924
188.358	483
188.428	654
188.497	-116
188.567	206
188.636	428
188.705	-42
188.775	-284
188.844	-193
188.913	-199
188.983	770
189.052	66
189.121	971
189.191	11
189.260	698
189.329	210
189.399	-67
189.468	-8
189.537	493
189.606	304
189.676	631
189.745	747
189.814	871
189.883	-93
189.953	397
190.022	227
190.091	502
190.161	549
190.230	-39
190.299	171
190.368	-76
190.437	-370
190.507	257
190.576	320
190.645	415
190.714	254
190.783	239
190.853	-2
190.922	1397
190.991	455
191.060	792
191.129	-328
191.198	178
191.268	-57
191.337	650
191.406	-123
191.475	125
191.544	-355
191.613	650
191.682	181
191.752	631
191.821	-56
191.890	202
191.959	212
192.028	567
192.097	-583
192.166	56
192.235	-840
192.304	504
192.373	566
192.442	1080
192.511	947
192.580	459
192.650	-66
192.719	6
192.788	728
192.857	965
192.926	-460
192.995	979
193.064	248
193.133	946
193.202	225
193.271	781
193.340	-163
193.409	570
193.478	530
193.547	1164
193.615	1406
193.684	1871
193.753	176
193.822	746
193.891	-69
193.960	655
194.029	-554
194.098	726
194.167	-397
194.236	484
194.305	256
194.374	296
194.443	-285
194.512	454
194.580	346
194.649	1215
194.718	421
194.787	428
194.856	-136
194.925	330
194.994	148
195.062	808
195.131	89
195.200	654
195.269	929
195.338	161
195.407	-3
195.475	-446
195.544	801
195.613	-266
195.682	605
195.751	1157
195.819	-131
195.888	1298
195.957	214
196.026	537
196.094	787
196.163	967
196.232	496
196.301	941
196.369	784
196.438	786
196.507	273
196.576	219
196.644	90
196.713	489
196.782	-140
196.850	1263
196.919	-6
196.988	620
197.056	715
197.125	480
197.194	282
197.262	587
197.331	190
197.400	-184
197.468	-56
197.537	315
197.606	272
197.674	672
197.743	660
197.812	7
197.880	846
197.949	183
198.017	1465
198.086	754
198.155	625
198.223	805
198.292	244
198.360	1258
198.429	22
198.497	761
198.566	-49
198.635	527
198.703	485
198.772	575
198.840	201
198.909	975
198.977	536
199.046	690
199.114	489
199.183	839
199.251	-236
199.320	746
199.388	659
199.457	364
199.525	705
199.594	1293
199.662	97
199.731	915
199.799	735
199.867	866
199.936	-92
200.004	1502
200.073	648
200.141	552
200.210	-229
200.278	551
200.346	51
200.415	745
200.483	620
200.552	882
200.620	53
200.688	532
200.757	-143
200.825	954
200.893	141
200.962	1037
201.030	-362
201.098	729
201.167	240
201.235	721
201.303	155
201.372	1680
201.440	808
201.508	1172
201.577	565
201.645	1351
201.713	564
201.781	592
201.850	908
201.918	1217
201.986	248
202.055	944
202.123	-375
202.191	743
202.259	604
202.327	960
202.396	156
202.464	497
202.532	1067
202.600	1199
202.669	1290
202.737	984
202.805	-277
202.873	977
202.941	464
203.009	664
203.078	-788
203.146	808
203.214	153
203.282	1106
203.350	212
203.418	318
203.487	121
203.555	409
203.623	427
203.691	1308
203.759	-87
203.827	480
203.895	668
203.963	672
204.031	672
204.099	376
204.168	656
204.236	1316
204.304	395
204.372	812
204.440	159
204.508	1260
204.576	406
204.644	9
204.712	384
204.780	321
204.848	415
204.916	176
204.984	212
205.052	352
205.120	240
205.188	548
205.256	513
205.324	868
205.392	855
205.460	866
205.528	57
205.596	1063
205.664	1217
205.732	29
205.799	606
205.867	1517
205.935	480
206.003	620
206.071	-21
206.139	787
206.207	595
206.275	682
206.343	589
206.411	799
206.478	178
206.546	938
206.614	1127
206.682	-151
206.750	154
206.818	867
206.885	506
206.953	876
207.021	260
207.089	471
207.157	28
207.225	811
207.292	26
207.360	851
207.428	74
207.496	1015
207.563	757
207.631	1116
207.699	732
207.767	556
207.834	1143
207.902	1145
207.970	695
208.038	874
208.105	927
208.173	1054
208.241	847
208.309	1117
208.376	568
208.444	1445
208.512	880
208.579	70
208.647	285
208.715	1356
208.782	-76
208.850	668
208.918	586
208.985	686
209.053	-275
209.120	947
209.188	522
209.256	806
209.323	238
209.391	942
209.459	702
209.526	1118
209.594	1069
209.661	694
209.729	56
209.796	993
209.864	165
209.932	947
209.999	1052
210.067	1651
210.134	779
210.202	1623
210.269	1279
210.337	1158
210.404	81
210.472	719
210.539	1068
210.607	1122
210.674	1667
210.742	1344
210.809	322
210.877	913
210.944	1711
211.012	1017
211.079	2164
211.146	731
211.214	135
211.281	1221
211.349	674
211.416	1054
211.484	738
211.551	1619
211.618	909
211.686	1508
211.753	943
211.821	1712
211.888	745
211.955	951
212.023	583
212.090	1522
212.157	467
212.225	1141
212.292	959
212.359	2621
212.427	3248
212.494	2384
212.561	1230
212.629	601
212.696	925
212.763	1396
212.831	1278
212.898	1196
212.965	1778
213.032	1464
213.100	912
213.167	1253
213.234	995
213.301	1124
213.369	1220
213.436	911
213.503	174
213.570	1750
213.638	1015
213.705	1091
213.772	670
213.839	1765
213.906	662
213.973	1430
214.041	1182
214.108	1204
214.175	716
214.242	1587
214.309	454
214.376	1558
214.444	685
214.511	1181
214.578	1041
214.645	1132
214.712	742
214.779	1473
214.846	1142
214.913	1899
214.980	1271
215.048	1765
215.115	1607
215.182	1374
215.249	1751
215.316	1981
215.383	410
215.450	1365
215.517	772
215.584	1451
215.651	663
215.718	1846
215.785	1501
215.852	1077
215.919	1787
215.986	2136
216.053	190
216.120	736
216.187	1360
216.254	1361
216.321	1285
216.388	998
216.455	1383
216.522	1608
216.589	925
216.656	1680
216.722	1863
216.789	2161
216.856	1887
216.923	1793
216.990	1774
217.057	1680
217.124	2117
217.191	1699
217.258	2737
217.324	2195
217.391	2252
217.458	2530
217.525	2142
217.592	1998
217.659	999
217.725	2334
217.792	1210
217.859	1557
217.926	823
217.993	424
218.059	1192
218.126	1048
218.193	1320
218.260	1501
218.327	-90
218.393	1291
218.460	774
218.527	708
218.594	1281
218.660	1360
218.727	1180
218.794	623
218.860	810
218.927	784
218.994	866
219.061	1051
219.127	454
219.194	1351
219.261	761
219.327	905
219.394	552
219.461	1101
219.527	1190
219.594	1160
219.661	667
219.727	630
219.794	583
219.860	574
219.927	410
219.994	1841
220.060	1331
220.127	1419
220.193	1035
220.260	1687
220.326	3497
220.393	3945
220.460	3770
220.526	3142
220.593	1417
220.659	4024
220.726	2243
220.792	3722
220.859	3302
220.925	5835
220.992	6464
221.058	5667
221.125	4081
221.191	3499
221.258	2140
221.324	1858
221.391	755
221.457	507
221.524	1040
221.590	2054
221.657	3139
221.723	2085
221.789	2227
221.856	1811
221.922	834
221.989	1554
222.055	1407
222.121	743
222.188	1654
222.254	1128
222.321	1003
222.387	415
222.453	289
222.520	818
222.586	387
222.652	1288
222.719	298
222.785	1752
222.851	295
222.918	1388
222.984	605
223.050	1518
223.116	301
223.183	1560
223.249	278
223.315	513
223.382	160
223.448	1304
223.514	163
223.580	410
223.647	499
223.713	918
223.779	537
223.845	498
223.911	18
223.978	1192
224.044	687
224.110	628
224.176	369
224.242	812
224.309	530
224.375	749
224.441	994
224.507	214
224.573	-106
224.639	772
224.705	381
224.772	881
224.838	155
224.904	409
224.970	331
225.036	647
225.102	414
225.168	894
225.234	1308
225.300	1008
225.366	363
225.432	1314
225.499	464
225.565	953
225.631	1096
225.697	1250
225.763	1259
225.829	1625
225.895	803
225.961	1605
226.027	1526
226.093	1863
226.159	2404
226.225	3816
226.291	6586
226.357	8513
226.423	5509
226.489	3675
226.554	1884
226.620	2622
226.686	2960
226.752	4713
226.818	6238
226.884	10127
226.950	8165
227.016	4989
227.082	3211
227.148	2689
227.214	2291
227.279	2388
227.345	1316
227.411	2387
227.477	1358
227.543	3463
227.609	2432
227.674	2483
227.740	814
227.806	980
227.872	870
227.938	1134
228.003	1568
228.069	1252
228.135	664
228.201	948
228.267	335
228.332	1494
228.398	481
228.464	1288
228.530	463
228.595	817
228.661	451
228.727	1548
228.792	1374
228.858	1011
228.924	541
228.990	2064
229.055	382
229.121	1978
229.187	532
229.252	1465
229.318	308
229.384	651
229.449	1285
229.515	255
229.581	-405
229.646	2231
229.712	314
229.777	1341
229.843	1114
229.909	1714
229.974	1888
230.040	1765
230.105	1178
230.171	1324
230.236	1342
230.302	2311
230.368	984
230.433	1143
230.499	508
230.564	2620
230.630	119
230.695	1252
230.761	1061
230.826	392
230.892	1421
230.957	810
231.023	123
231.088	1823
231.154	558
231.219	1309
231.284	1236
231.350	1653
231.415	32
231.481	1850
231.546	1551
231.612	1221
231.677	502
231.742	296
231.808	315
231.873	470
231.939	-426
232.004	2259
232.069	1173
232.135	615
232.200	838
232.265	1104
232.331	234
232.396	370
232.461	388
232.527	373
232.592	107
232.657	987
232.723	898
232.788	1066
232.853	586
232.918	1021
232.984	371
233.049	622
233.114	681
233.179	1420
233.245	1807
233.310	1065
233.375	247
233.440	1447
233.506	560
233.571	902
233.636	616
233.701	270
233.766	900
233.832	1015
233.897	71
233.962	968
234.027	622
234.092	2032
234.157	558
234.222	1506
234.288	1414
234.353	2598
234.418	2304
234.483	2165
234.548	107
234.613	1636
234.678	1214
234.743	1003
234.808	3286
234.873	2351
234.938	1820
235.004	1570
235.069	970
235.134	821
235.199	687
235.264	1322
235.329	216
235.394	1277
235.459	2036
235.524	1006
235.589	707
235.654	1283
235.719	441
235.784	1201
235.849	1051
235.913	1814
235.978	1720
236.043	2137
236.108	214
236.173	717
236.238	2367
236.303	368
236.368	332
236.433	2127
236.498	1860
236.563	2472
236.627	4646
236.692	13297
236.757	9974
236.822	5767
236.887	2665
236.952	3383
237.017	1939
237.081	3340
237.146	3168
237.211	9611
237.276	12973
237.341	16658
237.405	9676
237.470	4827
237.535	3277
237.600	2746
237.664	2311
237.729	1819
237.794	2244
237.859	6017
237.923	3027
237.988	2347
238.053	2072
238.118	2690
238.182	3443
238.247	4516
238.312	1481
238.376	2032
238.441	35
238.506	2242
238.570	-42
238.635	2747
238.700	960
238.764	1027
238.829	1546
238.893	1467
238.958	1732
239.023	851
239.087	771
239.152	1247
239.216	531
239.281	1187
239.346	739
239.410	592
239.475	490
239.539	5216
239.604	1543
239.668	1905
239.733	1282
239.797	1968
239.862	4012
239.926	3568
239.991	1737
240.055	1377
240.120	3
240.184	1288
240.249	388
240.313	1360
240.378	902
240.442	2210
240.507	2485
240.571	1248
240.635	685
240.700	1903
240.764	1259
240.829	1242
240.893	-18
240.957	922
241.022	1972
241.086	3762
241.151	1071
241.215	356
241.279	1434
241.344	1269
241.408	822
241.472	442
241.537	2014
241.601	1304
241.665	-324
241.730	1076
241.794	1101
241.858	1341
241.922	1264
241.987	1271
242.051	1048
242.115	935
242.179	1292
242.244	1180
242.308	1754
242.372	1244
242.436	1083
242.501	1647
242.565	742
242.629	681
242.693	1595
242.757	465
242.822	561
242.886	1649
242.950	492
243.014	757
243.078	1829
243.142	1767
243.206	1364
243.271	1470
243.335	693
243.399	2379
243.463	5258
243.527	13026
243.591	3446
243.655	2241
243.719	978
243.783	2283
243.847	2434
243.911	3266
243.975	3163
244.040	2385
244.104	2613
244.168	1406
244.232	1677
244.296	2891
244.360	2568
244.424	1851
244.488	1239
244.552	940
244.615	282
244.679	1720
244.743	1345
244.807	886
244.871	1427
244.935	1740
244.999	296
245.063	1818
245.127	2195
245.191	1836
245.255	1628
245.319	2079
245.383	501
245.446	2552
245.510	822
245.574	1140
245.638	1573
245.702	693
245.766	2739
245.829	1947
245.893	933
245.957	1685
246.021	1194
246.085	1650
246.149	1422
246.212	4461
246.276	4388
246.340	1474
246.404	1893
246.467	2956
246.531	1474
246.595	3611
246.659	2031
246.722	1145
246.786	2870
246.850	3035
246.913	1804
246.977	576
247.041	1400
247.104	1974
247.168	2202
247.232	4485
247.295	6031
247.359	3461
247.423	1734
247.486	3444
247.550	2276
247.614	2044
247.677	1869
247.741	2199
247.804	1623
247.868	2669
247.932	3311
247.995	6549
248.059	2640
248.122	1238
248.186	2938
248.249	3825
248.313	10864
248.376	11161
248.440	6998
248.503	1929
248.567	4531
248.630	4252
248.694	5958
248.757	6792
248.821	10478
248.884	7858
248.948	6010
249.011	9605
249.075	11954
249.138	11472
249.202	4600
249.265	3617
249.328	4409
249.392	2759
249.455	2864
249.519	2888
249.582	1652
249.645	5234
249.709	3513
249.772	2832
249.835	2318
249.899	2170
249.962	2327
250.025	1777
250.089	4828
250.152	6282
250.215	3433
250.279	2647
250.342	2621
250.405	2798
250.468	2349
250.532	3537
250.595	4816
250.658	13220
250.721	19662
250.785	7332
250.848	4988
250.911	3102
250.974	3064
251.038	4623
251.101	6572
251.164	4555
251.227	3723
251.290	3702
251.354	5668
251.417	18338
251.480	15221
251.543	13364
251.606	30267
251.669	21960
251.732	10142
251.795	10516
251.859	10207
251.922	20877
251.985	11597
252.048	6482
252.111	3886
252.174	4473
252.237	7851
252.300	13445
252.363	14667
252.426	23316
252.489	10413
252.552	7220
252.615	4053
252.678	5877
252.741	10092
252.804	13976
252.867	25482
252.930	15923
252.993	9060
253.056	5942
253.119	4589
253.182	3602
253.245	4544
253.308	5112
253.371	3746
253.434	3958
253.497	4618
253.559	7553
253.622	4952
253.685	6248
253.748	5691
253.811	4078
253.874	3811
253.937	3268
254.000	3448
254.062	5525
254.125	6859
254.188	8562
254.251	6346
254.314	3246
254.376	5407
254.439	6511
254.502	5427
254.565	5063
254.628	8971
254.690	5318
254.753	2231
254.816	3307
254.878	3179
254.941	5708
255.004	4361
255.067	2323
255.129	2295
255.192	2487
255.255	1238
255.317	2498
255.380	1981
255.443	1513
255.505	924
255.568	813
255.631	1084
255.693	2818
255.756	1010
255.819	2386
255.881	660
255.944	1461
256.006	539
256.069	1282
256.132	1585
256.194	2003
256.257	2574
256.319	3284
256.382	1293
256.444	2759
256.507	1004
256.569	1631
256.632	1698
256.694	2852
256.757	9701
256.819	23586
256.882	9051
256.944	4733
257.007	4394
257.069	3285
257.132	1900
257.194	3491
257.257	2069
257.319	1120
257.381	2964
257.444	7573
257.506	26463
257.569	28201
257.631	12845
257.693	7562
257.756	3731
257.818	2884
257.880	1353
257.943	3191
258.005	932
258.067	2447
258.130	1525
258.192	1969
258.254	3034
258.317	2511
258.379	1883
258.441	4581
258.503	3222
258.566	4578
258.628	5033
258.690	1641
258.753	2502
258.815	4651
258.877	1816
258.939	1696
259.001	1665
259.064	2294
259.126	1275
259.188	2764
259.250	1220
259.312	2373
259.375	4497
259.437	3163
259.499	1737
259.561	1766
259.623	1926
259.685	1619
259.747	1979
259.809	3846
259.872	6132
259.934	11442
259.996	11541
260.058	4070
260.120	1183
260.182	2193
260.244	1340
260.306	649
260.368	2141
260.430	985
260.492	4438
260.554	7124
260.616	3055
260.678	6125
260.740	5566
260.802	1934
260.864	2167
260.926	1356
260.988	2146
261.050	1867
261.112	6378
261.174	11919
261.236	5454
261.298	2704
261.359	3012
261.421	5315
261.483	722
261.545	2647
261.607	-199
261.669	2069
261.731	2311
261.793	5520
261.854	2364
261.916	2986
261.978	1755
262.040	2996
262.102	2069
262.164	1882
262.225	1565
262.287	2331
262.349	3799
262.411	3373
262.472	1843
262.534	2140
262.596	3394
262.658	1291
262.719	252
262.781	2410
262.843	2425
262.904	2730
262.966	1585
263.028	2138
263.090	8207
263.151	18914
263.213	7752
263.275	5372
263.336	2288
263.398	2737
263.459	1008
263.521	1988
263.583	4286
263.644	3105
263.706	1296
263.767	853
263.829	1575
263.891	1320
263.952	1606
264.014	919
264.075	2781
264.137	7903
264.198	3073
264.260	1337
264.321	970
264.383	5374
264.444	10888
264.506	3278
264.567	2657
264.629	5612
264.690	8419
264.752	4086
264.813	1293
264.875	1599
264.936	2524
264.998	1958
265.059	863
265.120	1374
265.182	2349
265.243	15463
265.305	13318
265.366	4127
265.427	2218
265.489	2286
265.550	651
265.611	1659
265.673	1740
265.734	2392
265.795	1696
265.857	593
265.918	692
265.979	5133
266.040	22438
266.102	17036
266.163	5234
266.224	4639
266.286	1201
266.347	1552
266.408	1349
266.469	2623
266.530	196
266.592	1657
266.653	2823
266.714	4557
266.775	1566
266.836	1187
266.898	-401
266.959	2868
267.020	1565
267.081	2544
267.142	468
267.203	1206
267.264	505
267.326	2082
267.387	408
267.448	737
267.509	1120
267.570	1516
267.631	844
267.692	553
267.753	1497
267.814	193
267.875	2467
267.936	4475
267.997	3693
268.058	3022
268.119	316
268.180	1563
268.241	849
268.302	1615
268.363	469
268.424	1176
268.485	829
268.546	828
268.607	576
268.668	655
268.729	-393
268.790	709
268.851	2007
268.912	4157
268.972	4138
269.033	2264
269.094	770
269.155	1610
269.216	439
269.277	1213
269.338	1057
269.398	1422
269.459	728
269.520	2111
269.581	2158
269.642	2540
269.702	1801
269.763	1666
269.824	599
269.885	1656
269.945	2515
270.006	1813
270.067	940
270.128	1130
270.188	447
270.249	1089
270.310	-196
270.370	1364
270.431	782
270.492	1251
270.553	1576
270.613	3664
270.674	5506
270.734	1882
270.795	506
270.856	3171
270.916	1111
270.977	1273
271.038	831
271.098	2403
271.159	2838
271.219	2118
271.280	1124
271.340	515
271.401	457
271.462	2794
271.522	2013
271.583	1458
271.643	1743
271.704	1332
271.764	1636
271.825	5190
271.885	12519
271.946	14391
272.006	5424
272.066	7883
272.127	10363
272.187	4602
272.248	2700
272.308	2440
272.369	7747
272.429	4093
272.489	4050
272.550	3966
272.610	4440
272.671	3298
272.731	2620
272.791	3407
272.852	2025
272.912	2390
272.972	982
273.033	1376
273.093	979
273.153	2906
273.214	1482
273.274	1754
273.334	7655
273.394	13267
273.455	4843
273.515	6535
273.575	10752
273.635	4314
273.696	5624
273.756	10078
273.816	3901
273.876	3058
273.936	4248
273.997	7517
274.057	2011
274.117	1918
274.177	4106
274.237	15881
274.297	10328
274.358	7304
274.418	8104
274.478	8163
274.538	3273
274.598	1202
274.658	5820
274.718	6978
274.778	3390
274.838	2447
274.898	2882
274.958	8866
275.018	9712
275.078	7097
275.138	2868
275.198	1769
275.258	443
275.318	2753
275.378	4010
275.438	4961
275.498	3336
275.558	4851
275.618	9153
275.678	6887
275.738	5654
275.798	5384
275.858	2928
275.918	1737
275.978	2442
276.038	2072
276.098	1511
276.157	3726
276.217	9681
276.277	4173
276.337	2614
276.397	1864
276.457	2813
276.517	1514
276.576	1213
276.636	1374
276.696	2182
276.756	6429
276.815	3390
276.875	1794
276.935	2545
276.995	2326
277.055	940
277.114	1658
277.174	2398
277.234	7422
277.293	2565
277.353	1309
277.413	1215
277.472	1963
277.532	1658
277.592	2875
277.651	4987
277.711	9948
277.771	3739
277.830	13527
277.890	8730
277.950	6950
278.009	16625
278.069	6887
278.128	7295
278.188	9387
278.248	4741
278.307	10921
278.367	5901
278.426	2222
278.486	1477
278.545	1381
278.605	1258
278.664	1852
278.724	1762
278.783	5289
278.843	10174
278.902	4003
278.962	2285
279.021	2515
279.081	2285
279.140	1841
279.199	2213
279.259	2556
279.318	2179
279.378	2800
279.437	5442
279.496	16693
279.556	40485
279.615	26423
279.675	8275
279.734	4900
279.793	8733
279.853	13443
279.912	4953
279.971	3044
280.031	2960
280.090	6198
280.149	8285
280.208	8100
280.268	30311
280.327	24996
280.386	6921
280.445	7013
280.505	5475
280.564	3964
280.623	2855
280.682	4672
280.742	5741
280.801	2585
280.860	2312
280.919	1724
280.978	1957
281.037	1872
281.097	639
281.156	1761
281.215	686
281.274	2168
281.333	7748
281.392	4264
281.451	2192
281.510	977
281.569	946
281.628	1272
281.688	1118
281.747	1569
281.806	1532
281.865	1602
281.924	657
281.983	1586
282.042	342
282.101	1519
282.160	1373
282.219	-2
282.278	1127
282.337	5313
282.396	2790
282.454	1775
282.513	1893
282.572	8322
282.631	4184
282.690	1923
282.749	1053
282.808	3266
282.867	1535
282.926	1701
282.985	984
283.043	302
283.102	1015
283.161	1801
283.220	3515
283.279	7619
283.338	1507
283.396	1581
283.455	1682
283.514	2533
283.573	2737
283.631	2451
283.690	1735
283.749	1389
283.808	3959
283.866	4185
283.925	466
283.984	2459
284.043	2042
284.101	2605
284.160	1391
284.219	2145
284.277	1313
284.336	3732
284.395	10561
284.453	7740
284.512	2688
284.570	5201
284.629	2991
284.688	3147
284.746	3066
284.805	4581
284.863	5071
284.922	5766
284.981	6845
285.039	10877
285.098	18623
285.156	40173
285.215	54244
285.273	53781
285.332	39450
285.390	22056
285.449	14195
285.507	9974
285.566	6475
285.624	4786
285.683	4101
285.741	3436
285.799	2333
285.858	2661
285.916	2356
285.975	2180
286.033	1390
286.091	2401
286.150	919
286.208	2129
286.267	1633
286.325	2205
286.383	3312
286.442	3297
286.500	1108
286.558	1337
286.616	1080
286.675	3247
286.733	885
286.791	1431
286.850	2744
286.908	2830
286.966	4242
287.024	2562
287.083	1390
287.141	1053
287.199	1809
287.257	2632
287.315	1518
287.374	2162
287.432	4878
287.490	2758
287.548	2123
287.606	1717
287.664	1476
287.723	2393
287.781	2450
287.839	1756
287.897	1794
287.955	2064
288.013	3231
288.071	8794
288.129	29634
288.187	71134
288.245	30470
288.303	11379
288.361	5867
288.419	4804
288.477	3132
288.535	2889
288.593	2754
288.651	1116
288.709	817
288.767	1019
288.825	844
288.883	1540
288.941	691
288.999	1149
289.057	1062
289.115	1175
289.173	908
289.231	965
289.289	108
289.346	509
289.404	1895
289.462	3478
289.520	2753
289.578	1602
289.636	692
289.694	1081
289.751	536
289.809	851
289.867	1181
289.925	1819
289.983	2049
290.040	866
290.098	351
290.156	1796
290.214	1515
290.271	1180
290.329	949
290.387	601
290.444	514
290.502	568
290.560	932
290.617	1254
290.675	545
290.733	1239
290.790	889
290.848	1538
290.906	1459
290.963	1791
291.021	677
291.078	1400
291.136	1631
291.194	6810
291.251	11487
291.309	3790
291.366	1221
291.424	1454
291.481	524
291.539	1556
291.596	1086
291.654	1459
291.711	1159
291.769	1102
291.826	2194
291.884	1967
291.941	-36
291.999	512
292.056	1282
292.114	1796
292.171	751
292.228	2051
292.286	1432
292.343	3550
292.401	3581
292.458	2514
292.515	1052
292.573	2292
292.630	1710
292.687	1900
292.745	803
292.802	3544
292.859	7839
292.917	9450
292.974	5074
293.031	2499
293.089	710
293.146	1921
293.203	1013
293.260	1123
293.318	1986
293.375	4051
293.432	2088
293.489	1582
293.546	699
293.604	2568
293.661	5809
293.718	14761
293.775	8515
293.832	4016
293.889	2295
293.947	2677
294.004	2334
294.061	2683
294.118	5346
294.175	12100
294.232	16361
294.289	6463
294.346	3513
294.403	4240
294.460	2449
294.517	2134
294.574	1258
294.631	1665
294.688	2950
294.745	6253
294.802	18641
294.859	23919
294.916	9084
294.973	4699
295.030	3806
295.087	3752
295.144	2479
295.201	2659
295.258	1153
295.315	2549
295.372	6668
295.429	10117
295.486	6141
295.542	5202
295.599	12224
295.656	20244
295.713	13175
295.770	11830
295.827	5039
295.883	3295
295.940	2931
295.997	4824
296.054	5141
296.111	3234
296.167	2326
296.224	1073
296.281	1116
296.338	1727
296.394	1563
296.451	2684
296.508	5576
296.564	12405
296.621	9114
296.678	14415
296.734	19073
296.791	8401
296.848	4502
296.904	5490
296.961	9770
297.018	13295
297.074	10202
297.131	5289
297.187	2956
297.244	5152
297.301	10849
297.357	18196
297.414	6781
297.470	3967
297.527	2681
297.583	3424
297.640	2195
297.696	2677
297.753	1600
297.809	1039
297.866	1157
297.922	1998
297.979	371
298.035	1924
298.092	3472
298.148	7840
298.204	7472
298.261	4302
298.317	7547
298.374	17124
298.430	9014
298.486	4121
298.543	2989
298.599	3077
298.656	4600
298.712	6753
298.768	12556
298.824	8840
298.881	2489
298.937	3017
298.993	2337
299.050	3315
299.106	2207
299.162	2281
299.218	2211
299.275	1594
299.331	1855
299.387	4794
299.443	13539
299.500	15591
299.556	7412
299.612	4965
299.668	3783
299.724	5177
299.780	5562
299.837	2770
299.893	4562
299.949	13723
300.005	15590
300.061	14389
300.117	20363
300.173	10834
300.229	4806
300.285	6213
300.341	7305
300.397	4365
300.453	2167
300.510	2144
300.566	2815
300.622	4404
300.678	10194
300.734	17615
300.790	12181
300.845	14677
300.901	10135
300.957	16322
301.013	10382
301.069	4416
301.125	3566
301.181	3850
301.237	2471
301.293	2190
301.349	1651
301.405	1851
301.461	2010
301.516	2441
301.572	2104
301.628	5194
301.684	4483
301.740	6060
301.796	8937
301.851	6698
301.907	10745
301.963	11361
302.019	14936
302.074	35138
302.130	35009
302.186	17908
302.242	7560
302.297	4866
302.353	5681
302.409	9253
302.464	8184
302.520	8057
302.576	14710
302.631	16765
302.687	11329
302.743	4743
302.798	3060
302.854	3079
302.910	3669
302.965	5021
303.021	6418
303.076	6036
303.132	7832
303.187	9697
303.243	4543
303.299	3358
303.354	2773
303.410	2523
303.465	2173
303.521	2258
303.576	2416
303.632	3040
303.687	4723
303.743	12421
303.798	10116
303.853	5138
303.909	2831
303.964	3214
304.020	5118
304.075	7821
304.130	6293
304.186	11848
304.241	11946
304.297	8764
304.352	4982
304.358	4836
304.407	3647
304.449	3498
304.463	3450
304.518	3648
304.539	3364
304.573	2914
304.629	3478
304.630	3513
304.684	5157
304.720	8050
304.739	9533
304.794	13850
304.811	12188
304.850	8121
304.902	4124
304.905	3870
304.960	4035
304.992	3557
305.015	3189
305.071	4236
305.083	3845
305.126	2467
305.173	2573
305.181	2600
305.236	2251
305.264	2383
305.292	2543
305.347	2964
305.354	3135
305.402	4122
305.445	3398
305.457	3205
305.512	4552
305.535	4475
305.567	4359
305.622	4107
305.626	4225
305.678	6705
305.716	12663
305.733	14967
305.788	15510
305.807	13935
305.843	11024
305.897	12332
305.898	12342
305.953	13145
305.988	9530
306.008	7472
306.063	4802
306.078	4415
306.118	3494
306.168	2695
306.173	2642
306.228	2061
306.259	2312
306.283	2502
306.338	1583
306.349	1772
306.393	2507
306.440	2704
306.448	2747
306.503	2949
306.530	3351
306.558	4261
306.613	8347
306.620	8896
306.668	12274
306.711	14996
306.723	15278
306.778	12400
306.801	10024
306.833	7015
306.888	4021
306.892	3891
306.943	3138
306.982	2647
306.997	2448
307.052	2790
307.072	2676
307.107	2623
307.162	4230
307.163	4243
307.217	5602
307.253	6675
307.272	7015
307.327	7416
307.343	7039
307.381	6025
307.434	4724
307.436	4776
307.491	9030
307.524	12843
307.546	14311
307.600	14366
307.614	13251
307.655	8774
307.704	5035
307.710	4852
307.765	5376
307.795	6497
307.819	7894
307.874	12273
307.885	12337
307.929	10725
307.975	9075
307.984	9164
308.038	12347
308.065	15553
308.093	23110
308.148	44070
308.156	48596
308.202	74404
308.246	89386
308.257	87739
308.312	55925
308.336	42976
308.366	33172
308.421	20725
308.426	19681
308.475	12993
308.517	9614
308.530	8959
308.585	7702
308.607	7142
308.639	6816
308.694	6749
308.697	6826
308.748	10233
308.787	14221
308.803	14564
308.857	12377
308.877	10995
308.912	9413
308.967	8882
308.967	8893
309.021	11934
309.058	14845
309.076	18073
309.130	31094
309.148	36580
309.185	56705
309.238	91192
309.239	91529
309.293	102051
309.328	100346
309.348	90454
309.402	53860
309.418	44434
309.457	31902
309.508	19147
309.511	18718
309.566	15497
309.598	14043
309.620	14293
309.674	15633
309.688	16164
309.729	15850
309.778	14108
309.783	13856
309.837	10904
309.868	9759
309.892	10985
309.946	14904
309.959	16356
310.001	22651
310.049	28069
310.055	27190
310.109	16354
310.139	10300
310.163	8195
310.218	5601
310.229	5049
310.272	4212
310.319	3943
310.326	3820
310.381	2938
310.409	2442
310.435	2415
310.489	2696
310.499	2743
310.543	3027
310.589	3156
310.598	3158
310.652	3723
310.679	3589
310.706	3015
310.760	2388
310.769	2237
310.814	1870
310.859	1836
310.868	1926
310.923	2163
310.948	2405
310.977	2739
311.031	3262
311.038	3349
311.085	3204
311.128	2849
311.139	2791
311.193	2695
311.218	2603
311.247	2686
311.301	2880
311.308	2900
311.356	2495
311.398	2206
311.410	2270
311.464	2408
311.488	2555
311.518	2402
311.572	2002
311.578	1971
311.626	3175
311.668	4243
311.680	4177
311.734	3827
311.758	3661
311.788	3815
311.842	4114
311.847	4143
311.896	5018
311.937	5848
311.950	5898
312.004	6068
312.027	6116
312.058	5180
312.112	3539
312.117	3376
312.165	3134
312.207	2935
312.297	4791
312.386	4140
312.476	3053
312.566	5794
312.656	2645
312.745	2411
312.835	3027
312.925	3005
313.015	2554
313.104	3291
313.194	2442
313.284	2903
313.374	3061
313.463	3746
313.553	2798
313.643	2328
313.732	2260
313.822	2114
313.912	2422
314.001	3284
314.091	3645
314.180	4598
314.270	4432
314.360	4348
314.449	3288
314.539	2490
314.628	2577
314.718	2983
314.808	3273
314.897	2521
314.987	2387
315.076	2735
315.166	3187
315.255	3716
315.345	3648
315.434	3087
315.524	2707
315.613	2782
315.703	3604
315.792	4691
315.881	7472
315.971	5061
316.060	5759
316.150	8275
316.239	8064
316.328	3794
316.418	2944
316.507	2599
316.597	3153
316.686	3616
316.775	3415
316.865	7961
316.954	2542
317.043	2313
317.133	2162
317.222	1926
317.311	2115
317.400	655
317.490	2757
317.579	3597
317.668	2393
317.757	3419
317.847	6014
317.936	12450
318.025	10478
318.114	5488
318.203	4429
318.293	6448
318.382	12481
318.471	9988
318.560	13369
318.649	27671
318.738	7366
318.828	3193
318.917	4216
319.006	5063
319.095	10097
319.184	32045
319.273	19034
319.362	10116
319.451	3783
319.540	3711
319.629	6080
319.718	12417
319.807	6439
319.896	10132
319.985	38029
320.074	17313
320.163	4605
320.252	6379
320.341	6813
320.430	6872
320.519	6433
320.608	4427
320.697	4230
320.786	3875
320.875	4465
320.964	5306
321.053	8162
321.142	10684
321.230	12561
321.319	8420
321.408	21420
321.497	10414
321.586	8560
321.675	9537
321.764	9586
321.852	7983
321.941	12136
322.030	8999
322.119	7749
322.207	20885
322.296	14762
322.385	9702
322.474	9716
322.562	22381
322.651	15458
322.740	9263
322.829	12452
322.917	11599
323.006	7809
323.095	6904
323.183	5593
323.272	7571
323.361	11024
323.449	28326
323.538	11538
323.626	19598
323.715	14648
323.804	6522
323.892	18405
323.981	12234
324.069	5480
324.158	10054
324.246	11513
324.335	5166
324.424	8657
324.512	3730
324.601	5742
324.689	8790
324.778	17727
324.866	9198
324.954	3846
325.043	3321
325.131	4848
325.220	8275
325.308	10342
325.397	6860
325.485	5619
325.574	2245
325.662	1962
325.750	3199
325.839	2857
325.927	2539
326.015	3326
326.104	3488
326.192	4865
326.280	2145
326.369	2875
326.457	3914
326.545	7156
326.634	3746
326.722	1883
326.810	2433
326.898	2342
326.987	2189
327.075	5360
327.163	5534
327.251	3933
327.340	7335
327.428	12498
327.516	3310
327.604	2008
327.692	2819
327.781	3000
327.869	4196
327.957	3083
328.045	3286
328.133	1468
328.221	1990
328.309	2529
328.397	2346
328.485	2971
328.574	3260
328.662	11417
328.750	8152
328.838	3462
328.926	2585
329.014	2699
329.102	3317
329.190	9362
329.278	7080
329.366	2112
329.454	2016
329.542	2385
329.630	1802
329.718	2182
329.806	2867
329.893	3588
329.981	2841
330.069	4932
330.157	13610
330.245	39065
330.333	23781
330.421	4793
330.509	5076
330.597	13733
330.684	12122
330.772	5406
330.860	6735
330.948	9593
331.036	4946
331.123	1899
331.211	2184
331.299	3877
331.387	7619
331.475	14091
331.562	4049
331.650	2698
331.738	2429
331.825	3734
331.913	2086
332.001	1663
332.089	2721
332.176	4710
332.264	9746
332.352	9383
332.439	4116
332.527	2792
332.614	2162
332.702	2876
332.790	2369
332.877	4253
332.965	9579
333.052	3070
333.140	2470
333.228	5481
333.315	3051
333.403	2657
333.490	5721
333.578	5501
333.665	6773
333.753	4751
333.840	2577
333.928	2730
334.015	7000
334.103	11942
334.190	36212
334.278	13024
334.365	4661
334.452	3840
334.540	2818
334.627	2986
334.715	5000
334.802	8545
334.889	29622
334.977	35539
335.064	7068
335.151	3208
335.239	4278
335.326	5165
335.413	18251
335.501	28346
335.588	4613
335.675	3152
335.762	5079
335.850	9145
335.937	6176
336.024	11613
336.111	40109
336.199	22232
336.286	6224
336.373	3130
336.460	2181
336.547	2885
336.635	3607
336.722	2887
336.809	2603
336.896	4321
336.983	12508
337.070	31168
337.157	40344
337.245	22685
337.332	17490
337.419	3346
337.506	2527
337.593	3959
337.680	10838
337.767	34440
337.854	11263
337.941	12440
338.028	9305
338.115	3956
338.202	5424
338.289	7333
338.376	21934
338.463	9707
338.550	18408
338.637	22404
338.724	5847
338.811	8266
338.898	2164
338.984	1601
339.071	3242
339.158	3001
339.245	8369
339.332	4972
339.419	4817
339.506	5779
339.593	1399
339.679	2003
339.766	1937
339.853	2740
339.940	5852
340.027	2637
340.113	2367
340.200	2720
340.287	2641
340.374	1907
340.460	5562
340.547	2802
340.634	3931
340.720	13178
340.807	8825
340.894	1634
340.980	2065
341.067	2103
341.154	2075
341.240	3136
341.327	7407
341.414	2352
341.500	3254
341.587	2246
341.674	2301
341.760	5201
341.847	6436
341.933	2584
342.020	516
342.106	1226
342.193	1477
342.279	3172
342.366	2757
342.452	5003
342.539	2753
342.625	6960
342.712	15332
342.798	7163
342.885	3208
342.971	508
343.058	1662
343.144	1621
343.230	1373
343.317	1635
343.403	1935
343.490	1495
343.576	1642
343.662	1689
343.749	1921
343.835	2855
343.921	5244
344.008	18444
344.094	45902
344.180	13388
344.267	5366
344.353	12724
344.439	16080
344.525	7913
344.612	4916
344.698	4648
344.784	3553
344.870	1980
344.957	1866
345.043	3913
345.129	2068
345.215	4833
345.301	2643
345.387	2652
345.474	1378
345.560	1678
345.646	2729
345.732	1789
345.818	2088
345.904	1935
345.990	2010
346.076	1868
346.162	4063
346.249	2348
346.335	1433
346.421	2183
346.507	4719
346.593	17536
346.679	5679
346.765	2550
346.851	2825
346.937	2050
347.023	2309
347.108	2161
347.194	2335
347.280	1516
347.366	2194
347.452	5795
347.538	21568
347.624	18177
347.710	15981
347.796	4156
347.882	2294
347.967	1946
348.053	2921
348.139	2258
348.225	2050
348.311	1450
348.397	1706
348.482	2191
348.568	3271
348.654	1153
348.740	2398
348.825	1903
348.911	3988
348.997	9644
349.083	20992
349.168	4479
349.254	1964
349.340	1708
349.425	1869
349.511	2469
349.597	2937
349.682	4102
349.768	14632
349.854	8269
349.939	1988
350.025	1108
350.110	2109
350.196	1475
350.282	787
350.367	2019
350.453	2842
350.538	3027
350.624	2858
350.709	3168
350.795	1670
350.880	1300
350.966	2414
351.051	3061
351.137	2531
351.222	1596
351.308	4841
351.393	14465
351.479	4386
351.564	1523
351.649	1408
351.735	1628
351.820	1313
351.906	1636
351.991	2385
352.076	9163
352.162	15034
352.247	4188
352.332	2512
352.418	4284
352.503	5476
352.588	19418
352.673	18326
352.759	4926
352.844	2623
352.929	3147
353.014	3300
353.100	2392
353.185	4819
353.270	6284
353.355	6047
353.441	1520
353.526	2804
353.611	4408
353.696	5843
353.781	4276
353.866	1712
353.952	2020
354.037	4555
354.122	11619
354.207	9842
354.292	5056
354.377	1885
354.462	1454
354.547	2243
354.632	3520
354.717	4850
354.802	5279
354.887	2475
354.972	1953
355.057	1921
355.142	1436
355.227	2528
355.312	2857
355.397	6831
355.482	17447
355.567	9092
355.652	6318
355.737	6187
355.822	15683
355.907	16100
355.991	3113
356.076	1319
356.161	1953
356.246	869
356.331	2274
356.416	3524
356.501	22305
356.585	26451
356.670	4814
356.755	3856
356.840	4037
356.924	18603
357.009	58633
357.094	27656
357.179	7050
357.263	5000
357.348	4917
357.433	5424
357.517	4119
357.602	4027
357.687	2655
357.771	4593
357.856	13186
357.941	8581
358.025	13197
358.110	55733
358.195	32721
358.279	6788
358.364	4512
358.448	12246
358.533	34716
358.617	27766
358.702	25456
358.787	10868
358.871	6101
358.956	5046
359.040	2009
359.125	1376
359.209	2295
359.294	5771
359.378	10843
359.462	4993
359.547	3269
359.631	2411
359.716	1491
359.800	2145
359.885	4654
359.969	1812
360.053	2542
360.138	2782
360.222	3025
360.306	5688
360.391	5038
360.475	6893
360.559	17176
360.644	14333
360.728	11279
360.812	12943
360.896	37349
360.981	19342
361.065	13387
361.149	4125
361.233	3391
361.318	3041
361.402	2530
361.486	3865
361.570	2054
361.654	2873
361.739	6603
361.823	21596
361.907	38411
361.991	8657
362.075	4441
362.159	10847
362.243	9286
362.327	8171
362.411	10880
362.495	6010
362.580	3020
362.664	2584
362.748	3354
362.832	3704
362.916	5296
363.000	16973
363.084	36675
363.168	47319
363.252	14451
363.336	6151
363.420	7687
363.503	25538
363.587	35054
363.671	7365
363.755	4298
363.839	6457
363.923	3705
364.007	6433
364.091	7937
364.175	9293
364.258	44111
364.342	34773
364.426	35727
364.510	20163
364.594	10796
364.677	9895
364.761	31038
364.845	26118
364.929	9653
365.013	8992
365.096	5746
365.180	7967
365.264	10692
365.347	41946
365.431	21883
365.515	6359
365.598	1892
365.682	3662
365.766	6104
365.849	8716
365.933	3266
366.017	5261
366.100	4556
366.184	1609
366.267	3074
366.351	1969
366.435	791
366.518	1825
366.602	1813
366.685	2387
366.769	2388
366.852	5275
366.936	9426
367.019	4813
367.103	3240
367.186	10035
367.270	2826
367.353	1074
367.436	1788
367.520	1232
367.603	2643
367.687	3035
367.770	6936
367.853	4690
367.937	9174
368.020	17608
368.104	4595
368.187	4734
368.270	7520
368.353	6590
368.437	6556
368.520	15373
368.603	11727
368.687	12193
368.770	24487
368.853	7096
368.936	6441
369.020	8952
369.103	2581
369.186	1487
369.269	1627
369.352	4047
369.436	6785
369.519	4298
369.602	1470
369.685	3008
369.768	2403
369.851	1987
369.934	1169
370.018	2741
370.101	4874
370.184	5700
370.267	3816
370.350	5330
370.433	8907
370.516	15606
370.599	21778
370.682	6176
370.765	15550
370.848	17136
370.931	28315
371.014	14745
371.097	3313
371.180	3033
371.263	1920
371.346	862
371.429	1393
371.511	2326
371.594	2957
371.677	7726
371.760	10103
371.843	6021
371.926	20491
372.009	49906
372.091	21139
372.174	9971
372.257	23801
372.340	11383
372.423	11178
372.505	15448
372.588	5580
372.671	8399
372.754	26215
372.836	15316
372.919	13015
373.002	30323
373.085	9669
373.167	5500
373.250	11908
373.332	25437
373.415	31191
373.498	65098
373.580	30201
373.663	28177
373.746	43067
373.828	12484
373.911	6222
373.993	5955
374.076	24407
374.159	27015
374.241	9219
374.324	23860
374.406	18157
374.489	15984
374.571	51167
374.654	25763
374.736	10928
374.819	30397
374.901	46137
374.983	49572
375.066	11951
375.148	4601
375.231	18961
375.313	42917
375.395	18692
375.478	4445
375.560	2405
375.643	3552
375.725	9361
375.807	36739
375.890	34475
375.972	15848
376.054	8920
376.136	12608
376.219	5968
376.301	10586
376.383	34381
376.465	16007
376.548	10162
376.630	10803
376.712	29624
376.794	15657
376.877	2908
376.959	1509
377.041	2247
377.123	7047
377.205	9517
377.287	1771
377.369	1430
377.452	1749
377.534	1952
377.616	1101
377.698	2337
377.780	1202
377.862	1729
377.944	2526
378.026	1222
378.108	1485
378.190	1831
378.272	1554
378.354	568
378.436	1203
378.518	2959
378.600	13618
378.682	11499
378.764	17274
378.846	15092
378.928	5632
379.010	7036
379.091	4191
379.173	1957
379.255	1515
379.337	2187
379.419	7128
379.501	24770
379.583	11801
379.664	3686
379.746	6380
379.828	18020
379.910	24135
379.991	21715
380.073	4337
380.155	3039
380.237	2033
380.318	2119
380.400	1673
380.482	3074
380.564	6362
380.645	5978
380.727	6784
380.809	4576
380.890	1720
380.972	2285
381.053	1164
381.135	2650
381.217	5840
381.298	18509
381.380	10821
381.461	7298
381.543	26971
381.624	39409
381.706	9200
381.787	5565
381.869	5460
381.951	11380
382.032	47597
382.113	37050
382.195	9639
382.276	6771
382.358	10346
382.439	27035
382.521	28893
382.602	45420
382.684	23167
382.765	38375
382.846	41811
382.928	47820
383.009	29060
383.090	18333
383.172	61928
383.253	99906
383.334	40821
383.416	41150
383.497	24903
383.578	10330
383.659	17824
383.741	54000
383.822	141117
383.903	81724
383.984	31224
384.066	54122
384.147	37483
384.228	9818
384.309	6245
384.390	5708
384.471	3963
384.553	3860
384.634	6154
384.715	6517
384.796	3352
384.877	3792
384.958	13935
385.039	21790
385.120	9343
385.201	4506
385.282	5444
385.363	6425
385.444	5057
385.525	6567
385.606	20550
385.687	20374
385.768	6543
385.849	7207
385.930	23046
386.011	43444
386.092	14530
386.173	4777
386.254	3386
386.335	4259
386.416	3991
386.496	11102
386.577	20893
386.658	9350
386.739	4995
386.820	6160
386.901	5128
386.981	4745
387.062	2553
387.143	4328
387.224	16584
387.304	18573
387.385	8840
387.466	4391
387.547	6951
387.627	3981
387.708	6829
387.789	27367
387.869	36336
387.950	11699
388.031	3453
388.111	2275
388.192	10863
388.273	16136
388.353	8927
388.434	4381
388.514	5090
388.595	23085
388.676	34633
388.756	18816
388.837	17516
388.917	12046
388.998	2730
389.078	3246
389.159	2907
389.239	1203
389.320	3835
389.400	2935
389.480	6515
389.561	17742
389.641	10478
389.722	4510
389.802	5635
389.883	8047
389.963	19481
390.043	14091
390.124	5863
390.204	6594
390.284	20079
390.365	14008
390.445	17157
390.525	31570
390.605	25314
390.686	11409
390.766	4889
390.846	3128
390.927	1924
391.007	1771
391.087	2690
391.167	2936
391.247	1355
391.328	3931
391.408	7620
391.488	6147
391.568	1114
391.648	3135
391.728	5024
391.808	4656
391.888	4455
391.969	9321
392.049	16811
392.129	9949
392.209	8140
392.289	19371
392.369	13649
392.449	14770
392.529	9046
392.609	5510
392.689	6708
392.769	17644
392.849	17233
392.929	13010
393.009	29983
393.089	22943
393.169	16667
393.248	42934
393.328	161236
393.408	191745
393.488	61446
393.568	18434
393.648	9299
393.728	5759
393.807	3966
393.887	5510
393.967	4112
394.047	5342
394.127	6265
394.206	12198
394.286	32614
394.366	125637
394.446	153579
394.525	50438
394.605	14594
394.685	10094
394.764	20928
394.844	33134
394.924	24660
395.003	7233
395.083	4570
395.163	4264
395.242	3293
395.322	3442
395.402	2453
395.481	5393
395.561	10921
395.640	35781
395.720	27866
395.799	35834
395.879	33132
395.958	19370
396.038	51537
396.117	162088
396.197	193738
396.276	86722
396.356	31932
396.435	21731
396.515	12737
396.594	11148
396.673	17375
396.753	47201
396.832	154555
396.912	134510
396.991	38469
397.070	12126
397.150	5486
397.229	5806
397.308	6406
397.388	12162
397.467	7698
397.546	2901
397.625	674
397.705	3680
397.784	3342
397.863	2112
397.942	961
398.022	1885
398.101	8321
398.180	32097
398.259	20308
398.338	5164
398.417	2747
398.497	2000
398.576	2914
398.655	803
398.734	2079
398.813	2131
398.892	7879
398.971	31631
399.050	17611
399.129	1688
399.208	1607
399.287	1843
399.366	847
399.445	1174
399.524	2158
399.603	-100
399.682	3156
399.761	7927
399.840	32020
399.919	28774
399.998	4936
400.077	1029
400.156	203
400.235	2926
400.313	1087
400.392	1388
400.471	9566
400.550	17303
400.629	4915
400.708	2662
400.786	2311
400.865	8707
400.944	10297
401.023	5652
401.102	584
401.180	719
401.259	988
401.338	1737
401.416	2407
401.495	1969
401.574	2243
401.652	1576
401.731	2526
401.810	1975
401.888	794
401.967	596
402.046	1799
402.124	2385
402.203	3411
402.281	1952
402.360	2342
402.438	11296
402.517	8901
402.596	2930
402.674	2166
402.753	2149
402.831	1596
402.910	1810
402.988	5007
403.066	22843
403.145	15861
403.223	6979
403.302	18927
403.380	15699
403.459	16634
403.537	7140
403.615	2247
403.694	290
403.772	1007
403.850	1077
403.929	-8
404.007	177
404.085	3362
404.164	3807
404.242	1770
404.320	4996
404.398	19435
404.477	21680
404.555	37875
404.633	37994
404.711	17469
404.789	11293
404.868	2472
404.946	864
405.024	1117
405.102	430
405.180	756
405.258	-429
405.336	1585
405.415	258
405.493	4618
405.571	3544
405.649	879
405.727	278
405.805	2276
405.883	1479
405.961	2842
406.039	3252
406.117	423
406.195	2316
406.273	6494
406.351	33317
406.429	24420
406.507	5010
406.585	1643
406.663	615
406.740	2727
406.818	1474
406.896	887
406.974	1418
407.052	2296
407.130	18012
407.208	30406
407.285	7021
407.363	324
407.441	1208
407.519	1391
407.596	1354
407.674	3337
407.752	11946
407.830	15713
407.907	7724
407.985	1831
408.063	1750
408.141	879
408.218	2288
408.296	2331
408.373	1495
408.451	1638
408.529	875
408.606	19
408.684	1207
408.762	7
408.839	235
408.917	-203
408.994	443
409.072	-219
409.149	272
409.227	1411
409.304	1548
409.382	1668
409.459	1329
409.537	2568
409.614	2579
409.692	1986
409.769	1449
409.846	2504
409.924	4501
410.001	2082
410.079	2360
410.156	2205
410.233	1852
410.311	961
410.388	893
410.465	677
410.543	972
410.620	1029
410.697	542
410.775	1805
410.852	-203
410.929	1783
411.006	2257
411.083	813
411.161	2630
411.238	4261
411.315	3047
411.392	682
411.469	1819
411.547	2622
411.624	-117
411.701	892
411.778	730
411.855	2823
411.932	836
412.009	338
412.086	582
412.163	1498
412.240	1523
412.317	2215
412.394	1655
412.471	1208
412.548	40
412.625	138
412.702	1162
412.779	2653
412.856	1911
412.933	799
413.010	802
413.087	1069
413.164	8456
413.241	14988
413.318	3485
413.395	2008
413.471	3078
413.548	1635
413.625	900
413.702	275
413.779	1493
413.855	83
413.932	-659
414.009	-1356
414.086	415
414.162	938
414.239	1351
414.316	7436
414.393	22054
414.469	7518
414.546	699
414.623	120
414.699	601
414.776	1383
414.853	73
414.929	113
415.006	1000
415.082	1793
415.159	994
415.236	957
415.312	422
415.389	2136
415.465	2352
415.542	1646
415.618	-352
415.695	2182
415.771	564
415.848	426
415.924	1693
416.000	522
416.077	1452
416.153	-564
416.230	-985
416.306	-117
416.383	-47
416.459	477
416.535	107
416.612	-335
416.688	721
416.764	181
416.841	215
416.917	170
416.993	1313
417.069	1099
417.146	1041
417.222	2579
417.298	1480
417.374	61
417.451	878
417.527	467
417.603	1133
417.679	859
417.755	1060
417.831	-86
417.908	47
417.984	150
418.060	-689
418.136	2047
418.212	1902
418.288	425
418.364	974
418.440	-281
418.516	1938
418.592	2144
418.668	4900
418.744	6041
418.820	5509
418.896	1663
418.972	-221
419.048	331
419.124	2711
419.200	1734
419.276	1540
419.352	-266
419.428	453
419.504	414
419.579	1122
419.655	949
419.731	157
419.807	3363
419.883	6712
419.959	5627
420.034	1941
420.110	2378
420.186	12159
420.262	10961
420.337	2851
420.413	1164
420.489	-151
420.565	998
420.640	60
420.716	595
420.792	-348
420.867	1258
420.943	215
421.019	1840
421.094	1159
421.170	377
421.245	-370
421.321	843
421.397	821
421.472	2298
421.548	6007
421.623	6347
421.699	2608
421.774	2085
421.850	892
421.925	2993
422.001	2991
422.076	2862
422.152	3060
422.227	5622
422.302	7302
422.378	10915
422.453	18822
422.529	43869
422.604	102640
422.679	139459
422.755	120853
422.830	59099
422.905	24814
422.981	13511
423.056	8816
423.131	6877
423.207	4904
423.282	3271
423.357	6126
423.432	4099
423.508	3249
423.583	6822
423.658	6082
423.733	2503
423.808	2753
423.883	3042
423.959	2016
424.034	1566
424.109	1906
424.184	1206
424.259	683
424.334	452
424.409	-56
424.484	1610
424.559	1413
424.634	425
424.709	987
424.784	1992
424.859	787
424.934	2194
425.009	7997
425.084	15392
425.159	5858
425.234	733
425.309	359
425.384	2825
425.459	5171
425.534	2545
425.609	229
425.683	126
425.758	850
425.833	581
425.908	1865
425.983	3671
426.058	15906
426.132	7558
426.207	1217
426.282	2992
426.357	2515
426.431	618
426.506	964
426.581	1098
426.655	727
426.730	236
426.805	-40
426.879	1275
426.954	1059
427.029	1570
427.103	10936
427.178	30179
427.253	14986
427.327	2274
427.402	2209
427.476	8361
427.551	3849
427.625	1822
427.700	1237
427.774	66
427.849	2212
427.923	71
427.998	541
428.072	854
428.147	3046
428.221	10710
428.296	36095
428.370	20963
428.444	3456
428.519	4239
428.593	8497
428.667	7829
428.742	9333
428.816	8393
428.890	23296
428.965	40811
429.039	14104
429.113	11346
429.188	4463
429.262	880
429.336	1932
429.410	7284
429.485	5210
429.559	7299
429.633	6881
429.707	1197
429.781	3995
429.855	26330
429.930	43911
430.004	23952
430.078	36778
430.152	33971
430.226	41490
430.300	48850
430.374	9584
430.448	2851
430.522	9011
430.596	32887
430.670	21355
430.744	32721
430.818	52834
430.892	12547
430.966	1614
431.040	744
431.114	128
431.188	556
431.262	291
431.336	298
431.410	3524
431.484	9130
431.557	7236
431.631	1070
431.705	898
431.779	4743
431.853	28328
431.927	24401
432.000	3061
432.074	760
432.148	1697
432.222	918
432.295	300
432.369	-393
432.443	875
432.516	9799
432.590	30603
432.664	14135
432.737	1495
432.811	161
432.885	455
432.958	859
433.032	260
433.106	-216
433.179	-1008
433.253	-95
433.326	-106
433.400	258
433.473	-416
433.547	-950
433.620	-176
433.694	867
433.767	1462
433.841	16
433.914	-556
433.988	-223
434.061	333
434.134	382
434.208	-546
434.281	-129
434.355	-822
434.428	-543
434.501	418
434.575	-551
434.648	-51
434.721	0
434.795	-705
434.868	-440
434.941	-1006
435.014	-963
435.088	-951
435.161	391
435.234	1146
435.307	1552
435.381	748
435.454	95
435.527	1631
435.600	1050
435.673	1089
435.746	857
435.819	439
435.892	411
435.966	502
436.039	-126
436.112	-161
436.185	-580
436.258	-392
436.331	-909
436.404	-278
436.477	-524
436.550	-808
436.623	-245
436.696	-393
436.769	472
436.842	-845
436.915	230
436.987	1061
437.060	74
437.133	113
437.206	9
437.279	516
437.352	-379
437.425	-341
437.498	389
437.570	1149
437.643	1772
437.716	-14
437.789	-7
437.861	738
437.934	4499
438.007	1138
438.080	-539
438.152	81
438.225	1842
438.298	10897
438.370	38533
438.443	19120
438.516	4868
438.588	719
438.661	-458
438.734	109
438.806	169
438.879	550
438.951	389
439.024	1694
439.096	420
439.169	192
439.241	-294
439.314	-431
439.386	757
439.459	2116
439.531	2300
439.604	819
439.676	46
439.749	-504
439.821	-433
439.893	94
439.966	83
440.038	-300
440.110	372
440.183	-226
440.255	-481
440.327	1429
440.400	5261
440.472	26640
440.544	19349
440.617	2597
440.689	1809
440.761	1975
440.833	3873
440.905	2931
440.978	14
441.050	-62
441.122	126
441.194	-18
441.266	-391
441.338	-588
441.411	107
441.483	7664
441.555	14042
441.627	3241
441.699	1831
441.771	1791
441.843	4
441.915	733
441.987	144
442.059	-271
442.131	621
442.203	1548
442.275	1310
442.347	1688
442.419	2665
442.491	12160
442.563	39278
442.635	20445
442.706	10738
442.778	8272
442.850	1482
442.922	388
442.994	1230
443.066	2001
443.137	913
443.209	714
443.281	1952
443.353	4497
443.425	17826
443.496	63958
443.568	71368
443.640	27669
443.711	5635
443.783	2322
443.855	1572
443.926	547
443.998	1280
444.070	1392
444.141	985
444.213	1146
444.285	2233
444.356	362
444.428	1662
444.499	360
444.571	-37
444.642	805
444.714	976
444.785	1438
444.857	2448
444.928	7142
445.000	5123
445.071	4310
445.143	6000
445.214	2945
445.285	5122
445.357	17724
445.428	41624
445.500	100658
445.571	73263
445.642	37342
445.714	15303
445.785	14668
445.856	4650
445.928	2179
445.999	2511
446.070	1691
446.141	1488
446.213	2065
446.284	369
446.355	2163
446.426	1080
446.497	374
446.569	2108
446.640	3434
446.711	1419
446.782	102
446.853	1
446.924	576
446.995	674
447.066	720
447.138	2640
447.209	1386
447.280	-898
447.351	371
447.422	-231
447.493	838
447.564	578
447.635	1263
447.706	74
447.777	-200
447.847	97
447.918	-603
447.989	2128
448.060	1333
448.131	4496
448.202	4122
448.273	2974
448.344	154
448.414	330
448.485	-53
448.556	149
448.627	-631
448.698	723
448.768	-582
448.839	273
448.910	2155
448.981	2296
449.051	302
449.122	104
449.193	-788
449.263	-21
449.334	-534
449.405	607
449.475	2715
449.546	1455
449.616	3016
449.687	2558
449.758	520
449.828	-206
449.899	-280
449.969	-287
450.040	-119
450.110	400
450.181	453
450.251	-265
450.322	133
450.392	-317
450.463	978
450.533	-485
450.604	147
450.674	126
450.744	150
450.815	-846
450.885	534
450.955	322
451.026	230
451.096	90
451.166	335
451.237	2312
451.307	9085
451.377	3261
451.447	432
451.518	174
451.588	605
451.658	261
451.728	954
451.799	7979
451.869	10519
451.939	1525
452.009	265
452.079	-635
452.149	792
452.219	1255
452.289	10233
452.360	7978
452.430	1282
452.500	91
452.570	1458
452.640	2283
452.710	6591
452.780	11819
452.850	7039
452.920	4337
452.990	994
453.060	810
453.129	1544
453.199	2910
453.269	8618
453.339	21638
453.409	34706
453.479	33110
453.549	49502
453.619	56671
453.688	23729
453.758	3485
453.828	742
453.898	1161
453.968	283
454.037	1577
454.087	729
454.107	364
454.168	625
454.177	640
454.247	708
454.249	708
454.316	336
454.330	519
454.386	1160
454.411	2737
454.456	4717
454.492	6918
454.525	8759
454.574	4128
454.595	2184
454.655	1070
454.665	915
454.734	1464
454.736	1565
454.804	3589
454.817	5206
454.873	9951
454.898	11043
454.943	12253
454.979	7772
455.013	4103
455.060	2255
455.082	1884
455.141	3113
455.152	3211
455.221	8997
455.222	9260
455.291	17098
455.303	16636
455.360	13770
455.384	17857
455.430	23502
455.465	19343
455.499	15230
455.546	13632
455.569	12245
455.627	7821
455.638	7229
455.707	1551
455.708	1571
455.777	1076
455.789	1034
455.846	726
455.869	935
455.916	1350
455.950	1547
455.985	1645
456.031	1240
456.054	998
456.112	850
456.124	857
456.193	1181
456.193	1159
456.262	1372
456.274	1635
456.332	2690
456.355	2404
456.401	1392
456.436	1256
456.470	1172
456.516	1135
456.540	1119
456.597	451
456.609	345
456.678	1071
456.678	1056
456.747	709
456.759	829
456.817	1229
456.840	936
456.886	496
456.920	905
456.955	1263
457.001	1415
457.024	1711
457.082	2651
457.093	2728
457.162	3173
457.163	3200
457.232	3283
457.243	3185
457.301	2011
457.324	1607
457.370	1285
457.405	1356
457.439	1456
457.485	1602
457.508	1737
457.566	2027
457.577	2023
457.646	2768
457.647	2784
457.715	4055
457.727	4309
457.784	6734
457.808	8154
457.853	9834
457.889	12329
457.922	12185
457.969	8638
457.991	8839
458.050	10643
458.060	11102
458.129	16733
458.130	16947
458.198	17212
458.211	16207
458.267	9217
458.292	6269
458.336	4579
458.372	4009
458.405	5024
458.453	7490
458.474	9981
458.533	17837
458.543	18710
458.611	29543
458.614	29886
458.680	19119
458.694	15609
458.749	8030
458.775	5397
458.818	3430
458.855	3140
458.887	3047
458.936	2655
458.955	2604
459.016	2696
459.024	2719
459.093	3098
459.097	3109
459.162	3100
459.177	3165
459.230	3536
459.257	4120
459.299	4626
459.338	4306
459.368	4196
459.418	4715
459.437	4471
459.499	3063
459.505	3013
459.574	2843
459.579	2830
459.643	2748
459.659	2906
459.711	3233
459.740	3301
459.780	3628
459.820	3892
459.849	4182
459.900	4709
459.917	4657
459.981	4688
459.986	4659
460.054	4333
460.061	4284
460.123	4209
460.141	4207
460.191	4808
460.222	5356
460.260	5889
460.302	6544
460.328	6279
460.382	5285
460.397	5206
460.462	4950
460.465	5011
460.534	7310
460.543	7472
460.602	16510
460.623	20364
460.671	33893
460.703	45018
460.739	42621
460.783	37976
460.808	31730
460.864	8901
460.876	7446
460.944	5165
460.945	5136
461.013	4179
461.024	4112
461.081	4189
461.104	4264
461.150	4419
461.184	4405
461.218	3983
461.264	3615
461.286	4004
461.345	4640
461.355	4566
461.423	4415
461.425	4417
461.491	5126
461.505	5247
461.559	9250
461.585	11198
461.628	20052
461.665	27829
461.696	31244
461.745	39399
461.764	33652
461.825	9838
461.832	9411
461.901	5696
461.905	5556
461.969	5121
461.985	5108
462.037	4903
462.065	4882
462.105	5770
462.145	6234
462.173	9679
462.225	16366
462.241	18357
462.305	27479
462.310	26721
462.378	14465
462.385	12806
462.446	6580
462.465	4954
462.514	4675
462.545	4773
462.582	5014
462.625	5143
462.650	5040
462.705	5286
462.718	5613
462.785	6574
462.786	6628
462.854	9890
462.865	10462
462.922	13882
462.945	15283
462.990	10732
463.025	6690
463.058	5804
463.104	4831
463.126	4755
463.184	4553
463.194	4618
463.262	5123
463.264	5140
463.330	5637
463.344	5776
463.398	7138
463.424	7580
463.466	7384
463.504	7576
463.533	7514
463.583	7012
463.601	7287
463.663	8521
463.669	8685
463.737	10146
463.743	10310
463.805	17001
463.823	18918
463.873	30383
463.903	37531
463.940	42018
463.982	47294
464.008	37254
464.062	14422
464.076	13129
464.142	6464
464.144	6414
464.211	5174
464.221	5059
464.279	6184
464.301	6565
464.347	7145
464.381	7522
464.414	8963
464.461	10920
464.482	11290
464.540	12585
464.550	12077
464.617	7689
464.620	7540
464.685	8114
464.699	8238
464.753	9651
464.779	10278
464.820	11627
464.859	12977
464.888	13005
464.938	12918
464.956	13375
465.018	14875
465.023	14609
465.091	10804
465.098	10394
465.158	9610
465.177	9422
465.226	9597
465.257	9595
465.293	10233
465.336	11027
465.361	11590
465.416	12781
465.428	13767
465.495	18979
465.496	19114
465.563	35393
465.575	38199
465.631	49743
465.654	54779
465.698	33682
465.734	15431
465.765	12616
465.813	8498
465.833	8676
465.893	9448
465.900	9417
465.968	9163
465.972	9121
466.035	8701
466.052	8581
466.102	8800
466.131	8876
466.170	9039
466.210	9254
466.237	9363
466.290	9435
466.304	9557
466.369	10084
466.372	10164
466.439	11934
466.449	12174
466.506	13202
466.528	13547
466.573	17873
466.607	21093
466.641	32662
466.687	48678
466.708	56052
466.766	76320
466.775	70477
466.842	25321
466.845	23124
466.909	14967
466.925	13044
466.977	12729
467.004	12570
467.044	12769
467.083	12907
467.111	13969
467.163	15907
467.178	16534
467.242	18992
467.245	18934
467.312	16957
467.321	16662
467.379	17258
467.400	17424
467.446	19445
467.480	20843
467.559	19130
467.638	14317
467.717	13851
467.796	15512
467.875	17722
467.955	17542
468.034	25008
468.113	58316
468.192	93810
468.271	28743
468.350	14496
468.429	16515
468.508	16222
468.588	14311
468.667	14791
468.746	16560
468.825	16242
468.904	13976
468.983	15328
469.062	24562
469.141	33498
469.220	14977
469.299	13063
469.378	14531
469.456	15528
469.535	13916
469.614	14657
469.693	15329
469.772	20614
469.851	28998
469.930	21962
470.009	13417
470.088	12738
470.166	13151
470.245	13479
470.324	15519
470.403	15600
470.482	12988
470.560	12125
470.639	12137
470.718	14042
470.797	13528
470.875	14808
470.954	22527
471.033	26071
471.111	11583
471.190	11049
471.269	10393
471.347	10242
471.426	11309
471.505	13784
471.583	14419
471.662	13117
471.740	11759
471.819	12352
471.898	11457
471.976	11992
472.055	11349
472.133	13099
472.212	19721
472.290	20974
472.369	13845
472.447	11154
472.526	10313
472.604	11547
472.683	11791
472.761	12383
472.839	10737
472.918	11990
472.996	11280
473.075	14127
473.153	13268
473.231	11227
473.310	13695
473.388	13310
473.466	12951
473.545	12151
473.623	14856
473.701	15601
473.780	11801
473.858	11764
473.936	13937
474.014	12093
474.093	13266
474.171	19475
474.249	30323
474.327	22212
474.405	10447
474.484	9534
474.562	10140
474.640	10801
474.718	12449
474.796	11856
474.874	9674
474.952	9423
475.030	9556
475.108	10352
475.187	11060
475.265	11014
475.343	15886
475.421	17498
475.499	13104
475.577	12552
475.655	15222
475.733	32488
475.811	60844
475.889	57764
475.966	41798
476.044	11790
476.122	12436
476.200	16039
476.278	14380
476.356	11370
476.434	12309
476.512	12962
476.590	16071
476.667	15696
476.745	10612
476.823	11110
476.901	10477
476.979	12452
477.056	11816
477.134	11968
477.212	11448
477.290	11480
477.367	10148
477.445	10076
477.523	9292
477.601	10618
477.678	10034
477.756	14300
477.834	17202
477.911	10381
477.989	10652
478.066	10960
478.144	12148
478.222	13884
478.299	17077
478.377	18201
478.454	10112
478.532	9429
478.609	10043
478.687	10536
478.764	8482
478.842	9521
478.919	10810
478.997	10028
479.074	8872
479.152	11948
479.229	16406
479.307	10890
479.384	9156
479.461	8398
479.539	10544
479.616	13181
479.694	10922
479.771	11412
479.848	11999
479.926	16564
480.003	20199
480.080	9513
480.157	9026
480.235	9420
480.312	9754
480.389	10580
480.467	18669
480.544	26550
480.621	12924
480.698	11496
480.775	12629
480.853	13820
480.930	10996
481.007	10716
481.084	13840
481.161	14242
481.238	13880
481.315	9827
481.392	9070
481.470	10000
481.547	11046
481.624	9988
481.701	10531
481.778	10442
481.855	12492
481.932	17827
482.009	33475
482.086	25576
482.163	11087
482.240	12486
482.317	21098
482.393	18367
482.470	11081
482.547	10322
482.624	10030
482.701	10811
482.778	10248
482.855	8774
482.932	8740
483.009	7931
483.085	8804
483.162	11674
483.239	11353
483.316	8814
483.393	9487
483.469	9366
483.546	11034
483.623	13160
483.699	9475
483.776	10714
483.853	12672
483.930	15751
484.006	44402
484.083	87078
484.160	40699
484.236	44300
484.313	36803
484.389	28664
484.466	25894
484.543	23366
484.619	24327
484.696	25227
484.772	26850
484.849	30692
484.925	24246
485.002	22854
485.078	23551
485.155	24801
485.231	21610
485.308	21567
485.384	23045
485.461	26174
485.537	48488
485.614	64300
485.690	25228
485.766	20562
485.843	20398
485.919	25496
485.995	28253
486.072	18993
486.148	19376
486.224	18663
486.301	19139
486.377	23739
486.453	23542
486.530	22659
486.606	28305
486.682	33132
486.758	40477
486.835	52571
486.911	37668
486.987	60368
487.063	56056
487.139	54504
487.215	42841
487.292	26293
487.368	22032
487.444	24012
487.520	28026
487.596	28226
487.672	34827
487.748	71027
487.824	118742
487.900	57644
487.976	27154
488.052	24715
488.128	27557
488.204	24360
488.280	22664
488.356	24582
488.432	52816
488.508	94072
488.584	33274
488.660	18463
488.736	18825
488.812	18290
488.888	22537
488.964	26577
489.039	44792
489.115	72909
489.191	51261
489.267	20586
489.343	19365
489.418	16461
489.494	16322
489.570	15411
489.646	17027
489.722	16505
489.797	18165
489.873	26890
489.949	64405
490.024	63671
490.100	17948
490.176	16200
490.251	17378
490.327	21885
490.403	15919
490.478	14630
490.554	12766
490.629	13056
490.705	13318
490.781	14572
490.856	14182
490.932	16588
491.007	15624
491.083	15906
491.158	15290
491.234	20124
491.309	48808
491.385	58503
491.460	18316
491.536	17991
491.611	13538
491.686	14302
491.762	18200
491.837	30721
491.913	54231
491.988	72817
492.063	94273
492.139	39474
492.214	27129
492.289	11867
492.365	10534
492.440	14442
492.515	15356
492.590	15018
492.666	13014
492.741	16872
492.816	30558
492.891	17298
492.967	12588
493.042	10395
493.117	12112
493.192	13933
493.267	20159
493.342	61982
493.418	103303
493.493	22701
493.568	10815
493.643	11213
493.718	13874
493.793	22199
493.868	22858
493.943	13272
494.018	11184
494.093	11831
494.168	11179
494.243	10072
494.318	9686
494.393	9106
494.468	9290
494.543	8690
494.618	10782
494.693	10477
494.768	10134
494.842	10911
494.917	8996
494.992	9434
495.067	8618
495.142	7818
495.217	9987
495.292	9554
495.366	11203
495.441	13802
495.516	19333
495.591	20006
495.665	53459
495.740	138127
495.815	74507
495.890	17882
495.964	13439
496.039	15185
496.114	13230
496.188	14596
496.263	14820
496.338	13133
496.412	15688
496.487	18261
496.561	16575
496.636	17668
496.710	14435
496.785	15460
496.860	19491
496.934	14510
497.009	13407
497.083	14215
497.158	14723
497.232	16953
497.307	23177
497.381	17576
497.455	20247
497.530	30459
497.604	21148
497.679	20278
497.753	32126
497.827	42575
497.902	34573
497.976	38077
498.050	70558
498.125	274543
498.199	341644
498.273	57072
498.348	33474
498.422	28757
498.496	27347
498.570	26241
498.645	21477
498.719	21314
498.793	27625
498.867	40806
498.941	55112
499.016	107497
499.090	341942
499.164	152816
499.238	20404
499.312	15535
499.386	18083
499.460	18341
499.534	16759
499.609	20445
499.683	35481
499.757	33876
499.831	51249
499.905	215460
499.979	255659
500.053	47289
500.127	41149
500.201	25001
500.275	17104
500.349	16487
500.422	19864
500.496	24429
500.570	44670
500.644	115822
500.718	268228
500.792	74980
500.866	19009
500.940	24797
501.013	22101
501.087	18771
501.161	30094
501.235	41118
501.309	82950
501.382	233863
501.456	242066
501.530	51241
501.603	94655
501.677	42948
501.751	15941
501.825	18560
501.898	31587
501.972	103230
502.046	80315
502.119	20321
502.193	39351
502.266	116988
502.340	66533
502.413	46288
502.487	108273
502.561	69357
502.634	22083
502.708	12948
502.781	11531
502.855	9673
502.928	9653
503.002	10019
503.075	9264
503.149	10895
503.222	12066
503.295	13740
503.369	18574
503.442	23515
503.516	66587
503.589	204373
503.662	153321
503.736	42740
503.809	93815
503.882	84273
503.956	99352
504.029	109167
504.102	48975
504.175	62152
504.249	30235
504.322	20149
504.395	17788
504.468	11988
504.542	12017
504.615	9478
504.688	8841
504.761	8178
504.834	11043
504.907	10970
504.980	18069
505.053	11391
505.127	11647
505.200	15693
505.273	17946
505.346	11167
505.419	8788
505.492	7754
505.565	6622
505.638	6276
505.711	7044
505.784	7362
505.857	6648
505.930	7872
506.003	8158
506.076	8905
506.149	13002
506.221	18122
506.294	16141
506.367	31413
506.440	131069
506.513	85825
506.586	20209
506.659	11662
506.731	7733
506.804	9370
506.877	13719
506.950	11580
507.022	6663
507.095	11020
507.168	16057
507.241	8376
507.313	7220
507.386	7736
507.459	9302
507.531	7844
507.604	6344
507.677	7733
507.749	6020
507.822	8944
507.894	14992
507.967	20881
508.040	12339
508.112	11506
508.185	11566
508.257	9053
508.330	12816
508.402	10583
508.475	11867
508.547	11731
508.620	11249
508.692	20183
508.765	12767
508.837	7899
508.909	8350
508.982	7889
509.054	9438
509.127	8394
509.199	7396
509.271	7097
509.344	6804
509.416	7518
509.488	8847
509.560	7561
509.633	8135
509.705	9246
509.777	9375
509.849	12726
509.922	10318
509.994	9277
510.066	9770
510.138	8719
510.210	16996
510.283	16264
510.355	13836
510.427	12018
510.499	11161
510.571	11254
510.643	10287
510.715	15800
510.787	14117
510.859	11647
510.931	12988
511.003	15452
511.076	15974
511.148	9627
511.219	10955
511.291	17595
511.363	26054
511.435	10549
511.507	8072
511.579	9686
511.651	9748
511.723	8517
511.795	8579
511.867	9206
511.939	11931
512.010	26840
512.082	24349
512.154	9256
512.226	10247
512.298	12457
512.369	19379
512.441	15596
512.513	14234
512.585	10473
512.656	12431
512.728	13057
512.800	10753
512.871	8901
512.943	10903
513.015	7606
513.086	10003
513.158	10274
513.230	10429
513.301	12919
513.373	15851
513.444	9998
513.516	9436
513.588	9057
513.659	9227
513.731	11297
513.802	10355
513.874	17026
513.945	31227
514.016	14805
514.088	9229
514.159	9824
514.231	12183
514.302	17761
514.374	13906
514.445	13190
514.516	31346
514.588	25035
514.659	13916
514.730	28075
514.802	21377
514.873	11790
514.944	14359
515.016	12693
515.087	13873
515.158	17440
515.229	29575
515.301	13601
515.372	15994
515.443	12771
515.514	10810
515.585	8364
515.656	10227
515.728	8675
515.799	8334
515.870	9404
515.941	9102
516.012	9761
516.083	12323
516.154	12949
516.225	14958
516.296	14965
516.367	12982
516.438	14096
516.509	16622
516.580	21620
516.651	44027
516.722	167725
516.793	105878
516.864	26506
516.935	24526
517.006	26368
517.077	32449
517.148	58184
517.219	148494
517.289	301631
517.360	163678
517.431	68531
517.502	17281
517.573	15911
517.643	13193
517.714	16049
517.785	15791
517.856	15636
517.926	19531
517.997	20040
518.068	23723
518.138	29076
518.209	35929
518.280	91535
518.350	373866
518.421	201665
518.492	32485
518.562	21474
518.633	23621
518.703	20688
518.774	31846
518.845	63060
518.915	70826
518.986	33139
519.056	23382
519.127	32965
519.197	46586
519.268	130978
519.338	109306
519.408	25471
519.479	21686
519.549	17739
519.620	13257
519.690	10795
519.760	10559
519.831	11084
519.901	11542
519.971	9668
520.042	10978
520.112	13356
520.182	13610
520.253	15417
520.323	12386
520.393	13201
520.463	21384
520.534	13453
520.604	30250
520.674	17773
520.744	16641
520.814	29838
520.885	32749
520.955	36719
521.025	157402
521.095	81719
521.165	15140
521.235	12081
521.305	10990
521.375	9049
521.445	10193
521.515	12419
521.585	13644
521.655	13308
521.725	12230
521.795	12361
521.865	9020
521.935	16983
522.005	16415
522.075	10179
522.145	10617
522.215	13757
522.285	19796
522.355	23152
522.424	48436
522.494	46920
522.564	20168
522.634	21626
522.704	66043
522.774	33897
522.843	10727
522.913	9753
522.983	11808
523.053	9939
523.122	10179
523.192	11233
523.262	31205
523.331	39877
523.401	12210
523.471	7783
523.540	7860
523.610	7277
523.680	8372
523.749	7792
523.819	12249
523.888	12463
523.958	7129
524.027	8410
524.097	9672
524.166	7762
524.236	8129
524.305	9549
524.375	7549
524.444	7738
524.514	10101
524.583	8148
524.653	12402
524.722	13921
524.791	9312
524.861	9570
524.930	7543
524.999	7814
525.069	12095
525.138	10777
525.207	15197
525.277	9910
525.346	8696
525.415	8963
525.484	8579
525.554	11525
525.623	11587
525.692	9923
525.761	11207
525.830	11697
525.900	12963
525.969	18277
526.038	26730
526.107	39719
526.176	124856
526.245	122936
526.314	43116
526.383	66962
526.452	97436
526.522	134314
526.591	181977
526.660	56482
526.729	29703
526.797	30301
526.867	44271
526.935	167304
527.004	323817
527.073	226469
527.142	30818
527.211	13858
527.280	11716
527.349	12254
527.418	7586
527.487	8732
527.555	6969
527.624	7220
527.693	6183
527.762	8062
527.831	6215
527.899	7930
527.968	7034
528.037	6846
528.106	8883
528.174	13886
528.243	14169
528.312	16930
528.380	24355
528.449	9003
528.518	7908
528.586	4624
528.655	6086
528.723	6685
528.792	5835
528.861	6736
528.929	6528
528.998	6678
529.066	6285
529.135	6318
529.203	6805
529.272	6147
529.340	10159
529.409	9375
529.477	8172
529.545	10137
529.614	14185
529.682	11580
529.751	17245
529.819	15753
529.887	13789
529.956	10164
530.024	10270
530.092	8921
530.161	10577
530.229	12037
530.297	11117
530.365	9332
530.434	9197
530.502	8361
530.570	8249
530.638	6834
530.707	9085
530.775	9776
530.843	8149
530.911	9464
530.979	8907
531.047	8818
531.115	9194
531.183	8036
531.252	9066
531.320	7700
531.388	8541
531.456	8477
531.524	8687
531.592	9746
531.660	10709
531.728	8369
531.796	9240
531.864	8499
531.932	9238
532.000	9428
532.067	9357
532.135	10703
532.203	12028
532.271	11095
532.339	15455
532.407	30173
532.475	24325
532.542	14309
532.610	14202
532.678	15737
532.746	39388
532.814	126094
532.881	42935
532.949	13835
533.017	10987
533.084	9519
533.152	9854
533.220	8902
533.287	9944
533.355	9538
533.423	10291
533.490	9116
533.558	10024
533.625	9375
533.693	10184
533.761	10186
533.828	10972
533.896	9313
533.963	15178
534.031	18490
534.098	23861
534.166	16196
534.233	10723
534.300	11342
534.368	11338
534.435	10479
534.503	9743
534.570	11054
534.637	11755
534.705	11535
534.772	13209
534.840	15960
534.907	50931
534.974	85356
535.041	18814
535.109	13738
535.176	9214
535.243	9232
535.310	8459
535.378	8845
535.445	8618
535.512	7928
535.579	8050
535.646	7322
535.714	7283
535.781	10597
535.848	10352
535.915	10772
535.982	9735
536.049	10308
536.116	11258
536.183	8956
536.250	8599
536.317	9345
536.384	9874
536.451	11633
536.518	12810
536.585	9039
536.652	13876
536.719	14926
536.786	11847
536.853	10629
536.920	14938
536.987	20859
537.053	17655
537.120	53224
537.187	63791
537.254	11165
537.321	8776
537.388	9547
537.454	7136
537.521	8390
537.588	6618
537.654	9399
537.721	9317
537.788	9323
537.855	8082
537.921	7280
537.988	8033
538.055	7997
538.121	8895
538.188	8592
538.254	10750
538.321	17559
538.388	13864
538.454	8542
538.521	8504
538.587	7908
538.654	7426
538.720	7570
538.787	7592
538.853	8770
538.920	10643
538.986	10510
539.053	9619
539.119	9319
539.185	8621
539.252	9935
539.318	13081
539.385	12061
539.451	11418
539.517	10889
539.583	12589
539.650	18605
539.716	51763
539.782	20286
539.849	8276
539.915	9758
539.981	8491
540.047	9600
540.114	9104
540.180	9622
540.246	9346
540.312	11046
540.378	18393
540.444	20286
540.510	18535
540.576	53050
540.643	24067
540.709	8880
540.775	9014
540.841	8810
540.907	11361
540.973	18002
541.039	13404
541.105	13717
541.171	9310
541.237	8537
541.303	9573
541.369	10321
541.435	10589
541.500	15910
541.566	11642
541.632	8289
541.698	7166
541.764	8030
541.830	8619
541.896	7510
541.961	8645
542.027	8039
542.093	8873
542.159	8795
542.224	9022
542.290	12669
542.356	15563
542.421	18498
542.487	11626
542.553	9384
542.618	11270
542.684	9821
542.750	9190
542.815	10625
542.881	14392
542.947	42977
543.012	41849
543.078	9204
543.143	8470
543.209	10040
543.274	8642
543.340	10806
543.405	16475
543.471	31498
543.536	11575
543.602	8480
543.667	7695
543.732	9248
543.798	8426
543.863	8868
543.928	7327
543.994	7509
544.059	7304
544.124	7785
544.190	7314
544.255	7907
544.320	8891
544.386	9053
544.451	10782
544.516	11626
544.581	10851
544.646	25671
544.712	52518
544.777	15552
544.842	11875
544.907	12788
544.972	10565
545.037	11093
545.102	12367
545.168	10965
545.233	12818
545.298	12583
545.363	14481
545.428	14125
545.493	18760
545.558	39450
545.623	23097
545.688	12007
545.753	12098
545.818	10661
545.883	12665
545.947	11699
546.012	13708
546.077	13283
546.142	12842
546.207	11585
546.272	13828
546.337	14858
546.401	13011
546.466	11786
546.531	11557
546.596	13140
546.661	13229
546.725	12606
546.790	12038
546.855	12741
546.919	12089
546.984	14199
547.049	14750
547.113	17859
547.178	16406
547.243	17794
547.307	20332
547.372	22395
547.436	24705
547.501	20760
547.565	21677
547.630	20709
547.695	22585
547.759	25158
547.823	24176
547.888	20620
547.952	20045
548.017	20723
548.081	23747
548.146	29713
548.210	27434
548.274	21756
548.339	21277
548.403	20791
548.468	19735
548.532	18984
548.596	21059
548.660	20034
548.725	21053
548.789	24539
548.853	26913
548.917	22350
548.982	27476
549.046	29322
549.110	19831
549.174	20011
549.238	20431
549.303	21287
549.367	22513
549.431	21879
549.495	21125
549.559	20648
549.623	23241
549.687	26023
549.751	29386
549.815	28499
549.879	29237
549.943	26817
550.007	28366
550.071	29161
550.135	29871
550.199	27244
550.263	26337
550.327	26503
550.391	31387
550.455	29185
550.519	28053
550.582	29709
550.646	33403
550.710	36528
550.774	32350
550.838	32032
550.901	33128
550.965	36947
551.029	37364
551.093	41734
551.156	48598
551.220	70498
551.284	81530
551.347	50645
551.411	69267
551.475	83988
551.538	38554
551.602	33054
551.666	31642
551.729	29506
551.793	29961
551.856	29758
551.920	29392
551.983	30896
552.047	28342
552.110	28339
552.174	28757
552.237	28083
552.301	28258
552.364	27495
552.428	26512
552.491	26272
552.554	27975
552.618	27412
552.681	29154
552.745	28299
552.808	31849
552.871	35374
552.934	31793
552.998	28641
553.061	30276
553.124	29046
553.187	28631
553.251	30934
553.314	31910
553.377	32697
553.440	38154
553.503	70745
553.567	132121
553.630	48161
553.693	31881
553.756	31692
553.819	30719
553.882	30068
553.945	30268
554.008	29256
554.071	28948
554.134	29364
554.197	27411
554.260	27244
554.323	29158
554.386	30102
554.449	29132
554.512	29519
554.575	27744
554.638	28372
554.701	28494
554.764	27782
554.827	27956
554.889	26827
554.952	26184
555.015	24923
555.078	25754
555.141	25981
555.203	25950
555.266	24621
555.329	25692
555.391	23277
555.454	23908
555.517	24606
555.580	23103
555.642	22240
555.705	21824
555.768	21943
555.830	22230
555.893	21551
555.955	21000
556.018	20168
556.080	20039
556.143	20478
556.206	20788
556.268	21205
556.330	21092
556.393	20013
556.455	20803
556.518	24057
556.580	26649
556.643	18523
556.705	17363
556.767	17145
556.830	18619
556.892	17882
556.955	21222
557.017	20138
557.079	17436
557.142	16982
557.204	17318
557.266	22849
557.328	22815
557.391	15530
557.453	15398
557.515	15640
557.577	16672
557.639	17172
557.701	15390
557.764	14265
557.826	15630
557.888	18057
557.950	17106
558.012	16990
558.074	20528
558.136	34722
558.198	90602
558.260	45353
558.322	19883
558.384	19031
558.446	21854
558.508	24280
558.570	29134
558.632	37449
558.694	50993
558.756	54754
558.818	126183
558.880	367721
558.942	158096
559.003	97176
559.065	62948
559.127	25809
559.189	26964
559.251	27651
559.312	33561
559.374	64902
559.436	229873
559.498	160500
559.559	32476
559.621	28091
559.683	27397
559.744	40477
559.806	102729
559.868	194763
559.929	53627
559.991	28791
560.052	32829
560.114	82226
560.176	69864
560.237	46360
560.299	88440
560.360	29837
560.422	14849
560.483	14845
560.545	13084
560.606	13297
560.667	13008
560.729	12194
560.790	11744
560.852	11895
560.913	12464
560.974	12156
561.036	12145
561.097	11513
561.158	11568
561.220	13024
561.281	11520
561.342	12706
561.403	14242
561.465	14271
561.526	23177
561.587	33743
561.648	15338
561.709	12079
561.771	12471
561.832	11777
561.893	10939
561.954	11560
562.015	11355
562.076	10948
562.137	11497
562.198	11149
562.259	12488
562.320	11092
562.381	12054
562.442	14091
562.503	13660
562.564	11579
562.625	11327
562.686	11564
562.747	11644
562.808	11837
562.869	11819
562.930	13839
562.991	14257
563.051	12616
563.112	11820
563.173	12175
563.234	10650
563.294	11009
563.355	11808
563.416	11373
563.477	11777
563.537	11334
563.598	12720
563.659	12145
563.720	11189
563.780	11929
563.841	12172
563.901	11561
563.962	12054
564.023	12360
564.083	12377
564.144	11972
564.204	12727
564.265	12511
564.325	14186
564.386	23927
564.446	26547
564.507	12028
564.567	11294
564.628	11191
564.688	11789
564.749	11349
564.809	12846
564.869	15224
564.930	12849
564.990	11408
565.050	10577
565.111	10421
565.171	11573
565.231	10808
565.292	11305
565.352	10262
565.412	10952
565.472	11096
565.532	11239
565.593	11590
565.653	10618
565.713	10698
565.773	12342
565.833	12398
565.893	15795
565.953	12398
566.013	11641
566.074	12911
566.134	15815
566.194	22597
566.254	24552
566.314	17748
566.374	12997
566.434	13234
566.494	12733
566.554	12431
566.614	13280
566.673	13043
566.733	12188
566.793	13211
566.853	13479
566.913	14676
566.973	14296
567.033	14229
567.092	15026
567.152	14686
567.212	14395
567.272	14748
567.331	15143
567.391	15898
567.451	16983
567.511	20164
567.570	23475
567.630	15791
567.690	14440
567.749	14788
567.809	15187
567.868	16634
567.928	17410
567.988	19044
568.047	20705
568.107	22071
568.166	28218
568.226	36446
568.285	50841
568.345	49736
568.404	42396
568.464	37556
568.523	34980
568.582	34664
568.642	36791
568.701	42969
568.761	54717
568.820	75651
568.879	86391
568.939	73884
568.998	57684
569.057	44231
569.116	36482
569.176	28488
569.235	25396
569.294	21433
569.353	19821
569.413	18359
569.472	18550
569.531	15693
569.590	15966
569.649	15650
569.708	13732
569.767	14291
569.827	15608
569.886	13612
569.945	12457
570.004	13515
570.063	11417
570.122	12530
570.181	12906
570.240	15135
570.299	15299
570.358	14312
570.417	12518
570.475	12222
570.534	12343
570.593	12157
570.652	11889
570.711	13231
570.770	11293
570.829	12578
570.887	11657
570.946	12402
571.005	10473
571.064	10685
571.122	11684
571.181	12820
571.240	11668
571.299	10159
571.357	12375
571.416	13273
571.475	13519
571.533	14742
571.592	11923
571.650	12936
571.709	11365
571.768	10695
571.826	10849
571.885	10873
571.943	10441
572.002	10344
572.060	10866
572.119	10269
572.177	10078
572.236	8899
572.294	9803
572.352	9976
572.411	10872
572.469	9085
572.528	10385
572.586	9803
572.644	10201
572.703	12509
572.761	11250
572.819	9533
572.877	10338
572.936	8927
572.994	9479
573.052	9494
573.110	9241
573.169	9372
573.227	9020
573.285	9399
573.343	9395
573.401	9718
573.459	10468
573.517	9417
573.576	9138
573.634	10154
573.692	10189
573.750	10260
573.808	9649
573.866	11025
573.924	12752
573.982	13158
574.040	10727
574.098	10480
574.155	9287
574.213	8711
574.271	8862
574.329	8600
574.387	9094
574.445	8229
574.503	8530
574.560	8152
574.618	9031
574.676	8374
574.734	8005
574.792	8452
574.849	8314
574.907	7814
574.965	7912
575.022	8226
575.080	7889
575.138	8740
575.195	8664
575.253	8847
575.311	9914
575.368	8216
575.426	8165
575.483	8666
575.541	7812
575.598	8201
575.656	9513
575.713	8943
575.771	8204
575.828	8696
575.886	8340
575.943	9002
576.001	9149
576.058	8701
576.115	9974
576.173	10403
576.230	11934
576.287	11944
576.345	10961
576.402	10186
576.459	9142
576.517	9334
576.574	10390
576.631	10836
576.688	10196
576.746	9656
576.803	9560
576.860	9236
576.917	9119
576.974	9253
577.031	9659
577.089	10597
577.146	9085
577.203	9788
577.260	10515
577.317	10327
577.374	11570
577.431	10834
577.488	10083
577.545	9122
577.602	9606
577.659	10000
577.716	9498
577.773	11045
577.830	10598
577.886	9336
577.943	9832
578.000	9256
578.057	9790
578.114	9598
578.171	10713
578.227	11603
578.284	12411
578.341	12172
578.398	10402
578.454	10371
578.511	11584
578.568	12242
578.625	11040
578.681	9769
578.738	10660
578.794	9246
578.851	8674
578.908	9113
578.964	10610
579.021	11077
579.077	10312
579.134	10480
579.190	9551
579.247	9076
579.303	9156
579.360	9416
579.416	8705
579.473	8829
579.529	8827
579.586	8751
579.642	9309
579.698	9450
579.755	10180
579.811	9516
579.867	10091
579.924	9395
579.980	10458
580.036	11846
580.093	12253
580.149	15543
580.205	18814
580.261	15365
580.317	13305
580.374	12298
580.430	12054
580.486	12184
580.542	10926
580.598	10289
580.619	10432
580.654	10685
580.692	10414
580.710	10288
580.765	10767
580.767	10787
580.823	10596
580.838	10566
580.879	10500
580.911	10156
580.935	9914
580.984	9908
580.991	9910
581.047	10281
581.057	10423
581.103	11059
581.130	11264
581.159	11497
581.203	12532
581.215	12791
581.270	12315
581.276	12273
581.326	11974
581.349	11931
581.382	11858
581.422	12054
581.438	12108
581.494	12292
581.494	12278
581.550	10975
581.567	11181
581.606	11590
581.640	11776
581.661	11892
581.713	11999
581.717	12007
581.773	11523
581.786	11508
581.829	11489
581.859	11925
581.885	12274
581.932	11817
581.940	11752
581.996	12439
582.004	12389
582.052	11973
582.077	11800
582.107	11632
582.150	12518
582.163	12752
582.219	12316
582.223	12329
582.274	12687
582.296	12722
582.330	12635
582.368	13210
582.386	13528
582.441	12454
582.441	12449
582.497	12607
582.514	12665
582.552	12978
582.587	13752
582.608	14187
582.659	14432
582.663	14437
582.719	14031
582.732	13927
582.774	13710
582.805	14021
582.830	14231
582.877	14258
582.885	14306
582.941	14890
582.950	15090
582.996	16088
583.023	16536
583.052	17027
583.095	17367
583.107	17452
583.162	19171
583.168	19252
583.218	19796
583.240	19408
583.273	18667
583.313	17473
583.328	16985
583.384	16290
583.385	16267
583.439	15764
583.458	15652
583.494	15611
583.531	15920
583.549	16118
583.603	15108
583.605	15067
583.660	16033
583.676	15884
583.715	15658
583.748	16314
583.770	16859
583.820	17128
583.825	17118
583.881	16606
583.893	16370
583.936	15669
583.965	15834
583.991	16068
584.038	16341
584.046	16389
584.101	16961
584.110	16881
584.156	16673
584.183	17119
584.211	17421
584.255	17621
584.266	17725
584.321	18036
584.328	18101
584.376	18727
584.400	18615
584.431	18409
584.472	18128
584.486	18065
584.541	18463
584.545	18495
584.596	18947
584.617	19217
584.651	20234
584.689	20921
584.706	21015
584.761	21583
584.762	21562
584.816	21023
584.834	21404
584.871	22092
584.906	21841
584.926	21808
584.978	21999
584.980	22019
585.035	22633
585.051	22919
585.090	24073
585.123	24617
585.145	24866
585.195	25757
585.200	25903
585.254	27350
585.267	27860
585.309	29679
585.340	31065
585.364	32059
585.412	33074
585.419	33182
585.473	33736
585.484	34056
585.528	37377
585.556	40531
585.583	46391
585.628	60487
585.637	66479
585.692	113615
585.700	123984
585.747	177513
585.772	173475
585.801	131731
585.845	66571
585.856	57237
585.910	38977
585.917	37259
585.965	34811
585.989	33239
586.019	32346
586.061	32684
586.074	32965
586.128	33588
586.133	33603
586.183	33791
586.205	33980
586.237	34722
586.277	35138
586.292	35240
586.346	35117
586.349	35101
586.401	35900
586.421	36078
586.455	37127
586.493	38932
586.509	40396
586.564	45185
586.565	45325
586.618	59101
586.637	61947
586.672	58367
586.709	49720
586.727	46476
586.781	42651
586.781	42721
586.835	42906
586.853	42978
586.889	43357
586.925	43159
586.944	43394
586.996	44837
586.998	44978
587.052	47089
587.068	47561
587.106	48531
587.140	48768
587.161	49460
587.212	52072
587.215	52284
587.269	54408
587.284	54643
587.323	55838
587.356	57225
587.377	58509
587.427	60903
587.431	61170
587.485	63115
587.499	63697
587.539	66822
587.571	68275
587.593	69520
587.643	73395
587.648	74030
587.702	78679
587.715	79707
587.755	83743
587.786	86764
587.810	89174
587.858	93896
587.864	94886
587.917	102247
587.930	103900
587.971	111021
588.001	115992
588.025	120853
588.073	129826
588.079	131523
588.133	144916
588.145	147631
588.187	160812
588.217	170098
588.241	179551
588.288	197981
588.295	201447
588.348	227913
588.360	233432
588.402	262432
588.431	281891
588.456	303114
588.503	344267
588.510	352712
588.564	416757
588.575	430160
588.617	505368
588.646	557357
588.671	618694
588.718	736055
588.725	758569
588.778	929246
588.789	962811
588.832	1059383
588.861	1115013
588.886	1063705
588.932	920342
588.939	901384
588.993	718386
589.004	698555
589.047	932933
589.075	1080904
589.100	1121214
589.147	1139683
589.154	1122978
589.207	968113
589.218	936383
589.261	858419
589.290	808432
589.314	814928
589.361	830511
589.368	844509
589.421	955227
589.433	977655
589.475	1040952
589.504	1075978
589.528	1012592
589.576	840703
589.582	849894
589.635	959990
589.647	980635
589.689	1018083
589.718	1016807
589.742	917537
589.790	716845
589.795	701613
589.849	549782
589.861	514359
589.902	450477
589.932	401983
589.955	373693
590.004	311661
590.009	308456
590.062	266090
590.075	255130
590.115	234369
590.146	217407
590.168	209959
590.218	191877
590.222	191262
590.275	175961
590.289	171500
590.328	162161
590.360	153705
590.381	150047
590.431	139888
590.435	139872
590.488	132466
590.503	130027
590.541	125430
590.574	120639
590.594	118901
590.645	113323
590.647	113486
590.700	108258
590.716	106349
590.753	103474
590.787	100207
590.806	99146
590.859	95158
590.859	95413
590.912	92045
590.930	90882
590.965	90036
591.001	88256
591.018	88059
591.071	86958
591.072	86658
591.124	84739
591.143	83573
591.177	82436
591.214	80984
591.230	81033
591.283	79830
591.285	79522
591.336	79129
591.356	78663
591.389	77339
591.427	75016
591.442	74980
591.495	73914
591.498	73594
591.547	72240
591.569	71261
591.600	70581
591.640	69114
591.653	69362
591.706	69486
591.711	69258
591.759	69317
591.782	69047
591.811	70961
591.853	73244
591.864	72714
591.917	68476
591.924	67649
591.969	67625
591.995	67284
592.022	66843
592.066	65489
592.075	66134
592.127	68740
592.137	68999
592.180	71780
592.208	73190
592.233	71071
592.279	66165
592.285	66105
592.338	63819
592.350	63078
592.390	63521
592.421	63467
592.443	63346
592.491	62389
592.495	62566
592.548	62005
592.562	61642
592.600	61520
592.633	61012
592.653	61134
592.704	60563
592.705	60903
592.775	60376
592.846	60344
592.916	61688
592.987	61047
593.058	59203
593.128	59082
593.199	58582
593.270	57525
593.341	55252
593.411	56664
593.482	56409
593.553	56959
593.623	56735
593.694	56876
593.764	59735
593.835	56771
593.906	55318
593.976	55716
594.047	56825
594.117	60881
594.188	62786
594.258	56015
594.329	56399
594.399	55589
594.470	55878
594.540	54861
594.611	55756
594.681	55830
594.751	55630
594.822	56796
594.892	57633
594.963	59090
595.033	59545
595.103	59781
595.174	62700
595.244	68357
595.314	80947
595.384	64650
595.455	61701
595.525	62771
595.595	63191
595.665	63629
595.736	62733
595.806	63238
595.876	63437
595.946	62703
596.016	62632
596.087	64406
596.157	64182
596.227	65304
596.297	67722
596.367	70484
596.437	72854
596.507	78842
596.577	88440
596.647	75632
596.717	73771
596.787	73350
596.857	75111
596.927	75388
596.997	75325
597.067	75532
597.137	79690
597.207	80332
597.277	78133
597.347	76523
597.417	76323
597.487	75870
597.557	77063
597.626	77079
597.696	79652
597.766	83304
597.836	90201
597.906	78804
597.975	74817
598.045	73026
598.115	75365
598.185	76556
598.254	82854
598.324	88020
598.394	89216
598.464	88063
598.533	86896
598.603	83161
598.672	83305
598.742	82801
598.812	83240
598.881	84923
598.951	85402
599.020	84905
599.090	86073
599.159	88260
599.229	87455
599.299	85465
599.368	88281
599.437	89118
599.507	86226
599.576	85133
599.646	86024
599.715	88183
599.785	85515
599.854	83751
599.924	87141
599.993	87087
600.062	86209
600.132	86773
600.201	90613
600.270	98097
600.340	101020
600.409	100956
600.478	101950
600.547	101503
600.617	101419
600.686	93462
600.755	89359
600.824	87910
600.894	88512
600.963	88953
601.032	86638
601.101	89970
601.170	88515
601.239	88813
601.308	91201
601.378	92621
601.447	92097
601.516	93722
601.585	95459
601.654	99422
601.723	99103
601.792	102382
601.861	104636
601.930	111371
601.999	113808
602.068	110127
602.137	111480
602.206	113068
602.275	112025
602.343	115321
602.412	115849
602.481	114718
602.550	113823
602.619	115056
602.688	116903
602.756	118335
602.825	117434
602.894	120428
602.963	119763
603.032	120055
603.100	122703
603.169	118673
603.238	123832
603.307	118423
603.375	117839
603.444	125066
603.513	117843
603.581	118231
603.650	127110
603.719	109280
603.787	102909
603.856	106007
603.924	106886
603.993	111187
604.061	111391
604.130	115119
604.198	118316
604.267	117540
604.335	121389
604.404	121743
604.472	125007
604.541	123853
604.609	126488
604.678	130636
604.746	130530
604.815	137102
604.883	135795
604.951	130402
605.020	133585
605.088	129470
605.156	122303
605.225	122727
605.293	122365
605.361	122501
605.429	121503
605.498	123298
605.566	123247
605.634	128317
605.702	129354
605.771	130253
605.839	136135
605.907	125895
605.975	128594
606.043	126630
606.111	120724
606.180	130915
606.248	128550
606.316	123822
606.384	128236
606.452	119280
606.520	102496
606.588	99819
606.656	98370
606.724	96982
606.792	94002
606.860	86870
606.928	80851
606.996	78899
607.064	75303
607.132	78412
607.200	81767
607.267	83950
607.335	84873
607.403	86327
607.471	85852
607.539	82979
607.607	84272
607.674	76551
607.742	75547
607.810	76278
607.878	76396
607.946	76036
608.013	78185
608.081	80593
608.149	81291
608.216	82042
608.284	84914
608.352	82076
608.419	84624
608.487	89171
608.555	84444
608.622	80883
608.690	84351
608.757	89621
608.825	91848
608.893	89974
608.960	91195
609.028	89670
609.095	92826
609.163	87543
609.230	78741
609.298	74144
609.365	75598
609.432	79417
609.500	84192
609.567	93459
609.635	104650
609.702	109433
609.769	108970
609.837	94959
609.904	80411
609.971	79997
610.039	88097
610.106	103301
610.173	166441
610.241	354143
610.308	359266
610.375	184901
610.442	103433
610.509	84240
610.577	82621
610.644	82002
610.711	84398
610.778	85340
610.845	87720
610.912	92488
610.980	97685
611.047	106695
611.114	100550
611.181	91713
611.248	90544
611.315	94527
611.382	96133
611.449	97209
611.516	99459
611.583	98502
611.650	98969
611.717	101936
611.784	102828
611.851	105548
611.918	112697
611.984	123548
612.051	156897
612.118	267529
612.185	605941
612.252	572823
612.319	174787
612.386	129696
612.452	118792
612.519	115549
612.586	118259
612.653	117914
612.719	116036
612.786	113809
612.853	106235
612.919	103655
612.986	106407
613.053	100129
613.120	96195
613.186	92027
613.253	94419
613.319	93773
613.386	93332
613.453	96338
613.519	98278
613.586	98428
613.652	108620
613.719	101892
613.785	102545
613.852	99023
613.918	97434
613.985	99964
614.051	106270
614.118	122210
614.184	130330
614.250	100688
614.317	100204
614.383	95895
614.449	98307
614.516	98242
614.582	100311
614.648	100524
614.715	97169
614.781	97972
614.847	97564
614.914	98353
614.980	96158
615.046	96042
615.112	95913
615.179	98928
615.245	101578
615.311	103579
615.377	117525
615.443	131273
615.509	113780
615.575	105766
615.642	105337
615.708	106984
615.774	110811
615.840	118563
615.906	127900
615.972	151090
616.038	221817
616.104	375259
616.170	721748
616.236	844349
616.302	264245
616.368	167998
616.434	136929
616.500	125082
616.565	126363
616.631	144580
616.697	135927
616.763	130230
616.829	157222
616.895	242555
616.961	275434
617.026	163339
617.092	118101
617.158	110920
617.224	108270
617.289	103940
617.355	101029
617.421	101341
617.487	101087
617.552	96619
617.618	96393
617.684	94694
617.749	97271
617.815	93510
617.880	92335
617.946	93453
618.012	93208
618.077	97399
618.143	94524
618.208	93867
618.274	97793
618.339	102132
618.405	92665
618.470	90737
618.536	91301
618.601	94198
618.667	90962
618.732	86087
618.798	86124
618.863	84985
618.928	82710
618.994	85742
619.059	86607
619.124	92715
619.190	87795
619.255	85021
619.320	85144
619.386	84988
619.451	84725
619.516	83300
619.581	84568
619.647	87835
619.712	87061
619.777	85078
619.842	86065
619.907	87270
619.972	87648
620.038	86887
620.103	84950
620.168	85984
620.233	86047
620.298	86775
620.363	85714
620.428	87588
620.493	89891
620.558	89961
620.623	89856
620.688	91852
620.753	90570
620.818	89861
620.883	91801
620.948	91778
621.013	91429
621.078	91484
621.143	90182
621.207	94670
621.272	92355
621.337	93061
621.402	93725
621.467	99158
621.532	102039
621.596	97024
621.661	95197
621.726	90819
621.791	91245
621.855	93061
621.920	94379
621.985	95453
622.049	98677
622.114	97617
622.179	96980
622.243	98225
622.308	98234
622.373	100238
622.437	100437
622.502	97639
622.566	95067
622.631	96391
622.695	96082
622.760	96369
622.824	95322
622.889	97393
622.953	98173
623.018	105593
623.082	109842
623.147	99764
623.211	96718
623.276	97180
623.340	94619
623.404	92998
623.469	94067
623.533	93564
623.597	92696
623.662	90466
623.726	89730
623.790	86834
623.854	86857
623.919	86669
623.983	85644
624.047	86222
624.111	86142
624.176	87626
624.240	88698
624.304	91615
624.368	87757
624.432	86907
624.496	86754
624.560	89811
624.625	91308
624.689	89128
624.753	89608
624.817	88030
624.881	86290
624.945	81947
625.009	79881
625.073	80871
625.137	82203
625.201	86868
625.265	89488
625.329	82065
625.393	81699
625.456	81571
625.520	82626
625.584	84638
625.648	90165
625.712	99461
625.776	142780
625.839	164069
625.903	107166
625.967	74412
626.031	87444
626.095	117730
626.158	85234
626.222	67308
626.286	61901
626.349	63145
626.413	59722
626.477	60365
626.540	59885
626.604	58029
626.668	58460
626.731	56350
626.795	58114
626.858	58633
626.922	55432
626.986	56039
627.049	54239
627.113	55985
627.176	55461
627.240	52970
627.303	53352
627.366	52498
627.430	52868
627.493	53320
627.557	53549
627.620	54316
627.684	53516
627.747	52517
627.810	50319
627.874	48586
627.937	46211
628.000	47747
628.064	49086
628.127	43757
628.190	43088
628.253	43213
628.317	42723
628.380	40823
628.443	40189
628.506	40903
628.569	41159
628.632	38055
628.696	37476
628.759	37765
628.822	37609
628.885	36112
628.948	35916
629.011	36136
629.074	35675
629.137	35222
629.200	34330
629.263	35928
629.326	32869
629.389	33326
629.452	33479
629.515	34186
629.578	32998
629.641	34239
629.704	32905
629.767	32813
629.830	32097
629.892	31318
629.955	32171
630.018	31824
630.081	30800
630.144	34606
630.207	31427
630.269	33340
630.332	32444
630.395	31837
630.458	29474
630.520	28736
630.583	29795
630.646	28131
630.708	28102
630.771	28326
630.834	29748
630.896	27809
630.959	28967
631.021	27906
631.084	27890
631.146	28921
631.209	31927
631.272	28715
631.334	28329
631.397	26765
631.459	26677
631.522	28259
631.584	27412
631.646	28194
631.709	28319
631.771	31634
631.834	29487
631.896	28152
631.958	25757
632.021	26909
632.083	26159
632.145	26621
632.208	26342
632.270	26725
632.332	25034
632.395	24718
632.457	26626
632.519	25750
632.581	26158
632.643	24909
632.706	25141
632.768	24782
632.830	24357
632.892	24834
632.954	25156
633.016	25831
633.078	24983
633.141	24178
633.203	24854
633.265	24549
633.327	24522
633.389	24106
633.451	25714
633.513	27724
633.575	27822
633.637	26128
633.698	26830
633.760	25150
633.822	25584
633.884	25370
633.946	25473
634.008	26403
634.070	26442
634.132	28766
634.193	28613
634.255	28725
634.317	26669
634.379	27508
634.441	26540
634.502	26510
634.564	24438
634.626	23838
634.687	23163
634.749	23852
634.811	24586
634.873	21840
634.934	23523
634.996	23698
635.057	22959
635.119	22380
635.181	23647
635.242	24468
635.304	21792
635.365	24593
635.427	23121
635.488	23759
635.550	22507
635.611	24149
635.673	22128
635.734	25067
635.796	23668
635.857	25343
635.918	25221
635.980	26786
636.041	25736
636.102	26430
636.164	26341
636.225	27435
636.286	24310
636.348	25286
636.409	23746
636.470	22335
636.531	23774
636.593	23831
636.654	24387
636.715	22086
636.776	21716
636.838	21365
636.899	21679
636.960	21604
637.021	20198
637.082	21490
637.143	20468
637.204	20305
637.265	21037
637.326	20852
637.387	21220
637.448	20507
637.509	20946
637.570	21013
637.631	20929
637.692	19643
637.753	20044
637.814	20937
637.875	20051
637.936	20883
637.997	20235
638.058	19930
638.119	21432
638.179	20262
638.240	20550
638.301	20346
638.362	19882
638.423	20387
638.483	20999
638.544	19007
638.605	20024
638.666	18874
638.726	20786
638.787	19582
638.848	18045
638.908	19153
638.969	19345
639.030	19959
639.090	18896
639.151	19312
639.211	20029
639.272	20733
639.332	25921
639.393	22999
639.453	19074
639.514	19553
639.574	19233
639.635	18052
639.695	18553
639.756	17831
639.816	19330
639.877	18953
639.937	22774
639.997	26005
640.058	20446
640.118	18528
640.178	18548
640.239	17699
640.299	17196
640.359	17876
640.420	18858
640.480	18769
640.540	19147
640.600	19051
640.661	19792
640.721	18898
640.781	22098
640.841	20482
640.901	19357
640.961	18956
641.021	19057
641.082	19554
641.142	21181
641.202	20770
641.262	16814
641.322	18423
641.382	18092
641.442	17722
641.502	18394
641.562	18365
641.622	16965
641.682	17770
641.742	18392
641.802	19113
641.861	18460
641.921	17075
641.981	18560
642.041	17523
642.101	19786
642.161	17866
642.221	16666
642.280	16674
642.340	16308
642.400	16117
642.460	17242
642.519	17285
642.579	17573
642.639	16748
642.698	15837
642.758	18852
642.818	17582
642.877	17261
642.937	17638
642.997	18388
643.056	21326
643.116	17558
643.175	18005
643.235	17325
643.294	17704
643.354	17335
643.414	17922
643.473	18612
643.532	20774
643.592	23676
643.651	30965
643.711	47641
643.770	80921
643.830	174195
643.889	435731
643.948	176758
644.008	35023
644.067	23695
644.126	20495
644.186	18720
644.245	17555
644.304	15000
644.363	17080
644.423	15738
644.482	16418
644.541	15967
644.600	15491
644.659	17684
644.719	19032
644.778	24712
644.837	31658
644.896	54148
644.955	124686
645.014	69099
645.073	23638
645.132	18414
645.191	18067
645.250	16287
645.309	17541
645.368	16750
645.427	18958
645.486	21757
645.545	34001
645.604	20615
645.663	15951
645.722	15593
645.781	16039
645.840	16381
645.898	18270
645.957	22494
646.016	27874
646.075	43881
646.134	77531
646.192	175976
646.251	354037
646.310	86865
646.369	25873
646.427	20016
646.486	17291
646.545	16371
646.603	15176
646.662	15153
646.721	14694
646.779	14058
646.838	14216
646.896	15951
646.955	17231
647.014	22426
647.072	32473
647.131	76344
647.189	59282
647.248	16927
647.306	13698
647.365	14017
647.423	12420
647.481	14224
647.540	12145
647.598	12668
647.657	11628
647.715	13157
647.773	12303
647.832	12870
647.890	12161
647.948	12342
648.007	12578
648.065	10886
648.123	12318
648.181	13203
648.240	14576
648.298	14184
648.356	12505
648.414	12275
648.472	12115
648.531	11702
648.589	12025
648.647	11385
648.705	12058
648.763	11070
648.821	11089
648.879	11332
648.937	12373
648.995	13476
649.053	13390
649.111	17290
649.169	23411
649.227	36427
649.285	63953
649.343	183383
649.401	143767
649.459	31673
649.516	24777
649.574	16742
649.632	23951
649.690	31717
649.748	20654
649.806	22161
649.863	37513
649.921	55164
649.979	55561
650.037	14921
650.094	10561
650.152	10660
650.210	11352
650.268	11287
650.325	10755
650.383	10849
650.440	9164
650.498	10233
650.556	9370
650.613	8842
650.671	9757
650.728	10128
650.786	10317
650.843	10009
650.901	8551
650.958	9238
651.016	9589
651.073	9120
651.131	8955
651.188	7694
651.246	8675
651.303	7550
651.360	8462
651.418	7803
651.475	8776
651.532	8436
651.590	8844
651.647	8117
651.704	8658
651.762	8316
651.819	8772
651.876	7800
651.933	8499
651.990	8368
652.048	6876
652.105	7920
652.162	8812
652.219	7575
652.276	7973
652.333	7989
652.390	7084
652.448	8185
652.505	8156
652.562	7711
652.619	8771
652.676	11472
652.733	14741
652.790	8550
652.847	6882
652.904	8143
652.961	5611
653.017	7372
653.074	7902
653.131	8318
653.188	5948
653.245	7584
653.302	7915
653.359	6489
653.415	8041
653.472	7035
653.529	7242
653.586	6185
653.642	7442
653.699	7134
653.756	6832
653.813	7393
653.869	7135
653.926	6674
653.983	6147
654.039	7153
654.096	6989
654.152	8018
654.209	5952
654.266	7092
654.322	7098
654.379	7873
654.435	8865
654.492	8418
654.548	9632
654.605	13151
654.661	9306
654.717	6712
654.774	7374
654.830	7398
654.887	7460
654.943	7466
655.000	8036
655.056	8391
655.112	7906
655.168	6646
655.225	6873
655.281	7706
655.337	9166
655.394	12883
655.450	11666
655.506	9669
655.562	12231
655.618	13761
655.675	6924
655.731	7136
655.787	6558
655.843	7516
655.899	6257
655.955	6726
656.011	6876
656.067	5900
656.123	6373
656.179	6848
656.235	7489
656.291	5499
656.347	7071
656.403	6870
656.459	6933
656.515	8118
656.571	7397
656.627	7448
656.683	7707
656.739	7215
656.795	7245
656.850	6983
656.906	7210
656.962	8315
657.018	6100
657.074	7426
657.129	7634
657.185	8952
657.241	12803
657.297	10733
657.352	7812
657.408	6978
657.464	8200
657.519	6612
657.575	6100
657.630	6991
657.686	6773
657.742	6767
657.797	6272
657.853	6575
657.908	7740
657.964	5752
658.019	6720
658.075	7312
658.130	7668
658.186	6180
658.241	7614
658.297	6612
658.352	6648
658.407	6876
658.463	5962
658.518	7237
658.573	7167
658.629	5613
658.684	7428
658.739	6732
658.795	6049
658.850	6367
658.905	6742
658.960	7785
659.016	5598
659.071	6798
659.126	6318
659.181	6464
659.236	8730
659.291	9262
659.346	8171
659.401	7996
659.457	7319
659.512	10574
659.567	8449
659.622	6532
659.677	6593
659.732	5539
659.787	6940
659.842	6449
659.897	8900
659.952	6973
660.007	5903
660.061	5593
660.116	5643
660.171	5496
660.226	6546
660.281	6896
660.336	5648
660.391	6648
660.445	6345
660.500	7184
660.555	6980
660.610	6128
660.664	7422
660.719	5441
660.774	6878
660.828	6713
660.883	6314
660.938	6650
660.992	4771
661.047	5772
661.101	6624
661.156	5627
661.211	5853
661.265	5233
661.320	6295
661.374	6347
661.429	5436
661.483	6891
661.538	6835
661.592	6366
661.647	6604
661.701	7176
661.755	6349
661.810	7281
661.864	5741
661.919	5435
661.973	6299
662.027	6103
662.081	5758
662.136	6148
662.190	6917
662.244	7068
662.299	5427
662.353	6042
662.407	6610
662.461	6323
662.515	6155
662.569	5768
662.624	7178
662.678	6218
662.732	5579
662.786	6302
662.840	6154
662.894	6731
662.948	5920
663.002	5815
663.056	5164
663.110	5288
663.164	6131
663.218	5722
663.272	5708
663.326	6967
663.380	6203
663.434	6210
663.488	6386
663.542	6297
663.595	6287
663.649	5030
663.703	6544
663.757	6198
663.811	5336
663.864	4917
663.918	5954
663.972	5406
664.026	6123
664.079	5516
664.133	5713
664.187	5629
664.240	5854
664.294	6024
664.348	5797
664.401	5816
664.455	5587
664.508	5224
664.562	5688
664.615	6250
664.669	6102
664.722	6134
664.776	5932
664.829	6414
664.883	6182
664.936	5359
664.990	6831
665.043	6047
665.097	6599
665.150	8038
665.203	6051
665.257	5556
665.310	6498
665.363	5802
665.417	6963
665.470	6011
665.523	6429
665.576	7058
665.630	6806
665.683	5741
665.736	6215
665.789	6589
665.842	5565
665.895	5958
665.949	6441
666.002	6010
666.055	6767
666.108	6919
666.161	6208
666.214	6415
666.267	6677
666.320	6681
666.373	6901
666.426	5417
666.479	5869
666.532	6469
666.585	6242
666.638	7553
666.691	6984
666.744	7215
666.796	7300
666.849	6942
666.902	6648
666.955	6223
667.008	6215
667.060	5863
667.113	6201
667.166	5955
667.219	7044
667.271	5918
667.324	5899
667.377	6076
667.430	7159
667.482	6487
667.535	7511
667.587	6228
667.640	7119
667.693	6850
667.745	8540
667.798	9564
667.850	6722
667.903	6431
667.955	5760
668.008	6112
668.060	6916
668.113	6199
668.165	6988
668.218	6947
668.270	7421
668.322	6620
668.375	6306
668.427	6601
668.479	5875
668.532	6948
668.584	6452
668.636	6862
668.689	6172
668.741	5885
668.793	7053
668.845	6307
668.898	6933
668.950	6867
669.002	6413
669.054	6357
669.106	6795
669.158	6756
669.211	7054
669.263	7037
669.315	7019
669.367	8389
669.419	7371
669.471	7802
669.523	7874
669.575	8022
669.627	7904
669.679	5778
669.731	6730
669.783	6691
669.835	6879
669.886	6403
669.938	7052
669.990	7323
670.042	6701
670.094	7164
670.146	7605
670.197	7874
670.249	9249
670.301	9527
670.353	11040
670.404	14918
670.456	19744
670.508	28315
670.560	45161
670.611	75231
670.663	129856
670.715	263549
670.766	417943
670.818	231592
670.869	58251
670.921	26187
670.972	19432
671.024	14419
671.075	12240
671.127	9738
671.178	8605
671.230	8680
671.281	9581
671.333	7311
671.384	7868
671.436	8692
671.487	9155
671.538	10005
671.590	11420
671.641	14625
671.692	20292
671.744	34385
671.795	34486
671.846	16732
671.897	10305
671.949	8780
672.000	7957
672.051	7312
672.102	8037
672.153	5724
672.204	6428
672.256	7140
672.307	6607
672.358	6294
672.409	6238
672.460	5586
672.511	5711
672.562	5973
672.613	5443
672.664	5965
672.715	6553
672.766	5880
672.817	5166
672.868	6153
672.919	5530
672.970	5208
673.021	6077
673.071	5762
673.122	5806
673.173	5217
673.224	5272
673.275	5343
673.326	5397
673.376	5789
673.427	4204
673.478	4626
673.528	5579
673.579	5053
673.630	5386
673.680	6079
673.731	4912
673.782	5210
673.832	5399
673.883	6373
673.934	4730
673.984	4842
674.035	4895
674.085	4984
674.136	5909
674.186	5592
674.237	5111
674.287	8354
674.338	6639
674.388	5245
674.438	4833
674.489	6017
674.539	4976
674.589	6043
674.640	5805
674.690	5285
674.740	5353
674.791	5772
674.841	6290
674.891	6488
674.942	4701
674.992	4883
675.042	4655
675.092	3963
675.142	4627
675.193	4768
675.243	3948
675.293	4091
675.343	5426
675.393	5345
675.443	5748
675.493	4052
675.543	5018
675.593	4884
675.643	5100
675.693	4682
675.743	4921
675.793	4691
675.843	4115
675.893	5257
675.943	5228
675.993	4669
676.043	4710
676.093	5261
676.142	4334
676.192	3896
676.242	4611
676.292	3493
676.341	5018
676.391	4588
676.441	5107
676.491	4667
676.540	3946
676.590	4398
676.640	4336
676.689	4654
676.739	3613
676.789	4482
676.838	3732
676.888	4329
676.937	4594
676.987	4950
677.037	3992
677.086	4096
677.136	3758
677.185	4039
677.235	3412
677.284	4316
677.333	4083
677.383	3801
677.432	2587
677.482	4359
677.531	4659
677.580	4011
677.630	3887
677.679	3197
677.728	4134
677.778	4400
677.827	3938
677.876	3980
677.925	3141
677.975	3480
678.024	3731
678.073	3700
678.122	4952
678.171	3904
678.220	4143
678.269	4657
678.319	5679
678.368	4420
678.417	5119
678.466	4877
678.515	5222
678.564	5160
678.613	4399
678.662	4080
678.711	4497
678.760	4580
678.809	3642
678.857	3771
678.906	4536
678.955	4114
679.004	4008
679.053	4426
679.102	4344
679.151	4683
679.199	4305
679.248	4205
679.297	4298
679.346	4233
679.394	3880
679.443	4319
679.492	3867
679.540	3568
679.589	4999
679.638	4835
679.686	3673
679.735	4086
679.784	3966
679.832	4311
679.881	3383
679.929	3688
679.978	3955
680.026	3934
680.075	3890
680.123	3764
680.172	4073
680.220	3531
680.268	2948
680.317	2957
680.365	3652
680.414	3420
680.462	3384
680.510	4227
680.559	3351
680.607	3540
680.655	4335
680.703	2912
680.752	3372
680.800	3231
680.848	3494
680.896	3490
680.945	3418
680.993	3182
681.041	3897
681.089	4087
681.137	3423
681.185	3257
681.233	2940
681.258	2934
681.281	2894
681.329	3488
681.377	3349
681.380	3418
681.425	4053
681.473	3877
681.502	4001
681.521	4020
681.569	4570
681.617	3909
681.624	3898
681.665	3559
681.713	5095
681.745	4852
681.761	4692
681.809	4413
681.857	4658
681.867	4551
681.904	4029
681.952	4892
681.989	4808
682.000	4743
682.048	4516
682.096	4276
682.111	4494
682.143	4846
682.191	4027
682.233	4618
682.239	4674
682.286	4886
682.334	4405
682.354	4729
682.382	5086
682.430	5339
682.476	5527
682.477	5501
682.525	5058
682.572	5925
682.598	5886
682.620	5782
682.667	5039
682.715	5994
682.720	5993
682.763	5676
682.810	6114
682.841	5734
682.857	5512
682.905	4945
682.952	5993
682.963	5985
683.000	5814
683.047	6243
683.085	6252
683.095	6229
683.142	5684
683.190	6587
683.206	6272
683.237	5588
683.284	6547
683.328	6627
683.332	6597
683.379	6365
683.426	5660
683.449	5732
683.473	5805
683.521	6359
683.568	6300
683.571	6291
683.615	5873
683.662	6683
683.693	6578
683.709	6465
683.757	6694
683.804	7245
683.814	7211
683.851	6994
683.898	6661
683.936	7040
683.945	7104
683.992	7592
684.039	7455
684.057	7432
684.086	7312
684.133	7144
684.179	7362
684.180	7349
684.227	7921
684.274	7632
684.300	7644
684.321	7624
684.368	7645
684.415	7979
684.422	7976
684.462	7736
684.509	7434
684.543	8234
684.556	8505
684.603	8179
684.649	8040
684.665	8044
684.696	8076
684.743	8314
684.786	8339
684.790	8315
684.837	8350
684.883	9045
684.908	9213
684.930	9350
684.977	9579
685.023	9017
685.029	8962
685.070	8306
685.117	8851
685.150	8579
685.164	8500
685.210	9363
685.257	9562
685.272	9657
685.303	9725
685.350	9736
685.393	9505
685.396	9475
685.443	9445
685.490	9926
685.514	10043
685.536	10102
685.583	10076
685.629	9699
685.636	9681
685.675	9537
685.722	9598
685.757	9671
685.768	9685
685.815	9530
685.861	9830
685.878	9849
685.908	9851
685.954	10415
686.000	10584
686.000	10579
686.047	10562
686.093	10605
686.121	10938
686.139	11205
686.185	10962
686.232	11131
686.242	11168
686.278	10985
686.324	11170
686.363	10715
686.370	10649
686.416	10982
686.463	11666
686.484	11616
686.509	11532
686.555	11211
686.601	10791
686.606	10801
686.647	10845
686.693	10925
686.727	11021
686.739	11064
686.785	11059
686.831	11073
686.848	11207
686.877	11408
686.923	11026
686.969	11400
686.969	11401
687.015	10886
687.061	11309
687.090	11566
687.107	11593
687.153	11682
687.199	11559
687.211	11334
687.245	10876
687.291	11063
687.332	12061
687.336	12175
687.382	11566
687.428	12144
687.453	12247
687.474	12171
687.520	12134
687.565	11842
687.574	11833
687.611	11935
687.657	12146
687.695	12201
687.702	12267
687.748	12687
687.794	12985
687.816	13281
687.839	13307
687.885	13032
687.931	12252
687.937	12247
687.976	12409
688.022	12684
688.058	12946
688.067	13034
688.113	12288
688.158	13287
688.179	13096
688.204	12779
688.249	12842
688.295	13063
688.300	13025
688.340	13178
688.386	13681
688.421	13813
688.431	13766
688.477	13206
688.522	13241
688.542	13170
688.567	13293
688.613	14260
688.658	13905
688.663	13967
688.703	14124
688.749	13192
688.784	13235
688.794	13329
688.839	13535
688.884	13526
688.905	13673
688.930	13778
688.975	13203
689.020	13540
689.026	13528
689.065	13818
689.110	13375
689.146	13809
689.155	13885
689.201	14082
689.246	13667
689.267	13872
689.291	14179
689.336	13726
689.381	14491
689.388	14425
689.426	14113
689.471	14072
689.509	14837
689.516	14979
689.561	14228
689.606	14447
689.630	14408
689.651	14441
689.696	14538
689.741	14772
689.750	14694
689.785	14582
689.830	14690
689.871	14718
689.875	14712
689.920	14394
689.965	14558
689.992	14302
690.010	14236
690.054	14292
690.099	14645
690.112	14588
690.144	14514
690.189	14735
690.233	14748
690.233	14766
690.278	14279
690.323	14330
690.354	14129
690.367	14099
690.412	14314
690.457	14003
690.474	14267
690.501	14961
690.546	14924
690.590	15193
690.595	15248
690.635	15744
690.680	15536
690.716	15878
690.724	16107
690.769	16807
690.813	17763
690.836	18203
690.857	19358
690.902	21899
690.946	24789
690.957	25571
690.991	31724
691.035	40092
691.077	48839
691.080	49020
691.124	47628
691.168	45372
691.198	44646
691.213	41642
691.257	32970
691.301	24282
691.318	20971
691.346	20145
691.390	18870
691.434	17467
691.439	17276
691.478	16995
691.522	16732
691.559	16634
691.567	16680
691.611	17139
691.655	16843
691.680	16686
691.699	16694
691.743	17027
691.787	17350
691.800	17346
691.831	17317
691.875	17332
691.919	17640
691.921	17609
691.964	17692
692.008	17846
692.041	17856
692.052	17809
692.096	17391
692.139	17238
692.162	17104
692.183	17108
692.227	17219
692.271	17004
692.282	16939
692.315	17179
692.359	17654
692.402	17982
692.403	18014
692.447	17799
692.490	17897
692.523	17811
692.534	17900
692.578	17757
692.622	17744
692.643	17728
692.666	17685
692.709	17709
692.753	17727
692.763	17711
692.797	17881
692.840	17800
692.884	17985
692.884	18023
692.928	18345
692.971	18512
693.004	18769
693.015	18785
693.059	18568
693.102	18310
693.124	18250
693.146	18263
693.189	18112
693.233	17951
693.245	17874
693.276	18378
693.320	19102
693.363	19626
693.365	19610
693.407	20256
693.450	20936
693.485	21553
693.493	21935
693.537	23568
693.580	25078
693.605	26113
693.624	28451
693.667	34063
693.710	39485
693.725	41436
693.753	53034
693.797	72220
693.840	92131
693.845	93943
693.883	91149
693.926	86846
693.966	83836
693.970	82045
694.013	62485
694.056	42857
694.086	29465
694.099	28782
694.142	26414
694.185	24116
694.206	22967
694.229	22730
694.272	21909
694.315	21471
694.326	21311
694.358	21110
694.401	20550
694.444	20142
694.446	20068
694.487	19948
694.530	20298
694.566	20149
694.573	20099
694.616	19529
694.659	18883
694.686	18554
694.702	18614
694.745	18871
694.787	18737
694.806	18690
694.830	18773
694.873	18844
694.916	18941
694.926	18930
694.959	18984
695.002	18889
695.044	18979
695.046	18928
695.087	19185
695.130	19665
695.166	19978
695.172	20047
695.215	20132
695.258	20314
695.286	20227
695.301	20135
695.343	19963
695.386	19931
695.406	19678
695.428	19579
695.471	19329
695.514	19469
695.526	19365
695.556	19560
695.599	19916
695.641	20351
695.646	20335
695.684	20224
695.726	20015
695.766	19827
695.769	19873
695.811	19888
695.854	19843
695.886	19839
695.896	19921
695.938	20034
695.981	20034
696.005	19985
696.023	20089
696.065	20215
696.108	20688
696.125	20666
696.150	20712
696.192	20821
696.235	20988
696.245	20959
696.277	21090
696.319	21295
696.361	21546
696.365	21495
696.404	21514
696.446	21670
696.485	21763
696.488	21827
696.530	21736
696.572	21929
696.604	21933
696.614	21951
696.656	21806
696.698	21746
696.724	21554
696.740	21528
696.783	21464
696.825	21406
696.844	21283
696.867	21272
696.909	21164
696.951	21021
696.964	20954
696.992	21105
697.034	21139
697.076	21239
697.083	21214
697.118	21502
697.160	21654
697.202	21840
697.203	21791
697.244	21604
697.286	21234
697.323	20947
697.327	21038
697.369	21359
697.411	21690
697.442	21859
697.453	21845
697.494	21498
697.536	21260
697.562	21051
697.578	21214
697.620	21446
697.661	21651
697.682	21762
697.703	21816
697.744	21669
697.786	21641
697.801	21540
697.828	21753
697.869	22067
697.911	22332
697.921	22351
697.952	22131
697.994	21701
698.035	21296
698.040	21193
698.077	21477
698.118	21699
698.160	21953
698.160	21895
698.201	22104
698.243	22249
698.279	22305
698.284	22341
698.325	22135
698.367	21957
698.399	21717
698.408	21785
698.449	21851
698.491	21936
698.518	21921
698.532	22119
698.573	22551
698.614	23013
698.638	23205
698.656	23112
698.697	22742
698.738	22384
698.757	22156
698.779	22448
698.820	22884
698.862	23328
698.877	23435
698.903	23568
698.944	23671
698.985	23777
698.996	23746
699.026	23584
699.067	23270
699.116	22837
699.235	23878
699.354	23351
699.474	22729
699.593	23398
699.713	24286
699.832	21902
699.951	23058
700.070	22787
700.190	22416
700.309	22961
700.428	20855
700.547	20881
700.667	22225
700.786	21945
700.905	21641
701.024	21671
701.143	21802
701.262	21321
701.381	20821
701.500	21859
701.619	20613
701.738	20611
701.857	21403
701.976	21074
702.095	19966
702.214	21545
702.333	21051
702.452	20484
702.571	20202
702.690	20806
702.809	20546
702.928	20828
703.047	19708
703.165	19832
703.284	20222
703.403	18851
703.522	20896
703.640	20259
703.759	19277
703.878	21581
703.997	19636
704.115	18636
704.234	18530
704.353	19471
704.471	18794
704.590	18218
704.708	19369
704.827	19293
704.946	18463
705.064	19497
705.183	19597
705.301	19736
705.420	22820
705.538	23015
705.656	21884
705.775	20745
705.893	26604
706.012	32902
706.130	22672
706.249	21576
706.367	20528
706.485	21728
706.604	20295
706.722	21322
706.840	21687
706.958	22270
707.077	22308
707.195	20671
707.313	20322
707.431	19036
707.549	19857
707.668	19083
707.786	20684
707.904	19884
708.022	20025
708.140	19575
708.258	19026
708.376	19478
708.494	18893
708.612	19845
708.730	23217
708.848	23767
708.966	21124
709.084	20611
709.202	21335
709.320	21047
709.438	21009
709.556	20798
709.674	21070
709.791	20845
709.909	20206
710.027	20227
710.145	19984
710.263	21358
710.380	20348
710.498	19562
710.616	19502
710.733	19050
710.851	19338
710.969	20282
711.086	18470
711.204	19534
711.322	18799
711.439	19159
711.557	19035
711.674	19629
711.792	19982
711.909	19786
712.027	20126
712.144	19078
712.262	19271
712.379	18793
712.497	24396
712.614	23920
712.732	22945
712.849	21377
712.966	19787
713.084	21505
713.201	21544
713.318	21033
713.436	21658
713.553	21725
713.670	21430
713.787	21065
713.905	21771
714.022	21402
714.139	21027
714.256	21689
714.373	21397
714.490	24012
714.608	33965
714.725	92695
714.842	141069
714.959	27418
715.076	20356
715.193	20024
715.310	19778
715.427	20122
715.544	19179
715.661	19699
715.778	18981
715.895	19809
716.011	18643
716.128	18728
716.245	19075
716.362	18306
716.479	18882
716.596	18313
716.713	18156
716.829	18025
716.946	18357
717.063	17230
717.180	16682
717.296	16995
717.413	18515
717.530	17602
717.646	17207
717.763	17352
717.880	16440
717.996	16085
718.113	18169
718.229	17006
718.346	15403
718.462	16335
718.579	16016
718.695	17328
718.812	17466
718.928	17500
719.045	16224
719.161	15261
719.277	16686
719.394	15568
719.510	16440
719.626	15231
719.743	16915
719.859	18177
719.975	19571
720.092	34233
720.208	76940
720.324	26698
720.440	17084
720.557	16513
720.673	16539
720.789	18861
720.905	25284
721.021	18557
721.137	16770
721.253	15564
721.369	15247
721.486	16039
721.602	17050
721.718	14786
721.834	14146
721.950	15217
722.066	13803
722.181	15044
722.297	14939
722.413	14634
722.529	14312
722.645	14211
722.761	13239
722.877	13858
722.993	13755
723.108	13918
723.224	12933
723.340	14510
723.456	13227
723.571	13399
723.687	12821
723.803	13933
723.918	13606
724.034	13548
724.150	13854
724.265	13098
724.381	15629
724.497	18214
724.612	13529
724.728	12339
724.843	12586
724.959	13736
725.074	15416
725.190	17625
725.305	12903
725.421	12833
725.536	12686
725.651	12322
725.767	12565
725.882	12540
725.997	12843
726.113	12413
726.228	12153
726.343	12961
726.459	12361
726.574	11270
726.689	12405
726.804	10945
726.920	12459
727.035	12471
727.150	11895
727.265	11921
727.380	11778
727.495	12214
727.610	10923
727.725	10934
727.841	13227
727.956	15722
728.071	16181
728.186	11800
728.301	10978
728.416	11803
728.531	11811
728.645	11819
728.760	11341
728.875	11503
728.990	11918
729.105	11926
729.220	10448
729.335	11363
729.449	10713
729.564	11319
729.679	10628
729.794	11403
729.908	10827
730.023	11350
730.138	10364
730.253	10271
730.367	11341
730.482	10668
730.596	10539
730.711	10862
730.826	11178
730.940	11723
731.055	10079
731.169	11272
731.284	10386
731.398	10699
731.513	10723
731.627	11644
731.742	11605
731.856	11896
731.970	10647
732.085	10308
732.199	10967
732.313	13193
732.428	17564
732.542	36467
732.656	33975
732.771	13555
732.885	11423
732.999	11197
733.113	12208
733.227	11744
733.342	11290
733.456	11083
733.570	10203
733.684	10567
733.798	10539
733.912	10993
734.026	10349
734.140	11147
734.254	10494
734.368	12048
734.482	13527
734.596	10402
734.710	11167
734.824	10813
734.938	11320
735.052	10291
735.166	11088
735.280	10522
735.393	9902
735.507	10307
735.621	10847
735.735	12430
735.849	10981
735.962	10852
736.076	10781
736.190	10586
736.303	10702
736.417	13137
736.531	10228
736.644	10163
736.758	10159
736.872	9428
736.985	9722
737.099	9415
737.212	9923
737.326	9955
737.439	9140
737.553	9951
737.666	10383
737.780	9197
737.893	9983
738.007	9610
738.120	9571
738.233	9251
738.347	10080
738.460	9406
738.573	10059
738.687	9076
738.800	10502
738.913	9879
739.026	9908
739.140	9938
739.253	9656
739.366	9677
739.479	8679
739.592	9115
739.705	8521
739.818	9702
739.932	8847
740.045	8771
740.158	9164
740.271	9632
740.384	8734
740.497	9444
740.610	9616
740.723	9645
740.836	9366
740.949	8478
741.062	9670
741.174	9823
741.287	9350
741.400	9023
741.513	8240
741.626	9173
741.739	9379
741.851	8256
741.964	9755
742.077	8824
742.189	9064
742.302	8978
742.415	8304
742.527	8795
742.640	8318
742.753	9340
742.865	8353
742.978	8715
743.090	9700
743.203	8616
743.316	9274
743.428	7967
743.541	9361
743.653	8490
743.766	8252
743.878	8334
743.990	9383
744.103	9256
744.215	8776
744.327	8561
744.440	8194
744.552	9186
744.664	8382
744.777	9170
744.889	8346
745.001	8604
745.113	8786
745.226	8575
745.338	8212
745.450	8532
745.562	8610
745.674	7972
745.786	8323
745.898	8202
746.010	9395
746.122	7847
746.234	8409
746.347	8596
746.459	7771
746.570	8499
746.682	7094
746.794	8239
746.906	8426
747.018	7849
747.130	8439
747.242	7881
747.354	8652
747.466	8415
747.577	8862
747.689	8784
747.801	7252
747.913	7915
748.024	8141
748.136	7495
748.248	7455
748.359	8837
748.471	7739
748.583	7935
748.694	8607
748.806	9310
748.918	7266
749.029	8443
749.141	8170
749.252	8215
749.364	8407
749.475	8174
749.587	8546
749.698	8070
749.809	8697
749.921	7527
750.032	7487
750.144	7339
750.255	7413
750.366	8290
750.478	8091
750.589	7514
750.700	7842
750.811	7939
750.923	7814
751.034	8503
751.145	8434
751.256	7990
751.367	7113
751.479	7333
751.590	7642
751.701	7392
751.812	8136
751.923	7859
752.034	7919
752.145	7304
752.256	7419
752.367	8552
752.478	7617
752.589	8051
752.700	7538
752.811	8076
752.922	7526
753.032	7238
753.143	8636
753.254	7211
753.365	8496
753.476	8310
753.586	7235
753.697	7701
753.808	7224
753.919	7118
754.029	7810
754.140	7026
754.251	7273
754.361	7364
754.472	8553
754.582	7885
754.693	7554
754.804	8070
754.914	7045
755.025	6989
755.135	7988
755.246	9200
755.356	7487
755.466	8243
755.577	7566
755.687	7762
755.798	7220
755.908	7715
756.018	7394
756.129	7770
756.239	7194
756.349	7616
756.460	6865
756.570	8451
756.680	8585
756.790	8283
756.900	7883
757.011	7363
757.121	8800
757.231	8188
757.341	8760
757.451	9512
757.561	8690
757.671	8630
757.781	8142
757.891	8628
758.001	8464
758.111	9004
758.221	8699
758.331	8702
758.441	7856
758.551	8249
758.661	8661
758.771	8907
758.880	9025
758.990	9238
759.100	9367
759.210	8837
759.320	9336
759.429	9755
759.539	9625
759.649	8886
759.758	9317
759.868	9869
759.978	9602
760.087	9185
760.197	10116
760.307	9913
760.416	10068
760.526	9779
760.635	10557
760.745	10799
760.854	10578
760.964	11603
761.073	11289
761.182	10774
761.292	11270
761.401	11710
761.511	10880
761.620	12065
761.729	11042
761.839	11271
761.948	12590
762.057	12621
762.166	12660
762.276	12001
762.385	14576
762.494	13379
762.603	13041
762.712	14420
762.822	14661
762.931	14816
763.040	14284
763.149	14986
763.258	16153
763.367	16427
763.476	17166
763.585	17485
763.694	18587
763.803	20208
763.912	20206
764.021	21156
764.130	21574
764.238	23566
764.347	24345
764.456	26472
764.565	27997
764.674	30802
764.783	32819
764.891	35300
765.000	39672
765.109	44583
765.217	50220
765.326	57730
765.435	67330
765.543	80354
765.652	98337
765.761	124084
765.869	162834
765.978	220747
766.086	306892
766.195	433015
766.303	561271
766.412	511670
766.520	427422
766.629	536985
766.737	451413
766.846	332305
766.954	241093
767.062	181224
767.171	139065
767.279	111072
767.387	90598
767.496	76415
767.604	66806
767.712	57385
767.820	50651
767.928	48137
768.037	44931
768.145	42349
768.253	40352
768.361	37683
768.469	38106
768.577	38084
768.685	39826
768.793	41769
768.901	45657
769.009	50819
769.117	60255
769.225	74372
769.333	98010
769.441	140938
769.549	215316
769.657	349516
769.765	507012
769.873	445663
769.981	461778
770.088	391632
770.196	253756
770.304	169200
770.412	122066
770.519	92999
770.627	74005
770.735	60611
770.842	51671
770.950	43907
771.058	39383
771.165	35474
771.273	33115
771.380	30210
771.488	27828
771.595	26658
771.703	24855
771.810	22406
771.918	21974
772.025	20597
772.133	19428
772.240	17484
772.348	18468
772.455	17601
772.562	16973
772.670	16031
772.777	16364
772.884	15026
772.991	13765
773.099	13862
773.206	13236
773.313	14321
773.420	13888
773.528	12410
773.635	11976
773.742	12586
773.849	12140
773.956	11920
774.063	11417
774.170	11357
774.277	11506
774.384	11715
774.491	11312
774.598	11143
774.705	10685
774.812	10330
774.919	11531
775.026	10684
775.133	10209
775.239	9920
775.346	9786
775.453	9783
775.560	10122
775.667	10377
775.773	9524
775.880	10145
775.987	9507
776.093	9213
776.200	9236
776.307	8013
776.413	9133
776.520	8248
776.627	9558
776.733	8241
776.840	8581
776.946	9552
777.053	8314
777.159	8359
777.266	7876
777.372	8648
777.478	7227
777.585	8192
777.691	8046
777.798	8115
777.904	8202
778.010	8880
778.117	7999
778.223	7722
778.329	7420
778.435	7578
778.542	8195
778.648	7109
778.754	7698
778.860	7267
778.966	7447
779.072	8057
779.178	7671
779.284	7497
779.391	7167
779.497	8061
779.603	10520
779.708	12777
779.815	21914
779.920	65301
780.026	164170
780.132	47713
780.238	11494
780.344	8515
780.450	8284
780.556	7441
780.661	6390
780.767	7122
780.873	6829
780.979	7672
781.085	5672
781.190	6365
781.296	7100
781.402	6460
781.507	5854
781.613	6823
781.719	5750
781.824	6293
781.930	5977
782.035	6063
782.141	5471
782.246	6314
782.352	5407
782.457	5862
782.563	6491
782.668	6406
782.773	5609
782.879	5814
782.984	5681
783.090	6177
783.195	5938
783.300	6187
783.405	5432
783.511	5943
783.616	5856
783.721	5901
783.826	5695
783.932	5470
784.037	6086
784.142	5640
784.247	5964
784.352	5888
784.457	4924
784.562	4576
784.667	5494
784.772	5304
784.877	5213
784.982	5834
785.087	5503
785.192	5578
785.297	5623
785.402	4611
785.507	5508
785.611	5687
785.716	5703
785.821	5778
785.926	5191
786.031	4756
786.135	5716
786.240	5567
786.345	4407
786.450	5730
786.554	4514
786.659	4495
786.763	4416
786.868	4983
786.973	5810
787.077	4661
787.182	4549
787.286	4883
787.391	4451
787.495	4536
787.600	4271
787.704	4389
787.809	5000
787.913	4657
788.017	4656
788.122	5187
788.226	5056
788.330	4052
788.435	4410
788.539	4623
788.643	4327
788.747	4921
788.852	4595
788.956	4689
789.060	4020
789.164	4344
789.268	3913
789.372	5098
789.476	3776
789.580	4190
789.684	4334
789.788	4530
789.892	3952
789.996	4727
790.100	4366
790.204	3849
790.308	5081
790.412	4472
790.516	4779
790.620	4467
790.724	4509
790.828	4110
790.931	3573
791.035	4918
791.139	4022
791.242	4143
791.346	4857
791.450	4248
791.554	3814
791.657	4533
791.761	4488
791.864	4124
791.968	4344
792.072	4473
792.175	4100
792.279	3856
792.382	3932
792.486	4402
792.589	3676
792.693	5363
792.796	4324
792.899	5153
793.003	4699
793.106	3298
793.209	4292
793.313	4248
793.416	2584
793.519	3791
793.623	4397
793.726	4463
793.829	4631
793.932	3955
794.035	3126
794.138	5189
794.242	4915
794.345	5428
794.448	7468
794.551	12547
794.654	38051
794.757	104283
794.860	32652
794.963	6644
795.066	4354
795.169	4850
795.272	3974
795.375	4437
795.477	2857
795.580	4254
795.683	3244
795.786	3896
795.889	3647
795.991	5432
796.094	3472
796.197	2931
796.300	3969
796.402	3201
796.505	4050
796.608	2845
796.710	3699
796.813	2843
796.915	3349
797.018	3316
797.120	3757
797.223	2906
797.326	4971
797.428	2747
797.530	3090
797.633	2834
797.735	4313
797.838	3085
797.940	4283
798.042	4026
798.145	2601
798.247	2909
798.349	2872
798.452	3837
798.554	3273
798.656	3250
798.758	4389
798.860	3539
798.962	3150
799.065	3470
799.167	2570
799.269	4168
799.371	3986
799.473	3992
799.575	3097
799.677	3313
799.779	3566
799.881	2854
799.983	3724
800.085	3432
800.187	3547
800.289	3358
800.390	3996
800.492	3355
800.594	4562
800.696	3165
800.798	3476
800.899	3521
801.001	2652
801.103	3391
801.205	2738
801.306	3526
801.408	2913
801.509	2767
801.611	2304
801.713	3909
801.814	2057
801.916	3384
802.017	2878
802.119	2354
802.220	2093
802.322	1621
802.423	4045
802.525	2763
802.626	3300
802.727	2623
802.829	3002
802.930	1884
803.031	3479
803.133	1934
803.234	3111
803.335	2980
803.436	2403
803.538	2651
803.639	1964
803.740	2884
803.841	2046
803.942	3275
804.043	2984
804.144	2273
804.245	2247
804.346	3128
804.447	2565
804.548	2666
804.649	3387
804.750	2835
804.851	2527
804.952	2273
805.053	2447
805.154	1387
805.255	2972
805.355	2525
805.456	2577
805.557	2908
805.658	1569
805.758	3801
805.859	2254
805.960	3136
806.061	2259
806.161	2592
806.262	3220
806.362	2720
806.463	2756
806.564	2723
806.664	2406
806.765	3074
806.865	2663
806.966	3169
807.066	2099
807.166	3119
807.267	2632
807.367	2529
807.468	2905
807.568	2663
807.668	3008
807.769	2421
807.869	2678
807.969	2639
808.069	2254
808.170	2478
808.270	2768
808.370	2337
808.470	2904
808.570	2432
808.670	2060
808.770	2908
808.870	2338
808.970	2277
809.070	2408
809.170	1674
809.271	2509
809.370	2733
809.470	3443
809.570	2407
809.670	1900
809.770	2546
809.870	2345
809.970	2659
810.070	1665
810.169	2866
810.269	1967
810.369	3517
810.469	2707
810.568	1372
810.668	2690
810.768	2523
810.867	3219
810.967	2193
811.066	1954
811.166	2370
811.265	2798
811.365	3073
811.464	2118
811.564	2964
811.663	2655
811.763	1155
811.862	2203
811.962	2766
812.061	2718
812.160	1886
812.260	2541
812.359	2820
812.458	2828
812.557	4737
812.657	4223
812.756	3370
812.855	2765
812.954	2651
813.053	2629
813.153	2588
813.252	2279
813.351	2624
813.450	2591
813.549	2136
813.648	2976
813.747	1607
813.846	2308
813.945	2276
814.044	2223
814.143	2862
814.242	2261
814.341	2132
814.439	2571
814.538	2565
814.637	2502
814.736	2291
814.835	2797
814.933	2149
815.032	2504
815.131	3119
815.229	2977
815.328	3380
815.427	3198
815.525	3790
815.624	2893
815.722	2344
815.821	3222
815.919	3263
816.018	2916
816.116	3571
816.215	2670
816.313	2145
816.412	3155
816.510	3460
816.609	4135
816.707	4133
816.805	3202
816.904	3303
817.002	3122
817.100	4768
817.198	4291
817.296	4267
817.395	4088
817.493	5011
817.591	4447
817.689	5228
817.787	7193
817.885	9579
817.983	14560
818.081	26109
818.179	57180
818.277	131216
818.375	145289
818.473	52132
818.571	20124
818.669	13007
818.767	11112
818.865	11303
818.963	12322
819.061	15341
819.158	24685
819.256	47317
819.354	97226
819.452	192288
819.549	161170
819.647	63537
819.745	27440
819.842	17395
819.940	11780
820.038	8311
820.135	7708
820.233	6879
820.330	6103
820.428	4745
820.525	5236
820.623	3947
820.720	3950
820.818	4019
820.915	3948
821.012	3982
821.110	2727
821.207	3434
821.304	3208
821.402	2916
821.499	4111
821.596	3256
821.693	3849
821.791	3438
821.888	2882
821.985	2682
822.082	3845
822.179	2742
822.276	3367
822.373	2840
822.470	2902
822.567	3094
822.664	1993
822.761	3569
822.858	2715
822.955	2436
823.052	2597
823.149	3059
823.246	2854
823.343	2595
823.440	3294
823.536	2166
823.633	1829
823.730	2567
823.827	2253
823.923	2862
824.020	2466
824.117	2560
824.213	2091
824.310	2849
824.407	2345
824.503	2616
824.600	2872
824.696	2102
824.793	2505
824.889	1962
824.986	2269
825.082	2376
825.179	2260
825.275	1981
825.371	2372
825.468	2929
825.564	1885
825.660	2761
825.757	3108
825.853	2994
825.949	2641
826.045	1882
826.142	2423
826.238	2474
826.334	2829
826.430	1362
826.526	2149
826.622	2236
826.718	2185
826.814	2280
826.910	2031
827.006	1955
827.102	2299
827.198	3062
827.294	2588
827.390	3043
827.486	2588
827.582	1428
827.678	686
827.774	2902
827.869	1277
827.965	2420
828.061	1598
828.157	1953
828.252	1981
828.348	1818
828.444	2353
828.539	1452
828.635	2135
828.731	2166
828.826	921
828.922	2812
829.017	1963
829.113	2263
829.208	1339
829.304	1562
829.399	2665
829.495	2409
829.590	2446
829.685	1393
829.781	2643
829.876	2191
829.971	735
830.066	2745
830.162	1950
830.257	2139
830.352	1289
830.447	2235
830.543	2024
830.638	1530
830.733	2425
830.828	1588
830.923	2385
831.018	1980
831.113	1599
831.208	1879
831.303	1855
831.398	1774
831.493	1462
831.588	2215
831.683	1344
831.778	2495
831.873	1430
831.967	2460
832.062	1888
832.157	2471
832.252	2229
832.346	723
832.441	1380
832.536	1826
832.631	2751
832.725	3022
832.820	2166
832.914	1609
833.009	977
833.104	1904
833.198	2063
833.293	1043
833.387	1997
833.482	1892
833.576	853
833.670	1773
833.765	1900
833.859	2036
833.954	1907
834.048	2165
834.142	1575
834.237	1522
834.331	2241
834.425	2242
834.519	1159
834.613	2558
834.708	1902
834.802	2093
834.896	1954
834.990	1401
835.084	2117
835.178	1881
835.272	1756
835.366	1251
835.460	2343
835.554	1804
835.648	1464
835.742	1651
835.836	1748
835.930	2054
836.024	2360
836.117	2600
836.211	1367
836.305	1160
836.399	2086
836.493	1670
836.586	2639
836.680	1164
836.774	1662
836.867	2451
836.961	1114
837.055	1218
837.148	1150
837.242	1622
837.335	1211
837.429	1353
837.522	1520
837.616	2363
837.709	2255
837.803	1921
837.896	2434
837.989	2057
838.083	2359
838.176	2623
838.269	1905
838.363	2487
838.456	902
838.549	2352
838.642	2085
838.735	3321
838.829	3190
838.922	1753
839.015	1116
839.108	2001
839.201	1855
839.294	2115
839.387	1897
839.480	2666
839.573	1874
839.666	2085
839.759	1712
839.852	1000
839.945	1843
840.038	657
840.131	904
840.223	748
840.316	1932
840.409	1613
840.502	553
840.594	2128
840.687	452
840.780	1130
840.873	998
840.965	1489
841.058	2153
841.150	1828
841.243	1110
841.336	2092
841.428	1848
841.521	2018
841.613	767
841.706	2191
841.798	1654
841.890	2447
841.983	1362
842.075	2548
842.167	1296
842.260	1166
842.352	2291
842.444	2540
842.537	1987
842.629	3647
842.721	1475
842.813	946
842.905	490
842.997	1760
843.090	1731
843.182	2653
843.274	3055
843.366	3932
843.458	5712
843.550	4941
843.642	2615
843.734	1882
843.826	886
843.918	1187
844.009	1785
844.101	1117
844.193	1497
844.285	1877
844.377	2607
844.469	1443
844.560	241
844.652	2103
844.744	1773
844.835	1228
844.927	1775
845.019	1572
845.110	1395
845.202	1226
845.293	1531
845.385	1146
845.476	1157
845.568	1913
845.659	1857
845.751	2359
845.842	523
845.934	1479
846.025	719
846.116	1858
846.208	306
846.299	1163
846.390	1926
846.482	1739
846.573	1952
846.664	1975
846.755	1158
846.846	2242
846.937	1116
847.029	1266
847.120	1563
847.211	1346
847.302	2017
847.393	986
847.484	1415
847.575	721
847.666	961
847.757	1481
847.847	972
847.938	1807
848.029	1286
848.120	1780
848.211	1503
848.302	1437
848.392	1246
848.483	1968
848.574	879
848.664	1616
848.755	1981
848.846	1425
848.936	729
849.027	2503
849.118	1607
849.208	1233
849.299	1601
849.389	2030
849.480	2057
849.570	2305
849.661	2979
849.751	4737
849.841	3519
849.932	1527
850.022	1387
850.112	2185
850.203	2012
850.293	890
850.383	1062
850.474	434
850.564	1132
850.654	1695
850.744	1457
850.834	1367
850.924	913
851.014	1239
851.104	2098
851.194	1585
851.284	1296
851.374	1390
851.464	1476
851.554	1963
851.644	1255
851.734	2871
851.824	3268
851.914	3841
852.004	7042
852.094	9525
852.183	2865
852.273	1700
852.363	1521
852.452	963
852.542	1108
852.632	874
852.721	757
852.811	578
852.901	894
852.990	1023
853.080	1579
853.169	1479
853.259	-33
853.348	1243
853.438	1653
853.527	2384
853.617	1195
853.706	2512
853.795	2605
853.885	5981
853.974	8773
854.063	14502
854.152	23670
854.242	13147
854.331	2838
854.420	1525
854.509	1736
854.598	1082
854.687	1536
854.777	1589
854.866	584
854.955	1423
855.044	1351
855.133	1694
855.222	1434
855.311	1331
855.400	1472
855.488	1548
855.577	622
855.666	1166
855.755	1775
855.844	1493
855.933	1613
856.021	1952
856.110	971
856.199	1239
856.288	1008
856.376	1596
856.465	1141
856.554	931
856.642	353
856.731	992
856.819	1642
856.908	1516
856.996	1338
857.085	245
857.173	1233
857.262	1247
857.350	922
857.438	1737
857.527	1443
857.615	823
857.703	1031
857.792	1202
857.880	815
857.968	1212
858.056	576
858.145	1875
858.233	1018
858.321	1100
858.409	1418
858.497	412
858.585	1305
858.673	1288
858.761	869
858.849	896
858.937	558
859.025	1132
859.113	1203
859.201	722
859.289	2023
859.377	931
859.465	1356
859.552	1084
859.640	1262
859.728	1678
859.816	1036
859.903	1194
859.991	1222
860.079	1367
860.166	-296
860.254	1273
860.342	1409
860.429	1005
860.517	623
860.604	1719
860.692	1055
860.779	562
860.867	1392
860.954	270
861.042	1279
861.129	1009
861.216	1747
861.304	299
861.391	896
861.478	854
861.565	1493
861.653	1507
861.740	1210
861.827	1215
861.914	932
862.001	1140
862.089	1442
862.176	1042
862.263	574
862.350	826
862.437	420
862.524	1597
862.611	1314
862.698	1502
862.785	947
862.871	1186
862.958	761
863.045	754
863.132	1513
863.219	1557
863.306	779
863.392	1978
863.479	768
863.566	406
863.652	1096
863.739	611
863.826	1043
863.912	1519
863.999	-161
864.086	1083
864.172	562
864.259	1473
864.345	910
864.432	1136
864.518	1074
864.604	1239
864.691	382
864.777	1627
864.863	895
864.950	1736
865.036	617
865.122	1983
865.209	2557
865.295	2186
865.381	1339
865.467	2150
865.553	1670
865.639	1506
865.726	2313
865.812	3240
865.898	4932
865.984	6791
866.070	11021
866.156	14983
866.242	6137
866.328	2261
866.414	1323
866.499	1782
866.585	1588
866.671	1518
866.757	1318
866.843	2085
866.928	1512
867.014	1509
867.100	1829
867.186	1466
867.271	1868
867.357	1858
867.442	2258
867.528	2454
867.614	1007
867.699	1665
867.785	1474
867.870	2153
867.956	1251
868.041	2282
868.127	2034
868.212	1757
868.297	1870
868.383	2328
868.468	2287
868.553	2290
868.639	1886
868.724	2834
868.809	2890
868.894	2572
868.979	1498
869.065	1953
869.150	703
869.235	1686
869.320	1546
869.405	1259
869.490	1297
869.575	1060
869.660	1522
869.745	2253
869.830	912
869.915	291
870.000	617
870.085	927
870.169	1914
870.254	1659
870.339	576
870.424	1581
870.509	1072
870.593	1398
870.678	1826
870.763	1047
870.847	1394
870.932	1024
871.016	1969
871.101	1561
871.186	1613
871.270	2105
871.355	363
871.439	1459
871.523	1453
871.608	1351
871.692	1578
871.777	946
871.861	1240
871.945	824
872.030	1785
872.114	991
872.198	767
872.282	1242
872.367	1561
872.451	1075
872.535	911
872.619	1478
872.703	930
872.787	895
872.871	1136
872.955	834
873.039	917
873.123	881
873.207	1274
873.291	483
873.375	646
873.459	989
873.543	1545
873.627	1198
873.711	1383
873.794	707
873.878	299
873.962	984
874.045	1081
874.129	1138
874.137	1124
874.213	988
874.245	990
874.296	995
874.352	960
874.380	943
874.460	1454
874.464	1476
874.547	1211
874.568	1253
874.631	1349
874.676	1385
874.714	1456
874.784	1137
874.798	1065
874.881	2108
874.892	1922
874.965	627
874.999	632
875.048	647
875.107	1268
875.131	1508
875.215	631
875.215	631
875.298	1040
875.323	945
875.381	741
875.430	737
875.465	730
875.538	737
875.548	732
875.631	633
875.646	551
875.714	200
875.753	794
875.798	1466
875.861	850
875.881	644
875.964	615
875.968	649
876.047	1291
876.076	1226
876.130	1153
876.183	961
876.213	861
876.291	1551
876.296	1585
876.379	449
876.398	462
876.462	599
876.506	539
876.545	490
876.613	1140
876.628	1257
876.711	608
876.721	691
876.794	1526
876.828	1196
876.877	659
876.935	828
876.960	897
877.043	1135
877.043	1135
877.125	1244
877.150	1378
877.208	1626
877.258	1394
877.291	1274
877.365	551
877.374	459
877.456	788
877.472	898
877.539	1307
877.579	1239
877.622	1280
877.687	1460
877.704	1486
877.787	1168
877.794	1129
877.869	650
877.901	720
877.952	916
878.008	588
878.034	372
878.115	473
878.117	477
878.199	935
878.222	992
878.282	1253
878.329	1450
878.364	1531
878.437	1034
878.447	984
878.529	698
878.544	737
878.611	720
878.651	743
878.694	817
878.758	883
878.776	959
878.858	1183
878.865	1153
878.941	433
878.972	415
879.023	551
879.078	149
879.105	-55
879.185	431
879.187	440
879.269	1253
879.292	1133
879.351	840
879.399	761
879.433	722
879.506	918
879.516	935
879.598	791
879.613	762
879.680	878
879.720	1013
879.762	985
879.827	1026
879.844	1040
879.926	650
879.933	633
880.007	345
880.040	272
880.089	425
880.147	518
880.171	536
880.253	1154
880.254	1151
880.335	744
880.360	1021
880.417	1478
880.467	1286
880.499	1512
880.574	2579
880.580	2583
880.662	1868
880.680	1721
880.744	969
880.787	443
880.825	300
880.893	366
880.907	424
880.989	700
881.000	770
881.070	687
881.106	524
881.152	559
881.213	658
881.233	612
881.315	160
881.319	164
881.396	764
881.426	874
881.478	880
881.532	917
881.559	828
881.639	558
881.641	556
881.722	469
881.745	624
881.803	1481
881.852	1462
881.885	1088
881.958	537
881.966	475
882.047	1025
882.064	852
882.129	681
882.171	940
882.210	957
882.277	855
882.291	898
882.372	788
882.383	853
882.454	889
882.489	716
882.535	607
882.596	537
882.616	521
882.697	733
882.702	717
882.778	820
882.808	943
882.859	918
882.914	1038
882.940	934
883.020	299
883.021	301
883.102	554
883.127	602
883.183	117
883.233	53
883.264	352
883.339	879
883.345	847
883.426	108
883.445	56
883.507	778
883.551	917
883.587	774
883.657	914
883.668	875
883.749	571
883.763	480
883.830	239
883.869	110
883.910	122
883.975	301
883.991	373
884.072	542
884.081	580
884.152	1060
884.187	1128
884.233	825
884.292	754
884.314	824
884.394	685
884.398	699
884.475	1099
884.504	1111
884.555	764
884.610	519
884.636	478
884.716	269
884.716	271
884.797	633
884.821	608
884.877	201
884.927	343
884.958	669
885.033	911
885.038	881
885.118	440
885.139	320
885.199	329
885.244	452
885.279	560
885.350	647
885.359	656
885.439	810
885.456	768
885.520	355
885.561	366
885.600	649
885.667	932
885.680	885
885.760	426
885.773	405
885.840	815
885.878	1012
885.920	811
885.984	327
886.000	399
886.080	864
886.089	926
886.160	543
886.195	308
886.240	600
886.300	781
886.320	598
886.400	370
886.406	340
886.480	707
886.511	845
886.560	977
886.616	1042
886.640	985
886.720	921
886.722	917
886.800	708
886.827	693
886.879	1034
886.932	1142
886.959	1110
887.038	1075
887.039	1074
887.119	843
887.143	821
887.198	653
887.248	373
887.278	497
887.354	946
887.358	934
887.437	588
887.459	510
887.517	1214
887.564	1722
887.596	1352
887.669	654
887.676	666
887.755	653
887.774	684
887.835	600
887.880	527
887.914	681
887.985	897
887.994	848
888.073	483
888.090	384
888.153	573
888.195	789
888.232	832
888.300	825
888.311	848
888.391	1018
888.405	1049
888.470	737
888.510	496
888.549	440
888.615	475
888.628	511
888.708	660
888.720	682
888.787	766
888.825	795
888.866	803
888.930	857
888.945	845
889.024	788
889.035	779
889.103	1097
889.140	1260
889.182	1101
889.245	874
889.261	901
889.340	1065
889.349	1083
889.419	575
889.454	312
889.498	454
889.559	695
889.577	844
889.656	1499
889.664	1564
889.735	1626
889.768	1650
889.814	1572
889.873	1465
889.978	532
890.083	740
890.187	-285
890.292	468
890.397	1345
890.501	152
890.606	401
890.710	813
890.815	556
890.919	711
891.024	314
891.128	1534
891.233	553
891.337	1234
891.442	939
891.546	597
891.650	507
891.755	1322
891.859	1151
891.963	1267
892.068	1352
892.172	1104
892.276	655
892.380	674
892.484	265
892.589	735
892.693	674
892.797	958
892.901	410
893.005	831
893.109	1141
893.213	581
893.317	866
893.421	837
893.525	455
893.629	521
893.733	436
893.837	1091
893.941	1054
894.045	2280
894.148	1093
894.252	3729
894.356	2667
894.460	696
894.564	627
894.667	1105
894.771	322
894.875	497
894.978	359
895.082	378
895.186	294
895.289	1002
895.393	1030
895.496	1648
895.600	-92
895.703	219
895.807	347
895.910	56
896.014	560
896.117	1863
896.221	846
896.324	901
896.427	567
896.531	1038
896.634	-432
896.737	772
896.840	595
896.944	595
897.047	927
897.150	-293
897.253	693
897.356	603
897.460	322
897.563	-118
897.666	-71
897.769	323
897.872	985
897.975	320
898.078	522
898.181	531
898.284	1188
898.387	537
898.490	291
898.593	736
898.695	41
898.798	823
898.901	672
899.004	830
899.107	-28
899.209	336
899.312	1182
899.415	313
899.518	441
899.620	311
899.723	424
899.826	534
899.928	767
900.031	1642
900.133	350
900.236	724
900.338	780
900.441	351
900.543	-491
900.646	724
900.748	235
900.851	635
900.953	243
901.055	339
901.158	-121
901.260	996
901.362	690
901.465	7
901.567	-177
901.669	916
901.771	-392
901.873	468
901.976	458
902.078	868
902.180	85
902.282	-1
902.384	-161
902.486	946
902.588	51
902.690	1328
902.792	490
902.894	557
902.996	-125
903.098	227
903.200	978
903.302	393
903.404	691
903.505	-248
903.607	686
903.709	449
903.811	918
903.913	639
904.014	364
904.116	1082
904.218	-915
904.319	183
904.421	276
904.523	210
904.624	102
904.726	352
904.827	119
904.929	568
905.030	449
905.132	307
905.233	-152
905.335	824
905.436	710
905.537	17
905.639	231
905.740	125
905.841	1030
905.943	319
906.044	111
906.145	824
906.247	-206
906.348	183
906.449	331
906.550	786
906.651	315
906.752	284
906.854	646
906.955	87
907.056	-266
907.157	429
907.258	162
907.359	509
907.460	-31
907.561	704
907.662	836
907.762	666
907.863	-128
907.964	-224
908.065	1002
908.166	797
908.267	461
908.367	-111
908.468	162
908.569	1295
908.670	132
908.770	511
908.871	571
908.971	1366
909.072	441
909.173	557
909.273	177
909.374	-88
909.474	152
909.575	310
909.675	369
909.776	567
909.876	-92
909.977	-138
910.077	-233
910.177	675
910.278	-901
910.378	372
910.478	322
910.579	252
910.679	-160
910.779	739
910.879	432
910.980	460
911.080	101
911.180	1299
911.280	-15
911.380	83
911.480	154
911.580	764
911.680	-70
911.780	742
911.880	550
911.980	350
912.080	39
912.180	216
912.280	-957
912.380	338
912.480	-618
912.580	1064
912.679	-30
912.779	1036
912.879	267
912.979	-276
913.078	-149
913.178	-37
913.278	-25
913.377	708
913.477	238
913.577	-507
913.676	1026
913.776	-288
913.875	182
913.975	51
914.074	239
914.174	47
914.273	22
914.373	721
914.472	-524
914.572	236
914.671	-273
914.770	228
914.870	-777
914.969	-165
915.068	-152
915.167	37
915.267	-242
915.366	-583
915.465	396
915.564	1166
915.663	-842
915.763	217
915.862	233
915.961	-177
916.060	288
916.159	280
916.258	-278
916.357	-266
916.456	278
916.555	-325
916.654	-408
916.752	205
916.851	91
916.950	-79
917.049	-200
917.148	485
917.247	675
917.345	311
917.444	-288
917.543	228
917.642	46
917.740	273
917.839	-754
917.937	292
918.036	-358
918.135	4
918.233	298
918.332	982
918.430	644
918.529	-277
918.627	-821
918.726	-568
918.824	167
918.923	-274
919.021	129
919.119	-514
919.218	-38
919.316	-123
919.414	311
919.512	336
919.611	200
919.709	-340
919.807	-650
919.905	-156
920.003	-383
920.102	-157
920.200	-2
920.298	-11
920.396	-143
920.494	263
920.592	355
920.690	402
920.788	592
920.886	217
920.984	85
921.082	-32
921.180	748
921.277	-330
921.375	-387
921.473	593
921.571	218
921.669	205
921.766	268
921.864	466
921.962	965
922.060	391
922.157	748
922.255	652
922.352	287
922.450	747
922.548	645
922.645	950
922.743	401
922.840	598
922.938	1216
923.035	1715
923.133	1106
923.230	1287
923.327	1312
923.425	1858
923.522	604
923.619	1474
923.717	825
923.814	407
923.911	-22
924.008	1633
924.106	1233
924.203	908
924.300	675
924.397	1424
924.494	1263
924.591	1258
924.688	106
924.786	1380
924.883	851
924.979	738
925.077	1241
925.173	969
925.270	849
925.367	316
925.464	854
925.561	1221
925.658	514
925.755	941
925.852	1306
925.948	1690
926.045	469
926.142	435
926.239	101
926.335	1199
926.432	1089
926.529	1204
926.625	1178
926.722	308
926.818	811
926.915	568
927.011	668
927.108	461
927.204	508
927.301	409
927.397	246
927.494	1070
927.590	466
927.687	-37
927.783	545
927.879	598
927.976	222
928.072	565
928.168	721
928.264	618
928.361	1600
928.457	1253
928.553	659
928.649	1418
928.745	664
928.841	1266
928.937	518
929.033	1125
929.129	739
929.225	635
929.321	-319
929.417	930
929.513	1028
929.609	535
929.705	866
929.801	718
929.897	640
929.993	227
930.089	536
930.184	671
930.280	358
930.376	1009
930.471	460
930.567	679
930.663	248
930.758	599
930.854	772
930.950	-38
931.045	611
931.141	830
931.236	486
931.332	750
931.427	59
931.523	860
931.618	568
931.714	-3
931.809	697
931.905	529
932.000	158
932.095	442
932.191	-461
932.286	494
932.381	758
932.476	56
932.572	-42
932.667	752
932.762	574
932.857	506
932.952	78
933.047	97
933.142	151
933.237	811
933.332	-511
933.427	708
933.522	218
933.617	135
933.712	397
933.807	757
933.902	204
933.997	482
934.092	288
934.187	436
934.282	391
934.376	255
934.471	407
934.566	602
934.661	361
934.755	-161
934.850	-113
934.945	609
935.039	961
935.134	796
935.228	46
935.323	928
935.417	165
935.512	-406
935.606	454
935.701	585
935.795	584
935.890	24
935.984	102
936.079	522
936.173	954
936.267	449
936.362	-756
936.456	598
936.550	-472
936.644	318
936.738	-139
936.833	-203
936.927	-382
937.021	137
937.115	485
937.209	-454
937.303	646
937.397	354
937.491	196
937.585	189
937.679	133
937.773	-171
937.867	177
937.961	-621
938.055	70
938.149	183
938.243	145
938.337	122
938.430	-387
938.524	217
938.618	6
938.712	729
938.805	-128
938.899	424
938.993	-47
939.086	475
939.180	-233
939.274	-663
939.367	586
939.461	-212
939.554	-795
939.648	-122
939.741	440
939.835	134
939.928	571
940.022	-101
940.115	-192
940.208	425
940.302	683
940.395	335
940.488	-449
940.582	399
940.675	-397
940.768	-59
940.861	-80
940.954	-653
941.048	-101
941.141	-560
941.234	-354
941.327	-303
941.420	-98
941.513	376
941.606	-181
941.699	851
941.792	-505
941.885	274
941.978	-860
942.071	122
942.164	-223
942.257	537
942.349	-151
942.442	-72
942.535	-125
942.628	-451
942.721	-553
942.813	-739
942.906	-188
942.999	-51
943.091	-1173
943.184	299
943.277	-734
943.369	201
943.462	-373
943.554	-825
943.647	-623
943.739	-540
943.832	-532
943.924	-432
944.017	-908
944.109	-1036
944.201	170
944.294	342
944.386	-692
944.478	-10
944.571	-741
944.663	-11
944.755	-456
944.847	75
944.940	76
945.032	35
945.124	-931
945.216	-50
945.308	116
945.400	203
945.492	-211
945.584	6
945.676	-285
945.768	-32
945.860	138
945.952	-636
946.044	593
946.136	71
946.228	-243
946.320	-159
946.412	-657
946.503	-759
946.595	122
946.687	-576
946.779	-743
946.870	-403
946.962	-756
947.054	-26
947.145	-689
947.237	-291
947.329	-152
947.420	-285
947.512	-506
947.603	-593
947.695	-567
947.786	-1032
947.878	-273
947.969	0
948.061	-796
948.152	-350
948.243	-758
948.335	-243
948.426	-431
948.517	-905
948.609	20
948.700	-16
948.791	-527
948.882	-238
948.973	-537
949.065	-758
949.156	-139
949.247	-732
949.338	-787
949.429	-455
949.520	-1180
949.611	-394
949.702	-389
949.793	-961
949.884	-127
949.975	-998
950.066	-669
950.157	-524
950.247	-189
950.338	-134
950.429	-196
950.520	-852
950.611	-206
950.701	-82
950.792	1
950.883	-121
950.973	-916
951.064	-900
951.155	-608
951.245	744
951.336	-292
951.427	-399
951.517	-49
951.608	44
951.698	-563
951.788	-178
951.879	-328
951.969	-362
952.060	-815
952.150	-812
952.240	-992
952.331	-1620
952.421	-251
952.511	-1254
952.602	-607
952.692	-929
952.782	-370
952.872	-606
952.962	-1189
953.052	-78
953.143	-774
953.233	-165
953.323	-1
953.413	-502
953.503	-304
953.593	-261
953.683	-1299
953.773	-1460
953.863	-125
953.953	-570
954.042	32
954.132	21
954.222	-29
954.312	-472
954.402	-952
954.492	-499
954.581	150
954.671	-83
954.761	-1023
954.850	56
954.940	-715
955.030	-859
955.119	-635
955.209	-417
955.298	-1080
955.388	-853
955.477	-516
955.567	-623
955.656	-892
955.746	-693
955.835	-1025
955.925	-412
956.014	-1109
956.103	-619
956.193	-470
956.282	-409
956.371	-396
956.461	-1141
956.550	-607
956.639	-490
956.728	-1025
956.817	-143
956.906	-977
956.995	-21
957.085	-368
957.174	-447
957.263	-1032
957.352	-717
957.441	-978
957.530	-246
957.619	-56
957.708	-294
957.796	-1129
957.885	-353
957.974	-387
958.063	-391
958.152	-933
958.241	-41
958.329	-136
958.418	-344
958.507	-1271
958.596	-569
958.684	-837
958.773	-387
958.861	318
958.950	-363
959.039	-678
959.127	-629
959.216	296
959.304	-144
959.393	-2
959.481	-533
959.570	-466
959.658	-135
959.746	-248
959.835	342
959.923	916
960.011	457
960.100	383
960.188	-453
960.276	-1406
960.365	-494
960.453	-877
960.541	-382
960.629	-732
960.717	-613
960.805	-1022
960.893	-971
960.981	-1128
961.069	594
961.158	-532
961.245	45
961.333	124
961.421	-484
961.509	-1875
961.597	-166
961.685	-1694
961.773	-1241
961.861	-670
961.949	-494
962.036	-940
962.124	-1136
962.212	-506
962.299	-1116
962.387	-625
962.475	-441
962.562	-1525
962.650	-565
962.738	-641
962.825	-628
962.913	-182
963.000	-385
963.088	-1034
963.175	-740
963.263	-1851
963.350	-525
963.438	-679
963.525	85
963.612	41
963.700	1475
963.787	5317
963.874	4215
963.962	-100
964.049	-593
964.136	-239
964.223	-571
964.310	-1716
964.398	-956
964.485	-560
964.572	-363
964.659	-481
964.746	812
964.833	-752
964.920	-955
965.007	-1437
965.094	-1757
965.181	-1809
965.268	-1018
965.355	-580
965.441	-895
965.528	-1637
965.615	-235
965.702	-623
965.789	-827
965.875	-852
965.962	-1149
966.049	-1645
966.136	-1040
966.222	-938
966.309	-516
966.395	-1682
966.482	-560
966.569	-638
966.655	-729
966.742	-860
966.828	-663
966.915	-1090
967.001	-686
967.087	-587
967.174	-874
967.260	-536
967.347	257
967.433	88
967.519	3148
967.605	1173
967.692	-1117
967.778	-1160
967.864	-297
967.950	-289
968.036	-667
968.123	-764
968.209	-1068
968.295	-1005
968.381	-655
968.467	-635
968.553	-1836
968.639	-735
968.725	-234
968.811	-564
968.897	255
968.983	-1067
969.069	-1377
969.154	-991
969.240	-1
969.326	-1033
969.412	-379
969.497	-1679
969.583	-248
969.669	-1647
969.755	-867
969.840	-813
969.926	-1034
970.012	-1134
970.097	-444
970.183	-1019
970.268	-712
970.354	-844
970.439	-118
970.525	2257
970.610	772
970.696	-613
970.781	-489
970.866	-1648
970.952	-1040
971.037	-1313
971.122	-1247
971.208	-1879
971.293	-1145
971.378	-1373
971.463	-994
971.549	-849
971.634	-919
971.719	-818
971.804	-392
971.889	190
971.974	-554
972.059	-1712
972.144	-327
972.229	-857
972.314	-1618
972.399	-480
972.484	-1077
972.569	-636
972.654	-1317
972.739	-253
972.824	992
972.908	-825
972.993	-866
973.078	-1162
973.163	-2099
973.247	-1249
973.332	-1854
973.417	-989
973.501	-1177
973.586	-1693
973.671	-1606
973.755	-1952
973.840	-1515
973.924	-543
974.009	-684
974.093	-1590
974.178	-341
974.262	-760
974.346	-137
974.431	-699
974.515	-1202
974.600	-1219
974.684	-979
974.768	-833
974.852	-580
974.937	-1845
975.021	-877
975.105	-1016
975.189	-1275
975.273	-793
975.358	-1099
975.442	-1640
975.526	-814
975.610	-1686
975.694	-1825
975.778	-386
975.862	-797
975.946	-2358
976.030	-387
976.114	-1713
976.198	-856
976.281	-571
976.365	-611
976.449	-935
976.533	-1067
976.617	-614
976.700	-764
976.784	-1233
976.868	-1593
976.951	-869
977.035	-355
977.119	-939
977.202	-1096
977.286	-204
977.369	-1274
977.453	-1168
977.536	-916
977.620	-1211
977.703	-1146
977.787	-1956
977.870	-634
977.953	-637
978.037	-1205
978.120	-35
978.203	-927
978.287	148
978.370	-617
978.453	-1122
978.536	-1468
978.620	-669
978.703	-1308
978.786	-788
978.869	-1701
978.952	-2105
979.035	-656
979.118	-918
979.201	-1288
979.284	-1315
979.367	-1559
979.450	-792
979.533	-1685
979.616	-779
979.699	-1592
979.782	-1374
979.865	-826
979.948	-1060
980.030	-1497
980.113	-1254
980.196	-1241
980.279	-992
980.361	-1383
980.444	-883
980.526	-1125
980.609	-2015
980.692	-1497
980.774	-2002
980.857	-1981
980.939	-1206
981.022	-1202
981.104	-1102
981.187	-1822
981.269	-945
981.352	-1103
981.434	-1533
981.516	-1675
981.599	-1246
981.681	-1060
981.763	-1317
981.846	-598
981.928	-1635
982.010	-1560
982.092	-1746
982.174	-1522
982.256	-1665
982.339	-1490
982.421	-1941
982.503	-609
982.585	-1422
982.667	-2031
982.749	-1758
982.831	-557
982.913	-2674
982.995	-909
983.077	-1478
983.158	-500
983.240	-2296
983.322	-211
983.404	-780
983.486	-1102
983.568	-1633
983.649	-639
983.731	-1884
983.813	-1582
983.894	-1099
983.976	-1426
984.058	-1688
984.139	-567
984.221	-1916
984.302	-447
984.384	-1177
984.465	-1633
984.547	-1788
984.628	-2052
984.710	-1130
984.791	-1628
984.872	-1426
984.954	-1025
985.035	-1452
985.116	-1846
985.198	-1445
985.279	-643
985.360	-1929
985.441	-914
985.522	-1727
985.604	-1830
985.685	-2439
985.766	-369
985.847	-579
985.928	-1633
986.009	-1691
986.090	-1420
986.171	-1495
986.252	-1528
986.333	-1322
986.414	-1064
986.495	-1216
986.576	-1045
986.656	-2099
986.737	-956
986.818	-2101
986.899	-2351
986.980	-1355
987.060	-1766
987.141	-1492
987.222	-1008
987.302	-1475
987.383	-1550
987.464	-1676
987.544	-1355
987.625	-1102
987.705	-1141
987.786	-1893
987.866	-1948
987.947	-1347
988.027	-964
988.108	-2963
988.188	-1558
988.268	-1493
988.349	-1906
988.429	-1520
988.509	-1243
988.589	-1841
988.670	-1537
988.750	-552
988.830	-936
988.910	-1938
988.990	-1024
989.070	-1772
989.151	-1005
989.231	-2469
989.311	-1067
989.391	-765
989.471	-1964
989.551	-1447
989.631	-2179
989.711	-1179
989.791	-1038
989.870	-1946
989.950	-536
990.030	-1456
990.110	-1172
990.190	-2141
990.269	-1407
990.349	-2316
990.429	-1168
990.509	-1086
990.588	-2200
990.668	-1530
990.747	-1457
990.827	-1325
990.907	-406
990.986	-1324
991.066	-904
991.145	-1349
991.225	-1194
991.304	-1599
991.383	-731
991.463	-1790
991.542	-470
991.622	-1696
991.701	-1458
991.780	-1429
991.859	-1173
991.939	-1508
992.018	-956
992.097	-1919
992.176	-1318
992.256	-2144
992.335	-1523
992.414	-1533
992.493	-1104
992.572	-942
992.651	-959
992.730	-1904
992.809	-764
992.888	-1606
992.967	-1947
993.046	-1998
993.125	-1783
993.203	-1497
993.282	-836
993.361	-2082
993.440	-1285
993.519	-1032
993.597	-1222
993.676	-2419
993.755	-1246
993.834	-1193
993.912	-2005
993.991	-659
994.069	-1871
994.148	-1992
994.226	-1375
994.305	-1366
994.384	-817
994.462	-1035
994.540	-1381
994.619	-1690
994.697	-1234
994.776	-2173
994.854	-1066
994.932	-2131
995.011	-883
995.089	-1918
995.167	-1887
995.245	-1571
995.324	-1463
995.402	-1879
995.480	-1573
995.558	-1874
995.636	-1675
995.714	-1692
995.792	-871
995.870	-1582
995.948	-1451
996.026	-952
996.104	-1806
996.182	-1319
996.260	-960
996.338	-1782
996.416	-2072
996.494	-2073
996.572	-1033
996.649	-1458
996.727	-1867
996.805	-1859
996.883	-1069
996.960	-1197
997.038	-1012
997.116	-1773
997.193	-2151
997.271	-1060
997.348	-1841
997.426	-1818
997.504	-2084
997.581	-848
997.658	-1156
997.736	-1630
997.813	-2033
997.891	-991
997.968	-2071
998.046	-2515
998.123	-1576
998.200	-1452
998.277	-2076
998.355	-1419
998.432	-2207
998.509	-1019
998.586	-1010
998.663	-885
998.741	-908
998.818	-1863
998.895	-1659
998.972	-1149
999.049	-1637
999.126	-1860
999.203	-1151
999.280	-1724
999.357	-2003
999.434	-1381
999.511	-1080
999.587	-1208
999.664	-1492
999.741	-2343
999.818	-1760
999.895	-2322
999.971	-1474
1000.048	-1892
1000.125	-780
1000.202	-2068
1000.278	-1976
1000.355	-2719
1000.431	-1008
1000.508	-1356
1000.584	-901
1000.661	-1932
1000.738	-1899
1000.814	-1352
1000.890	-1593
1000.967	-2026
1001.043	-1956
1001.120	-2291
1001.196	-1449
1001.272	-1624
1001.349	-1388
1001.425	-874
1001.501	-1943
1001.577	-1543
1001.654	-832
1001.730	-1853
1001.806	-1841
1001.882	-3341
1001.958	-1431
1002.034	-1600
1002.110	-1655
1002.186	-1775
1002.262	-1493
1002.338	-1565
1002.414	-526
1002.490	-1488
1002.566	-1410
1002.642	-2092
1002.718	-913
1002.794	-1753
1002.870	-2150
1002.945	-1863
1003.021	-2026
1003.097	-1778
1003.173	-638
1003.248	-1586
1003.324	-1667
1003.400	-1763
1003.475	-2153
1003.551	-1512
1003.626	-1527
1003.702	-1634
1003.777	-955
1003.853	-2491
1003.928	-1706
1004.004	-1441
1004.079	-1348
1004.155	-1242
1004.230	-1486
1004.305	-927
1004.381	-774
1004.456	-1426
1004.531	-1149
1004.607	-1651
1004.682	-2010
1004.757	-2215
1004.832	-2342
1004.907	-1991
1004.982	-1624
1005.057	-728
1005.133	-2086
1005.208	-2082
1005.283	-1417
1005.358	-1748
1005.433	-1690
1005.508	-1327
1005.583	-1997
1005.657	-1953
1005.732	-1242
1005.807	-995
1005.882	-1112
1005.957	-1312
1006.032	-1241
1006.106	-2055
1006.181	-1983
1006.256	-1708
1006.331	-1579
1006.405	-1623
1006.480	-1268
1006.554	-2110
1006.629	-1594
1006.704	-1885
1006.778	-2028
1006.853	-1613
1006.927	-1370
1007.002	-1357
1007.076	-1389
1007.150	-1407
1007.225	-1350
1007.299	-1536
1007.373	-1904
1007.448	-1481
1007.522	-1362
1007.596	-1167
1007.671	-1005
1007.745	-1480
1007.819	-2300
1007.893	-984
1007.967	-1277
1008.041	-2071
1008.115	-863
1008.190	-2076
1008.264	-1996
1008.338	-2536
1008.412	-1917
1008.486	-2080
1008.560	-1918
1008.633	-1986
1008.707	-1595
1008.781	-1792
1008.855	-1928
1008.929	-1476
1009.003	-2154
1009.076	-2480
1009.150	-1949
1009.224	-850
1009.298	-1211
1009.371	-2759
1009.445	-1624
1009.519	-1674
1009.592	-1896
1009.666	-2060
1009.739	-1688
1009.813	-1990
1009.886	-636
1009.960	-2376
1010.033	-1302
1010.107	-1697
1010.180	-2237
1010.253	-1694
1010.327	-1908
1010.400	-1415
1010.473	-2141
1010.547	-1278
1010.620	-1907
1010.693	-985
1010.766	-1774
1010.840	-2039
1010.913	-2168
1010.986	-2649
1011.059	-1451
1011.132	-1672
1011.205	-1516
1011.278	-2207
1011.351	-1653
1011.424	-1479
1011.497	-1915
1011.570	-2315
1011.643	-2147
1011.716	-2158
1011.789	-1622
1011.862	-1573
1011.934	-1264
1012.007	-2515
1012.080	-954
1012.153	-1353
1012.225	-577
1012.298	-1667
1012.371	-1215
1012.443	-1333
1012.516	-2054
1012.588	-1570
1012.661	-1067
1012.733	-2217
1012.806	-1182
1012.879	-2101
1012.951	-1404
1013.023	-1702
1013.096	-1343
1013.168	-1349
1013.241	-1593
1013.313	-2108
1013.385	-1962
1013.458	-2327
1013.530	-913
1013.602	-2544
1013.674	-1712
1013.746	-1752
1013.819	-2105
1013.891	-1186
1013.963	-2713
1014.035	-1651
1014.107	-1600
1014.179	-1602
1014.251	-1801
1014.323	-1608
1014.395	-1575
1014.467	-1383
1014.539	-1126
1014.611	-2123
1014.683	-1867
1014.754	-1574
1014.826	-2226
1014.898	-1786
1014.970	-2268
1015.042	-1749
1015.113	-1322
1015.185	-1911
1015.257	-2398
1015.328	-1326
1015.400	-1694
1015.471	-1743
1015.543	-2024
1015.615	-1511
1015.686	-1989
1015.757	-1282
1015.829	-1251
1015.901	-2631
1015.972	-1828
1016.043	-2249
1016.115	-1725
1016.186	-2091
1016.257	-1883
1016.328	-1407
1016.400	-1082
1016.471	-1880
1016.542	-1091
1016.613	-1584
1016.685	-1347
1016.756	-2012
1016.827	-2102
1016.898	-1793
1016.969	-2240
1017.040	-1676
1017.111	-2121
1017.182	-1516
1017.253	-1003
1017.324	-1573
1017.395	-1703
1017.466	-1615
1017.537	-1661
1017.608	-2681
1017.678	-651
1017.749	-1944
1017.820	-1595
1017.891	-2399
1017.961	-1436
1018.032	-2256
1018.103	-1833
1018.173	-2503
1018.244	-1514
1018.315	-2394
1018.385	-1065
1018.456	-2587
1018.526	-2615
1018.597	-1873
1018.667	-1273
1018.738	-2319
1018.808	-1530
1018.878	-1553
1018.949	-2236
1019.019	-1255
1019.089	-2027
1019.160	-1901
1019.230	-1583
1019.300	-1332
1019.371	-2309
1019.441	-963
1019.511	-1889
1019.581	-1858
1019.651	-1639
1019.721	-1724
1019.791	-1417
1019.861	-2310
1019.931	-1623
1020.001	-2436
1020.071	-1746
1020.141	-1987
1020.211	-1159
1020.281	-2665
1020.351	-1726
1020.421	-1623
1020.491	-1588
1020.560	-1776
1020.630	-2275
1020.700	-1346
1020.770	-2591
1020.839	-1690
1020.909	-1517
1020.979	-1747
1021.048	-2634
1021.118	-1744
1021.187	-2323
1021.257	-2254
1021.326	-2360
1021.396	-1972
1021.465	-1862
1021.535	-1330
1021.604	-1889
1021.674	-1503
1021.743	-2004
1021.812	-1852
1021.882	-2048
1021.951	-1569
1022.020	-2418
1022.089	-1757
1022.159	-2703
1022.228	-1857
1022.297	-1664
1022.366	-1558
1022.435	-1678
1022.504	-1317
1022.573	-1943
1022.642	-1748
1022.711	-1975
1022.781	-2051
1022.849	-2699
1022.918	-2556
1022.987	-1851
1023.056	-1741
1023.125	-1484
1023.194	-1462
1023.263	-2001
1023.331	-2698
1023.400	-2576
1023.469	-2696
1023.538	-1881
1023.606	-2506
1023.675	-2021
1023.744	-2318
1023.812	-2272
1023.881	-2208
1023.949	-2018
1024.018	-2018
1024.086	-1714
1024.155	-1299
1024.223	-1953
1024.292	-1859
1024.360	-1634
1024.429	-1990
1024.497	-2217
1024.565	-1855
1024.634	-1757
1024.702	-1598
1024.770	-1785
1024.838	-2245
1024.907	-1623
1024.975	-1714
1025.043	-1736
1025.111	-1863
1025.179	-1638
1025.247	-2946
1025.315	-1759
1025.383	-1508
1025.451	-1567
1025.519	-1827
1025.587	-2059
1025.655	-2002
1025.723	-2076
1025.791	-1804
1025.859	-2060
1025.927	-2380
1025.995	-2249
1026.062	-1354
1026.130	-2178
1026.198	-2228
1026.266	-2091
1026.333	-1617
1026.401	-1438
1026.469	-2078
1026.536	-1792
1026.604	-2175
1026.671	-2155
1026.739	-1881
1026.806	-2019
1026.874	-3005
1026.941	-2164
1027.009	-2557
1027.076	-1786
1027.144	-1888
1027.211	-2272
1027.278	-2170
1027.345	-1141
1027.413	-2023
1027.480	-1872
1027.547	-2129
1027.614	-1721
1027.682	-2488
1027.749	-2306
1027.816	-1722
1027.883	-1839
1027.950	-2246
1028.017	-2204
1028.084	-1796
1028.151	-2936
1028.218	-2632
1028.285	-1799
1028.352	-2499
1028.419	-2574
1028.486	-1811
1028.553	-2006
1028.619	-2041
1028.686	-2252
1028.753	-2833
1028.820	-2232
1028.886	-2642
1028.953	-1293
1029.020	-2081
1029.086	-2039
1029.153	-2633
1029.220	-1694
1029.286	-2564
1029.353	-2168
1029.419	-1621
1029.486	-2349
1029.552	-1984
1029.619	-2073
1029.685	-2087
1029.751	-2256
1029.818	-1518
1029.884	-1989
1029.951	-2139
1030.017	-2428
1030.083	-1686
1030.149	-2228
1030.216	-2540
1030.282	-1392
1030.348	-3159
1030.414	-2693
1030.480	-3028
1030.546	-2498
1030.612	-2589
1030.678	-2882
1030.744	-2126
1030.810	-1616
1030.876	-2072
1030.942	-1952
1031.008	-1443
1031.074	-2505
1031.140	-2875
1031.206	-2075
1031.272	-2010
1031.337	-2149
1031.403	-1952
1031.469	-1175
1031.534	-2344
1031.600	-1630
1031.666	-2353
1031.731	-2495
1031.797	-2142
1031.863	-2074
1031.928	-3023
1031.994	-2294
1032.059	-2339
1032.125	-2427
1032.190	-2891
1032.256	-1786
1032.321	-2503
1032.386	-2845
1032.452	-1544
1032.517	-2106
1032.582	-1614
1032.647	-2279
1032.713	-3274
1032.778	-1861
1032.843	-2226
1032.908	-2176
1032.974	-2276
1033.039	-2955
1033.104	-2251
1033.169	-1894
1033.234	-3069
1033.299	-1640
1033.364	-2937
1033.429	-2369
1033.494	-2134
1033.559	-2565
1033.624	-1988
1033.688	-1904
1033.753	-3451
1033.818	-971
1033.883	-2541
1033.948	-2468
1034.013	-2740
1034.077	-1600
1034.142	-1655
1034.207	-2376
1034.271	-1708
1034.336	-1345
1034.400	-2154
1034.465	-2312
1034.530	-2456
1034.594	-2031
1034.658	-2615
1034.723	-2328
1034.787	-1906
1034.852	-2219
1034.916	-2383
1034.981	-2129
1035.045	-2152
1035.109	-1721
1035.173	-2165
1035.238	-2828
1035.302	-2012
1035.366	-2226
1035.430	-2134
1035.495	-2182
1035.559	-2542
1035.623	-2445
1035.687	-2451
1035.751	-2519
1035.815	-2161
1035.879	-2603
1035.943	-2758
1036.007	-2608
1036.071	-2448
1036.135	-2313
1036.198	-2504
1036.262	-2813
1036.326	-2052
1036.390	-1716
1036.454	-2148
1036.517	-2833
1036.581	-2435
1036.645	-2047
1036.709	-2028
1036.772	-3040
1036.836	-1951
1036.900	-2459
1036.963	-2483
1037.026	-2300
1037.090	-2068
1037.154	-2774
1037.217	-2095
1037.280	-2667
1037.344	-3108
1037.407	-2234
1037.471	-1842
1037.534	-1882
1037.597	-3295
1037.661	-2438
1037.724	-2584
1037.787	-2281
1037.850	-2202
1037.913	-1978
1037.977	-2000
1038.040	-2374
1038.103	-2328
1038.166	-1656
1038.229	-2525
1038.292	-2242
1038.355	-2008
1038.418	-2410
1038.481	-1966
1038.544	-2174
1038.607	-2778
1038.670	-3278
1038.732	-2847
1038.795	-2496
1038.858	-2588
1038.921	-2975
1038.984	-2494
1039.046	-2707
1039.109	-2305
1039.172	-2829
1039.234	-2365
1039.297	-2535
1039.360	-3064
1039.422	-2887
1039.485	-2761
1039.547	-2633
1039.610	-2464
1039.672	-2285
1039.734	-2979
1039.797	-2406
1039.859	-2705
1039.922	-1911
1039.984	-2817
1040.046	-1789
1040.109	-3100
1040.171	-3027
1040.233	-2427
1040.295	-2879
1040.358	-2345
1040.420	-2328
1040.482	-2121
1040.544	-2694
1040.606	-2187
1040.668	-2715
1040.730	-2400
1040.792	-1879
1040.854	-2199
1040.916	-2870
1040.978	-3432
1041.040	-1485
1041.102	-2583
1041.164	-3189
1041.225	-3239
1041.287	-2331
1041.349	-2144
1041.411	-1913
1041.472	-2432
1041.534	-2491
1041.596	-2335
1041.657	-1674
1041.719	-3015
1041.781	-1818
1041.842	-2749
1041.904	-2716
1041.965	-1962
1042.027	-2565
1042.088	-2017
1042.150	-2515
1042.211	-2439
1042.272	-2327
1042.334	-2226
1042.395	-2327
1042.456	-3000
1042.518	-2174
1042.579	-2237
1042.640	-2477
1042.701	-2252
1042.763	-2217
1042.824	-2620
1042.885	-2086
1042.946	-2619
1043.007	-1937
1043.068	-1925
1043.129	-2362
1043.190	-3194
1043.251	-1974
1043.312	-2137
1043.373	-1749
1043.434	-2038
1043.495	-2040
1043.556	-2249
1043.616	-1933
1043.677	-2534
1043.738	-2777
1043.799	-2878
1043.859	-2027
1043.920	-2869
1043.981	-2032
1044.041	-2515
1044.102	-2111
1044.162	-2192
1044.223	-2629
1044.284	-2703
1044.344	-2116
1044.405	-2942
1044.465	-2356
1044.525	-2886
1044.586	-1748
1044.646	-2356
1044.707	-1834
1044.767	-1967
1044.827	-1568
1044.887	-2359
1044.948	-1900
1045.008	-1697
1045.068	-2343
1045.128	-2216
1045.188	-2474
1045.249	-1279
1045.309	-2219
1045.369	-1843
1045.429	-2199
1045.489	-2465
1045.549	-2045
1045.609	-2179
1045.669	-2591
1045.729	-2236
1045.789	-1826
1045.848	-2041
1045.908	-1461
1045.968	-1309
1046.028	-1979
1046.088	-1500
1046.147	-1625
1046.207	-2500
1046.267	-1400
1046.326	-1398
1046.386	-1569
1046.446	-1649
1046.505	-890
1046.565	-1649
1046.624	-1670
1046.684	-1402
1046.743	-977
1046.803	-403
1046.862	-1283
1046.922	0
