'Start Wavelength	183.907
'End Wavelength	1046.922
'Gate Delay	5.000
'Gate Width (ms)	1.050
'Laser Output Level	0.000
'X Position	0.000
'Y Position	0.000
'Z Position	0.000
'Grid Point Number	1.000
'Shot Number	100.000
183.907	484.000
183.977	220.000
184.047	508
184.116	188
184.186	-133
184.256	68
184.325	117
184.395	54
184.465	185
184.534	129
184.604	-377
184.674	-82
184.743	423
184.813	-231
184.883	152
184.952	-150
185.022	391
185.092	471
185.161	996
185.231	714
185.301	491
185.370	694
185.440	-148
185.509	-289
185.579	195
185.649	206
185.718	562
185.788	6
185.857	222
185.927	-227
185.996	614
186.066	-636
186.136	40
186.205	-245
186.275	477
186.344	60
186.414	385
186.483	115
186.553	633
186.622	383
186.692	353
186.761	-383
186.831	67
186.900	-194
186.970	575
187.039	16
187.109	614
187.178	626
187.248	382
187.317	331
187.387	-349
187.456	-47
187.526	927
187.595	-176
187.664	92
187.734	767
187.803	766
187.873	-532
187.942	415
188.012	570
188.081	928
188.150	-114
188.220	259
188.289	914
188.358	349
188.428	397
188.497	-627
188.567	527
188.636	189
188.705	665
188.775	47
188.844	-133
188.913	464
188.983	291
189.052	787
189.121	-365
189.191	422
189.260	212
189.329	541
189.399	-214
189.468	295
189.537	-68
189.606	439
189.676	27
189.745	274
189.814	338
189.883	974
189.953	-220
190.022	24
190.091	224
190.161	1879
190.230	-220
190.299	135
190.368	0
190.437	78
190.507	430
190.576	563
190.645	119
190.714	-286
190.783	453
190.853	263
190.922	546
190.991	234
191.060	125
191.129	-512
191.198	-688
191.268	455
191.337	291
191.406	472
191.475	648
191.544	27
191.613	-468
191.682	874
191.752	82
191.821	230
191.890	51
191.959	299
192.028	1065
192.097	196
192.166	507
192.235	121
192.304	574
192.373	127
192.442	-226
192.511	1524
192.580	-362
192.650	557
192.719	772
192.788	655
192.857	-465
192.926	533
192.995	-95
193.064	371
193.133	240
193.202	1221
193.271	1037
193.340	443
193.409	813
193.478	678
193.547	371
193.615	1660
193.684	920
193.753	829
193.822	706
193.891	109
193.960	207
194.029	209
194.098	829
194.167	-222
194.236	1142
194.305	376
194.374	250
194.443	202
194.512	150
194.580	415
194.649	943
194.718	903
194.787	50
194.856	898
194.925	366
194.994	170
195.062	984
195.131	540
195.200	388
195.269	273
195.338	800
195.407	716
195.475	218
195.544	430
195.613	658
195.682	438
195.751	735
195.819	568
195.888	532
195.957	1597
196.026	442
196.094	1140
196.163	219
196.232	1114
196.301	595
196.369	396
196.438	-581
196.507	173
196.576	238
196.644	627
196.713	-748
196.782	820
196.850	610
196.919	321
196.988	997
197.056	-641
197.125	300
197.194	581
197.262	-153
197.331	261
197.400	-482
197.468	-299
197.537	46
197.606	901
197.674	350
197.743	733
197.812	891
197.880	118
197.949	577
198.017	1005
198.086	540
198.155	509
198.223	229
198.292	603
198.360	-501
198.429	794
198.497	-73
198.566	892
198.635	735
198.703	375
198.772	-492
198.840	1302
198.909	657
198.977	557
199.046	253
199.114	1050
199.183	-107
199.251	208
199.320	-66
199.388	741
199.457	432
199.525	1107
199.594	316
199.662	77
199.731	590
199.799	180
199.867	420
199.936	776
200.004	1038
200.073	178
200.141	-339
200.210	-81
200.278	444
200.346	1084
200.415	678
200.483	106
200.552	197
200.620	550
200.688	690
200.757	468
200.825	844
200.893	689
200.962	124
201.030	870
201.098	-667
201.167	978
201.235	-65
201.303	631
201.372	667
201.440	275
201.508	156
201.577	1209
201.645	399
201.713	894
201.781	834
201.850	526
201.918	181
201.986	681
202.055	461
202.123	537
202.191	-260
202.259	946
202.327	830
202.396	604
202.464	308
202.532	619
202.600	1296
202.669	887
202.737	103
202.805	-217
202.873	-73
202.941	1381
203.009	285
203.078	-369
203.146	906
203.214	245
203.282	27
203.350	846
203.418	733
203.487	56
203.555	471
203.623	509
203.691	383
203.759	214
203.827	-295
203.895	1177
203.963	330
204.031	188
204.099	-188
204.168	852
204.236	874
204.304	720
204.372	178
204.440	469
204.508	128
204.576	587
204.644	295
204.712	161
204.780	828
204.848	1123
204.916	8
204.984	336
205.052	-81
205.120	-95
205.188	587
205.256	842
205.324	-114
205.392	401
205.460	606
205.528	32
205.596	483
205.664	669
205.732	556
205.799	1379
205.867	1400
205.935	-62
206.003	1106
206.071	178
206.139	578
206.207	396
206.275	203
206.343	1071
206.411	635
206.478	517
206.546	320
206.614	1004
206.682	615
206.750	914
206.818	455
206.885	725
206.953	66
207.021	1253
207.089	1298
207.157	470
207.225	684
207.292	307
207.360	557
207.428	697
207.496	351
207.563	269
207.631	804
207.699	199
207.767	763
207.834	288
207.902	279
207.970	857
208.038	645
208.105	1218
208.173	198
208.241	1171
208.309	943
208.376	415
208.444	392
208.512	917
208.579	-159
208.647	649
208.715	325
208.782	484
208.850	265
208.918	-16
208.985	452
209.053	1141
209.120	835
209.188	-299
209.256	652
209.323	-419
209.391	720
209.459	1615
209.526	1189
209.594	296
209.661	637
209.729	1647
209.796	169
209.864	982
209.932	499
209.999	1357
210.067	1166
210.134	224
210.202	902
210.269	1622
210.337	872
210.404	1052
210.472	912
210.539	607
210.607	381
210.674	1756
210.742	1675
210.809	853
210.877	1433
210.944	990
211.012	436
211.079	1945
211.146	1084
211.214	365
211.281	1007
211.349	1310
211.416	342
211.484	429
211.551	220
211.618	1106
211.686	363
211.753	921
211.821	860
211.888	691
211.955	1210
212.023	574
212.090	1135
212.157	661
212.225	250
212.292	1217
212.359	2059
212.427	3198
212.494	1967
212.561	899
212.629	1404
212.696	1202
212.763	1208
212.831	679
212.898	1079
212.965	1041
213.032	1130
213.100	1417
213.167	762
213.234	898
213.301	402
213.369	1203
213.436	1019
213.503	583
213.570	1182
213.638	1114
213.705	136
213.772	809
213.839	588
213.906	1319
213.973	1188
214.041	1357
214.108	1070
214.175	920
214.242	727
214.309	1078
214.376	409
214.444	634
214.511	1127
214.578	765
214.645	1355
214.712	1857
214.779	831
214.846	1320
214.913	1057
214.980	1122
215.048	1493
215.115	1806
215.182	893
215.249	1784
215.316	978
215.383	1818
215.450	1129
215.517	648
215.584	311
215.651	1751
215.718	102
215.785	1093
215.852	1085
215.919	2072
215.986	1339
216.053	1363
216.120	-49
216.187	1073
216.254	1500
216.321	1370
216.388	1140
216.455	1376
216.522	1651
216.589	1736
216.656	2621
216.722	2102
216.789	1318
216.856	1740
216.923	853
216.990	1549
217.057	745
217.124	1871
217.191	1384
217.258	2077
217.324	2240
217.391	2991
217.458	1762
217.525	2011
217.592	1101
217.659	907
217.725	1579
217.792	1204
217.859	1237
217.926	1477
217.993	891
218.059	529
218.126	1209
218.193	350
218.260	922
218.327	1292
218.393	687
218.460	444
218.527	995
218.594	1213
218.660	843
218.727	1611
218.794	-407
218.860	1050
218.927	23
218.994	564
219.061	356
219.127	966
219.194	1742
219.261	1232
219.327	620
219.394	555
219.461	-49
219.527	817
219.594	620
219.661	606
219.727	695
219.794	906
219.860	-375
219.927	955
219.994	1215
220.060	2023
220.127	1929
220.193	881
220.260	974
220.326	2492
220.393	3266
220.460	2978
220.526	2582
220.593	2086
220.659	2710
220.726	1447
220.792	3390
220.859	3730
220.925	5183
220.992	6702
221.058	5277
221.125	4164
221.191	2794
221.258	1865
221.324	1185
221.391	1107
221.457	401
221.524	927
221.590	1254
221.657	3551
221.723	1473
221.789	2414
221.856	1439
221.922	1017
221.989	658
222.055	763
222.121	-316
222.188	1970
222.254	824
222.321	987
222.387	494
222.453	413
222.520	395
222.586	-32
222.652	816
222.719	191
222.785	349
222.851	278
222.918	778
222.984	667
223.050	807
223.116	257
223.183	1376
223.249	-101
223.315	504
223.382	667
223.448	486
223.514	313
223.580	193
223.647	-235
223.713	-557
223.779	448
223.845	462
223.911	900
223.978	824
224.044	539
224.110	165
224.176	231
224.242	299
224.309	-211
224.375	549
224.441	555
224.507	-221
224.573	552
224.639	559
224.705	161
224.772	857
224.838	14
224.904	845
224.970	266
225.036	-26
225.102	-78
225.168	492
225.234	908
225.300	11
225.366	144
225.432	494
225.499	990
225.565	609
225.631	248
225.697	506
225.763	1371
225.829	946
225.895	811
225.961	1564
226.027	1648
226.093	1460
226.159	2453
226.225	3363
226.291	7402
226.357	10190
226.423	6250
226.489	3558
226.554	1580
226.620	1924
226.686	2971
226.752	5101
226.818	6419
226.884	11802
226.950	9018
227.016	4639
227.082	3361
227.148	2278
227.214	1521
227.279	2100
227.345	1852
227.411	943
227.477	1565
227.543	2775
227.609	2700
227.674	2069
227.740	1431
227.806	1055
227.872	84
227.938	730
228.003	2613
228.069	460
228.135	732
228.201	285
228.267	870
228.332	373
228.398	812
228.464	574
228.530	542
228.595	626
228.661	-75
228.727	1537
228.792	1299
228.858	88
228.924	128
228.990	1003
229.055	530
229.121	1318
229.187	459
229.252	375
229.318	-108
229.384	1221
229.449	977
229.515	-86
229.581	-525
229.646	828
229.712	427
229.777	2049
229.843	1692
229.909	1080
229.974	2016
230.040	1308
230.105	196
230.171	1071
230.236	1306
230.302	2229
230.368	1674
230.433	476
230.499	939
230.564	2686
230.630	59
230.695	1165
230.761	1121
230.826	-510
230.892	1927
230.957	432
231.023	223
231.088	-123
231.154	300
231.219	950
231.284	843
231.350	755
231.415	264
231.481	626
231.546	39
231.612	1039
231.677	-93
231.742	-551
231.808	1242
231.873	-110
231.939	-591
232.004	2138
232.069	1078
232.135	320
232.200	534
232.265	279
232.331	199
232.396	189
232.461	426
232.527	176
232.592	-101
232.657	-179
232.723	733
232.788	-261
232.853	923
232.918	859
232.984	529
233.049	9
233.114	958
233.179	298
233.245	1216
233.310	561
233.375	477
233.440	830
233.506	213
233.571	-721
233.636	577
233.701	-365
233.766	714
233.832	731
233.897	236
233.962	-737
234.027	1563
234.092	347
234.157	330
234.222	136
234.288	1549
234.353	2260
234.418	3087
234.483	1896
234.548	1362
234.613	977
234.678	1464
234.743	561
234.808	3210
234.873	922
234.938	1177
235.004	436
235.069	806
235.134	520
235.199	712
235.264	244
235.329	-100
235.394	813
235.459	1093
235.524	243
235.589	644
235.654	89
235.719	227
235.784	844
235.849	1044
235.913	1661
235.978	1435
236.043	1918
236.108	1001
236.173	305
236.238	1430
236.303	484
236.368	73
236.433	2122
236.498	2245
236.563	2419
236.627	5903
236.692	14738
236.757	12703
236.822	5153
236.887	4000
236.952	2913
237.017	2430
237.081	2554
237.146	3291
237.211	8336
237.276	15370
237.341	19464
237.405	11124
237.470	4964
237.535	3567
237.600	2434
237.664	2509
237.729	761
237.794	2843
237.859	5770
237.923	2962
237.988	1150
238.053	2198
238.118	1687
238.182	2979
238.247	3962
238.312	741
238.376	1440
238.441	326
238.506	1970
238.570	-375
238.635	1414
238.700	365
238.764	749
238.829	1981
238.893	1628
238.958	2148
239.023	960
239.087	1012
239.152	642
239.216	-30
239.281	753
239.346	678
239.410	465
239.475	1389
239.539	4583
239.604	1816
239.668	1662
239.733	889
239.797	2025
239.862	6405
239.926	4129
239.991	2056
240.055	734
240.120	626
240.184	560
240.249	344
240.313	-55
240.378	446
240.442	2623
240.507	2989
240.571	470
240.635	1543
240.700	2115
240.764	1335
240.829	691
240.893	-579
240.957	707
241.022	2716
241.086	3145
241.151	1125
241.215	793
241.279	2308
241.344	1432
241.408	1038
241.472	815
241.537	1760
241.601	654
241.665	-55
241.730	487
241.794	1041
241.858	859
241.922	1485
241.987	182
242.051	95
242.115	1184
242.179	1306
242.244	778
242.308	1127
242.372	1016
242.436	2028
242.501	614
242.565	-501
242.629	-3
242.693	1994
242.757	-25
242.822	564
242.886	1021
242.950	1079
243.014	222
243.078	701
243.142	1531
243.206	740
243.271	1126
243.335	759
243.399	2157
243.463	5883
243.527	13509
243.591	4101
243.655	2079
243.719	1578
243.783	1668
243.847	2617
243.911	2433
243.975	4452
244.040	3067
244.104	2915
244.168	1370
244.232	2306
244.296	3161
244.360	2711
244.424	556
244.488	883
244.552	1568
244.615	365
244.679	247
244.743	1017
244.807	881
244.871	958
244.935	1268
244.999	121
245.063	542
245.127	1838
245.191	1625
245.255	1441
245.319	2109
245.383	1157
245.446	1904
245.510	443
245.574	1590
245.638	1128
245.702	466
245.766	2714
245.829	1804
245.893	915
245.957	1051
246.021	2274
246.085	950
246.149	2300
246.212	5420
246.276	6486
246.340	2855
246.404	2659
246.467	2244
246.531	2351
246.595	2392
246.659	2606
246.722	649
246.786	2695
246.850	2245
246.913	2821
246.977	-23
247.041	1397
247.104	959
247.168	1501
247.232	5452
247.295	8458
247.359	3837
247.423	1453
247.486	4293
247.550	2080
247.614	1448
247.677	3049
247.741	1659
247.804	902
247.868	2846
247.932	3977
247.995	8693
248.059	2853
248.122	682
248.186	3086
248.249	4787
248.313	14381
248.376	14122
248.440	8937
248.503	2774
248.567	4147
248.630	4173
248.694	6484
248.757	8602
248.821	15172
248.884	8941
248.948	8288
249.011	12337
249.075	17553
249.138	14461
249.202	6217
249.265	2935
249.328	4007
249.392	3061
249.455	3190
249.519	2163
249.582	2674
249.645	4946
249.709	3684
249.772	2836
249.835	2605
249.899	1997
249.962	2456
250.025	796
250.089	6337
250.152	8393
250.215	3186
250.279	2581
250.342	2449
250.405	1971
250.468	2043
250.532	3243
250.595	5201
250.658	14544
250.721	21799
250.785	8008
250.848	6006
250.911	2306
250.974	3572
251.038	3938
251.101	8422
251.164	4076
251.227	4864
251.290	4311
251.354	5101
251.417	20915
251.480	18107
251.543	15209
251.606	35435
251.669	24090
251.732	11853
251.795	12439
251.859	12245
251.922	22612
251.985	12881
252.048	6701
252.111	5015
252.174	3617
252.237	9423
252.300	18107
252.363	18067
252.426	29176
252.489	12257
252.552	6618
252.615	4431
252.678	5839
252.741	14002
252.804	15305
252.867	29341
252.930	18250
252.993	11007
253.056	7609
253.119	5387
253.182	3854
253.245	5284
253.308	4927
253.371	5539
253.434	3648
253.497	4970
253.559	8060
253.622	6185
253.685	8862
253.748	8535
253.811	3415
253.874	4857
253.937	3659
254.000	4224
254.062	6844
254.125	8525
254.188	10570
254.251	8267
254.314	2854
254.376	7129
254.439	7452
254.502	6902
254.565	6453
254.628	11070
254.690	6978
254.753	3500
254.816	2646
254.878	2228
254.941	6603
255.004	5380
255.067	2544
255.129	2432
255.192	1726
255.255	1536
255.317	2188
255.380	1886
255.443	927
255.505	621
255.568	580
255.631	1316
255.693	1245
255.756	158
255.819	2139
255.881	781
255.944	440
256.006	829
256.069	1006
256.132	628
256.194	2566
256.257	3503
256.319	2019
256.382	2041
256.444	1242
256.507	1592
256.569	1348
256.632	1715
256.694	2244
256.757	10911
256.819	25285
256.882	9808
256.944	3924
257.007	3840
257.069	2798
257.132	2663
257.194	2163
257.257	2155
257.319	1536
257.381	2011
257.444	8037
257.506	30879
257.569	32181
257.631	14398
257.693	7853
257.756	3754
257.818	3367
257.880	1702
257.943	2071
258.005	1624
258.067	1572
258.130	1782
258.192	2114
258.254	3867
258.317	2373
258.379	1230
258.441	4900
258.503	4888
258.566	3405
258.628	5732
258.690	835
258.753	2955
258.815	4698
258.877	1966
258.939	696
259.001	844
259.064	1154
259.126	840
259.188	1955
259.250	1612
259.312	1803
259.375	5312
259.437	2556
259.499	1682
259.561	870
259.623	2050
259.685	1747
259.747	957
259.809	4371
259.872	7492
259.934	11923
259.996	13789
260.058	4371
260.120	1581
260.182	1318
260.244	1438
260.306	713
260.368	1241
260.430	1364
260.492	5017
260.554	7515
260.616	3557
260.678	7497
260.740	7536
260.802	2082
260.864	2102
260.926	996
260.988	2199
261.050	2231
261.112	8018
261.174	14735
261.236	6330
261.298	2026
261.359	3229
261.421	4669
261.483	1489
261.545	1135
261.607	298
261.669	1538
261.731	2630
261.793	6752
261.854	2705
261.916	2954
261.978	2182
262.040	2720
262.102	1786
262.164	2073
262.225	1936
262.287	1946
262.349	4662
262.411	3297
262.472	1845
262.534	1538
262.596	3904
262.658	1616
262.719	-13
262.781	1817
262.843	4050
262.904	1990
262.966	1834
263.028	1469
263.090	9922
263.151	22556
263.213	9292
263.275	6762
263.336	2953
263.398	2089
263.459	967
263.521	1031
263.583	4323
263.644	3026
263.706	788
263.767	101
263.829	1744
263.891	-116
263.952	-60
264.014	217
264.075	4154
264.137	10229
264.198	3649
264.260	687
264.321	1030
264.383	5399
264.444	15095
264.506	3382
264.567	2214
264.629	6256
264.690	11628
264.752	3803
264.813	2268
264.875	1422
264.936	2057
264.998	473
265.059	222
265.120	1380
265.182	3357
265.243	16324
265.305	14642
265.366	4043
265.427	1647
265.489	2011
265.550	701
265.611	1991
265.673	2442
265.734	1724
265.795	733
265.857	366
265.918	458
265.979	4973
266.040	25095
266.102	18949
266.163	6869
266.224	4582
266.286	2481
266.347	1415
266.408	1055
266.469	1509
266.530	803
266.592	560
266.653	3933
266.714	5176
266.775	1932
266.836	849
266.898	933
266.959	3948
267.020	1996
267.081	1405
267.142	217
267.203	334
267.264	-111
267.326	1200
267.387	362
267.448	-19
267.509	681
267.570	471
267.631	535
267.692	-204
267.753	642
267.814	124
267.875	3121
267.936	6361
267.997	3931
268.058	2771
268.119	1101
268.180	1014
268.241	-216
268.302	1340
268.363	258
268.424	1216
268.485	1412
268.546	534
268.607	521
268.668	169
268.729	237
268.790	170
268.851	1564
268.912	4941
268.972	4095
269.033	1909
269.094	454
269.155	555
269.216	976
269.277	-445
269.338	-166
269.398	846
269.459	961
269.520	2397
269.581	2968
269.642	3787
269.702	1931
269.763	1416
269.824	659
269.885	1072
269.945	3772
270.006	549
270.067	68
270.128	383
270.188	230
270.249	344
270.310	-232
270.370	893
270.431	-144
270.492	230
270.553	10
270.613	3869
270.674	6902
270.734	2130
270.795	1257
270.856	2695
270.916	1573
270.977	1230
271.038	1379
271.098	838
271.159	3297
271.219	2241
271.280	1369
271.340	866
271.401	957
271.462	2867
271.522	2242
271.583	910
271.643	1120
271.704	821
271.764	1889
271.825	4782
271.885	16482
271.946	19035
272.006	6241
272.066	9548
272.127	14579
272.187	4925
272.248	2898
272.308	2971
272.369	10465
272.429	5229
272.489	4784
272.550	4472
272.610	5356
272.671	3991
272.731	3647
272.791	5828
272.852	2997
272.912	2213
272.972	1466
273.033	1259
273.093	2280
273.153	3232
273.214	1532
273.274	1846
273.334	10634
273.394	14678
273.455	6821
273.515	7348
273.575	14169
273.635	6228
273.696	7493
273.756	12569
273.816	4828
273.876	2363
273.936	5100
273.997	9031
274.057	2936
274.117	1404
274.177	4567
274.237	20852
274.297	14093
274.358	9156
274.418	11294
274.478	9124
274.538	3498
274.598	1904
274.658	7703
274.718	8894
274.778	2270
274.838	1848
274.898	3834
274.958	11139
275.018	13958
275.078	8610
275.138	3447
275.198	1846
275.258	1070
275.318	3001
275.378	5030
275.438	5124
275.498	3493
275.558	6814
275.618	12570
275.678	9579
275.738	7809
275.798	6257
275.858	3801
275.918	914
275.978	2394
276.038	2440
276.098	1839
276.157	3859
276.217	11851
276.277	4869
276.337	4429
276.397	1998
276.457	2733
276.517	1404
276.576	1517
276.636	896
276.696	2431
276.756	7782
276.815	5093
276.875	2292
276.935	2259
276.995	1998
277.055	1648
277.114	1471
277.174	2395
277.234	8623
277.293	3200
277.353	2141
277.413	1342
277.472	1337
277.532	1504
277.592	1202
277.651	5317
277.711	9389
277.771	3825
277.830	14341
277.890	10944
277.950	7515
278.009	19128
278.069	7701
278.128	7940
278.188	9645
278.248	5380
278.307	10919
278.367	6441
278.426	2230
278.486	1734
278.545	1127
278.605	1608
278.664	404
278.724	1142
278.783	6455
278.843	13620
278.902	4054
278.962	1847
279.021	2599
279.081	2468
279.140	1580
279.199	2168
279.259	2266
279.318	2402
279.378	2993
279.437	6754
279.496	20707
279.556	43092
279.615	27793
279.675	8081
279.734	5588
279.793	10584
279.853	15502
279.912	6509
279.971	2748
280.031	2574
280.090	7133
280.149	11091
280.208	7746
280.268	33703
280.327	27859
280.386	7215
280.445	7761
280.505	6848
280.564	3560
280.623	3579
280.682	5263
280.742	8001
280.801	1359
280.860	2074
280.919	1737
280.978	1531
281.037	714
281.097	1198
281.156	1051
281.215	602
281.274	2306
281.333	9949
281.392	5650
281.451	1644
281.510	1694
281.569	625
281.628	1154
281.688	836
281.747	1464
281.806	1404
281.865	793
281.924	419
281.983	403
282.042	902
282.101	686
282.160	1194
282.219	454
282.278	1411
282.337	7374
282.396	4468
282.454	1528
282.513	2401
282.572	10126
282.631	5293
282.690	1066
282.749	1113
282.808	2179
282.867	1926
282.926	1846
282.985	1081
283.043	-539
283.102	1147
283.161	829
283.220	4578
283.279	9811
283.338	3090
283.396	1443
283.455	1388
283.514	2368
283.573	3764
283.631	2658
283.690	1575
283.749	983
283.808	4794
283.866	5064
283.925	1678
283.984	1485
284.043	2480
284.101	1944
284.160	1515
284.219	2763
284.277	2363
284.336	3237
284.395	13578
284.453	9760
284.512	3434
284.570	5084
284.629	4416
284.688	3231
284.746	3082
284.805	3554
284.863	4556
284.922	5648
284.981	7080
285.039	10183
285.098	18565
285.156	43787
285.215	69334
285.273	68909
285.332	44595
285.390	23378
285.449	14989
285.507	9671
285.566	7270
285.624	5108
285.683	4498
285.741	3057
285.799	3788
285.858	2648
285.916	2885
285.975	983
286.033	1803
286.091	1178
286.150	972
286.208	1130
286.267	1803
286.325	1673
286.383	4132
286.442	2815
286.500	1348
286.558	1018
286.616	1365
286.675	2096
286.733	1377
286.791	1790
286.850	2099
286.908	2995
286.966	5724
287.024	1967
287.083	961
287.141	766
287.199	963
287.257	2823
287.315	1434
287.374	1711
287.432	5928
287.490	4029
287.548	2016
287.606	649
287.664	1829
287.723	2444
287.781	3056
287.839	1184
287.897	1865
287.955	2108
288.013	3382
288.071	9293
288.129	34632
288.187	82446
288.245	36131
288.303	12416
288.361	6351
288.419	5608
288.477	3495
288.535	1960
288.593	1973
288.651	1724
288.709	1410
288.767	791
288.825	1342
288.883	951
288.941	993
288.999	884
289.057	1458
289.115	343
289.173	932
289.231	810
289.289	91
289.346	628
289.404	1723
289.462	2738
289.520	4089
289.578	1506
289.636	410
289.694	-117
289.751	316
289.809	415
289.867	756
289.925	1625
289.983	2321
290.040	1258
290.098	863
290.156	1745
290.214	2031
290.271	246
290.329	892
290.387	228
290.444	925
290.502	362
290.560	1073
290.617	656
290.675	850
290.733	1093
290.790	1608
290.848	499
290.906	393
290.963	776
291.021	1257
291.078	787
291.136	1906
291.194	8331
291.251	15591
291.309	4114
291.366	1413
291.424	1312
291.481	1762
291.539	913
291.596	92
291.654	499
291.711	852
291.769	1606
291.826	4020
291.884	2029
291.941	497
291.999	464
292.056	1275
292.114	1905
292.171	441
292.228	1638
292.286	2633
292.343	3592
292.401	5017
292.458	2506
292.515	2045
292.573	2434
292.630	1461
292.687	2361
292.745	2001
292.802	4216
292.859	10631
292.917	13567
292.974	7258
293.031	2126
293.089	758
293.146	1305
293.203	1106
293.260	1046
293.318	2285
293.375	4652
293.432	3662
293.489	1145
293.546	1087
293.604	2285
293.661	7494
293.718	18297
293.775	11582
293.832	5103
293.889	3710
293.947	2592
294.004	2570
294.061	3067
294.118	7111
294.175	15624
294.232	22311
294.289	8195
294.346	4470
294.403	4041
294.460	2763
294.517	1826
294.574	1411
294.631	1690
294.688	2849
294.745	7582
294.802	24634
294.859	30429
294.916	11628
294.973	5642
295.030	5720
295.087	4495
295.144	2686
295.201	2632
295.258	2080
295.315	3077
295.372	8554
295.429	13588
295.486	7569
295.542	5066
295.599	16337
295.656	26470
295.713	17169
295.770	14840
295.827	6055
295.883	4883
295.940	3676
295.997	6241
296.054	5853
296.111	2538
296.167	2839
296.224	738
296.281	1626
296.338	1743
296.394	2019
296.451	2762
296.508	8862
296.564	15171
296.621	12265
296.678	18880
296.734	28041
296.791	12004
296.848	7268
296.904	6667
296.961	14242
297.018	18765
297.074	14002
297.131	5710
297.187	4245
297.244	5600
297.301	16767
297.357	25890
297.414	9855
297.470	5575
297.527	2793
297.583	2272
297.640	3894
297.696	2424
297.753	1902
297.809	2602
297.866	1648
297.922	1652
297.979	821
298.035	1909
298.092	4243
298.148	10222
298.204	10493
298.261	5397
298.317	11188
298.374	22884
298.430	12701
298.486	5306
298.543	4076
298.599	4201
298.656	5264
298.712	9618
298.768	15994
298.824	10811
298.881	3764
298.937	2263
298.993	2955
299.050	3158
299.106	3615
299.162	2286
299.218	2734
299.275	2469
299.331	3546
299.387	6047
299.443	19077
299.500	20878
299.556	9547
299.612	4599
299.668	3895
299.724	5782
299.780	7185
299.837	4164
299.893	6803
299.949	17120
300.005	21172
300.061	19821
300.117	27627
300.173	13559
300.229	7377
300.285	8582
300.341	9953
300.397	4653
300.453	3545
300.510	2374
300.566	3831
300.622	4729
300.678	13525
300.734	22360
300.790	18477
300.845	19128
300.901	14118
300.957	19809
301.013	14087
301.069	6585
301.125	4822
301.181	4363
301.237	3205
301.293	2012
301.349	2242
301.405	2741
301.461	2159
301.516	4087
301.572	3257
301.628	6970
301.684	6044
301.740	7519
301.796	12255
301.851	9814
301.907	15814
301.963	15433
302.019	22125
302.074	47667
302.130	49851
302.186	24364
302.242	11584
302.297	6397
302.353	6878
302.409	12652
302.464	11577
302.520	9784
302.576	20828
302.631	24140
302.687	14636
302.743	6177
302.798	4095
302.854	2557
302.910	3796
302.965	4736
303.021	8726
303.076	8988
303.132	9980
303.187	12218
303.243	6638
303.299	3535
303.354	3487
303.410	3149
303.465	2752
303.521	2188
303.576	3187
303.632	4296
303.687	6957
303.743	16150
303.798	14509
303.853	7297
303.909	3877
303.964	4251
304.020	5838
304.075	9751
304.130	9422
304.186	15855
304.241	16022
304.297	12824
304.352	6983
304.358	6780
304.407	5135
304.449	4846
304.463	4753
304.518	3885
304.539	4028
304.573	4255
304.629	4212
304.630	4241
304.684	5684
304.720	10711
304.739	13256
304.794	20141
304.811	17398
304.850	10794
304.902	5474
304.905	5137
304.960	3617
304.992	3968
305.015	4222
305.071	4567
305.083	4412
305.126	3806
305.173	1699
305.181	1358
305.236	2235
305.264	2381
305.292	2499
305.347	3253
305.354	3355
305.402	4099
305.445	3590
305.457	3445
305.512	4358
305.535	5066
305.567	5988
305.622	4680
305.626	4891
305.678	8966
305.716	15804
305.733	18389
305.788	21860
305.807	18905
305.843	13611
305.897	16547
305.898	16575
305.953	16889
305.988	12235
306.008	9605
306.063	6723
306.078	6056
306.118	4488
306.168	3265
306.173	3153
306.228	2523
306.259	2251
306.283	2076
306.338	2155
306.349	2133
306.393	2121
306.440	3393
306.448	3617
306.503	3336
306.530	4051
306.558	5351
306.613	10080
306.620	10845
306.668	15543
306.711	19011
306.723	19422
306.778	14886
306.801	12056
306.833	8585
306.888	5207
306.892	4987
306.943	2805
306.982	2773
306.997	2842
307.052	2773
307.072	2885
307.107	3255
307.162	4046
307.163	4072
307.217	6587
307.253	7730
307.272	8127
307.327	9178
307.343	8484
307.381	6533
307.434	5783
307.436	5881
307.491	10492
307.524	15322
307.546	17266
307.600	18280
307.614	16579
307.655	10371
307.704	5793
307.710	5568
307.765	6357
307.795	7671
307.819	8967
307.874	14209
307.885	14179
307.929	12019
307.975	9938
307.984	9958
308.038	12668
308.065	16157
308.093	24484
308.148	47746
308.156	53114
308.202	83122
308.246	100474
308.257	99256
308.312	63322
308.336	48838
308.366	37303
308.421	23216
308.426	22096
308.475	14619
308.517	10521
308.530	9583
308.585	7646
308.607	7142
308.639	7099
308.694	7458
308.697	7554
308.748	11053
308.787	15585
308.803	16167
308.857	13303
308.877	11708
308.912	9743
308.967	9675
308.967	9690
309.021	12030
309.058	15214
309.076	18807
309.130	32648
309.148	38800
309.185	61344
309.238	100598
309.239	100950
309.293	114616
309.328	110957
309.348	99130
309.402	56910
309.418	46070
309.457	32156
309.508	19800
309.511	19336
309.566	15081
309.598	13459
309.620	13436
309.674	14387
309.688	14802
309.729	14627
309.778	13397
309.783	13208
309.837	10767
309.868	9897
309.892	11433
309.946	16560
309.959	18622
310.001	26300
310.049	32115
310.055	31184
310.109	19162
310.139	12488
310.163	9766
310.218	5381
310.229	4784
310.272	4424
310.319	4046
310.326	3930
310.381	3467
310.409	3170
310.435	2915
310.489	2796
310.499	2718
310.543	2616
310.589	2815
310.598	2952
310.652	3909
310.679	4209
310.706	3653
310.760	2618
310.769	2454
310.814	2148
310.859	1932
310.868	1975
310.923	2306
310.948	2385
310.977	2393
311.031	2755
311.038	2773
311.085	2706
311.128	2625
311.139	2678
311.193	3082
311.218	3219
311.247	3033
311.301	2733
311.308	2696
311.356	2681
311.398	2695
311.410	2669
311.464	2506
311.488	2434
311.518	2362
311.572	2326
311.578	2322
311.626	3520
311.668	4659
311.680	4637
311.734	4385
311.758	4310
311.788	4446
311.842	4654
311.847	4683
311.896	5783
311.937	6771
311.950	6772
312.004	6795
312.027	6760
312.058	5486
312.112	3268
312.117	3053
312.165	2829
312.207	2654
312.297	5204
312.386	4303
312.476	3023
312.566	5690
312.656	3374
312.745	2159
312.835	2945
312.925	3142
313.015	2988
313.104	2860
313.194	2110
313.284	2811
313.374	3768
313.463	3326
313.553	2336
313.643	2190
313.732	2488
313.822	2127
313.912	2206
314.001	3202
314.091	3155
314.180	5664
314.270	4661
314.360	4465
314.449	3820
314.539	2603
314.628	2732
314.718	3363
314.808	3836
314.897	1947
314.987	2358
315.076	3214
315.166	4553
315.255	3830
315.345	4043
315.434	2931
315.524	3616
315.613	3297
315.703	4857
315.792	4574
315.881	8383
315.971	4623
316.060	6503
316.150	8975
316.239	9130
316.328	4339
316.418	2097
316.507	2365
316.597	4252
316.686	3574
316.775	3532
316.865	9636
316.954	3176
317.043	1991
317.133	2219
317.222	2463
317.311	2746
317.400	1863
317.490	2931
317.579	3013
317.668	2399
317.757	3165
317.847	5343
317.936	12685
318.025	9948
318.114	5381
318.203	4716
318.293	5731
318.382	13295
318.471	9934
318.560	13568
318.649	30596
318.738	7948
318.828	4373
318.917	4617
319.006	6330
319.095	11290
319.184	35214
319.273	20688
319.362	9797
319.451	3449
319.540	4630
319.629	6365
319.718	12133
319.807	6709
319.896	10607
319.985	43054
320.074	17817
320.163	5136
320.252	6252
320.341	6993
320.430	6977
320.519	6424
320.608	4354
320.697	4043
320.786	2892
320.875	4140
320.964	6283
321.053	7890
321.142	10524
321.230	13309
321.319	8858
321.408	22402
321.497	11001
321.586	9047
321.675	9499
321.764	10714
321.852	7033
321.941	12674
322.030	9327
322.119	9064
322.207	21177
322.296	15475
322.385	9116
322.474	9193
322.562	24120
322.651	14871
322.740	9363
322.829	13169
322.917	12305
323.006	8067
323.095	7111
323.183	5155
323.272	7347
323.361	11669
323.449	31699
323.538	13356
323.626	22042
323.715	16442
323.804	7209
323.892	20690
323.981	14248
324.069	4748
324.158	10676
324.246	13065
324.335	5309
324.424	8041
324.512	4166
324.601	5134
324.689	8851
324.778	19408
324.866	9833
324.954	3905
325.043	2927
325.131	5603
325.220	9539
325.308	10987
325.397	7271
325.485	5380
325.574	2300
325.662	2586
325.750	2370
325.839	1689
325.927	1921
326.015	3200
326.104	3685
326.192	5178
326.280	2082
326.369	2712
326.457	4140
326.545	6482
326.634	3313
326.722	1527
326.810	2318
326.898	2067
326.987	2884
327.075	4625
327.163	6445
327.251	4017
327.340	6613
327.428	12746
327.516	3354
327.604	2732
327.692	2091
327.781	2636
327.869	4064
327.957	3403
328.045	3297
328.133	2036
328.221	2515
328.309	2046
328.397	2533
328.485	3471
328.574	3970
328.662	12250
328.750	6839
328.838	3423
328.926	2288
329.014	2258
329.102	3215
329.190	9556
329.278	7013
329.366	2202
329.454	1504
329.542	2034
329.630	1864
329.718	2369
329.806	2709
329.893	2917
329.981	3960
330.069	5375
330.157	15729
330.245	46078
330.333	29264
330.421	5933
330.509	4791
330.597	14650
330.684	11643
330.772	4800
330.860	6805
330.948	10588
331.036	4749
331.123	1791
331.211	2514
331.299	3126
331.387	7449
331.475	15798
331.562	4557
331.650	1748
331.738	1996
331.825	2804
331.913	1404
332.001	1743
332.089	2423
332.176	5881
332.264	11288
332.352	9725
332.439	3984
332.527	2803
332.614	2309
332.702	2062
332.790	1338
332.877	4584
332.965	10466
333.052	3093
333.140	2753
333.228	5292
333.315	2543
333.403	2031
333.490	6636
333.578	5286
333.665	4643
333.753	3944
333.840	953
333.928	2382
334.015	7886
334.103	11848
334.190	41110
334.278	13555
334.365	4794
334.452	3564
334.540	2629
334.627	3399
334.715	4664
334.802	8514
334.889	32859
334.977	39102
335.064	7748
335.151	3771
335.239	3249
335.326	5647
335.413	20037
335.501	31256
335.588	4711
335.675	3303
335.762	4286
335.850	10162
335.937	5379
336.024	12498
336.111	45461
336.199	23920
336.286	5633
336.373	2491
336.460	1241
336.547	2136
336.635	2725
336.722	2430
336.809	2801
336.896	3973
336.983	13387
337.070	34827
337.157	44922
337.245	26550
337.332	19389
337.419	3082
337.506	2325
337.593	3601
337.680	10647
337.767	38682
337.854	11387
337.941	11127
338.028	10232
338.115	4790
338.202	5890
338.289	7551
338.376	24132
338.463	9980
338.550	19177
338.637	23832
338.724	6410
338.811	7995
338.898	2790
338.984	1711
339.071	3718
339.158	3058
339.245	7701
339.332	5507
339.419	4706
339.506	6183
339.593	1066
339.679	1764
339.766	1305
339.853	2157
339.940	5801
340.027	2266
340.113	1896
340.200	1802
340.287	2091
340.374	2847
340.460	6143
340.547	2013
340.634	3519
340.720	13425
340.807	8839
340.894	1994
340.980	1622
341.067	1613
341.154	1315
341.240	2840
341.327	7421
341.414	2629
341.500	2456
341.587	1747
341.674	1329
341.760	4714
341.847	5200
341.933	1874
342.020	168
342.106	1010
342.193	1612
342.279	3088
342.366	2318
342.452	4725
342.539	3111
342.625	5749
342.712	14751
342.798	7358
342.885	2230
342.971	409
343.058	290
343.144	743
343.230	741
343.317	1525
343.403	297
343.490	1195
343.576	797
343.662	1391
343.749	1398
343.835	2064
343.921	4313
344.008	21207
344.094	52749
344.180	13869
344.267	4937
344.353	15282
344.439	18386
344.525	7650
344.612	5155
344.698	4418
344.784	2546
344.870	437
344.957	1179
345.043	2622
345.129	2243
345.215	4222
345.301	2501
345.387	1899
345.474	-329
345.560	937
345.646	1236
345.732	1804
345.818	1361
345.904	1904
345.990	1932
346.076	1693
346.162	3371
346.249	1894
346.335	476
346.421	1504
346.507	4862
346.593	21459
346.679	5521
346.765	2151
346.851	1002
346.937	1713
347.023	923
347.108	1910
347.194	632
347.280	1303
347.366	1496
347.452	5531
347.538	23288
347.624	20704
347.710	16891
347.796	3415
347.882	1091
347.967	1309
348.053	2676
348.139	1897
348.225	490
348.311	1206
348.397	823
348.482	1264
348.568	1484
348.654	936
348.740	1420
348.825	2335
348.911	2763
348.997	10661
349.083	23648
349.168	4387
349.254	1697
349.340	1836
349.425	1282
349.511	2225
349.597	2091
349.682	4204
349.768	15372
349.854	8269
349.939	2820
350.025	1349
350.110	1666
350.196	919
350.282	437
350.367	793
350.453	2389
350.538	1896
350.624	1973
350.709	2028
350.795	1026
350.880	1102
350.966	1832
351.051	2151
351.137	1509
351.222	1825
351.308	4160
351.393	15465
351.479	4052
351.564	1171
351.649	718
351.735	1251
351.820	221
351.906	750
351.991	2008
352.076	8232
352.162	15185
352.247	3116
352.332	1123
352.418	3502
352.503	4755
352.588	20970
352.673	19253
352.759	4060
352.844	1407
352.929	1770
353.014	2886
353.100	1450
353.185	3286
353.270	4881
353.355	5660
353.441	1564
353.526	1446
353.611	3500
353.696	5307
353.781	3389
353.866	972
353.952	1714
354.037	4132
354.122	11441
354.207	10170
354.292	3956
354.377	2184
354.462	898
354.547	1796
354.632	2524
354.717	3406
354.802	5402
354.887	1413
354.972	870
355.057	645
355.142	110
355.227	603
355.312	2825
355.397	6776
355.482	17227
355.567	8442
355.652	5874
355.737	5993
355.822	16420
355.907	15750
355.991	2984
356.076	819
356.161	1415
356.246	1066
356.331	1131
356.416	3975
356.501	24999
356.585	30283
356.670	4721
356.755	3354
356.840	4537
356.924	18042
357.009	64698
357.094	29980
357.179	6605
357.263	4131
357.348	3075
357.433	4364
357.517	3675
357.602	2795
357.687	2003
357.771	3839
357.856	13166
357.941	9190
358.025	14070
358.110	60823
358.195	35535
358.279	6159
358.364	4112
358.448	13005
358.533	36307
358.617	28510
358.702	26711
358.787	10274
358.871	5803
358.956	4840
359.040	1988
359.125	918
359.209	1222
359.294	5580
359.378	10729
359.462	4537
359.547	2228
359.631	1481
359.716	468
359.800	1208
359.885	4442
359.969	1482
360.053	1744
360.138	2630
360.222	1506
360.306	5143
360.391	4725
360.475	6479
360.559	16597
360.644	13282
360.728	10776
360.812	14178
360.896	42223
360.981	22308
361.065	13207
361.149	3699
361.233	2624
361.318	1496
361.402	2665
361.486	1793
361.570	1400
361.654	2117
361.739	5982
361.823	24699
361.907	43011
361.991	9083
362.075	4351
362.159	10006
362.243	8804
362.327	7778
362.411	11041
362.495	4736
362.580	2866
362.664	2086
362.748	1296
362.832	3053
362.916	4796
363.000	18051
363.084	40309
363.168	53824
363.252	15107
363.336	5568
363.420	7229
363.503	27575
363.587	37732
363.671	6968
363.755	3791
363.839	6588
363.923	2665
364.007	5488
364.091	6772
364.175	9568
364.258	49448
364.342	38195
364.426	38245
364.510	21414
364.594	10955
364.677	9680
364.761	34905
364.845	28052
364.929	9683
365.013	8095
365.096	6493
365.180	7980
365.264	10742
365.347	45967
365.431	23463
365.515	6888
365.598	2021
365.682	2321
365.766	5790
365.849	9106
365.933	3147
366.017	4650
366.100	4671
366.184	1202
366.267	1392
366.351	1205
366.435	847
366.518	1156
366.602	998
366.685	1032
366.769	1454
366.852	4863
366.936	9406
367.019	3728
367.103	3146
367.186	9649
367.270	3596
367.353	1015
367.436	1361
367.520	749
367.603	1933
367.687	1768
367.770	5559
367.853	4075
367.937	10356
368.020	20276
368.104	3997
368.187	4503
368.270	7526
368.353	6549
368.437	6796
368.520	17234
368.603	12013
368.687	12932
368.770	28011
368.853	7685
368.936	7010
369.020	9352
369.103	2755
369.186	1532
369.269	1639
369.352	4012
369.436	6887
369.519	3710
369.602	577
369.685	2561
369.768	1871
369.851	1808
369.934	951
370.018	2230
370.101	4747
370.184	5277
370.267	3446
370.350	4929
370.433	9571
370.516	17877
370.599	24442
370.682	7239
370.765	15275
370.848	18030
370.931	31427
371.014	15945
371.097	3138
371.180	2134
371.263	1086
371.346	-386
371.429	1264
371.511	1641
371.594	3628
371.677	6428
371.760	10519
371.843	5806
371.926	21612
372.009	56321
372.091	22299
372.174	11213
372.257	28157
372.340	11998
372.423	11594
372.505	16881
372.588	6761
372.671	8575
372.754	29143
372.836	16661
372.919	13689
373.002	32424
373.085	9386
373.167	5215
373.250	12207
373.332	28008
373.415	34725
373.498	73241
373.580	31505
373.663	30745
373.746	47149
373.828	12855
373.911	6870
373.993	6672
374.076	27223
374.159	28762
374.241	10032
374.324	26769
374.406	19740
374.489	18548
374.571	60323
374.654	27873
374.736	11305
374.819	34994
374.901	51716
374.983	55125
375.066	11114
375.148	4421
375.231	18721
375.313	47323
375.395	19922
375.478	4055
375.560	3165
375.643	3463
375.725	10196
375.807	42126
375.890	39545
375.972	17627
376.054	9339
376.136	14437
376.219	6369
376.301	11647
376.383	38605
376.465	17492
376.548	9816
376.630	11782
376.712	34564
376.794	17661
376.877	2455
376.959	1772
377.041	2485
377.123	7496
377.205	10392
377.287	1879
377.369	1329
377.452	1680
377.534	1540
377.616	1154
377.698	1115
377.780	1038
377.862	1200
377.944	1943
378.026	-3
378.108	1805
378.190	1015
378.272	1932
378.354	932
378.436	1468
378.518	2487
378.600	14958
378.682	11800
378.764	19079
378.846	16979
378.928	5270
379.010	7359
379.091	4155
379.173	2212
379.255	835
379.337	3076
379.419	7640
379.501	27762
379.583	13399
379.664	3621
379.746	5867
379.828	19418
379.910	26242
379.991	23671
380.073	4026
380.155	2320
380.237	1542
380.318	1694
380.400	1921
380.482	3631
380.564	6903
380.645	6832
380.727	6711
380.809	3649
380.890	2567
380.972	1959
381.053	1991
381.135	2940
381.217	5837
381.298	20398
381.380	11414
381.461	7590
381.543	30612
381.624	43986
381.706	9048
381.787	5311
381.869	5793
381.951	12239
382.032	51150
382.113	41129
382.195	8806
382.276	6256
382.358	10264
382.439	30534
382.521	32937
382.602	51209
382.684	24050
382.765	41763
382.846	40785
382.928	38070
383.009	22885
383.090	15144
383.172	50719
383.253	85546
383.334	36605
383.416	45577
383.497	25399
383.578	9968
383.659	14764
383.741	46148
383.822	122856
383.903	69245
383.984	30070
384.066	57915
384.147	39526
384.228	8923
384.309	6506
384.390	4926
384.471	3581
384.553	3959
384.634	5177
384.715	6197
384.796	3135
384.877	4412
384.958	16950
385.039	23330
385.120	9530
385.201	4749
385.282	6378
385.363	7336
385.444	5176
385.525	6632
385.606	22863
385.687	22892
385.768	7149
385.849	7350
385.930	25528
386.011	48958
386.092	15782
386.173	5589
386.254	3475
386.335	3698
386.416	4736
386.496	12241
386.577	22059
386.658	9650
386.739	5624
386.820	6732
386.901	5781
386.981	5218
387.062	3523
387.143	4873
387.224	18520
387.304	20739
387.385	7978
387.466	5287
387.547	7862
387.627	4548
387.708	6961
387.789	31358
387.869	40667
387.950	13498
388.031	3562
388.111	3099
388.192	11618
388.273	17893
388.353	10632
388.434	4193
388.514	5716
388.595	26006
388.676	39080
388.756	21439
388.837	18798
388.917	13243
388.998	2283
389.078	2425
389.159	2172
389.239	1138
389.320	4646
389.400	2205
389.480	7831
389.561	20623
389.641	11706
389.722	4360
389.802	5901
389.883	8151
389.963	22929
390.043	15836
390.124	6004
390.204	6002
390.284	20746
390.365	15189
390.445	18342
390.525	34974
390.605	26501
390.686	12458
390.766	4739
390.846	2418
390.927	1558
391.007	1378
391.087	3004
391.167	3564
391.247	1628
391.328	4068
391.408	7666
391.488	7750
391.568	1125
391.648	2566
391.728	4122
391.808	4336
391.888	3890
391.969	9724
392.049	18679
392.129	10536
392.209	9783
392.289	22585
392.369	14469
392.449	16765
392.529	10236
392.609	6106
392.689	6429
392.769	19794
392.849	19727
392.929	14843
393.009	34965
393.089	25713
393.169	18171
393.248	48107
393.328	177106
393.408	214363
393.488	66761
393.568	19150
393.648	9467
393.728	6223
393.807	4632
393.887	5209
393.967	4438
394.047	4869
394.127	6454
394.206	11245
394.286	33646
394.366	128038
394.446	158771
394.525	49723
394.605	13196
394.685	9549
394.764	21394
394.844	36769
394.924	27065
395.003	7951
395.083	4794
395.163	4147
395.242	2655
395.322	4143
395.402	1799
395.481	5491
395.561	11385
395.640	39273
395.720	30248
395.799	39382
395.879	34530
395.958	19242
396.038	50574
396.117	166579
396.197	205665
396.276	84784
396.356	31645
396.435	22691
396.515	13846
396.594	10850
396.673	17003
396.753	51322
396.832	171572
396.912	147389
396.991	41573
397.070	12146
397.150	5595
397.229	5651
397.308	6245
397.388	11759
397.467	7150
397.546	3412
397.625	750
397.705	4019
397.784	3669
397.863	2084
397.942	898
398.022	2467
398.101	9295
398.180	35653
398.259	22017
398.338	5410
398.417	2241
398.497	2039
398.576	2555
398.655	1211
398.734	1004
398.813	1893
398.892	8247
398.971	34909
399.050	20268
399.129	1285
399.208	1332
399.287	1668
399.366	1068
399.445	948
399.524	1072
399.603	651
399.682	3858
399.761	8819
399.840	35566
399.919	30262
399.998	4415
400.077	956
400.156	227
400.235	2825
400.313	894
400.392	1693
400.471	9070
400.550	17953
400.629	4149
400.708	2450
400.786	1912
400.865	10351
400.944	11028
401.023	5319
401.102	992
401.180	373
401.259	1465
401.338	2064
401.416	2395
401.495	1870
401.574	2310
401.652	1221
401.731	2529
401.810	2365
401.888	824
401.967	55
402.046	989
402.124	2825
402.203	2424
402.281	1598
402.360	2675
402.438	11433
402.517	9552
402.596	2983
402.674	2691
402.753	716
402.831	790
402.910	1776
402.988	6437
403.066	25313
403.145	17765
403.223	7384
403.302	20689
403.380	17967
403.459	17808
403.537	7984
403.615	2834
403.694	-797
403.772	1247
403.850	298
403.929	780
404.007	1044
404.085	3713
404.164	3196
404.242	763
404.320	5523
404.398	19755
404.477	22613
404.555	41496
404.633	42424
404.711	17496
404.789	10568
404.868	2318
404.946	526
405.024	831
405.102	755
405.180	-211
405.258	-332
405.336	964
405.415	350
405.493	3758
405.571	3201
405.649	506
405.727	-192
405.805	2624
405.883	2035
405.961	1878
406.039	3165
406.117	284
406.195	2361
406.273	7506
406.351	37130
406.429	26190
406.507	5163
406.585	1045
406.663	1283
406.740	1490
406.818	944
406.896	386
406.974	1328
407.052	1334
407.130	19392
407.208	33609
407.285	7242
407.363	225
407.441	1213
407.519	282
407.596	996
407.674	2951
407.752	13104
407.830	17412
407.907	7700
407.985	1684
408.063	833
408.141	-72
408.218	2968
408.296	2640
408.373	1672
408.451	1666
408.529	168
408.606	-652
408.684	-327
408.762	7
408.839	-343
408.917	-314
408.994	-455
409.072	-1818
409.149	-187
409.227	819
409.304	1092
409.382	1525
409.459	1917
409.537	2365
409.614	1714
409.692	1593
409.769	1020
409.846	2259
409.924	3437
410.001	2270
410.079	1685
410.156	2245
410.233	1079
410.311	743
410.388	-64
410.465	856
410.543	478
410.620	520
410.697	625
410.775	522
410.852	-892
410.929	1557
411.006	2079
411.083	-217
411.161	2265
411.238	4372
411.315	2534
411.392	419
411.469	1516
411.547	914
411.624	-473
411.701	105
411.778	151
411.855	2137
411.932	1256
412.009	-401
412.086	192
412.163	628
412.240	846
412.317	2351
412.394	1600
412.471	271
412.548	-557
412.625	-741
412.702	924
412.779	2518
412.856	1959
412.933	-538
413.010	270
413.087	703
413.164	8049
413.241	14899
413.318	2697
413.395	2046
413.471	2302
413.548	1559
413.625	536
413.702	-463
413.779	890
413.855	261
413.932	-422
414.009	-1268
414.086	-473
414.162	92
414.239	1337
414.316	7974
414.393	22250
414.469	7534
414.546	95
414.623	-497
414.699	-145
414.776	-221
414.853	-740
414.929	106
415.006	301
415.082	468
415.159	518
415.236	-27
415.312	1083
415.389	1280
415.465	2584
415.542	640
415.618	-586
415.695	1441
415.771	601
415.848	5
415.924	174
416.000	196
416.077	359
416.153	-1282
416.230	-1290
416.306	-466
416.383	-892
416.459	-37
416.535	-1128
416.612	-542
416.688	203
416.764	-545
416.841	-1771
416.917	79
416.993	52
417.069	423
417.146	-368
417.222	2070
417.298	1079
417.374	-482
417.451	94
417.527	-50
417.603	274
417.679	208
417.755	183
417.831	-1113
417.908	-791
417.984	-552
418.060	-1285
418.136	1868
418.212	3189
418.288	573
418.364	17
418.440	-1028
418.516	1764
418.592	2403
418.668	4346
418.744	6071
418.820	4000
418.896	617
418.972	-1237
419.048	-91
419.124	2217
419.200	1274
419.276	-213
419.352	-1755
419.428	-250
419.504	-212
419.579	224
419.655	-230
419.731	77
419.807	2576
419.883	6062
419.959	4735
420.034	708
420.110	1850
420.186	11256
420.262	11325
420.337	1809
420.413	-420
420.489	-368
420.565	536
420.640	-805
420.716	174
420.792	-1087
420.867	656
420.943	-875
421.019	1903
421.094	631
421.170	6
421.245	-554
421.321	291
421.397	698
421.472	2269
421.548	6647
421.623	5569
421.699	2549
421.774	1433
421.850	872
421.925	2916
422.001	1832
422.076	1881
422.152	2560
422.227	5654
422.302	7392
422.378	10415
422.453	18882
422.529	45532
422.604	109370
422.679	158561
422.755	131898
422.830	61302
422.905	24042
422.981	11939
423.056	8145
423.131	6250
423.207	3831
423.282	2756
423.357	5143
423.432	2935
423.508	3284
423.583	6282
423.658	6134
423.733	2018
423.808	2593
423.883	3555
423.959	1864
424.034	500
424.109	1997
424.184	847
424.259	-640
424.334	1242
424.409	-241
424.484	-73
424.559	238
424.634	-504
424.709	586
424.784	1311
424.859	-225
424.934	538
425.009	7796
425.084	16255
425.159	5921
425.234	738
425.309	-252
425.384	2347
425.459	4850
425.534	1338
425.609	-97
425.683	-126
425.758	-417
425.833	534
425.908	751
425.983	3394
426.058	16155
426.132	7444
426.207	1195
426.282	2482
426.357	2272
426.431	540
426.506	-20
426.581	639
426.655	724
426.730	-321
426.805	6
426.879	-147
426.954	-492
427.029	1381
427.103	11543
427.178	33053
427.253	16427
427.327	1761
427.402	1956
427.476	7456
427.551	3516
427.625	1278
427.700	1404
427.774	-506
427.849	1256
427.923	146
427.998	-609
428.072	198
428.147	3283
428.221	11226
428.296	38699
428.370	22892
428.444	2958
428.519	3492
428.593	9228
428.667	7636
428.742	10433
428.816	8624
428.890	25517
428.965	45269
429.039	15318
429.113	11888
429.188	3898
429.262	1843
429.336	1579
429.410	7119
429.485	5199
429.559	7481
429.633	6980
429.707	1817
429.781	4106
429.855	28874
429.930	48620
430.004	24792
430.078	40265
430.152	36270
430.226	44951
430.300	52067
430.374	9364
430.448	2567
430.522	10282
430.596	35045
430.670	22939
430.744	35552
430.818	58274
430.892	12924
430.966	2068
431.040	600
431.114	-121
431.188	185
431.262	384
431.336	355
431.410	2880
431.484	10859
431.557	7420
431.631	69
431.705	1098
431.779	4607
431.853	32374
431.927	25295
432.000	3657
432.074	587
432.148	1846
432.222	682
432.295	791
432.369	249
432.443	756
432.516	10670
432.590	33989
432.664	14751
432.737	1544
432.811	-388
432.885	-169
432.958	271
433.032	-776
433.106	-696
433.179	-478
433.253	308
433.326	-366
433.400	-372
433.473	146
433.547	2
433.620	-293
433.694	418
433.767	1560
433.841	-134
433.914	237
433.988	-290
434.061	-27
434.134	-364
434.208	-627
434.281	-732
434.355	-433
434.428	792
434.501	-121
434.575	-584
434.648	331
434.721	218
434.795	-76
434.868	-599
434.941	-347
435.014	-291
435.088	-441
435.161	-263
435.234	820
435.307	1213
435.381	683
435.454	136
435.527	624
435.600	1535
435.673	702
435.746	626
435.819	268
435.892	-216
435.966	532
436.039	518
436.112	1000
436.185	-354
436.258	-138
436.331	-376
436.404	-751
436.477	-547
436.550	-660
436.623	-908
436.696	359
436.769	-387
436.842	478
436.915	249
436.987	1523
437.060	-115
437.133	-54
437.206	-239
437.279	463
437.352	85
437.425	-302
437.498	589
437.570	2205
437.643	1773
437.716	195
437.789	-467
437.861	827
437.934	4277
438.007	2138
438.080	252
438.152	571
438.225	2260
438.298	13123
438.370	44126
438.443	20825
438.516	4657
438.588	1377
438.661	-56
438.734	232
438.806	887
438.879	265
438.951	442
439.024	2452
439.096	645
439.169	-31
439.241	-402
439.314	275
439.386	1099
439.459	2601
439.531	1443
439.604	824
439.676	554
439.749	85
439.821	-739
439.893	764
439.966	-300
440.038	572
440.110	217
440.183	428
440.255	586
440.327	1530
440.400	6481
440.472	28972
440.544	21745
440.617	2942
440.689	1807
440.761	2128
440.833	4325
440.905	2957
440.978	339
441.050	310
441.122	665
441.194	182
441.266	398
441.338	41
441.411	1814
441.483	8555
441.555	15766
441.627	4150
441.699	2914
441.771	2279
441.843	1401
441.915	526
441.987	638
442.059	635
442.131	888
442.203	2286
442.275	2496
442.347	2740
442.419	2472
442.491	14459
442.563	40464
442.635	20410
442.706	12041
442.778	9892
442.850	2241
442.922	761
442.994	1423
443.066	2252
443.137	2506
443.209	1697
443.281	2654
443.353	5140
443.425	20054
443.496	68765
443.568	72812
443.640	28311
443.711	6361
443.783	2685
443.855	1826
443.926	675
443.998	493
444.070	2148
444.141	1701
444.213	1743
444.285	2637
444.356	2381
444.428	2022
444.499	1061
444.571	462
444.642	376
444.714	950
444.785	1951
444.857	2751
444.928	7877
445.000	5716
445.071	6042
445.143	6785
445.214	3590
445.285	5727
445.357	18298
445.428	45508
445.500	108595
445.571	72689
445.642	38535
445.714	15457
445.785	16159
445.856	4462
445.928	2971
445.999	2658
446.070	1647
446.141	2336
446.213	2813
446.284	1490
446.355	2298
446.426	1932
446.497	1232
446.569	2754
446.640	4070
446.711	2595
446.782	1193
446.853	1434
446.924	1692
446.995	1495
447.066	1569
447.138	3548
447.209	1902
447.280	-75
447.351	723
447.422	-54
447.493	1371
447.564	1248
447.635	2618
447.706	456
447.777	1004
447.847	804
447.918	-95
447.989	1378
448.060	2269
448.131	6589
448.202	5527
448.273	2992
448.344	1404
448.414	581
448.485	816
448.556	1185
448.627	320
448.698	595
448.768	336
448.839	823
448.910	2830
448.981	3079
449.051	1223
449.122	238
449.193	839
449.263	430
449.334	765
449.405	1609
449.475	3424
449.546	2395
449.616	3700
449.687	2557
449.758	1518
449.828	380
449.899	196
449.969	-81
450.040	701
450.110	1388
450.181	1354
450.251	396
450.322	476
450.392	1418
450.463	1160
450.533	620
450.604	1181
450.674	673
450.744	1665
450.815	840
450.885	898
450.955	379
451.026	607
451.096	1001
451.166	1430
451.237	3070
451.307	10912
451.377	4125
451.447	872
451.518	876
451.588	166
451.658	1251
451.728	2098
451.799	9214
451.869	12715
451.939	2921
452.009	1213
452.079	387
452.149	1526
452.219	1802
452.289	12310
452.360	8830
452.430	1824
452.500	1429
452.570	1758
452.640	2832
452.710	7838
452.780	13442
452.850	7972
452.920	5284
452.990	2135
453.060	2009
453.129	2050
453.199	2146
453.269	10033
453.339	23079
453.409	36167
453.479	34914
453.549	54146
453.619	60617
453.688	23796
453.758	4708
453.828	1492
453.898	1011
453.968	1421
454.037	1392
454.087	740
454.107	445
454.168	1130
454.177	1205
454.247	1085
454.249	1102
454.316	1016
454.330	1140
454.386	1522
454.411	3612
454.456	6124
454.492	8159
454.525	9792
454.574	5059
454.595	3092
454.655	1781
454.665	1641
454.734	3245
454.736	3390
454.804	6217
454.817	8013
454.873	12530
454.898	13455
454.943	13985
454.979	8629
455.013	4388
455.060	3575
455.082	3889
455.141	5177
455.152	5268
455.221	12044
455.222	12409
455.291	21381
455.303	21131
455.360	18847
455.384	23365
455.430	28385
455.465	23292
455.499	18500
455.546	17003
455.569	15317
455.627	9512
455.638	8772
455.707	3180
455.708	3202
455.777	1780
455.789	1926
455.846	2641
455.869	2689
455.916	2725
455.950	2485
455.985	2186
456.031	2226
456.054	2156
456.112	1803
456.124	1759
456.193	2003
456.193	1977
456.262	3431
456.274	3665
456.332	4273
456.355	4119
456.401	3150
456.436	2609
456.470	2212
456.516	2170
456.540	2171
456.597	1321
456.609	1147
456.678	1970
456.678	1953
456.747	1320
456.759	1373
456.817	1820
456.840	1920
456.886	1887
456.920	2093
456.955	2409
457.001	2461
457.024	2607
457.082	3578
457.093	3726
457.162	4455
457.163	4493
457.232	4672
457.243	4649
457.301	3484
457.324	2819
457.370	2231
457.405	2619
457.439	3121
457.485	2985
457.508	2910
457.566	3467
457.577	3574
457.646	3769
457.647	3804
457.715	6543
457.727	7087
457.784	11205
457.808	13158
457.853	15635
457.889	18384
457.922	16843
457.969	12008
457.991	12659
458.050	15586
458.060	16433
458.129	25331
458.130	25644
458.198	24245
458.211	22948
458.267	12942
458.292	8838
458.336	7183
458.372	6694
458.405	8589
458.453	11643
458.474	15184
458.533	27466
458.543	28755
458.611	41991
458.614	42475
458.680	26092
458.694	21439
458.749	11377
458.775	7831
458.818	5971
458.855	5407
458.887	5260
458.936	4951
458.955	4868
459.016	4570
459.024	4585
459.093	5287
459.097	5331
459.162	5735
459.177	5770
459.230	5826
459.257	6023
459.299	5985
459.338	6080
459.368	6408
459.418	6846
459.437	6604
459.499	5894
459.505	5830
459.574	4857
459.579	4831
459.643	4836
459.659	4831
459.711	4996
459.740	5102
459.780	5488
459.820	6069
459.849	6443
459.900	6837
459.917	6776
459.981	7101
459.986	7052
460.054	5966
460.061	5887
460.123	5849
460.141	5871
460.191	7138
460.222	8006
460.260	9030
460.302	10255
460.328	9417
460.382	7479
460.397	7513
460.462	7435
460.465	7498
460.534	9837
460.543	10104
460.602	26696
460.623	32964
460.671	53190
460.703	69056
460.739	63307
460.783	54392
460.808	43672
460.864	10553
460.876	9100
460.944	7136
460.945	7109
461.013	6522
461.024	6402
461.081	6147
461.104	6345
461.150	6429
461.184	6371
461.218	6309
461.264	6149
461.286	6418
461.345	7015
461.355	6969
461.423	6816
461.425	6817
461.491	7773
461.505	7958
461.559	13238
461.585	15743
461.628	28778
461.665	40793
461.696	46601
461.745	57482
461.764	48175
461.825	13648
461.832	13119
461.901	8056
461.905	7865
461.969	7569
461.985	7500
462.037	7212
462.065	7111
462.105	8319
462.145	9506
462.173	14153
462.225	22802
462.241	25910
462.305	39167
462.310	37987
462.378	19034
462.385	16677
462.446	9119
462.465	7111
462.514	7600
462.545	7906
462.582	7695
462.625	7661
462.650	7722
462.705	7470
462.718	7633
462.785	9012
462.786	9106
462.854	14291
462.865	15184
462.922	19860
462.945	21704
462.990	14785
463.025	8907
463.058	8001
463.104	7227
463.126	7126
463.184	6471
463.194	6613
463.262	7892
463.264	7929
463.330	8230
463.344	8320
463.398	9644
463.424	10299
463.466	10323
463.504	10269
463.533	10286
463.583	10166
463.601	10485
463.663	11772
463.669	12143
463.737	16191
463.743	16570
463.805	24366
463.823	26577
463.873	43143
463.903	53406
463.940	59032
463.982	65635
464.008	51394
464.062	19306
464.076	17452
464.142	8676
464.144	8677
464.211	8934
464.221	9018
464.279	9143
464.301	9131
464.347	10441
464.381	11573
464.414	13290
464.461	15397
464.482	16264
464.540	18807
464.550	17943
464.617	11388
464.620	11145
464.685	11942
464.699	12129
464.753	13656
464.779	14407
464.820	16166
464.859	17824
464.888	17761
464.938	17390
464.956	17766
465.018	19292
465.023	18972
465.091	13972
465.098	13459
465.158	13244
465.177	13172
465.226	13637
465.257	13872
465.293	14113
465.336	14327
465.361	15427
465.416	17906
465.428	19354
465.495	27117
465.496	27310
465.563	50448
465.575	54407
465.631	69878
465.654	76542
465.698	47200
465.734	22078
465.765	18421
465.813	13044
465.833	13000
465.893	13151
465.900	13111
465.968	12597
465.972	12536
466.035	12432
466.052	12386
466.102	13090
466.131	13460
466.170	13527
466.210	13572
466.237	13867
466.290	14320
466.304	14543
466.369	15338
466.372	15411
466.439	16774
466.449	16939
466.506	18490
466.528	19043
466.573	25849
466.607	30853
466.641	47601
466.687	70818
466.708	81183
466.766	109512
466.775	101097
466.842	36094
466.845	32930
466.909	21197
466.925	18403
466.977	18456
467.004	18461
467.044	18762
467.083	18994
467.111	20082
467.163	22018
467.178	23020
467.242	26961
467.245	26876
467.312	23978
467.321	23545
467.379	23756
467.400	23761
467.446	26907
467.480	29089
467.559	25433
467.638	20556
467.717	20896
467.796	21309
467.875	24810
467.955	24886
468.034	34443
468.113	83424
468.192	133590
468.271	40094
468.350	21660
468.429	22567
468.508	22550
468.588	20781
468.667	20326
468.746	23085
468.825	21402
468.904	18319
468.983	21628
469.062	36320
469.141	46657
469.220	20281
469.299	16700
469.378	18986
469.456	21349
469.535	20534
469.614	20310
469.693	20604
469.772	27940
469.851	40966
469.930	29714
470.009	16547
470.088	16852
470.166	17097
470.245	19612
470.324	20749
470.403	19653
470.482	17631
470.560	16269
470.639	17657
470.718	21815
470.797	18510
470.875	21508
470.954	31003
471.033	38700
471.111	16189
471.190	14652
471.269	14104
471.347	13558
471.426	15123
471.505	17898
471.583	18424
471.662	18086
471.740	15639
471.819	15920
471.898	15651
471.976	15299
472.055	14753
472.133	17724
472.212	26511
472.290	29238
472.369	17746
472.447	15320
472.526	15137
472.604	15669
472.683	16260
472.761	17046
472.839	15555
472.918	14939
472.996	15430
473.075	20285
473.153	18815
473.231	15540
473.310	19050
473.388	19423
473.466	15873
473.545	17064
473.623	22861
473.701	23352
473.780	16065
473.858	15905
473.936	17430
474.014	15395
474.093	17396
474.171	27413
474.249	41435
474.327	29791
474.405	14886
474.484	13605
474.562	14918
474.640	14429
474.718	15524
474.796	15562
474.874	14176
474.952	12926
475.030	13395
475.108	13836
475.187	15815
475.265	16740
475.343	23550
475.421	27477
475.499	16487
475.577	16568
475.655	22152
475.733	46086
475.811	86021
475.889	81875
475.966	57072
476.044	17145
476.122	19389
476.200	23376
476.278	20813
476.356	14991
476.434	14883
476.512	18432
476.590	23955
476.667	22826
476.745	13661
476.823	15506
476.901	14857
476.979	16249
477.056	14982
477.134	16130
477.212	16911
477.290	16314
477.367	13177
477.445	12843
477.523	13553
477.601	14141
477.678	14156
477.756	18674
477.834	21226
477.911	14334
477.989	13906
478.066	14878
478.144	17241
478.222	18457
478.299	25620
478.377	27473
478.454	14267
478.532	13125
478.609	12637
478.687	14884
478.764	11876
478.842	13169
478.919	15170
478.997	14930
479.074	13273
479.152	16916
479.229	22555
479.307	16070
479.384	11329
479.461	11337
479.539	14081
479.616	17668
479.694	13954
479.771	16870
479.848	16211
479.926	24019
480.003	27690
480.080	13762
480.157	12104
480.235	13295
480.312	12280
480.389	15441
480.467	25785
480.544	36302
480.621	18516
480.698	15462
480.775	17394
480.853	19054
480.930	14357
481.007	15691
481.084	18271
481.161	21806
481.238	20123
481.315	13375
481.392	12407
481.470	12981
481.547	14929
481.624	13871
481.701	13052
481.778	15001
481.855	16973
481.932	24649
482.009	47600
482.086	36129
482.163	15180
482.240	19812
482.317	32651
482.393	29583
482.470	14782
482.547	15262
482.624	13867
482.701	14435
482.778	13583
482.855	12393
482.932	11540
483.009	12280
483.085	14155
483.162	16898
483.239	16646
483.316	12438
483.393	12697
483.469	12524
483.546	15880
483.623	19053
483.699	13401
483.776	14260
483.853	17389
483.930	24542
484.006	63086
484.083	122003
484.160	52330
484.236	55967
484.313	47474
484.389	36019
484.466	31563
484.543	30770
484.619	31419
484.696	31505
484.772	35504
484.849	40156
484.925	31392
485.002	28597
485.078	30993
485.155	31940
485.231	28550
485.308	27976
485.384	30267
485.461	37156
485.537	64424
485.614	87783
485.690	32466
485.766	26988
485.843	28134
485.919	36901
485.995	41119
486.072	26945
486.148	24138
486.224	24678
486.301	26114
486.377	31192
486.453	30490
486.530	28941
486.606	36247
486.682	41453
486.758	55153
486.835	72204
486.911	49801
486.987	85841
487.063	82043
487.139	87892
487.215	66636
487.292	35462
487.368	28800
487.444	32060
487.520	38353
487.596	40447
487.672	50163
487.748	105173
487.824	176633
487.900	88497
487.976	38029
488.052	34882
488.128	38560
488.204	33587
488.280	30015
488.356	34301
488.432	72952
488.508	129981
488.584	44898
488.660	25372
488.736	24717
488.812	26093
488.888	32669
488.964	38681
489.039	74228
489.115	123146
489.191	82251
489.267	28401
489.343	25177
489.418	21198
489.494	20838
489.570	19896
489.646	22796
489.722	22891
489.797	24257
489.873	35996
489.949	90035
490.024	87241
490.100	23199
490.176	21332
490.251	24907
490.327	32052
490.403	21362
490.478	20355
490.554	16461
490.629	18204
490.705	16563
490.781	19477
490.856	19434
490.932	22615
491.007	20839
491.083	21997
491.158	20595
491.234	28057
491.309	66452
491.385	79717
491.460	23527
491.536	24312
491.611	20098
491.686	20812
491.762	26893
491.837	49747
491.913	88928
491.988	117003
492.063	157280
492.139	58946
492.214	37343
492.289	17046
492.365	15590
492.440	20996
492.515	20924
492.590	21848
492.666	17292
492.741	23535
492.816	41442
492.891	23076
492.967	16279
493.042	15864
493.117	16954
493.192	19494
493.267	28657
493.342	90947
493.418	148259
493.493	31263
493.568	15110
493.643	15426
493.718	20279
493.793	31298
493.868	33172
493.943	20666
494.018	15770
494.093	15441
494.168	15970
494.243	13140
494.318	11934
494.393	12649
494.468	12862
494.543	12246
494.618	14566
494.693	14344
494.768	13472
494.842	15365
494.917	11313
494.992	13069
495.067	13273
495.142	11066
495.217	12999
495.292	14607
495.366	16980
495.441	21662
495.516	27310
495.591	32863
495.665	88354
495.740	243571
495.815	121558
495.890	26808
495.964	19535
496.039	20171
496.114	18970
496.188	21214
496.263	21421
496.338	18346
496.412	21738
496.487	25685
496.561	23575
496.636	25637
496.710	20420
496.785	23161
496.860	28914
496.934	21320
497.009	19274
497.083	20209
497.158	21213
497.232	25075
497.307	32004
497.381	25035
497.455	29827
497.530	44924
497.604	29890
497.679	29633
497.753	46078
497.827	62059
497.902	50962
497.976	56962
498.050	102286
498.125	388154
498.199	479881
498.273	83633
498.348	51635
498.422	43372
498.496	40993
498.570	40494
498.645	32339
498.719	32569
498.793	38787
498.867	60791
498.941	77141
499.016	156104
499.090	482600
499.164	210790
499.238	29713
499.312	22484
499.386	27492
499.460	27113
499.534	24465
499.609	29456
499.683	49913
499.757	48242
499.831	73203
499.905	306931
499.979	354125
500.053	64765
500.127	60146
500.201	37413
500.275	24787
500.349	24100
500.422	28035
500.496	38128
500.570	69014
500.644	166747
500.718	381645
500.792	102431
500.866	25917
500.940	35036
501.013	29628
501.087	27482
501.161	44065
501.235	61130
501.309	117196
501.382	334521
501.456	337289
501.530	72894
501.603	131361
501.677	58388
501.751	21725
501.825	25906
501.898	43492
501.972	148812
502.046	110422
502.119	29263
502.193	56722
502.266	168018
502.340	92579
502.413	65779
502.487	152440
502.561	95811
502.634	30029
502.708	18765
502.781	16823
502.855	14644
502.928	13148
503.002	14188
503.075	13477
503.149	15890
503.222	16856
503.295	20153
503.369	24591
503.442	32169
503.516	93830
503.589	291475
503.662	213948
503.736	59873
503.809	130642
503.882	117996
503.956	140010
504.029	152219
504.102	71032
504.175	90778
504.249	45814
504.322	30279
504.395	24610
504.468	16851
504.542	18087
504.615	13339
504.688	12039
504.761	11910
504.834	16312
504.907	17208
504.980	27843
505.053	16503
505.127	17535
505.200	23160
505.273	26235
505.346	16787
505.419	12219
505.492	11028
505.565	8845
505.638	10093
505.711	9540
505.784	10042
505.857	9461
505.930	11715
506.003	10146
506.076	13155
506.149	17660
506.221	25501
506.294	20102
506.367	45501
506.440	183773
506.513	116995
506.586	27339
506.659	16229
506.731	11969
506.804	14377
506.877	19378
506.950	15760
507.022	10679
507.095	15403
507.168	21804
507.241	12488
507.313	8972
507.386	10485
507.459	15822
507.531	10541
507.604	9292
507.677	10056
507.749	8295
507.822	11885
507.894	21557
507.967	28529
508.040	16910
508.112	14185
508.185	14060
508.257	13684
508.330	20120
508.402	14318
508.475	13417
508.547	16221
508.620	15196
508.692	27839
508.765	16556
508.837	10605
508.909	11331
508.982	11027
509.054	13036
509.127	11221
509.199	10049
509.271	10070
509.344	9418
509.416	9449
509.488	10463
509.560	10586
509.633	11075
509.705	13670
509.777	13377
509.849	17932
509.922	13777
509.994	11828
510.066	11647
510.138	12147
510.210	21500
510.283	21040
510.355	18059
510.427	15357
510.499	13592
510.571	15561
510.643	13821
510.715	20928
510.787	19654
510.859	15518
510.931	18605
511.003	22430
511.076	21991
511.148	14554
511.219	13584
511.291	23647
511.363	34039
511.435	14317
511.507	11559
511.579	12897
511.651	13579
511.723	12786
511.795	11686
511.867	12159
511.939	15232
512.010	38075
512.082	32204
512.154	13724
512.226	13100
512.298	17422
512.369	26435
512.441	20945
512.513	19265
512.585	15644
512.656	16497
512.728	19253
512.800	14192
512.871	13186
512.943	14073
513.015	11733
513.086	13118
513.158	14300
513.230	14634
513.301	20453
513.373	23481
513.444	14468
513.516	13172
513.588	12723
513.659	13543
513.731	17322
513.802	15285
513.874	25104
513.945	50773
514.016	21407
514.088	13153
514.159	13749
514.231	17558
514.302	24050
514.374	18156
514.445	18509
514.516	40480
514.588	33355
514.659	18644
514.730	38357
514.802	28165
514.873	16817
514.944	19075
515.016	17368
515.087	19131
515.158	25930
515.229	40915
515.301	18562
515.372	21408
515.443	17555
515.514	13965
515.585	12570
515.656	12787
515.728	12090
515.799	11109
515.870	12117
515.941	12887
516.012	12829
516.083	15748
516.154	17371
516.225	22635
516.296	19883
516.367	18064
516.438	19033
516.509	23532
516.580	30013
516.651	61984
516.722	237107
516.793	147095
516.864	36055
516.935	33488
517.006	34924
517.077	43821
517.148	84492
517.219	194824
517.289	385693
517.360	217263
517.431	91250
517.502	22411
517.573	20236
517.643	18755
517.714	19948
517.785	20658
517.856	20381
517.926	24001
517.997	26290
518.068	31091
518.138	38955
518.209	46409
518.280	120327
518.350	496166
518.421	252805
518.492	41383
518.562	29655
518.633	31194
518.703	31006
518.774	46046
518.845	92428
518.915	101751
518.986	46478
519.056	34702
519.127	48357
519.197	71599
519.268	185487
519.338	148774
519.408	34136
519.479	33361
519.549	25312
519.620	17332
519.690	14208
519.760	15577
519.831	15076
519.901	15879
519.971	13436
520.042	15922
520.112	19177
520.182	19295
520.253	21983
520.323	16031
520.393	19350
520.463	28703
520.534	20144
520.604	41982
520.674	24534
520.744	22201
520.814	44517
520.885	46551
520.955	52369
521.025	217918
521.095	106862
521.165	19634
521.235	17749
521.305	14373
521.375	13636
521.445	13577
521.515	18375
521.585	19660
521.655	21506
521.725	16573
521.795	17225
521.865	12968
521.935	21835
522.005	22442
522.075	12873
522.145	14692
522.215	16789
522.285	26253
522.355	31973
522.424	66953
522.494	64540
522.564	27403
522.634	35053
522.704	109707
522.774	52509
522.843	15877
522.913	14224
522.983	17264
523.053	15064
523.122	14686
523.192	17375
523.262	51972
523.331	65951
523.401	17300
523.471	11392
523.540	11813
523.610	9809
523.680	10183
523.749	11561
523.819	15460
523.888	17387
523.958	10830
524.027	11393
524.097	13512
524.166	12148
524.236	10951
524.305	13368
524.375	11044
524.444	11021
524.514	12109
524.583	12997
524.653	16612
524.722	19911
524.791	13392
524.861	12843
524.930	10281
524.999	11516
525.069	16728
525.138	15357
525.207	19381
525.277	14142
525.346	12469
525.415	11972
525.484	12211
525.554	15597
525.623	16947
525.692	13462
525.761	15402
525.830	16370
525.900	18936
525.969	27218
526.038	40381
526.107	60215
526.176	188117
526.245	180624
526.314	65463
526.383	100575
526.452	147746
526.522	206782
526.591	269511
526.660	88214
526.729	46699
526.797	45874
526.867	71072
526.935	274685
527.004	500267
527.073	332994
527.142	46053
527.211	21035
527.280	18697
527.349	18797
527.418	10910
527.487	10458
527.555	9309
527.624	9457
527.693	8915
527.762	10743
527.831	9762
527.899	9592
527.968	10294
528.037	10209
528.106	11920
528.174	21102
528.243	20387
528.312	25493
528.380	36986
528.449	14180
528.518	10115
528.586	7690
528.655	7710
528.723	8952
528.792	7723
528.861	10030
528.929	9205
528.998	9587
529.066	9176
529.135	11009
529.203	8653
529.272	9760
529.340	12587
529.409	13863
529.477	12349
529.545	14709
529.614	18566
529.682	18218
529.751	24290
529.819	23027
529.887	19294
529.956	14181
530.024	14984
530.092	12224
530.161	13508
530.229	20281
530.297	16079
530.365	14052
530.434	12729
530.502	12838
530.570	13268
530.638	10516
530.707	13044
530.775	14952
530.843	12282
530.911	13014
530.979	11365
531.047	14014
531.115	13977
531.183	13583
531.252	12699
531.320	12319
531.388	11870
531.456	13029
531.524	11665
531.592	14196
531.660	15039
531.728	13667
531.796	12651
531.864	12904
531.932	14730
532.000	13235
532.067	14820
532.135	15813
532.203	16794
532.271	17498
532.339	24384
532.407	51042
532.475	37605
532.542	21246
532.610	22365
532.678	25244
532.746	65737
532.814	204994
532.881	65933
532.949	20424
533.017	17080
533.084	15478
533.152	14282
533.220	14776
533.287	14961
533.355	14297
533.423	13877
533.490	14664
533.558	13528
533.625	15007
533.693	15315
533.761	14482
533.828	16669
533.896	14506
533.963	23437
534.031	28650
534.098	37215
534.166	23075
534.233	15485
534.300	15893
534.368	15979
534.435	14369
534.503	14914
534.570	16575
534.637	15754
534.705	18558
534.772	19683
534.840	24853
534.907	78603
534.974	128723
535.041	26241
535.109	20272
535.176	14303
535.243	12676
535.310	12908
535.378	12855
535.445	10945
535.512	11483
535.579	11841
535.646	11008
535.714	12159
535.781	13774
535.848	14258
535.915	14646
535.982	14973
536.049	14050
536.116	14423
536.183	13586
536.250	12702
536.317	12969
536.384	14293
536.451	18154
536.518	19184
536.585	14449
536.652	19248
536.719	23141
536.786	19076
536.853	17092
536.920	22255
536.987	33057
537.053	28690
537.120	90243
537.187	98046
537.254	15673
537.321	12504
537.388	13265
537.454	10261
537.521	10572
537.588	10137
537.654	12019
537.721	12848
537.788	13052
537.855	11017
537.921	12206
537.988	11695
538.055	12144
538.121	10410
538.188	11959
538.254	15209
538.321	28828
538.388	20902
538.454	12649
538.521	11140
538.587	10756
538.654	9973
538.720	10601
538.787	9603
538.853	11237
538.920	14240
538.986	15502
539.053	12950
539.119	13362
539.185	12316
539.252	14071
539.318	19658
539.385	17740
539.451	14567
539.517	14943
539.583	16008
539.650	28090
539.716	83205
539.782	29188
539.849	12221
539.915	12548
539.981	11450
540.047	13262
540.114	13486
540.180	14391
540.246	13283
540.312	16380
540.378	28417
540.444	30375
540.510	27533
540.576	86672
540.643	36074
540.709	13087
540.775	11456
540.841	12142
540.907	16224
540.973	25847
541.039	19586
541.105	18445
541.171	13732
541.237	11034
541.303	11903
541.369	13657
541.435	15288
541.500	24731
541.566	16818
541.632	11099
541.698	10213
541.764	11378
541.830	10314
541.896	10590
541.961	11013
542.027	11929
542.093	11967
542.159	11824
542.224	12170
542.290	18518
542.356	24675
542.421	30021
542.487	16534
542.553	12739
542.618	14547
542.684	13990
542.750	13166
542.815	15983
542.881	22354
542.947	70116
543.012	63129
543.078	13197
543.143	11062
543.209	12042
543.274	12669
543.340	14915
543.405	26105
543.471	49657
543.536	14929
543.602	12573
543.667	10897
543.732	11659
543.798	9443
543.863	11367
543.928	10122
543.994	8794
544.059	10930
544.124	10622
544.190	10461
544.255	11730
544.320	11800
544.386	11186
544.451	16020
544.516	18201
544.581	17360
544.646	40987
544.712	78968
544.777	20741
544.842	14925
544.907	16888
544.972	14944
545.037	13556
545.102	15624
545.168	14836
545.233	15908
545.298	16988
545.363	19643
545.428	20511
545.493	27781
545.558	61690
545.623	33127
545.688	15506
545.753	15454
545.818	14631
545.883	15414
545.947	13905
546.012	16804
546.077	17885
546.142	16177
546.207	15645
546.272	18220
546.337	19266
546.401	17117
546.466	16075
546.531	15680
546.596	17534
546.661	17324
546.725	17680
546.790	15823
546.855	16963
546.919	16557
546.984	17749
547.049	19438
547.113	22651
547.178	20700
547.243	24530
547.307	25798
547.372	30345
547.436	33533
547.501	27503
547.565	28032
547.630	28973
547.695	29917
547.759	32913
547.823	31244
547.888	27019
547.952	25802
548.017	27775
548.081	31793
548.146	37840
548.210	35895
548.274	28841
548.339	28167
548.403	26134
548.468	24593
548.532	24580
548.596	25871
548.660	25944
548.725	28149
548.789	31981
548.853	34665
548.917	29569
548.982	35677
549.046	37300
549.110	25162
549.174	25525
549.238	24769
549.303	26958
549.367	28773
549.431	27655
549.495	26208
549.559	26158
549.623	28504
549.687	33052
549.751	40161
549.815	36731
549.879	37630
549.943	33759
550.007	36909
550.071	37607
550.135	38581
550.199	34440
550.263	31861
550.327	34466
550.391	42090
550.455	37913
550.519	36617
550.582	38052
550.646	44647
550.710	48750
550.774	41082
550.838	41620
550.901	43104
550.965	46489
551.029	48617
551.093	54510
551.156	63917
551.220	94341
551.284	107864
551.347	66552
551.411	93252
551.475	112681
551.538	49096
551.602	43427
551.666	39626
551.729	36511
551.793	36910
551.856	37840
551.920	35901
551.983	36096
552.047	35226
552.110	36085
552.174	37006
552.237	36625
552.301	34862
552.364	33111
552.428	32393
552.491	33258
552.554	34306
552.618	34178
552.681	35600
552.745	35349
552.808	37945
552.871	43563
552.934	39056
552.998	36799
553.061	37863
553.124	36113
553.187	36235
553.251	37602
553.314	40406
553.377	41262
553.440	49058
553.503	96446
553.567	172980
553.630	58277
553.693	39365
553.756	38703
553.819	36608
553.882	36416
553.945	35723
554.008	35309
554.071	34920
554.134	36007
554.197	34251
554.260	34789
554.323	36147
554.386	35988
554.449	36212
554.512	36943
554.575	34470
554.638	36051
554.701	33857
554.764	34169
554.827	33524
554.889	32016
554.952	30616
555.015	30455
555.078	30855
555.141	32255
555.203	31163
555.266	29877
555.329	30132
555.391	29903
555.454	30098
555.517	29710
555.580	28124
555.642	26069
555.705	25716
555.768	26967
555.830	26639
555.893	25152
555.955	24160
556.018	24865
556.080	24336
556.143	24371
556.206	24361
556.268	26679
556.330	25187
556.393	25511
556.455	24237
556.518	31277
556.580	34312
556.643	23622
556.705	21701
556.767	20304
556.830	23467
556.892	22392
556.955	28135
557.017	25577
557.079	22350
557.142	19827
557.204	22150
557.266	31630
557.328	31043
557.391	19346
557.453	18164
557.515	19415
557.577	20982
557.639	22675
557.701	18920
557.764	18806
557.826	19710
557.888	23042
557.950	22485
558.012	23179
558.074	27540
558.136	48390
558.198	128673
558.260	61515
558.322	26043
558.384	25970
558.446	29420
558.508	33318
558.570	40177
558.632	53826
558.694	74560
558.756	79326
558.818	188590
558.880	534234
558.942	219018
559.003	139319
559.065	85115
559.127	36856
559.189	34625
559.251	38926
559.312	49081
559.374	94753
559.436	335202
559.498	219729
559.559	43756
559.621	36469
559.683	38255
559.744	56449
559.806	151607
559.868	277749
559.929	70087
559.991	39190
560.052	47910
560.114	118525
560.176	95602
560.237	67458
560.299	125798
560.360	40125
560.422	19073
560.483	18796
560.545	16756
560.606	16655
560.667	16171
560.729	16332
560.790	15116
560.852	14796
560.913	14919
560.974	15067
561.036	14930
561.097	15267
561.158	14866
561.220	15538
561.281	15618
561.342	16667
561.403	18637
561.465	20356
561.526	34582
561.587	52106
561.648	20589
561.709	16389
561.771	15583
561.832	14858
561.893	14497
561.954	14358
562.015	13917
562.076	14376
562.137	15111
562.198	15157
562.259	14585
562.320	14499
562.381	14908
562.442	20572
562.503	17711
562.564	14358
562.625	13319
562.686	13987
562.747	15669
562.808	15630
562.869	14687
562.930	18745
562.991	17211
563.051	16201
563.112	15147
563.173	15599
563.234	14240
563.294	14127
563.355	13723
563.416	14923
563.477	13379
563.537	15150
563.598	16013
563.659	14772
563.720	15155
563.780	14405
563.841	15186
563.901	14640
563.962	14847
564.023	15300
564.083	15017
564.144	15257
564.204	15504
564.265	15918
564.325	18505
564.386	32760
564.446	33572
564.507	16842
564.567	14623
564.628	14488
564.688	13766
564.749	15127
564.809	16844
564.869	20217
564.930	16330
564.990	14609
565.050	13085
565.111	14962
565.171	13438
565.231	14587
565.292	14512
565.352	13322
565.412	14497
565.472	15070
565.532	14132
565.593	14221
565.653	15062
565.713	15146
565.773	15510
565.833	17263
565.893	20849
565.953	16082
566.013	14818
566.074	15782
566.134	18922
566.194	29215
566.254	33237
566.314	23483
566.374	16578
566.434	17292
566.494	16405
566.554	15618
566.614	17102
566.673	15876
566.733	18366
566.793	19208
566.853	19154
566.913	18316
566.973	19592
567.033	20176
567.092	19337
567.152	19483
567.212	20117
567.272	20194
567.331	21593
567.391	20583
567.451	22632
567.511	27069
567.570	29635
567.630	21451
567.690	19147
567.749	19883
567.809	19968
567.868	22352
567.928	24032
567.988	26535
568.047	28700
568.107	32072
568.166	38488
568.226	52122
568.285	67190
568.345	68850
568.404	61175
568.464	54875
568.523	50283
568.582	51005
568.642	54744
568.701	61098
568.761	76660
568.820	104870
568.879	117174
568.939	106135
568.998	83726
569.057	65436
569.116	52459
569.176	44139
569.235	36233
569.294	31303
569.353	29026
569.413	27136
569.472	24873
569.531	22624
569.590	21060
569.649	20572
569.708	18767
569.767	19065
569.827	19687
569.886	18182
569.945	17195
570.004	17401
570.063	16351
570.122	17542
570.181	16752
570.240	19307
570.299	18772
570.358	18132
570.417	16162
570.475	15447
570.534	14733
570.593	15560
570.652	15451
570.711	15563
570.770	15470
570.829	16976
570.887	15956
570.946	16467
571.005	13997
571.064	13611
571.122	14837
571.181	16753
571.240	15704
571.299	14172
571.357	15319
571.416	16113
571.475	16945
571.533	18584
571.592	14872
571.650	16478
571.709	13757
571.768	15085
571.826	13721
571.885	13408
571.943	12716
572.002	13868
572.060	14514
572.119	12643
572.177	12553
572.236	11859
572.294	11919
572.352	12635
572.411	11946
572.469	11736
572.528	11251
572.586	12865
572.644	13186
572.703	15127
572.761	13353
572.819	13107
572.877	12725
572.936	12949
572.994	11439
573.052	12191
573.110	12007
573.169	12991
573.227	10767
573.285	12363
573.343	11310
573.401	11831
573.459	11837
573.517	11757
573.576	11376
573.634	12594
573.692	12483
573.750	12373
573.808	11194
573.866	13237
573.924	16810
573.982	16306
574.040	13270
574.098	11315
574.155	11138
574.213	11320
574.271	10822
574.329	12020
574.387	10864
574.445	11884
574.503	10628
574.560	11004
574.618	10165
574.676	10766
574.734	11616
574.792	10943
574.849	10303
574.907	10225
574.965	9524
575.022	10155
575.080	10118
575.138	10690
575.195	10525
575.253	11652
575.311	11743
575.368	11327
575.426	9742
575.483	11552
575.541	10357
575.598	10972
575.656	11182
575.713	11110
575.771	10120
575.828	10954
575.886	10973
575.943	12002
576.001	11882
576.058	11848
576.115	11475
576.173	13543
576.230	14783
576.287	15690
576.345	14087
576.402	12670
576.459	12252
576.517	12414
576.574	13271
576.631	13156
576.688	13154
576.746	12075
576.803	11702
576.860	11386
576.917	11728
576.974	11639
577.031	11894
577.089	12556
577.146	11939
577.203	11934
577.260	12510
577.317	13201
577.374	14923
577.431	14431
577.488	13509
577.545	11745
577.602	11036
577.659	12577
577.716	12906
577.773	14097
577.830	12765
577.886	12510
577.943	11206
578.000	11476
578.057	12530
578.114	13662
578.171	14149
578.227	16739
578.284	16340
578.341	15522
578.398	13646
578.454	13708
578.511	14662
578.568	15984
578.625	13435
578.681	12145
578.738	11590
578.794	11496
578.851	11057
578.908	11472
578.964	12963
579.021	13369
579.077	12656
579.134	12644
579.190	10853
579.247	11691
579.303	10354
579.360	11712
579.416	10585
579.473	11541
579.529	10826
579.586	12103
579.642	11701
579.698	13134
579.755	12784
579.811	13194
579.867	12835
579.924	12869
579.980	13904
580.036	14855
580.093	16606
580.149	20180
580.205	22391
580.261	19272
580.317	16650
580.374	14805
580.430	16754
580.486	16541
580.542	14610
580.598	14541
580.619	14307
580.654	13915
580.692	13555
580.710	13394
580.765	13341
580.767	13349
580.823	13869
580.838	13738
580.879	13408
580.911	12927
580.935	12601
580.984	12717
580.991	12739
581.047	14275
581.057	14029
581.103	12993
581.130	14076
581.159	15241
581.203	15034
581.215	14977
581.270	16272
581.276	16101
581.326	14564
581.349	14527
581.382	14466
581.422	14703
581.438	14826
581.494	14163
581.494	14157
581.550	14017
581.567	14219
581.606	14636
581.640	14329
581.661	14176
581.713	14794
581.717	14850
581.773	13963
581.786	13943
581.829	13877
581.859	14563
581.885	15153
581.932	14666
581.940	14581
581.996	14731
582.004	14741
582.052	14692
582.077	14583
582.107	14590
582.150	15079
582.163	15193
582.219	14888
582.223	14878
582.274	14799
582.296	15028
582.330	15423
582.368	16232
582.386	16610
582.441	15347
582.441	15346
582.497	15329
582.514	15539
582.552	16208
582.587	16561
582.608	16695
582.659	16986
582.663	17011
582.719	16651
582.732	16422
582.774	15672
582.805	16486
582.830	17227
582.877	16839
582.885	16777
582.941	17728
582.950	17725
582.996	17729
583.023	18650
583.052	19753
583.095	19366
583.107	19271
583.162	22626
583.168	22590
583.218	21849
583.240	21648
583.273	21258
583.313	20227
583.328	19838
583.384	19404
583.385	19360
583.439	18142
583.458	18263
583.494	18553
583.531	18172
583.549	18035
583.603	18345
583.605	18353
583.660	18145
583.676	18152
583.715	18112
583.748	17874
583.770	17804
583.820	18503
583.825	18557
583.881	19083
583.893	18957
583.936	18523
583.965	18053
583.991	17672
584.038	18839
584.046	19047
584.101	18076
584.110	18175
584.156	18915
584.183	19072
584.211	19068
584.255	19149
584.266	19184
584.321	19262
584.328	19297
584.376	19597
584.400	19808
584.431	20267
584.472	20180
584.486	20075
584.541	20420
584.545	20436
584.596	20874
584.617	20691
584.651	20724
584.689	21510
584.706	21653
584.761	22087
584.762	22081
584.816	22576
584.834	22752
584.871	22962
584.906	22995
584.926	23058
584.978	23301
584.980	23326
585.035	24279
585.051	24576
585.090	25648
585.123	26846
585.145	27386
585.195	26844
585.200	26865
585.254	29137
585.267	29651
585.309	31802
585.340	33703
585.364	34778
585.412	35221
585.419	35331
585.473	36909
585.484	37462
585.528	40995
585.556	44758
585.583	51351
585.628	67782
585.637	74021
585.692	127929
585.700	140263
585.747	203880
585.772	193918
585.801	147368
585.845	73328
585.856	61153
585.910	41600
585.917	39675
585.965	35877
585.989	34607
586.019	34078
586.061	33890
586.074	33844
586.128	33546
586.133	33558
586.183	34264
586.205	34454
586.237	34790
586.277	35243
586.292	35403
586.346	35263
586.349	35262
586.401	35983
586.421	36248
586.455	37000
586.493	38431
586.509	39998
586.564	46298
586.565	46525
586.618	61672
586.637	64024
586.672	60024
586.709	49833
586.727	45923
586.781	43316
586.781	43358
586.835	42908
586.853	42533
586.889	42132
586.925	41751
586.944	42098
586.996	44021
586.998	44102
587.052	45044
587.068	45372
587.106	47112
587.140	47657
587.161	47925
587.212	49681
587.215	49869
587.269	52165
587.284	52738
587.323	54170
587.356	55242
587.377	56128
587.427	58489
587.431	58738
587.485	60798
587.499	61418
587.539	64325
587.571	66065
587.593	67217
587.643	69990
587.648	70452
587.702	74627
587.715	75697
587.755	79634
587.786	82198
587.810	84556
587.858	89903
587.864	90811
587.917	98145
587.930	99951
587.971	106755
588.001	111728
588.025	116441
588.073	125341
588.079	126904
588.133	139341
588.145	142551
588.187	156835
588.217	166062
588.241	175152
588.288	194683
588.295	198082
588.348	224146
588.360	230121
588.402	258986
588.431	279647
588.456	301563
588.503	343146
588.510	351258
588.564	418231
588.575	432565
588.617	510294
588.646	565920
588.671	633002
588.718	766767
588.725	793797
588.778	1005028
588.789	1047903
588.832	1193528
588.861	1278832
588.886	1234776
588.932	1084747
588.939	1059664
588.993	830739
589.004	810885
589.047	1092002
589.075	1265784
589.100	1292566
589.147	1260379
589.154	1234575
589.207	1012387
589.218	968846
589.261	877423
589.290	822516
589.314	828708
589.361	849162
589.368	866180
589.421	1011569
589.433	1042953
589.475	1151880
589.504	1213837
589.528	1151960
589.576	968337
589.582	976049
589.635	1104642
589.647	1126931
589.689	1124649
589.718	1086227
589.742	959505
589.790	709144
589.795	691746
589.849	529244
589.861	492740
589.902	426163
589.932	376575
589.955	347933
590.004	286513
590.009	283172
590.062	244397
590.075	234623
590.115	214084
590.146	197713
590.168	189904
590.218	172310
590.222	171711
590.275	159288
590.289	155777
590.328	146618
590.360	138581
590.381	134978
590.431	125561
590.435	125357
590.488	117535
590.503	115216
590.541	111737
590.574	108092
590.594	106347
590.645	101040
590.647	101111
590.700	96818
590.716	95379
590.753	92765
590.787	89895
590.806	89070
590.859	86153
590.859	86308
590.912	82914
590.930	81740
590.965	80281
591.001	78426
591.018	78047
591.071	76211
591.072	76010
591.124	74900
591.143	74152
591.177	72881
591.214	71311
591.230	71556
591.283	71898
591.285	71721
591.336	69528
591.356	68532
591.389	67936
591.427	66548
591.442	66247
591.495	64832
591.498	64557
591.547	63495
591.569	62791
591.600	62533
591.640	61830
591.653	61967
591.706	61965
591.711	61805
591.759	61952
591.782	61830
591.811	63140
591.853	64637
591.864	64277
591.917	61495
591.924	60926
591.969	59797
591.995	59001
592.022	59349
592.066	59481
592.075	59676
592.127	60002
592.137	59916
592.180	63578
592.208	65665
592.233	63430
592.279	58542
592.285	58472
592.338	56764
592.350	56221
592.390	54739
592.421	53376
592.443	53970
592.491	54835
592.495	54953
592.548	54592
592.562	54346
592.600	53703
592.633	52896
592.653	52909
592.704	52298
592.705	52580
592.775	51604
592.846	52243
592.916	52517
592.987	54321
593.058	52537
593.128	51485
593.199	50992
593.270	49159
593.341	48945
593.411	49828
593.482	49394
593.553	50585
593.623	48302
593.694	50072
593.764	52129
593.835	48835
593.906	48650
593.976	48753
594.047	50333
594.117	53728
594.188	55195
594.258	49363
594.329	48189
594.399	48126
594.470	49728
594.540	48273
594.611	49172
594.681	47680
594.751	49027
594.822	50056
594.892	49386
594.963	51670
595.033	51721
595.103	51842
595.174	54722
595.244	61846
595.314	73162
595.384	55473
595.455	52372
595.525	54444
595.595	54806
595.665	56186
595.736	53774
595.806	54266
595.876	55309
595.946	55047
596.016	54217
596.087	56046
596.157	57284
596.227	56258
596.297	57784
596.367	60374
596.437	63868
596.507	69217
596.577	78195
596.647	65760
596.717	62138
596.787	64755
596.857	63676
596.927	64845
596.997	63780
597.067	64656
597.137	67445
597.207	68040
597.277	67542
597.347	66288
597.417	65731
597.487	64793
597.557	65687
597.626	66693
597.696	68931
597.766	73441
597.836	80786
597.906	69022
597.975	63626
598.045	62803
598.115	64927
598.185	66940
598.254	71171
598.324	75570
598.394	76972
598.464	75945
598.533	75287
598.603	71654
598.672	71146
598.742	71398
598.812	72898
598.881	73587
598.951	72569
599.020	72741
599.090	73819
599.159	76650
599.229	74934
599.299	73518
599.368	75623
599.437	75471
599.507	73077
599.576	72271
599.646	75107
599.715	74932
599.785	73236
599.854	73019
599.924	75456
599.993	73590
600.062	73873
600.132	74876
600.201	77667
600.270	84283
600.340	86496
600.409	87959
600.478	87787
600.547	89961
600.617	87194
600.686	79641
600.755	76837
600.824	76083
600.894	76189
600.963	76185
601.032	76501
601.101	77722
601.170	77248
601.239	76975
601.308	79397
601.378	80948
601.447	81204
601.516	81212
601.585	82462
601.654	85448
601.723	86865
601.792	88154
601.861	91632
601.930	98990
601.999	98352
602.068	95157
602.137	97881
602.206	99238
602.275	96664
602.343	98293
602.412	100244
602.481	99742
602.550	98888
602.619	99475
602.688	101177
602.756	102766
602.825	101467
602.894	103486
602.963	102697
603.032	105007
603.100	106446
603.169	102978
603.238	106367
603.307	104562
603.375	102152
603.444	106839
603.513	101282
603.581	101135
603.650	110017
603.719	96626
603.787	90349
603.856	91130
603.924	93386
603.993	94882
604.061	97727
604.130	99509
604.198	101911
604.267	101820
604.335	104876
604.404	104441
604.472	107415
604.541	108400
604.609	109410
604.678	112387
604.746	114412
604.815	119802
604.883	117062
604.951	111868
605.020	116054
605.088	110655
605.156	106848
605.225	105492
605.293	103896
605.361	105289
605.429	103802
605.498	106461
605.566	106353
605.634	110829
605.702	112329
605.771	112005
605.839	117459
605.907	107654
605.975	111517
606.043	108820
606.111	103567
606.180	112206
606.248	110190
606.316	108562
606.384	109387
606.452	104294
606.520	87388
606.588	84679
606.656	84116
606.724	82312
606.792	79173
606.860	73501
606.928	67534
606.996	64933
607.064	63830
607.132	66229
607.200	69206
607.267	72266
607.335	70190
607.403	72807
607.471	72484
607.539	68683
607.607	70883
607.674	64161
607.742	63466
607.810	63885
607.878	62557
607.946	63484
608.013	65426
608.081	66578
608.149	68194
608.216	68104
608.284	71054
608.352	69963
608.419	71850
608.487	75208
608.555	70273
608.622	67561
608.690	70617
608.757	74854
608.825	78299
608.893	76227
608.960	76674
609.028	75699
609.095	78778
609.163	74165
609.230	66923
609.298	60706
609.365	61862
609.432	65820
609.500	70605
609.567	78689
609.635	88260
609.702	93672
609.769	92030
609.837	79927
609.904	67688
609.971	68734
610.039	74042
610.106	91287
610.173	151241
610.241	326879
610.308	323218
610.375	152384
610.442	86560
610.509	71598
610.577	68803
610.644	68747
610.711	71488
610.778	70944
610.845	73921
610.912	78101
610.980	82183
611.047	90747
611.114	84928
611.181	76849
611.248	75181
611.315	78283
611.382	78506
611.449	82272
611.516	83259
611.583	83423
611.650	84893
611.717	84445
611.784	85669
611.851	88933
611.918	94911
611.984	106070
612.051	139967
612.118	250105
612.185	582088
612.252	554503
612.319	157074
612.386	112287
612.452	100907
612.519	96896
612.586	102883
612.653	98804
612.719	97300
612.786	94267
612.853	88559
612.919	85827
612.986	87612
613.053	83257
613.120	80167
613.186	76396
613.253	78654
613.319	77364
613.386	78134
613.453	79021
613.519	81478
613.586	82300
613.652	90544
613.719	85972
613.785	84875
613.852	81747
613.918	81566
613.985	80746
614.051	90310
614.118	105503
614.184	114450
614.250	82698
614.317	82315
614.383	79985
614.449	81019
614.516	81708
614.582	83032
614.648	81964
614.715	79471
614.781	80063
614.847	79866
614.914	81029
614.980	80114
615.046	79042
615.112	80033
615.179	81278
615.245	84097
615.311	86485
615.377	99618
615.443	111131
615.509	96649
615.575	89675
615.642	88412
615.708	89736
615.774	93198
615.840	99325
615.906	109893
615.972	133429
616.038	199485
616.104	352473
616.170	696061
616.236	819869
616.302	246834
616.368	149672
616.434	119167
616.500	105874
616.565	108520
616.631	126202
616.697	118007
616.763	111486
616.829	137688
616.895	216346
616.961	251962
617.026	146571
617.092	99771
617.158	92473
617.224	90799
617.289	86353
617.355	83747
617.421	83041
617.487	83678
617.552	79618
617.618	78694
617.684	77252
617.749	81493
617.815	77441
617.880	74978
617.946	75256
618.012	78104
618.077	78857
618.143	77587
618.208	75746
618.274	81418
618.339	84031
618.405	74480
618.470	72661
618.536	73947
618.601	76069
618.667	73390
618.732	69530
618.798	70288
618.863	68182
618.928	68527
618.994	68889
619.059	69781
619.124	76094
619.190	72089
619.255	69149
619.320	68678
619.386	69219
619.451	68673
619.516	67767
619.581	68561
619.647	68798
619.712	70651
619.777	69120
619.842	69914
619.907	69691
619.972	70620
620.038	71505
620.103	69247
620.168	68943
620.233	69009
620.298	69350
620.363	70731
620.428	70225
620.493	71155
620.558	72339
620.623	73306
620.688	73638
620.753	72534
620.818	73070
620.883	73898
620.948	72975
621.013	73420
621.078	73567
621.143	73668
621.207	75973
621.272	74058
621.337	76150
621.402	76588
621.467	79531
621.532	84988
621.596	79665
621.661	76178
621.726	73839
621.791	74986
621.855	74888
621.920	77033
621.985	78482
622.049	81139
622.114	80145
622.179	78797
622.243	80328
622.308	81044
622.373	80963
622.437	82564
622.502	78503
622.566	78515
622.631	79031
622.695	79831
622.760	79580
622.824	78311
622.889	80095
622.953	80502
623.018	86815
623.082	90297
623.147	81105
623.211	78127
623.276	81160
623.340	77456
623.404	77214
623.469	76015
623.533	76744
623.597	74515
623.662	74325
623.726	72843
623.790	69276
623.854	69468
623.919	69697
623.983	69362
624.047	70689
624.111	70748
624.176	70669
624.240	73322
624.304	74882
624.368	70784
624.432	70798
624.496	72076
624.560	72043
624.625	76172
624.689	71715
624.753	72433
624.817	72467
624.881	69927
624.945	67570
625.009	65589
625.073	66254
625.137	67547
625.201	69829
625.265	72847
625.329	66884
625.393	66580
625.456	67133
625.520	67117
625.584	70065
625.648	74057
625.712	84634
625.776	128381
625.839	149496
625.903	92306
625.967	63361
626.031	73676
626.095	104945
626.158	71354
626.222	55485
626.286	51690
626.349	50471
626.413	48746
626.477	50625
626.540	48701
626.604	47652
626.668	48075
626.731	47257
626.795	47743
626.858	48330
626.922	46767
626.986	45645
627.049	44060
627.113	45969
627.176	44626
627.240	43607
627.303	43668
627.366	42976
627.430	43992
627.493	43243
627.557	43665
627.620	43939
627.684	43583
627.747	43121
627.810	41211
627.874	39847
627.937	37576
628.000	41498
628.064	39490
628.127	35786
628.190	35505
628.253	34907
628.317	34870
628.380	33452
628.443	33816
628.506	34304
628.569	32751
628.632	31781
628.696	32023
628.759	31456
628.822	30779
628.885	29133
628.948	29117
629.011	30095
629.074	29720
629.137	28010
629.200	28702
629.263	29298
629.326	27197
629.389	28119
629.452	27889
629.515	27830
629.578	28113
629.641	29177
629.704	27584
629.767	28299
629.830	27105
629.892	26678
629.955	26613
630.018	27487
630.081	27171
630.144	28887
630.207	26244
630.269	27510
630.332	27261
630.395	26494
630.458	24883
630.520	24559
630.583	25311
630.646	23340
630.708	23579
630.771	24295
630.834	24717
630.896	22829
630.959	24272
631.021	24212
631.084	24344
631.146	24570
631.209	27038
631.272	23098
631.334	23468
631.397	23330
631.459	22589
631.522	23390
631.584	24299
631.646	23541
631.709	24694
631.771	26684
631.834	25443
631.896	22060
631.958	21873
632.021	22309
632.083	21264
632.145	23116
632.208	22055
632.270	21720
632.332	21091
632.395	20533
632.457	22393
632.519	21888
632.581	21916
632.643	20958
632.706	21084
632.768	20060
632.830	21289
632.892	20576
632.954	21115
633.016	22132
633.078	20476
633.141	20849
633.203	21116
633.265	21990
633.327	20285
633.389	20364
633.451	21634
633.513	23173
633.575	23178
633.637	22456
633.698	22429
633.760	21158
633.822	20475
633.884	20809
633.946	22369
634.008	22011
634.070	22032
634.132	24412
634.193	24637
634.255	23534
634.317	23197
634.379	23849
634.441	22224
634.502	22256
634.564	20802
634.626	20528
634.687	20252
634.749	20072
634.811	20244
634.873	18484
634.934	19526
634.996	20252
635.057	19376
635.119	19434
635.181	19727
635.242	20188
635.304	18279
635.365	21680
635.427	18813
635.488	19403
635.550	19416
635.611	20126
635.673	18357
635.734	20512
635.796	20018
635.857	21793
635.918	21417
635.980	22828
636.041	23186
636.102	23338
636.164	23482
636.225	22930
636.286	21504
636.348	21396
636.409	19210
636.470	18832
636.531	19795
636.593	19490
636.654	20035
636.715	19249
636.776	18517
636.838	16876
636.899	18616
636.960	18051
637.021	17614
637.082	17358
637.143	18118
637.204	16680
637.265	16755
637.326	17434
637.387	17527
637.448	16217
637.509	17116
637.570	16596
637.631	17610
637.692	16164
637.753	16184
637.814	16030
637.875	16419
637.936	16864
637.997	16365
638.058	17540
638.119	16291
638.179	16587
638.240	15837
638.301	16806
638.362	16488
638.423	16008
638.483	16425
638.544	15092
638.605	15325
638.666	15868
638.726	16975
638.787	16926
638.848	16214
638.908	15703
638.969	15269
639.030	15502
639.090	15080
639.151	15970
639.211	16183
639.272	17424
639.332	20947
639.393	19465
639.453	15411
639.514	16898
639.574	15137
639.635	14049
639.695	15611
639.756	14621
639.816	15187
639.877	15830
639.937	18241
639.997	22651
640.058	15531
640.118	14197
640.178	15706
640.239	13904
640.299	14317
640.359	14352
640.420	14195
640.480	14789
640.540	14995
640.600	16168
640.661	16019
640.721	14990
640.781	18161
640.841	16777
640.901	16312
640.961	14928
641.021	14575
641.082	14848
641.142	17716
641.202	15467
641.262	13240
641.322	15276
641.382	13509
641.442	14528
641.502	13811
641.562	14701
641.622	13432
641.682	14620
641.742	14929
641.802	14706
641.861	15085
641.921	14701
641.981	14700
642.041	14631
642.101	15419
642.161	13658
642.221	13412
642.280	12721
642.340	12440
642.400	12404
642.460	13900
642.519	13132
642.579	13500
642.639	13982
642.698	11416
642.758	14504
642.818	13981
642.877	12518
642.937	14326
642.997	14475
643.056	17796
643.116	14232
643.175	14773
643.235	14156
643.294	14292
643.354	13830
643.414	14140
643.473	16246
643.532	17273
643.592	20152
643.651	27892
643.711	43174
643.770	78349
643.830	170740
643.889	425846
643.948	171088
644.008	30416
644.067	19108
644.126	15989
644.186	15404
644.245	14840
644.304	12346
644.363	14548
644.423	11124
644.482	13338
644.541	13324
644.600	12394
644.659	15061
644.719	15180
644.778	20722
644.837	28385
644.896	49272
644.955	117628
645.014	64807
645.073	19139
645.132	15146
645.191	15076
645.250	12769
645.309	14688
645.368	13178
645.427	15481
645.486	18662
645.545	31452
645.604	17017
645.663	13114
645.722	12126
645.781	13784
645.840	13722
645.898	14998
645.957	19155
646.016	24202
646.075	41410
646.134	75528
646.192	171352
646.251	341516
646.310	82622
646.369	22441
646.427	17840
646.486	14783
646.545	12222
646.603	12662
646.662	11668
646.721	12128
646.779	11216
646.838	10486
646.896	13064
646.955	14870
647.014	19852
647.072	29419
647.131	72554
647.189	56432
647.248	12843
647.306	12294
647.365	10978
647.423	8721
647.481	11234
647.540	8312
647.598	9850
647.657	9053
647.715	11072
647.773	9559
647.832	9959
647.890	9598
647.948	8775
648.007	9910
648.065	8700
648.123	9122
648.181	11238
648.240	11880
648.298	11250
648.356	8785
648.414	9754
648.472	9356
648.531	9044
648.589	9258
648.647	8856
648.705	9608
648.763	9614
648.821	9230
648.879	8809
648.937	9825
648.995	10078
649.053	11491
649.111	14478
649.169	21068
649.227	33786
649.285	61675
649.343	177458
649.401	138417
649.459	29260
649.516	22614
649.574	14312
649.632	21595
649.690	28796
649.748	18432
649.806	19839
649.863	35196
649.921	52000
649.979	50376
650.037	13284
650.094	8728
650.152	8789
650.210	7951
650.268	8398
650.325	8508
650.383	8459
650.440	7274
650.498	8683
650.556	7675
650.613	6868
650.671	8059
650.728	7685
650.786	8348
650.843	8215
650.901	6743
650.958	7416
651.016	7150
651.073	6708
651.131	6960
651.188	5628
651.246	7119
651.303	6240
651.360	7224
651.418	6461
651.475	6589
651.532	5176
651.590	7025
651.647	5090
651.704	7046
651.762	6331
651.819	7150
651.876	5782
651.933	6744
651.990	6580
652.048	6310
652.105	5766
652.162	6456
652.219	6348
652.276	6463
652.333	6963
652.390	4918
652.448	6270
652.505	6831
652.562	7166
652.619	6706
652.676	9938
652.733	13789
652.790	6334
652.847	4612
652.904	5779
652.961	5502
653.017	5320
653.074	6566
653.131	6012
653.188	4579
653.245	4846
653.302	5748
653.359	5196
653.415	6098
653.472	5192
653.529	6347
653.586	5035
653.642	5752
653.699	6273
653.756	5220
653.813	5408
653.869	5934
653.926	5303
653.983	4719
654.039	4928
654.096	5002
654.152	7002
654.209	5230
654.266	5982
654.322	4699
654.379	6452
654.435	6263
654.492	6850
654.548	8330
654.605	11057
654.661	8586
654.717	6532
654.774	6069
654.830	5550
654.887	5072
654.943	5398
655.000	5565
655.056	6380
655.112	6481
655.168	4703
655.225	6135
655.281	6442
655.337	6993
655.394	11313
655.450	9220
655.506	7526
655.562	10335
655.618	11176
655.675	5427
655.731	5291
655.787	4738
655.843	5688
655.899	5122
655.955	5634
656.011	5820
656.067	3707
656.123	5414
656.179	5123
656.235	6310
656.291	5014
656.347	6539
656.403	4946
656.459	5507
656.515	5223
656.571	5562
656.627	5532
656.683	5398
656.739	5505
656.795	4824
656.850	5548
656.906	5265
656.962	6430
657.018	4324
657.074	5113
657.129	5949
657.185	6854
657.241	10122
657.297	9315
657.352	5574
657.408	5237
657.464	5187
657.519	5422
657.575	4596
657.630	5644
657.686	5487
657.742	4876
657.797	4890
657.853	4423
657.908	6451
657.964	3471
658.019	5920
658.075	5280
658.130	5276
658.186	4326
658.241	5144
658.297	3708
658.352	5093
658.407	5068
658.463	4297
658.518	4410
658.573	5812
658.629	3987
658.684	4832
658.739	4896
658.795	4029
658.850	5143
658.905	4667
658.960	5140
659.016	4882
659.071	4178
659.126	5761
659.181	5407
659.236	7741
659.291	7309
659.346	6101
659.401	6694
659.457	6430
659.512	9458
659.567	7547
659.622	5002
659.677	4791
659.732	3899
659.787	5004
659.842	4736
659.897	7676
659.952	6504
660.007	4894
660.061	4443
660.116	4265
660.171	3621
660.226	5069
660.281	5673
660.336	3977
660.391	4829
660.445	4467
660.500	4838
660.555	5394
660.610	4331
660.664	5223
660.719	4343
660.774	5793
660.828	4628
660.883	4707
660.938	4550
660.992	3852
661.047	4859
661.101	4907
661.156	5112
661.211	4628
661.265	4397
661.320	4583
661.374	4361
661.429	3844
661.483	5760
661.538	5206
661.592	4494
661.647	4888
661.701	6465
661.755	5565
661.810	5572
661.864	4561
661.919	4499
661.973	4972
662.027	3953
662.081	3882
662.136	3139
662.190	5508
662.244	4526
662.299	5117
662.353	5406
662.407	4765
662.461	4882
662.515	5543
662.569	4831
662.624	5353
662.678	4137
662.732	3929
662.786	3822
662.840	4644
662.894	5199
662.948	4025
663.002	4244
663.056	4316
663.110	3462
663.164	4998
663.218	4596
663.272	3987
663.326	4595
663.380	4427
663.434	4336
663.488	4624
663.542	4498
663.595	4547
663.649	4457
663.703	5577
663.757	4606
663.811	4189
663.864	3538
663.918	4768
663.972	4699
664.026	4135
664.079	4152
664.133	4985
664.187	3982
664.240	4783
664.294	4149
664.348	4892
664.401	4700
664.455	4931
664.508	3807
664.562	4825
664.615	4299
664.669	3337
664.722	4289
664.776	3691
664.829	4555
664.883	4561
664.936	4793
664.990	5022
665.043	5307
665.097	5460
665.150	6094
665.203	5535
665.257	5196
665.310	5296
665.363	3943
665.417	4583
665.470	5030
665.523	5104
665.576	4847
665.630	4580
665.683	4605
665.736	5005
665.789	4496
665.842	4498
665.895	4600
665.949	5110
666.002	4722
666.055	4614
666.108	5438
666.161	4771
666.214	5740
666.267	5491
666.320	5034
666.373	5768
666.426	4858
666.479	4484
666.532	5680
666.585	5657
666.638	6532
666.691	5761
666.744	6094
666.796	4704
666.849	5915
666.902	5256
666.955	5366
667.008	4055
667.060	4421
667.113	4138
667.166	4280
667.219	4926
667.271	4900
667.324	5011
667.377	4192
667.430	5247
667.482	5343
667.535	5212
667.587	4803
667.640	4272
667.693	4642
667.745	5957
667.798	7768
667.850	4863
667.903	5131
667.955	5020
668.008	4498
668.060	5754
668.113	5358
668.165	5542
668.218	5055
668.270	4802
668.322	5223
668.375	4989
668.427	5376
668.479	4541
668.532	5662
668.584	5193
668.636	4846
668.689	5310
668.741	4766
668.793	5211
668.845	5036
668.898	5650
668.950	4156
669.002	5403
669.054	4214
669.106	4426
669.158	6365
669.211	4655
669.263	4802
669.315	6068
669.367	7465
669.419	5576
669.471	6159
669.523	6304
669.575	6590
669.627	5952
669.679	4961
669.731	5253
669.783	4793
669.835	6714
669.886	5539
669.938	6117
669.990	5632
670.042	5356
670.094	5641
670.146	6031
670.197	6324
670.249	6940
670.301	7792
670.353	9285
670.404	12696
670.456	16427
670.508	25372
670.560	40466
670.611	69659
670.663	121121
670.715	251800
670.766	430453
670.818	222923
670.869	49089
670.921	22473
670.972	15503
671.024	11506
671.075	9834
671.127	8346
671.178	7395
671.230	7436
671.281	6537
671.333	6826
671.384	6611
671.436	6773
671.487	7557
671.538	7910
671.590	9449
671.641	13625
671.692	18596
671.744	30256
671.795	33399
671.846	15360
671.897	9710
671.949	7134
672.000	7193
672.051	6718
672.102	6544
672.153	5333
672.204	5611
672.256	5079
672.307	5303
672.358	5404
672.409	5667
672.460	4735
672.511	4967
672.562	4770
672.613	5017
672.664	5277
672.715	5446
672.766	5038
672.817	4982
672.868	4023
672.919	4584
672.970	4652
673.021	4086
673.071	4075
673.122	4909
673.173	3644
673.224	5366
673.275	4246
673.326	4493
673.376	4485
673.427	3972
673.478	4079
673.528	4606
673.579	3748
673.630	3307
673.680	4135
673.731	3060
673.782	2886
673.832	4212
673.883	3885
673.934	3505
673.984	3443
674.035	4004
674.085	4322
674.136	5435
674.186	5157
674.237	4973
674.287	7286
674.338	5887
674.388	4197
674.438	3737
674.489	4501
674.539	4638
674.589	4122
674.640	5053
674.690	4560
674.740	4518
674.791	4313
674.841	4298
674.891	4853
674.942	4379
674.992	3993
675.042	3667
675.092	3013
675.142	3621
675.193	3159
675.243	2702
675.293	4693
675.343	3885
675.393	4325
675.443	4500
675.493	3918
675.543	3301
675.593	3636
675.643	3299
675.693	3259
675.743	3494
675.793	3542
675.843	2900
675.893	3268
675.943	3414
675.993	2977
676.043	3692
676.093	3837
676.142	3608
676.192	3764
676.242	3140
676.292	2624
676.341	2533
676.391	3728
676.441	2938
676.491	3203
676.540	3229
676.590	2977
676.640	2980
676.689	3522
676.739	3119
676.789	2986
676.838	3894
676.888	3495
676.937	2903
676.987	2594
677.037	2902
677.086	2903
677.136	3116
677.185	2413
677.235	2837
677.284	3002
677.333	3031
677.383	2664
677.432	3057
677.482	2570
677.531	3008
677.580	2756
677.630	3051
677.679	2215
677.728	3153
677.778	3073
677.827	2534
677.876	2722
677.925	3086
677.975	2464
678.024	3007
678.073	3184
678.122	3555
678.171	3054
678.220	3546
678.269	3795
678.319	2750
678.368	4060
678.417	3792
678.466	4155
678.515	3861
678.564	3373
678.613	2890
678.662	2605
678.711	2807
678.760	2727
678.809	2753
678.857	2560
678.906	3231
678.955	2613
679.004	3799
679.053	3124
679.102	3297
679.151	3724
679.199	3343
679.248	2981
679.297	2350
679.346	2204
679.394	2860
679.443	3502
679.492	2895
679.540	2963
679.589	3143
679.638	3883
679.686	3253
679.735	3154
679.784	2940
679.832	2649
679.881	3086
679.929	2203
679.978	2440
680.026	2602
680.075	2839
680.123	2393
680.172	3016
680.220	2797
680.268	3041
680.317	3082
680.365	2532
680.414	1971
680.462	3003
680.510	3132
680.559	2327
680.607	2597
680.655	2785
680.703	2508
680.752	2784
680.800	2831
680.848	2381
680.896	1828
680.945	1910
680.993	2347
681.041	2601
681.089	2500
681.137	2268
681.185	1527
681.233	2788
681.258	2758
681.281	2696
681.329	3048
681.377	2666
681.380	2725
681.425	3119
681.473	3561
681.502	3439
681.521	3294
681.569	3953
681.617	3279
681.624	3298
681.665	3140
681.713	4012
681.745	3788
681.761	3634
681.809	2873
681.857	3749
681.867	3695
681.904	3343
681.952	3869
681.989	3219
682.000	2985
682.048	3336
682.096	3243
682.111	3266
682.143	3199
682.191	3470
682.233	3956
682.239	3993
682.286	3693
682.334	3486
682.354	3362
682.382	3135
682.430	4522
682.476	4608
682.477	4579
682.525	3797
682.572	3729
682.598	3819
682.620	3862
682.667	3910
682.715	4665
682.720	4670
682.763	4347
682.810	4343
682.841	4664
682.857	4791
682.905	4650
682.952	4956
682.963	4941
683.000	4812
683.047	5516
683.085	5278
683.095	5169
683.142	4989
683.190	5586
683.206	5410
683.237	4950
683.284	5469
683.328	5242
683.332	5202
683.379	5425
683.426	5571
683.449	5302
683.473	5011
683.521	6047
683.568	5854
683.571	5885
683.615	5848
683.662	5592
683.693	5599
683.709	5586
683.757	5358
683.804	5462
683.814	5518
683.851	5538
683.898	6203
683.936	5932
683.945	5857
683.992	5765
684.039	6229
684.057	6206
684.086	6168
684.133	6566
684.179	6427
684.180	6399
684.227	6402
684.274	6623
684.300	6846
684.321	6950
684.368	5994
684.415	6989
684.422	6913
684.462	6373
684.509	6672
684.543	6874
684.556	6925
684.603	6225
684.649	7069
684.665	7101
684.696	7139
684.743	7105
684.786	7680
684.790	7709
684.837	7040
684.883	7684
684.908	7662
684.930	7622
684.977	8278
685.023	7520
685.029	7584
685.070	7797
685.117	7973
685.150	8153
685.164	8260
685.210	8394
685.257	8754
685.272	8936
685.303	9156
685.350	8538
685.393	8714
685.396	8724
685.443	8598
685.490	8913
685.514	8882
685.536	8804
685.583	9593
685.629	8848
685.636	8868
685.675	8817
685.722	8883
685.757	9176
685.768	9279
685.815	9315
685.861	9531
685.878	9286
685.908	8884
685.954	9636
686.000	9974
686.000	9972
686.047	9874
686.093	10095
686.121	10423
686.139	10551
686.185	10359
686.232	10747
686.242	10616
686.278	10079
686.324	10304
686.363	9986
686.370	9918
686.416	9691
686.463	9396
686.484	9757
686.509	10309
686.555	9736
686.601	10102
686.606	10156
686.647	10321
686.693	10378
686.727	9802
686.739	9626
686.785	10026
686.831	10195
686.848	10337
686.877	10537
686.923	10161
686.969	10131
686.969	10130
687.015	9928
687.061	10719
687.090	10891
687.107	10862
687.153	11380
687.199	10383
687.211	10257
687.245	10059
687.291	10350
687.332	10115
687.336	10118
687.382	10793
687.428	11119
687.453	11011
687.474	10767
687.520	10914
687.565	11119
687.574	11014
687.611	10824
687.657	11581
687.695	12011
687.702	12086
687.748	11916
687.794	11890
687.816	12008
687.839	11922
687.885	11960
687.931	11415
687.937	11366
687.976	11452
688.022	11232
688.058	11709
688.067	11810
688.113	11707
688.158	11692
688.179	11778
688.204	11778
688.249	11472
688.295	11706
688.300	11684
688.340	12093
688.386	12358
688.421	12676
688.431	12636
688.477	12271
688.522	12475
688.542	12141
688.567	11998
688.613	12542
688.658	12562
688.663	12578
688.703	12551
688.749	12587
688.784	12822
688.794	12917
688.839	12488
688.884	12418
688.905	12429
688.930	12417
688.975	12650
689.020	12499
689.026	12452
689.065	12312
689.110	12246
689.146	12598
689.155	12716
689.201	13009
689.246	13288
689.267	13297
689.291	13321
689.336	13407
689.381	13302
689.388	13309
689.426	13316
689.471	13754
689.509	13602
689.516	13558
689.561	12859
689.606	12678
689.630	12454
689.651	12408
689.696	12952
689.741	12262
689.750	12447
689.785	13340
689.830	13047
689.871	13403
689.875	13422
689.920	13457
689.965	13237
689.992	12817
690.010	12784
690.054	13552
690.099	13759
690.112	13948
690.144	13996
690.189	13592
690.233	13138
690.233	13155
690.278	12988
690.323	13227
690.354	13181
690.367	13249
690.412	13588
690.457	13816
690.474	13952
690.501	14176
690.546	14117
690.590	14159
690.595	14166
690.635	14630
690.680	15135
690.716	15154
690.724	15230
690.769	16488
690.813	16668
690.836	17285
690.857	18597
690.902	20357
690.946	23208
690.957	23774
690.991	29460
691.035	38159
691.077	46387
691.080	46548
691.124	46028
691.168	43905
691.198	43162
691.213	40139
691.257	31983
691.301	23790
691.318	20620
691.346	19769
691.390	18067
691.434	16439
691.439	16261
691.478	16082
691.522	15719
691.559	15380
691.567	15454
691.611	15440
691.655	16036
691.680	16120
691.699	16101
691.743	16140
691.787	16117
691.800	16081
691.831	16082
691.875	15897
691.919	16201
691.921	16167
691.964	16205
692.008	16268
692.041	16564
692.052	16604
692.096	15901
692.139	16006
692.162	15903
692.183	15958
692.227	15640
692.271	16044
692.282	16007
692.315	16028
692.359	16015
692.402	16182
692.403	16213
692.447	16030
692.490	16280
692.523	16226
692.534	16298
692.578	16602
692.622	16988
692.643	17034
692.666	16934
692.709	16633
692.753	16494
692.763	16478
692.797	16684
692.840	16455
692.884	16569
692.884	16604
692.928	16275
692.971	16631
693.004	16830
693.015	16921
693.059	16743
693.102	16960
693.124	16846
693.146	16808
693.189	16807
693.233	16743
693.245	16726
693.276	17329
693.320	18290
693.363	19024
693.365	19009
693.407	19452
693.450	19993
693.485	20601
693.493	20982
693.537	22285
693.580	24102
693.605	24942
693.624	27202
693.667	32584
693.710	38332
693.725	40330
693.753	51547
693.797	69704
693.840	88910
693.845	90710
693.883	89522
693.926	86443
693.966	84837
693.970	83046
694.013	63298
694.056	43422
694.086	29650
694.099	28666
694.142	25775
694.185	22813
694.206	21260
694.229	20904
694.272	20208
694.315	19682
694.326	19506
694.358	19406
694.401	18964
694.444	18937
694.446	18882
694.487	18708
694.530	18591
694.566	18282
694.573	18283
694.616	18106
694.659	17749
694.686	17741
694.702	17862
694.745	17860
694.787	17822
694.806	17767
694.830	17695
694.873	17563
694.916	17579
694.926	17524
694.959	17586
695.002	17479
695.044	17281
695.046	17245
695.087	17650
695.130	17772
695.166	17922
695.172	17964
695.215	17881
695.258	17827
695.286	17805
695.301	17855
695.343	17816
695.386	17801
695.406	17699
695.428	17738
695.471	17797
695.514	17917
695.526	17942
695.556	18255
695.599	18425
695.641	18666
695.646	18631
695.684	18515
695.726	18531
695.766	18371
695.769	18436
695.811	18978
695.854	19167
695.886	19595
695.896	19597
695.938	18933
695.981	18557
696.005	18257
696.023	18402
696.065	18569
696.108	18894
696.125	18901
696.150	19088
696.192	19472
696.235	19645
696.245	19737
696.277	19777
696.319	19438
696.361	19219
696.365	19154
696.404	19358
696.446	19469
696.485	19663
696.488	19707
696.530	19325
696.572	19166
696.604	18935
696.614	18979
696.656	19086
696.698	19148
696.724	19083
696.740	19125
696.783	19186
696.825	19232
696.844	19208
696.867	19202
696.909	19136
696.951	18927
696.964	18849
696.992	19050
697.034	19187
697.076	19411
697.083	19391
697.118	19273
697.160	19079
697.202	18895
697.203	18839
697.244	18944
697.286	19188
697.323	19144
697.327	19183
697.369	19240
697.411	19113
697.442	19140
697.453	19259
697.494	19377
697.536	19553
697.562	19612
697.578	19689
697.620	19755
697.661	19785
697.682	19764
697.703	19692
697.744	19448
697.786	19202
697.801	19043
697.828	19460
697.869	20059
697.911	20669
697.921	20770
697.952	20216
697.994	19385
698.035	18553
698.040	18405
698.077	18532
698.118	18556
698.160	18650
698.160	18601
698.201	18948
698.243	19289
698.279	19537
698.284	19595
698.325	19656
698.367	19654
698.399	19651
698.408	19744
698.449	19901
698.491	20082
698.518	20119
698.532	20162
698.573	20193
698.614	20162
698.638	20096
698.656	20248
698.697	20486
698.738	20731
698.757	20785
698.779	20933
698.820	21102
698.862	21284
698.877	21295
698.903	21279
698.944	21154
698.985	21025
698.996	20936
699.026	21163
699.067	21398
699.116	21623
699.235	20422
699.354	20287
699.474	20360
699.593	20778
699.713	20926
699.832	19399
699.951	20892
700.070	20023
700.190	19495
700.309	19739
700.428	19766
700.547	19118
700.667	19176
700.786	19465
700.905	19439
701.024	19526
701.143	19231
701.262	18938
701.381	19296
701.500	18276
701.619	20371
701.738	18208
701.857	18714
701.976	18533
702.095	18644
702.214	19051
702.333	18304
702.452	18588
702.571	17073
702.690	18298
702.809	17861
702.928	17758
703.047	17532
703.165	17620
703.284	18326
703.403	18030
703.522	17630
703.640	17051
703.759	18353
703.878	20334
703.997	17735
704.115	17932
704.234	16420
704.353	17051
704.471	17547
704.590	16771
704.708	17013
704.827	16406
704.946	17046
705.064	16821
705.183	16965
705.301	19393
705.420	22230
705.538	21706
705.656	19891
705.775	18816
705.893	25453
706.012	35509
706.130	20807
706.249	19876
706.367	20046
706.485	20079
706.604	20193
706.722	19162
706.840	20151
706.958	21811
707.077	19966
707.195	18176
707.313	18957
707.431	17752
707.549	17604
707.668	17333
707.786	18564
707.904	18166
708.022	17802
708.140	18552
708.258	16713
708.376	18375
708.494	17706
708.612	18097
708.730	22486
708.848	24218
708.966	21424
709.084	19691
709.202	19754
709.320	20041
709.438	19169
709.556	20657
709.674	20643
709.791	20398
709.909	19827
710.027	19459
710.145	20297
710.263	20251
710.380	19511
710.498	19553
710.616	19446
710.733	19277
710.851	18380
710.969	19992
711.086	17585
711.204	17949
711.322	18756
711.439	18205
711.557	17348
711.674	17790
711.792	17583
711.909	19218
712.027	19621
712.144	17648
712.262	17785
712.379	18260
712.497	24017
712.614	24949
712.732	21706
712.849	20443
712.966	19697
713.084	21335
713.201	21778
713.318	21381
713.436	21466
713.553	21087
713.670	21075
713.787	20800
713.905	21851
714.022	20799
714.139	20062
714.256	21097
714.373	22247
714.490	26769
714.608	38168
714.725	116084
714.842	185210
714.959	29626
715.076	21670
715.193	20523
715.310	19645
715.427	17993
715.544	18911
715.661	17680
715.778	17312
715.895	19223
716.011	18954
716.128	17640
716.245	18281
716.362	18625
716.479	18517
716.596	17823
716.713	17511
716.829	17023
716.946	17307
717.063	16820
717.180	17524
717.296	17036
717.413	16922
717.530	16373
717.646	15893
717.763	16242
717.880	16130
717.996	15848
718.113	16157
718.229	15132
718.346	15104
718.462	15559
718.579	15241
718.695	18093
718.812	16895
718.928	16664
719.045	16742
719.161	15239
719.277	14237
719.394	14833
719.510	15289
719.626	14730
719.743	16880
719.859	16944
719.975	21039
720.092	38576
720.208	96982
720.324	29889
720.440	16584
720.557	15056
720.673	16504
720.789	20093
720.905	29845
721.021	20483
721.137	14568
721.253	14596
721.369	15159
721.486	14366
721.602	17276
721.718	14835
721.834	13366
721.950	14092
722.066	13811
722.181	12398
722.297	12766
722.413	13670
722.529	13300
722.645	12981
722.761	12867
722.877	13335
722.993	12195
723.108	13861
723.224	13362
723.340	13080
723.456	12384
723.571	12526
723.687	12328
723.803	13158
723.918	11795
724.034	12799
724.150	12531
724.265	12633
724.381	15319
724.497	20217
724.612	12147
724.728	11897
724.843	11133
724.959	13024
725.074	14761
725.190	18706
725.305	11650
725.421	11546
725.536	11357
725.651	11185
725.767	11078
725.882	11654
725.997	12108
726.113	11237
726.228	11019
726.343	11299
726.459	10194
726.574	10752
726.689	11716
726.804	11313
726.920	11061
727.035	11107
727.150	11363
727.265	11601
727.380	11029
727.495	10780
727.610	10463
727.725	10424
727.841	11397
727.956	15784
728.071	16292
728.186	10706
728.301	9869
728.416	10170
728.531	10526
728.645	9698
728.760	10202
728.875	9686
728.990	9746
729.105	10276
729.220	9508
729.335	9904
729.449	10232
729.564	9912
729.679	9559
729.794	9825
729.908	9205
730.023	10130
730.138	9049
730.253	9092
730.367	9738
730.482	9492
730.596	9533
730.711	10550
730.826	10536
730.940	9889
731.055	9941
731.169	8680
731.284	10135
731.398	9227
731.513	10397
731.627	9481
731.742	10255
731.856	10977
731.970	8841
732.085	10013
732.199	11666
732.313	12194
732.428	18836
732.542	43384
732.656	41105
732.771	13070
732.885	10857
732.999	10938
733.113	11086
733.227	10413
733.342	10777
733.456	9917
733.570	10432
733.684	9633
733.798	9299
733.912	9387
734.026	9304
734.140	9839
734.254	9417
734.368	11977
734.482	14075
734.596	9363
734.710	8660
734.824	8830
734.938	9556
735.052	9543
735.166	9454
735.280	9345
735.393	9132
735.507	9220
735.621	9301
735.735	12503
735.849	10526
735.962	8372
736.076	8696
736.190	9763
736.303	10103
736.417	11626
736.531	8354
736.644	8797
736.758	8617
736.872	8426
736.985	7669
737.099	8805
737.212	8864
737.326	8266
737.439	8648
737.553	8462
737.666	8743
737.780	7830
737.893	8924
738.007	8263
738.120	8195
738.233	8108
738.347	8711
738.460	8088
738.573	8012
738.687	8006
738.800	9006
738.913	8333
739.026	8104
739.140	8559
739.253	9494
739.366	8485
739.479	8181
739.592	8629
739.705	8605
739.818	8522
739.932	7394
740.045	6907
740.158	8180
740.271	8551
740.384	8199
740.497	7455
740.610	7922
740.723	7027
740.836	7883
740.949	8220
741.062	8997
741.174	8350
741.287	7019
741.400	7750
741.513	8267
741.626	7754
741.739	7282
741.851	7614
741.964	7373
742.077	7572
742.189	6957
742.302	7984
742.415	7720
742.527	7217
742.640	7639
742.753	7284
742.865	7489
742.978	7330
743.090	6934
743.203	8257
743.316	7853
743.428	7343
743.541	7945
743.653	7616
743.766	7322
743.878	7472
743.990	7788
744.103	8252
744.215	6945
744.327	6986
744.440	7868
744.552	8397
744.664	7972
744.777	7082
744.889	6737
745.001	8173
745.113	6848
745.226	7381
745.338	7809
745.450	7200
745.562	7485
745.674	6835
745.786	7256
745.898	7358
746.010	6727
746.122	6852
746.234	7254
746.347	6060
746.459	8087
746.570	7463
746.682	6656
746.794	6713
746.906	7083
747.018	7049
747.130	7331
747.242	7297
747.354	7337
747.466	8110
747.577	7265
747.689	7115
747.801	6923
747.913	6861
748.024	6323
748.136	6549
748.248	6749
748.359	6964
748.471	6947
748.583	7413
748.694	6931
748.806	8236
748.918	6820
749.029	7422
749.141	6307
749.252	7029
749.364	7049
749.475	8392
749.587	7703
749.698	6535
749.809	7007
749.921	6464
750.032	7105
750.144	6049
750.255	6540
750.366	7165
750.478	7569
750.589	7165
750.700	6735
750.811	6606
750.923	6729
751.034	7971
751.145	8326
751.256	7034
751.367	6718
751.479	7274
751.590	6104
751.701	7280
751.812	6968
751.923	7348
752.034	6713
752.145	6667
752.256	6360
752.367	6646
752.478	6653
752.589	6785
752.700	6813
752.811	6893
752.922	6143
753.032	6584
753.143	7427
753.254	5728
753.365	6689
753.476	6873
753.586	6481
753.697	6946
753.808	6722
753.919	6883
754.029	6741
754.140	6369
754.251	6735
754.361	6571
754.472	7024
754.582	6744
754.693	6135
754.804	7396
754.914	6423
755.025	6516
755.135	5816
755.246	6461
755.356	6699
755.466	6282
755.577	6551
755.687	6578
755.798	6646
755.908	7325
756.018	7252
756.129	6546
756.239	6476
756.349	7507
756.460	6890
756.570	7880
756.680	7047
756.790	6389
756.900	6860
757.011	6378
757.121	7215
757.231	6313
757.341	7612
757.451	6500
757.561	7097
757.671	6649
757.781	6366
757.891	7077
758.001	7255
758.111	8038
758.221	7745
758.331	6981
758.441	7643
758.551	7877
758.661	8230
758.771	8378
758.880	8433
758.990	7679
759.100	8059
759.210	8462
759.320	8041
759.429	8286
759.539	9317
759.649	8560
759.758	8531
759.868	8396
759.978	8117
760.087	8918
760.197	8653
760.307	8281
760.416	8749
760.526	8961
760.635	8729
760.745	9603
760.854	9620
760.964	10293
761.073	9400
761.182	9462
761.292	9697
761.401	10122
761.511	9420
761.620	10626
761.729	10267
761.839	9686
761.948	11160
762.057	11096
762.166	11030
762.276	10256
762.385	11768
762.494	11866
762.603	11874
762.712	13021
762.822	11920
762.931	13423
763.040	13729
763.149	13259
763.258	14186
763.367	14273
763.476	14958
763.585	16287
763.694	17489
763.803	17519
763.912	18813
764.021	18976
764.130	19666
764.238	21749
764.347	21593
764.456	23284
764.565	25193
764.674	27383
764.783	29185
764.891	31693
765.000	36711
765.109	40500
765.217	45053
765.326	53472
765.435	61267
765.543	72266
765.652	90042
765.761	116069
765.869	150620
765.978	205852
766.086	284311
766.195	401392
766.303	516261
766.412	469778
766.520	378986
766.629	482017
766.737	424862
766.846	312579
766.954	222631
767.062	167883
767.171	127984
767.279	101303
767.387	82585
767.496	67702
767.604	59385
767.712	51974
767.820	46796
767.928	42898
768.037	39561
768.145	37789
768.253	35857
768.361	35981
768.469	33771
768.577	34585
768.685	35736
768.793	37682
768.901	41589
769.009	46849
769.117	54739
769.225	66744
769.333	89319
769.441	128170
769.549	198430
769.657	319525
769.765	466013
769.873	412053
769.981	414561
770.088	361040
770.196	235967
770.304	158066
770.412	112560
770.519	84224
770.627	68278
770.735	55317
770.842	47099
770.950	41125
771.058	34648
771.165	32362
771.273	28571
771.380	27472
771.488	24416
771.595	23428
771.703	20865
771.810	20822
771.918	19735
772.025	18637
772.133	18800
772.240	17120
772.348	16799
772.455	16030
772.562	13693
772.670	14504
772.777	14513
772.884	14042
772.991	13605
773.099	13448
773.206	12134
773.313	12172
773.420	11910
773.528	10856
773.635	10609
773.742	12395
773.849	11719
773.956	11008
774.063	10482
774.170	10603
774.277	10972
774.384	10085
774.491	10331
774.598	10250
774.705	9961
774.812	9051
774.919	9932
775.026	9360
775.133	8526
775.239	8754
775.346	8756
775.453	9446
775.560	9161
775.667	8748
775.773	7407
775.880	8357
775.987	8268
776.093	8324
776.200	7526
776.307	8354
776.413	7620
776.520	7843
776.627	8279
776.733	7836
776.840	7109
776.946	8305
777.053	7315
777.159	7219
777.266	5743
777.372	7820
777.478	7352
777.585	7779
777.691	7115
777.798	7353
777.904	7644
778.010	7063
778.117	7598
778.223	7225
778.329	6117
778.435	6810
778.542	7166
778.648	6987
778.754	5983
778.860	6642
778.966	6790
779.072	5709
779.178	6307
779.284	6315
779.391	6562
779.497	6575
779.603	9409
779.708	11064
779.815	20050
779.920	59549
780.026	149574
780.132	44094
780.238	10328
780.344	7513
780.450	8066
780.556	6856
780.661	5671
780.767	6309
780.873	5808
780.979	6211
781.085	6038
781.190	5127
781.296	4818
781.402	5411
781.507	5594
781.613	5738
781.719	4406
781.824	5599
781.930	5395
782.035	5823
782.141	5922
782.246	4969
782.352	5145
782.457	5373
782.563	4608
782.668	4954
782.773	5743
782.879	5159
782.984	5233
783.090	6070
783.195	5615
783.300	5153
783.405	4890
783.511	5014
783.616	5290
783.721	4792
783.826	4530
783.932	4245
784.037	5100
784.142	4432
784.247	4706
784.352	4138
784.457	4382
784.562	5131
784.667	5213
784.772	4404
784.877	4244
784.982	4536
785.087	4735
785.192	4856
785.297	4184
785.402	4612
785.507	4039
785.611	4613
785.716	3723
785.821	4322
785.926	4614
786.031	4335
786.135	4249
786.240	4666
786.345	3847
786.450	4437
786.554	3810
786.659	4015
786.763	3387
786.868	5146
786.973	5162
787.077	4073
787.182	3804
787.286	3838
787.391	4374
787.495	3445
787.600	4047
787.704	3886
787.809	4330
787.913	3542
788.017	4078
788.122	4214
788.226	4332
788.330	3421
788.435	3744
788.539	4533
788.643	3299
788.747	3605
788.852	4303
788.956	3663
789.060	3601
789.164	3999
789.268	3816
789.372	4203
789.476	2995
789.580	3197
789.684	3454
789.788	3728
789.892	2922
789.996	4481
790.100	2550
790.204	4016
790.308	3455
790.412	4315
790.516	4073
790.620	3348
790.724	4131
790.828	3896
790.931	3291
791.035	4600
791.139	3633
791.242	3861
791.346	4905
791.450	3585
791.554	3130
791.657	3125
791.761	3883
791.864	3862
791.968	3782
792.072	4062
792.175	3310
792.279	3378
792.382	3765
792.486	2535
792.589	3941
792.693	3976
792.796	3160
792.899	4342
793.003	3389
793.106	3078
793.209	2968
793.313	3890
793.416	3092
793.519	3613
793.623	3518
793.726	4045
793.829	4024
793.932	3857
794.035	3087
794.138	4461
794.242	3716
794.345	4878
794.448	7291
794.551	11479
794.654	34654
794.757	95080
794.860	30556
794.963	6406
795.066	4518
795.169	4628
795.272	3332
795.375	3545
795.477	3309
795.580	4004
795.683	2237
795.786	3530
795.889	2201
795.991	3876
796.094	3762
796.197	2428
796.300	3589
796.402	2456
796.505	3130
796.608	2536
796.710	3021
796.813	3332
796.915	2681
797.018	3812
797.120	2854
797.223	2495
797.326	3387
797.428	2627
797.530	2397
797.633	2816
797.735	3052
797.838	3921
797.940	3979
798.042	3254
798.145	2956
798.247	3304
798.349	2225
798.452	3514
798.554	2726
798.656	2077
798.758	3659
798.860	2244
798.962	2244
799.065	3197
799.167	1382
799.269	3860
799.371	2743
799.473	3021
799.575	3532
799.677	3486
799.779	3629
799.881	2718
799.983	2720
800.085	2693
800.187	2160
800.289	1495
800.390	2940
800.492	2508
800.594	3284
800.696	2769
800.798	2557
800.899	1853
801.001	2502
801.103	2213
801.205	2686
801.306	2999
801.408	2595
801.509	2129
801.611	2473
801.713	3488
801.814	1367
801.916	2354
802.017	2057
802.119	2031
802.220	2223
802.322	1271
802.423	3765
802.525	2030
802.626	3142
802.727	2585
802.829	2440
802.930	1152
803.031	3170
803.133	2750
803.234	2144
803.335	2399
803.436	1330
803.538	1924
803.639	1681
803.740	2392
803.841	1659
803.942	1938
804.043	2809
804.144	2652
804.245	2268
804.346	1699
804.447	2218
804.548	1809
804.649	3159
804.750	1402
804.851	1928
804.952	2365
805.053	2289
805.154	1167
805.255	2290
805.355	2597
805.456	2335
805.557	1822
805.658	1681
805.758	3147
805.859	2201
805.960	2769
806.061	1878
806.161	1942
806.262	1884
806.362	1250
806.463	2113
806.564	2475
806.664	1981
806.765	2122
806.865	2087
806.966	1807
807.066	1626
807.166	2045
807.267	2436
807.367	1734
807.468	2710
807.568	1317
807.668	1005
807.769	2265
807.869	1569
807.969	3251
808.069	1732
808.170	1669
808.270	990
808.370	2402
808.470	2584
808.570	2163
808.670	1960
808.770	2440
808.870	1944
808.970	2204
809.070	1435
809.170	1065
809.271	2327
809.370	1345
809.470	1810
809.570	1799
809.670	1488
809.770	1906
809.870	1954
809.970	2540
810.070	2131
810.169	2487
810.269	1088
810.369	1783
810.469	2116
810.568	1991
810.668	1720
810.768	1742
810.867	1355
810.967	981
811.066	1910
811.166	2129
811.265	1364
811.365	2032
811.464	1148
811.564	1643
811.663	1042
811.763	1489
811.862	2660
811.962	2021
812.061	1664
812.160	2405
812.260	1834
812.359	2020
812.458	2663
812.557	3755
812.657	4158
812.756	3294
812.855	2510
812.954	1589
813.053	2275
813.153	1282
813.252	1425
813.351	1777
813.450	1314
813.549	1257
813.648	2152
813.747	1060
813.846	1943
813.945	2266
814.044	1552
814.143	1986
814.242	2138
814.341	1044
814.439	1442
814.538	1845
814.637	2611
814.736	2468
814.835	2287
814.933	1904
815.032	2338
815.131	1806
815.229	2340
815.328	3101
815.427	2965
815.525	2889
815.624	2845
815.722	1885
815.821	2908
815.919	2487
816.018	1927
816.116	3269
816.215	3649
816.313	3214
816.412	3027
816.510	2727
816.609	3987
816.707	3162
816.805	2838
816.904	3035
817.002	3241
817.100	3364
817.198	3251
817.296	3872
817.395	3693
817.493	4310
817.591	4002
817.689	4826
817.787	7015
817.885	8657
817.983	14704
818.081	27353
818.179	63487
818.277	145680
818.375	168119
818.473	62380
818.571	22741
818.669	13885
818.767	11600
818.865	11220
818.963	12328
819.061	16427
819.158	26428
819.256	51247
819.354	107161
819.452	211094
819.549	188646
819.647	77376
819.745	30901
819.842	17782
819.940	12502
820.038	9608
820.135	7707
820.233	6977
820.330	5687
820.428	4269
820.525	4813
820.623	4352
820.720	4134
820.818	3567
820.915	4121
821.012	4118
821.110	2406
821.207	3612
821.304	2387
821.402	3290
821.499	3355
821.596	2711
821.693	2104
821.791	3450
821.888	2758
821.985	3013
822.082	3285
822.179	2458
822.276	2902
822.373	2636
822.470	2224
822.567	3117
822.664	1895
822.761	2500
822.858	2346
822.955	2539
823.052	2230
823.149	1985
823.246	1714
823.343	1676
823.440	2034
823.536	2059
823.633	2358
823.730	2245
823.827	1561
823.923	1790
824.020	2678
824.117	1472
824.213	1146
824.310	2861
824.407	2302
824.503	2244
824.600	1949
824.696	1988
824.793	2012
824.889	1183
824.986	1976
825.082	1921
825.179	2749
825.275	2118
825.371	1474
825.468	3187
825.564	816
825.660	2284
825.757	1595
825.853	2552
825.949	1515
826.045	1645
826.142	2168
826.238	1742
826.334	1541
826.430	1570
826.526	2421
826.622	1551
826.718	1397
826.814	2109
826.910	2141
827.006	1685
827.102	1007
827.198	2172
827.294	1307
827.390	1955
827.486	2340
827.582	743
827.678	239
827.774	2451
827.869	769
827.965	2617
828.061	1840
828.157	1591
828.252	1873
828.348	1640
828.444	2223
828.539	1597
828.635	1022
828.731	2949
828.826	1210
828.922	2165
829.017	1125
829.113	2673
829.208	1371
829.304	1054
829.399	1957
829.495	1187
829.590	1973
829.685	1531
829.781	1803
829.876	1948
829.971	1243
830.066	1729
830.162	1290
830.257	2111
830.352	387
830.447	2239
830.543	1427
830.638	1199
830.733	1707
830.828	1789
830.923	1884
831.018	1524
831.113	1561
831.208	1222
831.303	1971
831.398	2014
831.493	1007
831.588	1613
831.683	1134
831.778	1461
831.873	1475
831.967	2048
832.062	1763
832.157	847
832.252	2253
832.346	1011
832.441	2277
832.536	1646
832.631	3833
832.725	3067
832.820	2115
832.914	1851
833.009	1488
833.104	1528
833.198	1017
833.293	1649
833.387	1602
833.482	1700
833.576	884
833.670	1725
833.765	1423
833.859	1037
833.954	2639
834.048	1763
834.142	1209
834.237	807
834.331	1286
834.425	2245
834.519	1585
834.613	1814
834.708	1431
834.802	1553
834.896	1464
834.990	2351
835.084	2096
835.178	1714
835.272	1303
835.366	1066
835.460	2371
835.554	1958
835.648	1002
835.742	1380
835.836	1550
835.930	422
836.024	1885
836.117	2015
836.211	2057
836.305	2233
836.399	2270
836.493	695
836.586	1573
836.680	1153
836.774	891
836.867	1881
836.961	433
837.055	1369
837.148	1810
837.242	1907
837.335	985
837.429	1665
837.522	1378
837.616	1470
837.709	2597
837.803	2180
837.896	1761
837.989	1793
838.083	2482
838.176	2202
838.269	2328
838.363	2813
838.456	1686
838.549	1799
838.642	2627
838.735	2674
838.829	2303
838.922	1731
839.015	1961
839.108	1089
839.201	934
839.294	1575
839.387	1837
839.480	1864
839.573	1480
839.666	1818
839.759	2045
839.852	1547
839.945	1926
840.038	1853
840.131	1351
840.223	1672
840.316	644
840.409	1018
840.502	1793
840.594	1836
840.687	1649
840.780	1025
840.873	759
840.965	1707
841.058	2296
841.150	2185
841.243	1880
841.336	1309
841.428	1735
841.521	685
841.613	636
841.706	1326
841.798	1404
841.890	752
841.983	1139
842.075	2153
842.167	1467
842.260	1661
842.352	1676
842.444	1624
842.537	2984
842.629	4573
842.721	2616
842.813	1165
842.905	1362
842.997	1277
843.090	1458
843.182	1949
843.274	2626
843.366	5108
843.458	8241
843.550	7702
843.642	2376
843.734	1638
843.826	882
843.918	1281
844.009	1162
844.101	1196
844.193	1070
844.285	1033
844.377	1430
844.469	1976
844.560	732
844.652	1466
844.744	1787
844.835	1060
844.927	1368
845.019	1740
845.110	1296
845.202	1698
845.293	1614
845.385	1239
845.476	1859
845.568	1873
845.659	1807
845.751	1856
845.842	1917
845.934	1464
846.025	1317
846.116	1887
846.208	1708
846.299	1212
846.390	1657
846.482	1885
846.573	2034
846.664	2257
846.755	1452
846.846	2259
846.937	717
847.029	1488
847.120	693
847.211	1561
847.302	1335
847.393	234
847.484	1594
847.575	1148
847.666	1239
847.757	1288
847.847	555
847.938	2630
848.029	1580
848.120	777
848.211	1637
848.302	1082
848.392	1139
848.483	2628
848.574	627
848.664	833
848.755	1102
848.846	1524
848.936	227
849.027	1667
849.118	1243
849.208	937
849.299	1186
849.389	1244
849.480	2080
849.570	2536
849.661	4436
849.751	6605
849.841	4132
849.932	2136
850.022	1091
850.112	1551
850.203	966
850.293	1767
850.383	1783
850.474	894
850.564	1296
850.654	1069
850.744	611
850.834	1386
850.924	685
851.014	1620
851.104	1366
851.194	1253
851.284	1928
851.374	2690
851.464	1542
851.554	1535
851.644	2813
851.734	2390
851.824	2535
851.914	3613
852.004	7277
852.094	9040
852.183	3111
852.273	1709
852.363	1175
852.452	1447
852.542	1392
852.632	1635
852.721	1238
852.811	933
852.901	1163
852.990	1148
853.080	1873
853.169	1609
853.259	2057
853.348	957
853.438	788
853.527	2218
853.617	1974
853.706	3091
853.795	3235
853.885	7295
853.974	11424
854.063	19792
854.152	32681
854.242	18449
854.331	4494
854.420	1055
854.509	1748
854.598	2061
854.687	1310
854.777	954
854.866	1595
854.955	1523
855.044	1763
855.133	1153
855.222	606
855.311	943
855.400	1386
855.488	1750
855.577	320
855.666	1584
855.755	1878
855.844	2364
855.933	1288
856.021	1916
856.110	1441
856.199	336
856.288	1147
856.376	1263
856.465	858
856.554	878
856.642	1408
856.731	1819
856.819	1047
856.908	1144
856.996	1314
857.085	1209
857.173	846
857.262	1657
857.350	2250
857.438	1327
857.527	1164
857.615	1275
857.703	551
857.792	551
857.880	749
857.968	841
858.056	762
858.145	527
858.233	1318
858.321	1357
858.409	1783
858.497	-104
858.585	528
858.673	2054
858.761	394
858.849	389
858.937	1614
859.025	1847
859.113	1249
859.201	1176
859.289	1664
859.377	1874
859.465	1516
859.552	1854
859.640	569
859.728	2010
859.816	857
859.903	1319
859.991	760
860.079	747
860.166	1782
860.254	1398
860.342	711
860.429	1075
860.517	340
860.604	1350
860.692	1133
860.779	1616
860.867	1443
860.954	1728
861.042	887
861.129	1613
861.216	1034
861.304	222
861.391	625
861.478	941
861.565	782
861.653	2511
861.740	456
861.827	975
861.914	1365
862.001	1225
862.089	836
862.176	613
862.263	959
862.350	1798
862.437	737
862.524	316
862.611	595
862.698	1697
862.785	1268
862.871	1164
862.958	746
863.045	1055
863.132	1023
863.219	1238
863.306	-137
863.392	1298
863.479	1825
863.566	737
863.652	1098
863.739	900
863.826	1249
863.912	1470
863.999	864
864.086	777
864.172	203
864.259	1293
864.345	1259
864.432	1932
864.518	2102
864.604	797
864.691	951
864.777	1176
864.863	1198
864.950	1970
865.036	920
865.122	1305
865.209	2505
865.295	1296
865.381	1340
865.467	2215
865.553	1725
865.639	1940
865.726	2363
865.812	3843
865.898	6243
865.984	8841
866.070	14442
866.156	20562
866.242	7335
866.328	1962
866.414	1444
866.499	2095
866.585	1888
866.671	1353
866.757	2276
866.843	1974
866.928	1553
867.014	1216
867.100	2472
867.186	1575
867.271	1088
867.357	1633
867.442	2392
867.528	2247
867.614	1667
867.699	1213
867.785	1406
867.870	2125
867.956	1476
868.041	2338
868.127	1447
868.212	1535
868.297	2593
868.383	1491
868.468	2633
868.553	1910
868.639	2652
868.724	2839
868.809	4143
868.894	2395
868.979	1113
869.065	819
869.150	891
869.235	1192
869.320	1130
869.405	1186
869.490	1317
869.575	1378
869.660	1162
869.745	1693
869.830	1748
869.915	1481
870.000	681
870.085	1594
870.169	1208
870.254	2159
870.339	1195
870.424	974
870.509	1192
870.593	1371
870.678	1656
870.763	2096
870.847	1513
870.932	623
871.016	1059
871.101	1142
871.186	844
871.270	1302
871.355	612
871.439	1099
871.523	921
871.608	881
871.692	331
871.777	1386
871.861	1979
871.945	669
872.030	968
872.114	251
872.198	694
872.282	1159
872.367	922
872.451	773
872.535	1451
872.619	1247
872.703	861
872.787	1098
872.871	1088
872.955	1308
873.039	622
873.123	1126
873.207	2263
873.291	1204
873.375	1312
873.459	1022
873.543	615
873.627	1346
873.711	1369
873.794	1517
873.878	911
873.962	1107
874.045	1108
874.129	1148
874.137	1148
874.213	1153
874.245	1195
874.296	1263
874.352	1238
874.380	1230
874.460	883
874.464	868
874.547	464
874.568	596
874.631	997
874.676	912
874.714	844
874.784	1729
874.798	1907
874.881	1651
874.892	1582
874.965	1079
874.999	1080
875.048	1076
875.107	271
875.131	-43
875.215	1202
875.215	1201
875.298	721
875.323	622
875.381	366
875.430	1181
875.465	1775
875.538	1122
875.548	1024
875.631	708
875.646	746
875.714	976
875.753	961
875.798	939
875.861	784
875.881	743
875.964	966
875.968	981
876.047	1259
876.076	1211
876.130	1028
876.183	566
876.213	368
876.291	670
876.296	687
876.379	1242
876.398	1217
876.462	1083
876.506	948
876.545	867
876.613	1368
876.628	1457
876.711	808
876.721	839
876.794	1230
876.828	1005
876.877	592
876.935	601
876.960	672
877.043	1071
877.043	1071
877.125	922
877.150	837
877.208	607
877.258	1148
877.291	1491
877.365	816
877.374	737
877.456	600
877.472	592
877.539	661
877.579	1034
877.622	1318
877.687	1150
877.704	1168
877.787	989
877.794	979
877.869	728
877.901	677
877.952	599
878.008	710
878.034	731
878.115	580
878.117	576
878.199	180
878.222	314
878.282	854
878.329	1139
878.364	1306
878.437	717
878.447	640
878.529	510
878.544	623
878.611	1068
878.651	861
878.694	624
878.758	894
878.776	997
878.858	805
878.865	806
878.941	669
878.972	443
879.023	153
879.078	629
879.105	834
879.185	858
879.187	861
879.269	1006
879.292	1131
879.351	1298
879.399	703
879.433	338
879.506	788
879.516	833
879.598	562
879.613	557
879.680	483
879.720	604
879.762	891
879.827	616
879.844	469
879.926	684
879.933	634
880.007	390
880.040	413
880.089	352
880.147	616
880.171	743
880.253	909
880.254	910
880.335	1087
880.360	1215
880.417	1369
880.467	1542
880.499	1935
880.574	3019
880.580	3026
880.662	1972
880.680	1785
880.744	1061
880.787	615
880.825	385
880.893	840
880.907	909
880.989	202
881.000	179
881.070	473
881.106	638
881.152	645
881.213	680
881.233	757
881.315	620
881.319	640
881.396	986
881.426	1103
881.478	950
881.532	331
881.559	289
881.639	964
881.641	968
881.722	881
881.745	804
881.803	697
881.852	645
881.885	627
881.958	974
881.966	1039
882.047	996
882.064	1149
882.129	1390
882.171	1049
882.210	1031
882.277	1653
882.291	1680
882.372	1459
882.383	1403
882.454	1034
882.489	931
882.535	686
882.596	293
882.616	292
882.697	466
882.702	475
882.778	758
882.808	936
882.859	797
882.914	479
882.940	502
883.020	618
883.021	618
883.102	582
883.127	565
883.183	643
883.233	774
883.264	825
883.339	606
883.345	593
883.426	612
883.445	622
883.507	832
883.551	1099
883.587	1053
883.657	902
883.668	923
883.749	1035
883.763	1065
883.830	1059
883.869	641
883.910	272
883.975	646
883.991	821
884.072	1161
884.081	1213
884.152	621
884.187	294
884.233	522
884.292	814
884.314	738
884.394	140
884.398	135
884.475	673
884.504	887
884.555	888
884.610	627
884.636	577
884.716	417
884.716	421
884.797	1074
884.821	1153
884.877	780
884.927	553
884.958	508
885.033	200
885.038	193
885.118	511
885.139	491
885.199	224
885.244	226
885.279	593
885.350	800
885.359	762
885.439	1020
885.456	1032
885.520	1226
885.561	1300
885.600	932
885.667	335
885.680	403
885.760	836
885.773	890
885.840	820
885.878	804
885.920	634
885.984	271
886.000	219
886.080	198
886.089	202
886.160	822
886.195	1063
886.240	817
886.300	346
886.320	256
886.400	177
886.406	169
886.480	663
886.511	873
886.560	873
886.616	747
886.640	689
886.720	683
886.722	682
886.800	762
886.827	753
886.879	910
886.932	1110
886.959	1146
887.038	1244
887.039	1236
887.119	327
887.143	157
887.198	872
887.248	1364
887.278	1076
887.354	270
887.358	279
887.437	622
887.459	720
887.517	676
887.564	576
887.596	735
887.669	1107
887.676	1093
887.755	937
887.774	866
887.835	888
887.880	1040
887.914	1057
887.985	894
887.994	847
888.073	522
888.090	440
888.153	479
888.195	547
888.232	570
888.300	604
888.311	648
888.391	913
888.405	964
888.470	732
888.510	590
888.549	603
888.615	658
888.628	690
888.708	848
888.720	877
888.787	643
888.825	489
888.866	378
888.930	263
888.945	391
889.024	1056
889.035	1147
889.103	1158
889.140	1145
889.182	1144
889.245	1178
889.261	1204
889.340	1305
889.349	1317
889.419	924
889.454	731
889.498	861
889.559	1041
889.577	1000
889.656	829
889.664	817
889.735	1117
889.768	1258
889.814	1246
889.873	1229
889.978	766
890.083	1129
890.187	685
890.292	426
890.397	1333
890.501	599
890.606	715
890.710	998
890.815	904
890.919	990
891.024	1315
891.128	553
891.233	1473
891.337	604
891.442	1111
891.546	883
891.650	638
891.755	412
891.859	734
891.963	1048
892.068	466
892.172	1413
892.276	269
892.380	549
892.484	793
892.589	217
892.693	281
892.797	653
892.901	1170
893.005	244
893.109	564
893.213	744
893.317	522
893.421	330
893.525	1196
893.629	-178
893.733	663
893.837	1329
893.941	379
894.045	832
894.148	504
894.252	2377
894.356	2841
894.460	1610
894.564	1000
894.667	822
894.771	405
894.875	773
894.978	819
895.082	581
895.186	936
895.289	938
895.393	366
895.496	-11
895.600	-487
895.703	297
895.807	539
895.910	697
896.014	806
896.117	96
896.221	658
896.324	470
896.427	618
896.531	-163
896.634	174
896.737	501
896.840	682
896.944	412
897.047	472
897.150	938
897.253	420
897.356	1037
897.460	296
897.563	306
897.666	98
897.769	808
897.872	308
897.975	300
898.078	-135
898.181	99
898.284	524
898.387	556
898.490	648
898.593	575
898.695	7
898.798	492
898.901	1317
899.004	426
899.107	240
899.209	281
899.312	364
899.415	723
899.518	901
899.620	-22
899.723	765
899.826	721
899.928	1238
900.031	-85
900.133	1009
900.236	-627
900.338	6
900.441	286
900.543	-149
900.646	260
900.748	-240
900.851	632
900.953	710
901.055	143
901.158	-207
901.260	-90
901.362	73
901.465	741
901.567	467
901.669	1036
901.771	101
901.873	267
901.976	217
902.078	43
902.180	319
902.282	701
902.384	-85
902.486	462
902.588	492
902.690	958
902.792	245
902.894	161
902.996	971
903.098	-212
903.200	37
903.302	1054
903.404	376
903.505	-153
903.607	451
903.709	955
903.811	-62
903.913	34
904.014	499
904.116	-469
904.218	30
904.319	801
904.421	1267
904.523	295
904.624	131
904.726	548
904.827	510
904.929	634
905.030	1330
905.132	30
905.233	-6
905.335	464
905.436	649
905.537	272
905.639	263
905.740	-49
905.841	518
905.943	352
906.044	172
906.145	-278
906.247	365
906.348	330
906.449	-329
906.550	489
906.651	291
906.752	652
906.854	-85
906.955	-278
907.056	-162
907.157	0
907.258	307
907.359	-395
907.460	323
907.561	713
907.662	500
907.762	-305
907.863	588
907.964	1
908.065	343
908.166	-354
908.267	-490
908.367	273
908.468	152
908.569	659
908.670	436
908.770	1187
908.871	698
908.971	718
909.072	1567
909.173	486
909.273	287
909.374	360
909.474	264
909.575	-142
909.675	-60
909.776	299
909.876	152
909.977	321
910.077	-468
910.177	304
910.278	135
910.378	69
910.478	444
910.579	453
910.679	207
910.779	262
910.879	780
910.980	62
911.080	-652
911.180	161
911.280	-157
911.380	-215
911.480	98
911.580	70
911.680	493
911.780	-36
911.880	851
911.980	484
912.080	109
912.180	186
912.280	566
912.380	-101
912.480	537
912.580	204
912.679	33
912.779	929
912.879	213
912.979	401
913.078	-840
913.178	-116
913.278	-281
913.377	396
913.477	612
913.577	290
913.676	1236
913.776	1162
913.875	-125
913.975	91
914.074	262
914.174	94
914.273	-190
914.373	674
914.472	273
914.572	117
914.671	904
914.770	17
914.870	-497
914.969	-539
915.068	-430
915.167	733
915.267	562
915.366	-880
915.465	-95
915.564	675
915.663	-239
915.763	-400
915.862	1041
915.961	-481
916.060	166
916.159	-348
916.258	-315
916.357	454
916.456	296
916.555	511
916.654	366
916.752	346
916.851	239
916.950	847
917.049	687
917.148	480
917.247	378
917.345	201
917.444	302
917.543	79
917.642	367
917.740	272
917.839	330
917.937	684
918.036	179
918.135	427
918.233	215
918.332	-102
918.430	277
918.529	-169
918.627	41
918.726	1057
918.824	547
918.923	415
919.021	869
919.119	-290
919.218	-10
919.316	506
919.414	506
919.512	519
919.611	547
919.709	796
919.807	-441
919.905	-285
920.003	932
920.102	612
920.200	624
920.298	4
920.396	672
920.494	934
920.592	175
920.690	923
920.788	-144
920.886	-3
920.984	767
921.082	157
921.180	975
921.277	194
921.375	388
921.473	406
921.571	1331
921.669	2
921.766	328
921.864	775
921.962	1199
922.060	501
922.157	245
922.255	1136
922.352	356
922.450	923
922.548	205
922.645	865
922.743	-84
922.840	1424
922.938	1365
923.035	1527
923.133	1295
923.230	2026
923.327	1779
923.425	1208
923.522	1070
923.619	1912
923.717	922
923.814	1597
923.911	765
924.008	977
924.106	908
924.203	1342
924.300	1273
924.397	850
924.494	996
924.591	1231
924.688	1696
924.786	1918
924.883	1882
924.979	1768
925.077	1511
925.173	1514
925.270	384
925.367	1024
925.464	1605
925.561	1112
925.658	1449
925.755	1366
925.852	1063
925.948	1742
926.045	2262
926.142	1384
926.239	1736
926.335	672
926.432	1525
926.529	1051
926.625	1123
926.722	1589
926.818	897
926.915	1121
927.011	204
927.108	1625
927.204	1922
927.301	925
927.397	973
927.494	1314
927.590	928
927.687	597
927.783	1206
927.879	540
927.976	986
928.072	966
928.168	859
928.264	894
928.361	905
928.457	1275
928.553	716
928.649	924
928.745	366
928.841	1047
928.937	1111
929.033	619
929.129	994
929.225	755
929.321	1002
929.417	438
929.513	1163
929.609	1447
929.705	938
929.801	65
929.897	885
929.993	1653
930.089	490
930.184	617
930.280	900
930.376	835
930.471	624
930.567	1171
930.663	651
930.758	858
930.854	620
930.950	1140
931.045	984
931.141	1124
931.236	1050
931.332	777
931.427	426
931.523	983
931.618	519
931.714	490
931.809	669
931.905	749
932.000	241
932.095	202
932.191	1002
932.286	1723
932.381	814
932.476	538
932.572	318
932.667	348
932.762	395
932.857	467
932.952	908
933.047	-654
933.142	377
933.237	371
933.332	1095
933.427	606
933.522	1275
933.617	450
933.712	1131
933.807	435
933.902	567
933.997	1451
934.092	512
934.187	512
934.282	964
934.376	-201
934.471	795
934.566	429
934.661	1418
934.755	481
934.850	706
934.945	368
935.039	403
935.134	602
935.228	-317
935.323	756
935.417	884
935.512	736
935.606	239
935.701	-158
935.795	138
935.890	-65
935.984	1472
936.079	31
936.173	544
936.267	714
936.362	226
936.456	704
936.550	492
936.644	956
936.738	216
936.833	487
936.927	718
937.021	481
937.115	325
937.209	13
937.303	424
937.397	-1368
937.491	117
937.585	636
937.679	898
937.773	-5
937.867	481
937.961	-63
938.055	-349
938.149	1068
938.243	-362
938.337	211
938.430	400
938.524	1019
938.618	525
938.712	-85
938.805	63
938.899	178
938.993	869
939.086	-612
939.180	-435
939.274	634
939.367	158
939.461	430
939.554	285
939.648	105
939.741	-709
939.835	-201
939.928	414
940.022	176
940.115	231
940.208	44
940.302	456
940.395	261
940.488	-137
940.582	-92
940.675	341
940.768	-460
940.861	3
940.954	-100
941.048	213
941.141	168
941.234	-14
941.327	574
941.420	519
941.513	-318
941.606	-214
941.699	464
941.792	-464
941.885	-275
941.978	32
942.071	570
942.164	-465
942.257	-377
942.349	405
942.442	-39
942.535	-126
942.628	-51
942.721	-263
942.813	-690
942.906	-454
942.999	82
943.091	-260
943.184	-952
943.277	-727
943.369	34
943.462	-696
943.554	-443
943.647	-43
943.739	32
943.832	375
943.924	-948
944.017	635
944.109	-1105
944.201	101
944.294	-788
944.386	582
944.478	137
944.571	-58
944.663	3
944.755	-1051
944.847	219
944.940	196
945.032	50
945.124	-647
945.216	343
945.308	-80
945.400	-827
945.492	-847
945.584	-651
945.676	-622
945.768	-391
945.860	73
945.952	-284
946.044	468
946.136	145
946.228	-396
946.320	128
946.412	60
946.503	-971
946.595	841
946.687	-930
946.779	-667
946.870	-564
946.962	136
947.054	-516
947.145	-247
947.237	-560
947.329	-133
947.420	115
947.512	-601
947.603	-480
947.695	-1154
947.786	-145
947.878	-525
947.969	-59
948.061	-1200
948.152	-457
948.243	331
948.335	-569
948.426	-822
948.517	-674
948.609	-244
948.700	-809
948.791	97
948.882	-430
948.973	-403
949.065	-274
949.156	-410
949.247	-13
949.338	-152
949.429	-757
949.520	-878
949.611	-556
949.702	134
949.793	-425
949.884	-150
949.975	-650
950.066	-918
950.157	-771
950.247	-787
950.338	-520
950.429	-766
950.520	-432
950.611	-528
950.701	-514
950.792	-544
950.883	345
950.973	559
951.064	-286
951.155	-269
951.245	-77
951.336	-291
951.427	-724
951.517	-78
951.608	-155
951.698	-536
951.788	368
951.879	-581
951.969	-311
952.060	-460
952.150	-466
952.240	-16
952.331	-1177
952.421	954
952.511	-482
952.602	-89
952.692	-1201
952.782	-295
952.872	132
952.962	-30
953.052	-1105
953.143	-205
953.233	259
953.323	-346
953.413	-118
953.503	-480
953.593	-767
953.683	5
953.773	-1255
953.863	-29
953.953	-840
954.042	61
954.132	-46
954.222	-458
954.312	180
954.402	-381
954.492	403
954.581	1085
954.671	1170
954.761	-334
954.850	-328
954.940	74
955.030	-115
955.119	-832
955.209	-186
955.298	-616
955.388	290
955.477	-70
955.567	-276
955.656	10
955.746	-666
955.835	-99
955.925	-304
956.014	-529
956.103	-160
956.193	-467
956.282	-118
956.371	-106
956.461	-592
956.550	-244
956.639	-338
956.728	-1264
956.817	-358
956.906	317
956.995	-180
957.085	-317
957.174	-503
957.263	-392
957.352	-709
957.441	569
957.530	493
957.619	547
957.708	-819
957.796	104
957.885	-899
957.974	-196
958.063	1268
958.152	-1424
958.241	192
958.329	-411
958.418	-168
958.507	-391
958.596	699
958.684	-151
958.773	657
958.861	68
958.950	695
959.039	34
959.127	505
959.216	603
959.304	-377
959.393	-23
959.481	-174
959.570	-103
959.658	-407
959.746	314
959.835	465
959.923	1578
960.011	451
960.100	154
960.188	-385
960.276	-114
960.365	329
960.453	-420
960.541	-531
960.629	-12
960.717	65
960.805	-852
960.893	-193
960.981	-600
961.069	114
961.158	37
961.245	264
961.333	403
961.421	240
961.509	-149
961.597	235
961.685	267
961.773	-171
961.861	-508
961.949	-528
962.036	-286
962.124	518
962.212	-66
962.299	-566
962.387	-564
962.475	92
962.562	-552
962.650	-154
962.738	-946
962.825	-16
962.913	-4
963.000	129
963.088	-119
963.175	-341
963.263	254
963.350	-74
963.438	-354
963.525	325
963.612	1252
963.700	2899
963.787	8992
963.874	6932
963.962	484
964.049	223
964.136	-117
964.223	-31
964.310	301
964.398	-99
964.485	-109
964.572	-181
964.659	1303
964.746	1369
964.833	-105
964.920	-1114
965.007	236
965.094	-734
965.181	-390
965.268	-48
965.355	-606
965.441	-534
965.528	-715
965.615	-114
965.702	-634
965.789	-9
965.875	-576
965.962	-544
966.049	-920
966.136	-140
966.222	-991
966.309	-35
966.395	-749
966.482	-373
966.569	11
966.655	143
966.742	-573
966.828	-156
966.915	-288
967.001	206
967.087	331
967.174	371
967.260	565
967.347	987
967.433	1948
967.519	5539
967.605	3773
967.692	-315
967.778	-781
967.864	-15
967.950	-524
968.036	-561
968.123	-196
968.209	-318
968.295	-780
968.381	325
968.467	-309
968.553	-61
968.639	777
968.725	-650
968.811	52
968.897	1720
968.983	-104
969.069	-84
969.154	294
969.240	35
969.326	-882
969.412	-717
969.497	-699
969.583	738
969.669	339
969.755	-247
969.840	-664
969.926	333
970.012	-434
970.097	15
970.183	-912
970.268	-228
970.354	328
970.439	248
970.525	4407
970.610	1390
970.696	512
970.781	-900
970.866	-1013
970.952	-485
971.037	-589
971.122	-704
971.208	-1027
971.293	-272
971.378	-741
971.463	-715
971.549	-223
971.634	207
971.719	-377
971.804	-629
971.889	-230
971.974	-76
972.059	-940
972.144	-487
972.229	-458
972.314	-739
972.399	-320
972.484	-523
972.569	-101
972.654	-550
972.739	1034
972.824	2088
972.908	132
972.993	-1576
973.078	-589
973.163	-258
973.247	-512
973.332	-1567
973.417	224
973.501	-721
973.586	-707
973.671	-547
973.755	-970
973.840	-676
973.924	-328
974.009	-294
974.093	-339
974.178	116
974.262	616
974.346	1690
974.431	819
974.515	-795
974.600	-24
974.684	-472
974.768	-545
974.852	-47
974.937	-1464
975.021	-243
975.105	-1165
975.189	-757
975.273	-253
975.358	-1436
975.442	-1035
975.526	-158
975.610	-1514
975.694	-912
975.778	-108
975.862	-1109
975.946	-1354
976.030	-685
976.114	-817
976.198	-344
976.281	-446
976.365	-1354
976.449	-951
976.533	-840
976.617	-1159
976.700	-704
976.784	-1067
976.868	-1109
976.951	485
977.035	-294
977.119	-887
977.202	-612
977.286	-1021
977.369	-74
977.453	443
977.536	-1364
977.620	-853
977.703	-642
977.787	-1101
977.870	-458
977.953	-405
978.037	-585
978.120	-384
978.203	-884
978.287	1388
978.370	885
978.453	-740
978.536	-752
978.620	184
978.703	177
978.786	-86
978.869	-1122
978.952	-1855
979.035	-124
979.118	-1232
979.201	-1288
979.284	-438
979.367	-902
979.450	-802
979.533	-1026
979.616	-822
979.699	-700
979.782	-976
979.865	-881
979.948	-501
980.030	-1360
980.113	-284
980.196	-784
980.279	-475
980.361	-1501
980.444	-470
980.526	-426
980.609	-475
980.692	-761
980.774	-187
980.857	-1703
980.939	-125
981.022	-1674
981.104	-979
981.187	-1007
981.269	-207
981.352	-787
981.434	-1579
981.516	-761
981.599	-1121
981.681	-1400
981.763	-542
981.846	-1041
981.928	-1074
982.010	-320
982.092	-834
982.174	-268
982.256	-719
982.339	-1272
982.421	-437
982.503	-884
982.585	-702
982.667	-817
982.749	-551
982.831	-1666
982.913	-1199
982.995	-563
983.077	-1298
983.158	-1023
983.240	-877
983.322	-725
983.404	-303
983.486	-1224
983.568	-854
983.649	-1131
983.731	-743
983.813	-1955
983.894	-1284
983.976	-1607
984.058	-874
984.139	-45
984.221	-922
984.302	-1250
984.384	-111
984.465	-2199
984.547	-472
984.628	-1343
984.710	-1653
984.791	-823
984.872	-283
984.954	-1317
985.035	-1025
985.116	-1222
985.198	-709
985.279	-4
985.360	-1274
985.441	-1017
985.522	-118
985.604	-1954
985.685	-2072
985.766	-187
985.847	-84
985.928	-710
986.009	-900
986.090	-1503
986.171	-683
986.252	-1526
986.333	-399
986.414	-1355
986.495	-523
986.576	-1050
986.656	-1359
986.737	-499
986.818	-285
986.899	-1018
986.980	-1671
987.060	250
987.141	-685
987.222	-1103
987.302	-753
987.383	-377
987.464	-696
987.544	-436
987.625	-659
987.705	-1049
987.786	-1354
987.866	-714
987.947	-982
988.027	-437
988.108	-2069
988.188	-663
988.268	-1078
988.349	-1044
988.429	-1073
988.509	-347
988.589	-492
988.670	-1376
988.750	115
988.830	-566
988.910	-1166
988.990	-911
989.070	-1004
989.151	-1031
989.231	-586
989.311	564
989.391	-1519
989.471	-646
989.551	-373
989.631	-1326
989.711	302
989.791	-510
989.870	-640
989.950	-572
990.030	-162
990.110	-886
990.190	-1535
990.269	-804
990.349	-793
990.429	-956
990.509	-551
990.588	-1397
990.668	-677
990.747	-91
990.827	-1595
990.907	-630
990.986	-596
991.066	-843
991.145	-541
991.225	-351
991.304	-1212
991.383	-484
991.463	-523
991.542	-566
991.622	-707
991.701	-1405
991.780	-343
991.859	-1001
991.939	-902
992.018	-977
992.097	-784
992.176	-90
992.256	-202
992.335	-1587
992.414	-570
992.493	-1209
992.572	-865
992.651	-242
992.730	-610
992.809	-363
992.888	-1208
992.967	-598
993.046	-570
993.125	-1020
993.203	-2297
993.282	-983
993.361	-1498
993.440	-1141
993.519	-1260
993.597	-839
993.676	-1570
993.755	85
993.834	164
993.912	-761
993.991	-186
994.069	-716
994.148	-1455
994.226	-316
994.305	-273
994.384	-1737
994.462	-578
994.540	-1305
994.619	-1067
994.697	-807
994.776	-770
994.854	171
994.932	-1740
995.011	-758
995.089	-683
995.167	-1497
995.245	-724
995.324	-1248
995.402	612
995.480	-446
995.558	-248
995.636	-1130
995.714	-372
995.792	-279
995.870	-1305
995.948	-947
996.026	-416
996.104	-1857
996.182	-621
996.260	-1443
996.338	-569
996.416	-1736
996.494	-1372
996.572	-303
996.649	-1302
996.727	-1471
996.805	-265
996.883	-638
996.960	-859
997.038	-184
997.116	-294
997.193	-1021
997.271	-737
997.348	-1359
997.426	-1239
997.504	-1322
997.581	-856
997.658	-208
997.736	-774
997.813	-1869
997.891	185
997.968	-1734
998.046	-347
998.123	-1476
998.200	-844
998.277	-1443
998.355	-115
998.432	-1652
998.509	-869
998.586	-759
998.663	-621
998.741	-1602
998.818	-1569
998.895	-1249
998.972	-686
999.049	-836
999.126	-1435
999.203	-1236
999.280	-1162
999.357	-1184
999.434	-589
999.511	-702
999.587	-626
999.664	-679
999.741	-503
999.818	132
999.895	-1289
999.971	-615
1000.048	-1750
1000.125	-975
1000.202	-1403
1000.278	-781
1000.355	-654
1000.431	-1872
1000.508	-1355
1000.584	-1395
1000.661	-647
1000.738	-1698
1000.814	-1361
1000.890	-675
1000.967	-947
1001.043	-806
1001.120	-1348
1001.196	-1333
1001.272	-1637
1001.349	-1499
1001.425	-628
1001.501	-1027
1001.577	-1505
1001.654	-167
1001.730	-1095
1001.806	-943
1001.882	-2461
1001.958	-1214
1002.034	-894
1002.110	-748
1002.186	-1575
1002.262	-1284
1002.338	-2066
1002.414	-1442
1002.490	-183
1002.566	-1191
1002.642	-1388
1002.718	-180
1002.794	-280
1002.870	-771
1002.945	-1504
1003.021	-2064
1003.097	-2022
1003.173	-1125
1003.248	-1701
1003.324	-964
1003.400	-383
1003.475	-1337
1003.551	-1103
1003.626	-1058
1003.702	-1036
1003.777	-1102
1003.853	-1244
1003.928	-2277
1004.004	-1835
1004.079	-1320
1004.155	-1140
1004.230	-2420
1004.305	-45
1004.381	-1618
1004.456	-1174
1004.531	-958
1004.607	-1545
1004.682	-1901
1004.757	-1078
1004.832	-636
1004.907	-1746
1004.982	-1005
1005.057	-55
1005.133	-1961
1005.208	-1258
1005.283	-1334
1005.358	-1168
1005.433	-2138
1005.508	-1361
1005.583	-1940
1005.657	-1124
1005.732	-971
1005.807	-2032
1005.882	-1368
1005.957	-1184
1006.032	-91
1006.106	-525
1006.181	-1716
1006.256	-2140
1006.331	-1120
1006.405	-2059
1006.480	-978
1006.554	-1318
1006.629	-1284
1006.704	-2640
1006.778	-1660
1006.853	-1298
1006.927	-1608
1007.002	-2036
1007.076	-1775
1007.150	-772
1007.225	-651
1007.299	-2253
1007.373	-1475
1007.448	-1665
1007.522	-693
1007.596	-1660
1007.671	-2468
1007.745	-1740
1007.819	-2187
1007.893	-1626
1007.967	-802
1008.041	-1724
1008.115	-1421
1008.190	-1787
1008.264	-1592
1008.338	-2591
1008.412	-2477
1008.486	-1495
1008.560	-1233
1008.633	-2251
1008.707	-2392
1008.781	-2061
1008.855	-2414
1008.929	-2183
1009.003	-1986
1009.076	-1975
1009.150	-1463
1009.224	-1772
1009.298	-1420
1009.371	-2298
1009.445	-1646
1009.519	-1553
1009.592	-2375
1009.666	-1540
1009.739	-2014
1009.813	-2686
1009.886	-1263
1009.960	-2419
1010.033	-1445
1010.107	-1136
1010.180	-1797
1010.253	-2233
1010.327	-1508
1010.400	-2481
1010.473	-2068
1010.547	-1544
1010.620	-2214
1010.693	-1904
1010.766	-1955
1010.840	-1539
1010.913	-2100
1010.986	-2764
1011.059	-1853
1011.132	-1942
1011.205	-1224
1011.278	-1767
1011.351	-2162
1011.424	-1674
1011.497	-1922
1011.570	-1982
1011.643	-1874
1011.716	-2378
1011.789	-2345
1011.862	-2317
1011.934	-2033
1012.007	-2533
1012.080	-1868
1012.153	-1685
1012.225	-1314
1012.298	-2325
1012.371	-1994
1012.443	-1106
1012.516	-2441
1012.588	-1982
1012.661	-2485
1012.733	-2517
1012.806	-1753
1012.879	-1979
1012.951	-1753
1013.023	-2323
1013.096	-2756
1013.168	-3145
1013.241	-1499
1013.313	-1495
1013.385	-1970
1013.458	-1998
1013.530	-1726
1013.602	-2373
1013.674	-1784
1013.746	-2373
1013.819	-2746
1013.891	-2052
1013.963	-2752
1014.035	-2409
1014.107	-1701
1014.179	-2561
1014.251	-1918
1014.323	-2355
1014.395	-1656
1014.467	-2321
1014.539	-2261
1014.611	-1715
1014.683	-1730
1014.754	-2665
1014.826	-2491
1014.898	-1754
1014.970	-3040
1015.042	-1908
1015.113	-2698
1015.185	-2072
1015.257	-3105
1015.328	-1846
1015.400	-2274
1015.471	-2451
1015.543	-2832
1015.615	-2140
1015.686	-2240
1015.757	-2450
1015.829	-1286
1015.901	-2453
1015.972	-1858
1016.043	-1768
1016.115	-2325
1016.186	-2518
1016.257	-2240
1016.328	-1803
1016.400	-1415
1016.471	-2233
1016.542	-2010
1016.613	-1716
1016.685	-1973
1016.756	-1225
1016.827	-1852
1016.898	-2377
1016.969	-1375
1017.040	-2573
1017.111	-1877
1017.182	-1993
1017.253	-2160
1017.324	-2225
1017.395	-2501
1017.466	-2012
1017.537	-1793
1017.608	-1925
1017.678	-2085
1017.749	-1989
1017.820	-2403
1017.891	-2697
1017.961	-2506
1018.032	-1268
1018.103	-1964
1018.173	-2170
1018.244	-2685
1018.315	-2286
1018.385	-1185
1018.456	-1617
1018.526	-2235
1018.597	-2614
1018.667	-2517
1018.738	-2621
1018.808	-1924
1018.878	-2511
1018.949	-1937
1019.019	-2181
1019.089	-1969
1019.160	-2251
1019.230	-2596
1019.300	-1581
1019.371	-2647
1019.441	-2763
1019.511	-1466
1019.581	-2016
1019.651	-1976
1019.721	-2059
1019.791	-2588
1019.861	-1537
1019.931	-2130
1020.001	-2433
1020.071	-1882
1020.141	-1968
1020.211	-1743
1020.281	-1883
1020.351	-2085
1020.421	-2137
1020.491	-1643
1020.560	-2492
1020.630	-2527
1020.700	-1979
1020.770	-3266
1020.839	-1989
1020.909	-1709
1020.979	-1980
1021.048	-1722
1021.118	-1886
1021.187	-2518
1021.257	-2370
1021.326	-1621
1021.396	-2010
1021.465	-2580
1021.535	-1264
1021.604	-2204
1021.674	-1147
1021.743	-1993
1021.812	-1378
1021.882	-1536
1021.951	-2091
1022.020	-1839
1022.089	-2118
1022.159	-2937
1022.228	-1465
1022.297	-1437
1022.366	-2599
1022.435	-1983
1022.504	-1735
1022.573	-2782
1022.642	-1334
1022.711	-2277
1022.781	-1509
1022.849	-1672
1022.918	-2359
1022.987	-1841
1023.056	-1542
1023.125	-1331
1023.194	-1638
1023.263	-1628
1023.331	-1955
1023.400	-1310
1023.469	-2063
1023.538	-1408
1023.606	-1981
1023.675	-1613
1023.744	-1453
1023.812	-2444
1023.881	-2017
1023.949	-1887
1024.018	-1309
1024.086	-1544
1024.155	-2128
1024.223	-2485
1024.292	-1888
1024.360	-1595
1024.429	-873
1024.497	-1783
1024.565	-1625
1024.634	-1419
1024.702	-1730
1024.770	-2045
1024.838	-2689
1024.907	-1747
1024.975	-2000
1025.043	-1358
1025.111	-2352
1025.179	-991
1025.247	-1810
1025.315	-2168
1025.383	-2521
1025.451	-1873
1025.519	-2406
1025.587	-1906
1025.655	-1500
1025.723	-1829
1025.791	-1811
1025.859	-2550
1025.927	-1677
1025.995	-2286
1026.062	-1733
1026.130	-1287
1026.198	-1838
1026.266	-2137
1026.333	-2481
1026.401	-1652
1026.469	-1744
1026.536	-1662
1026.604	-2136
1026.671	-2254
1026.739	-1957
1026.806	-1293
1026.874	-2027
1026.941	-1816
1027.009	-2069
1027.076	-2336
1027.144	-1412
1027.211	-2626
1027.278	-1518
1027.345	-1473
1027.413	-2085
1027.480	-1840
1027.547	-2242
1027.614	-2389
1027.682	-1425
1027.749	-2033
1027.816	-2085
1027.883	-1947
1027.950	-1258
1028.017	-1872
1028.084	-1281
1028.151	-1713
1028.218	-1820
1028.285	-2318
1028.352	-1758
1028.419	-1770
1028.486	-1851
1028.553	-1514
1028.619	-1923
1028.686	-1702
1028.753	-1695
1028.820	-2038
1028.886	-1870
1028.953	-1101
1029.020	-1930
1029.086	-1279
1029.153	-2082
1029.220	-2292
1029.286	-1563
1029.353	-1353
1029.419	-1438
1029.486	-2150
1029.552	-1991
1029.619	-1684
1029.685	-2469
1029.751	-2340
1029.818	-1354
1029.884	-2059
1029.951	-1492
1030.017	-2137
1030.083	-1874
1030.149	-1878
1030.216	-2006
1030.282	-1738
1030.348	-3037
1030.414	-2577
1030.480	-2471
1030.546	-2672
1030.612	-2040
1030.678	-2623
1030.744	-1581
1030.810	-2052
1030.876	-2245
1030.942	-1866
1031.008	-2595
1031.074	-2451
1031.140	-1824
1031.206	-1228
1031.272	-2479
1031.337	-2121
1031.403	-1297
1031.469	-1636
1031.534	-1762
1031.600	-1833
1031.666	-1988
1031.731	-1789
1031.797	-1384
1031.863	-1822
1031.928	-1630
1031.994	-2254
1032.059	-1800
1032.125	-1923
1032.190	-2668
1032.256	-1817
1032.321	-2287
1032.386	-2558
1032.452	-1886
1032.517	-1613
1032.582	-2385
1032.647	-2172
1032.713	-2521
1032.778	-1588
1032.843	-2086
1032.908	-2138
1032.974	-2188
1033.039	-2295
1033.104	-2327
1033.169	-1814
1033.234	-1826
1033.299	-1299
1033.364	-2012
1033.429	-1907
1033.494	-1481
1033.559	-2166
1033.624	-1709
1033.688	-2192
1033.753	-2273
1033.818	-1439
1033.883	-2252
1033.948	-2287
1034.013	-1906
1034.077	-1801
1034.142	-1269
1034.207	-2100
1034.271	-993
1034.336	-754
1034.400	-1949
1034.465	-2126
1034.530	-1628
1034.594	-1465
1034.658	-1762
1034.723	-2521
1034.787	-1889
1034.852	-2022
1034.916	-2449
1034.981	-2587
1035.045	-1791
1035.109	-2186
1035.173	-2200
1035.238	-2719
1035.302	-3013
1035.366	-2481
1035.430	-2020
1035.495	-2104
1035.559	-1887
1035.623	-2127
1035.687	-2373
1035.751	-1768
1035.815	-2686
1035.879	-2104
1035.943	-1847
1036.007	-1961
1036.071	-2189
1036.135	-2486
1036.198	-2015
1036.262	-2395
1036.326	-2741
1036.390	-1931
1036.454	-2172
1036.517	-2564
1036.581	-2270
1036.645	-2201
1036.709	-1904
1036.772	-2286
1036.836	-2318
1036.900	-2668
1036.963	-2665
1037.026	-2394
1037.090	-2902
1037.154	-2328
1037.217	-2228
1037.280	-1902
1037.344	-2558
1037.407	-2082
1037.471	-2052
1037.534	-1596
1037.597	-2681
1037.661	-2869
1037.724	-2958
1037.787	-2657
1037.850	-2892
1037.913	-2908
1037.977	-2214
1038.040	-1806
1038.103	-1519
1038.166	-1897
1038.229	-2344
1038.292	-2273
1038.355	-1558
1038.418	-2037
1038.481	-2407
1038.544	-1550
1038.607	-1951
1038.670	-2803
1038.732	-2861
1038.795	-1967
1038.858	-2859
1038.921	-2523
1038.984	-1512
1039.046	-2354
1039.109	-3177
1039.172	-3001
1039.234	-2468
1039.297	-2231
1039.360	-2098
1039.422	-2653
1039.485	-3414
1039.547	-2634
1039.610	-2243
1039.672	-2543
1039.734	-2954
1039.797	-2086
1039.859	-2059
1039.922	-2495
1039.984	-2489
1040.046	-2249
1040.109	-2486
1040.171	-2683
1040.233	-2457
1040.295	-2379
1040.358	-3672
1040.420	-2562
1040.482	-2063
1040.544	-2822
1040.606	-2513
1040.668	-2951
1040.730	-2846
1040.792	-1994
1040.854	-2822
1040.916	-3083
1040.978	-1831
1041.040	-2144
1041.102	-2035
1041.164	-2378
1041.225	-2681
1041.287	-2458
1041.349	-2532
1041.411	-2599
1041.472	-2946
1041.534	-2717
1041.596	-2085
1041.657	-2908
1041.719	-3506
1041.781	-2638
1041.842	-3023
1041.904	-3125
1041.965	-2524
1042.027	-2871
1042.088	-1995
1042.150	-2284
1042.211	-2282
1042.272	-2636
1042.334	-3098
1042.395	-1897
1042.456	-2607
1042.518	-2530
1042.579	-2156
1042.640	-2834
1042.701	-1909
1042.763	-2537
1042.824	-2301
1042.885	-2120
1042.946	-2495
1043.007	-2535
1043.068	-2856
1043.129	-2430
1043.190	-1802
1043.251	-2208
1043.312	-2469
1043.373	-2401
1043.434	-1931
1043.495	-2693
1043.556	-1472
1043.616	-2360
1043.677	-1783
1043.738	-2004
1043.799	-3242
1043.859	-2777
1043.920	-2256
1043.981	-2330
1044.041	-2826
1044.102	-2372
1044.162	-2678
1044.223	-2868
1044.284	-2173
1044.344	-2225
1044.405	-2661
1044.465	-2632
1044.525	-2988
1044.586	-1721
1044.646	-2590
1044.707	-2358
1044.767	-2536
1044.827	-2903
1044.887	-2086
1044.948	-2796
1045.008	-1735
1045.068	-2153
1045.128	-1927
1045.188	-2097
1045.249	-1595
1045.309	-2069
1045.369	-2504
1045.429	-2217
1045.489	-2729
1045.549	-2537
1045.609	-1942
1045.669	-2712
1045.729	-2768
1045.789	-2420
1045.848	-2146
1045.908	-1757
1045.968	-1891
1046.028	-2071
1046.088	-2032
1046.147	-1630
1046.207	-1929
1046.267	-2457
1046.326	-1639
1046.386	-1914
1046.446	-1628
1046.505	-1725
1046.565	-1295
1046.624	-1223
1046.684	-1756
1046.743	-1193
1046.803	-839
1046.862	-908
1046.922	0
