'Start Wavelength	183.907
'End Wavelength	1046.922
'Gate Delay	5.000
'Gate Width (ms)	1.050
'Laser Output Level	0.000
'X Position	0.000
'Y Position	0.000
'Z Position	0.000
'Grid Point Number	1.000
'Shot Number	100.000
183.907	-19.000
183.977	611.000
184.047	15
184.116	590
184.186	337
184.256	600
184.325	-10
184.395	-411
184.465	-15
184.534	-126
184.604	-292
184.674	-228
184.743	-155
184.813	182
184.883	455
184.952	895
185.022	-256
185.092	618
185.161	255
185.231	-387
185.301	364
185.370	243
185.440	-166
185.509	588
185.579	132
185.649	527
185.718	435
185.788	321
185.857	797
185.927	726
185.996	236
186.066	-74
186.136	-152
186.205	469
186.275	-28
186.344	242
186.414	-172
186.483	-8
186.553	51
186.622	-223
186.692	-277
186.761	611
186.831	537
186.900	310
186.970	-324
187.039	-2
187.109	696
187.178	47
187.248	234
187.317	271
187.387	95
187.456	299
187.526	384
187.595	1193
187.664	-341
187.734	23
187.803	245
187.873	446
187.942	368
188.012	488
188.081	462
188.150	9
188.220	258
188.289	-232
188.358	-223
188.428	-407
188.497	-258
188.567	677
188.636	295
188.705	351
188.775	515
188.844	55
188.913	761
188.983	705
189.052	452
189.121	-50
189.191	-147
189.260	625
189.329	291
189.399	589
189.468	18
189.537	373
189.606	415
189.676	-147
189.745	-1
189.814	764
189.883	809
189.953	125
190.022	-119
190.091	344
190.161	207
190.230	805
190.299	81
190.368	240
190.437	385
190.507	140
190.576	244
190.645	-453
190.714	-173
190.783	95
190.853	392
190.922	310
190.991	-322
191.060	428
191.129	-191
191.198	55
191.268	-209
191.337	87
191.406	211
191.475	70
191.544	270
191.613	211
191.682	-719
191.752	126
191.821	186
191.890	387
191.959	-281
192.028	-7
192.097	547
192.166	208
192.235	-88
192.304	461
192.373	620
192.442	459
192.511	-230
192.580	-52
192.650	754
192.719	397
192.788	28
192.857	64
192.926	917
192.995	395
193.064	286
193.133	582
193.202	1348
193.271	996
193.340	836
193.409	1000
193.478	1004
193.547	783
193.615	1499
193.684	1177
193.753	566
193.822	1430
193.891	209
193.960	163
194.029	134
194.098	1232
194.167	-614
194.236	655
194.305	-237
194.374	746
194.443	689
194.512	247
194.580	433
194.649	51
194.718	156
194.787	82
194.856	71
194.925	578
194.994	441
195.062	745
195.131	286
195.200	523
195.269	480
195.338	453
195.407	211
195.475	1005
195.544	-629
195.613	389
195.682	302
195.751	783
195.819	192
195.888	544
195.957	733
196.026	738
196.094	594
196.163	912
196.232	816
196.301	1351
196.369	665
196.438	1664
196.507	214
196.576	494
196.644	535
196.713	232
196.782	-400
196.850	921
196.919	959
196.988	807
197.056	97
197.125	554
197.194	432
197.262	770
197.331	574
197.400	-108
197.468	619
197.537	606
197.606	327
197.674	453
197.743	745
197.812	7
197.880	470
197.949	214
198.017	546
198.086	329
198.155	1094
198.223	618
198.292	895
198.360	846
198.429	788
198.497	391
198.566	403
198.635	1487
198.703	720
198.772	1007
198.840	1067
198.909	294
198.977	138
199.046	358
199.114	1140
199.183	888
199.251	656
199.320	398
199.388	-348
199.457	315
199.525	410
199.594	633
199.662	845
199.731	-238
199.799	163
199.867	452
199.936	-51
200.004	780
200.073	1138
200.141	649
200.210	78
200.278	460
200.346	-23
200.415	516
200.483	-324
200.552	381
200.620	593
200.688	492
200.757	-119
200.825	1422
200.893	399
200.962	993
201.030	-17
201.098	-121
201.167	981
201.235	660
201.303	569
201.372	639
201.440	750
201.508	503
201.577	891
201.645	736
201.713	99
201.781	532
201.850	669
201.918	786
201.986	601
202.055	64
202.123	-74
202.191	852
202.259	123
202.327	339
202.396	1032
202.464	534
202.532	-200
202.600	2048
202.669	975
202.737	187
202.805	645
202.873	238
202.941	1061
203.009	702
203.078	215
203.146	458
203.214	103
203.282	821
203.350	306
203.418	579
203.487	452
203.555	585
203.623	815
203.691	339
203.759	530
203.827	625
203.895	343
203.963	1089
204.031	-82
204.099	306
204.168	664
204.236	689
204.304	288
204.372	699
204.440	409
204.508	403
204.576	802
204.644	661
204.712	-234
204.780	768
204.848	1199
204.916	1456
204.984	508
205.052	1095
205.120	1001
205.188	597
205.256	574
205.324	628
205.392	559
205.460	631
205.528	-206
205.596	615
205.664	984
205.732	861
205.799	489
205.867	1533
205.935	857
206.003	1083
206.071	196
206.139	742
206.207	208
206.275	462
206.343	317
206.411	1138
206.478	719
206.546	406
206.614	1208
206.682	857
206.750	652
206.818	405
206.885	689
206.953	683
207.021	953
207.089	1482
207.157	340
207.225	853
207.292	939
207.360	861
207.428	1111
207.496	1194
207.563	876
207.631	901
207.699	-56
207.767	932
207.834	-70
207.902	750
207.970	842
208.038	429
208.105	1177
208.173	1310
208.241	1119
208.309	1701
208.376	1223
208.444	2265
208.512	1241
208.579	579
208.647	346
208.715	1594
208.782	490
208.850	1327
208.918	1425
208.985	1039
209.053	-118
209.120	1260
209.188	583
209.256	972
209.323	-128
209.391	624
209.459	1603
209.526	187
209.594	1196
209.661	1692
209.729	533
209.796	798
209.864	604
209.932	590
209.999	1171
210.067	1834
210.134	1150
210.202	1361
210.269	1984
210.337	1727
210.404	814
210.472	1201
210.539	1002
210.607	1213
210.674	797
210.742	1518
210.809	1205
210.877	1401
210.944	1542
211.012	-79
211.079	1479
211.146	527
211.214	1559
211.281	1732
211.349	1565
211.416	1419
211.484	1496
211.551	910
211.618	1039
211.686	1334
211.753	781
211.821	1637
211.888	688
211.955	1419
212.023	1256
212.090	1197
212.157	1543
212.225	626
212.292	1381
212.359	2826
212.427	3005
212.494	2352
212.561	1965
212.629	2121
212.696	2049
212.763	1187
212.831	1267
212.898	1862
212.965	1315
213.032	1359
213.100	1267
213.167	2160
213.234	2214
213.301	1308
213.369	1661
213.436	906
213.503	1232
213.570	1681
213.638	1361
213.705	978
213.772	893
213.839	1441
213.906	1966
213.973	2105
214.041	2412
214.108	2116
214.175	1452
214.242	1556
214.309	1893
214.376	1853
214.444	2107
214.511	2352
214.578	1118
214.645	1755
214.712	1302
214.779	1619
214.846	1214
214.913	1506
214.980	2023
215.048	1852
215.115	1558
215.182	2666
215.249	1495
215.316	1618
215.383	2119
215.450	2404
215.517	1262
215.584	2180
215.651	1752
215.718	1772
215.785	1414
215.852	1691
215.919	1092
215.986	1677
216.053	1194
216.120	1376
216.187	727
216.254	2387
216.321	888
216.388	1538
216.455	2505
216.522	2602
216.589	2393
216.656	1869
216.722	2640
216.789	2436
216.856	2400
216.923	2599
216.990	2771
217.057	2279
217.124	3485
217.191	2454
217.258	2939
217.324	2745
217.391	3357
217.458	3045
217.525	3208
217.592	1864
217.659	1425
217.725	2539
217.792	1809
217.859	2419
217.926	1911
217.993	1670
218.059	1146
218.126	1938
218.193	1387
218.260	1527
218.327	1126
218.393	1657
218.460	902
218.527	1643
218.594	1305
218.660	1721
218.727	2219
218.794	950
218.860	1740
218.927	2084
218.994	854
219.061	557
219.127	1315
219.194	1429
219.261	770
219.327	1310
219.394	1639
219.461	693
219.527	1020
219.594	2301
219.661	1394
219.727	923
219.794	1713
219.860	1568
219.927	1436
219.994	1673
220.060	2091
220.127	1913
220.193	3067
220.260	2363
220.326	3348
220.393	4597
220.460	4545
220.526	3661
220.593	2458
220.659	4135
220.726	3062
220.792	4845
220.859	5363
220.925	6429
220.992	6905
221.058	6646
221.125	5416
221.191	4235
221.258	2401
221.324	2586
221.391	1736
221.457	1572
221.524	1700
221.590	3099
221.657	4895
221.723	3286
221.789	3270
221.856	3054
221.922	1813
221.989	1939
222.055	1774
222.121	1800
222.188	2978
222.254	2437
222.321	1719
222.387	1333
222.453	1619
222.520	1763
222.586	1714
222.652	966
222.719	1502
222.785	1170
222.851	1704
222.918	1901
222.984	1613
223.050	1721
223.116	852
223.183	1832
223.249	1574
223.315	1663
223.382	1040
223.448	835
223.514	861
223.580	979
223.647	1592
223.713	1057
223.779	1614
223.845	2121
223.911	1823
223.978	1804
224.044	1606
224.110	1913
224.176	2636
224.242	1720
224.309	167
224.375	1907
224.441	1628
224.507	2031
224.573	928
224.639	1835
224.705	1250
224.772	1271
224.838	955
224.904	1485
224.970	813
225.036	1843
225.102	1552
225.168	1798
225.234	1332
225.300	1473
225.366	953
225.432	1500
225.499	1084
225.565	1300
225.631	1937
225.697	1960
225.763	2221
225.829	1977
225.895	2475
225.961	3232
226.027	3106
226.093	2671
226.159	4134
226.225	5439
226.291	7929
226.357	10591
226.423	6751
226.489	4392
226.554	3670
226.620	4051
226.686	3438
226.752	6075
226.818	7928
226.884	11242
226.950	9770
227.016	6955
227.082	4782
227.148	4028
227.214	3546
227.279	2898
227.345	2718
227.411	2659
227.477	1638
227.543	3524
227.609	3067
227.674	2413
227.740	1999
227.806	2271
227.872	1577
227.938	2373
228.003	3216
228.069	2262
228.135	901
228.201	2405
228.267	1330
228.332	2240
228.398	1664
228.464	2827
228.530	1565
228.595	2368
228.661	1544
228.727	2388
228.792	2589
228.858	1471
228.924	655
228.990	3332
229.055	995
229.121	2777
229.187	1632
229.252	1896
229.318	1203
229.384	1916
229.449	1830
229.515	553
229.581	573
229.646	2467
229.712	1533
229.777	2417
229.843	2440
229.909	3207
229.974	3452
230.040	2598
230.105	2562
230.171	2807
230.236	2962
230.302	3351
230.368	3334
230.433	2387
230.499	2639
230.564	2930
230.630	1999
230.695	2161
230.761	2353
230.826	1664
230.892	3281
230.957	1876
231.023	1726
231.088	2517
231.154	1575
231.219	2812
231.284	2562
231.350	3418
231.415	1894
231.481	2178
231.546	1700
231.612	2285
231.677	1395
231.742	1469
231.808	3668
231.873	1139
231.939	551
232.004	3140
232.069	2163
232.135	1886
232.200	1400
232.265	1705
232.331	1685
232.396	1805
232.461	1017
232.527	2236
232.592	938
232.657	2330
232.723	1460
232.788	2079
232.853	2001
232.918	1652
232.984	1667
233.049	1277
233.114	1714
233.179	1913
233.245	2290
233.310	2588
233.375	865
233.440	2094
233.506	1793
233.571	1711
233.636	1673
233.701	2074
233.766	1446
233.832	2417
233.897	1121
233.962	1367
234.027	2106
234.092	2059
234.157	1543
234.222	1823
234.288	1934
234.353	3668
234.418	2779
234.483	4078
234.548	3009
234.613	2844
234.678	3122
234.743	2916
234.808	4979
234.873	3628
234.938	3244
235.004	2618
235.069	2548
235.134	1879
235.199	2564
235.264	2706
235.329	2008
235.394	3211
235.459	3006
235.524	2828
235.589	2877
235.654	2429
235.719	1512
235.784	2291
235.849	2437
235.913	3872
235.978	2962
236.043	3439
236.108	2165
236.173	2123
236.238	2498
236.303	2022
236.368	2531
236.433	3485
236.498	3909
236.563	4259
236.627	7525
236.692	16088
236.757	14020
236.822	8079
236.887	5347
236.952	5432
237.017	4237
237.081	5423
237.146	5991
237.211	12190
237.276	16497
237.341	18898
237.405	13662
237.470	8142
237.535	5996
237.600	5207
237.664	4840
237.729	3159
237.794	4329
237.859	7777
237.923	4942
237.988	3698
238.053	4067
238.118	3549
238.182	5804
238.247	4856
238.312	2528
238.376	2900
238.441	975
238.506	2622
238.570	1114
238.635	3271
238.700	1825
238.764	2277
238.829	3549
238.893	3293
238.958	3035
239.023	3601
239.087	2913
239.152	3041
239.216	1467
239.281	2679
239.346	2818
239.410	2893
239.475	2023
239.539	5739
239.604	3259
239.668	2711
239.733	1884
239.797	2434
239.862	2674
239.926	4120
239.991	3009
240.055	1504
240.120	2058
240.184	2177
240.249	1505
240.313	1816
240.378	1371
240.442	3724
240.507	4063
240.571	2316
240.635	2389
240.700	3232
240.764	2290
240.829	1450
240.893	837
240.957	2165
241.022	3717
241.086	4882
241.151	1940
241.215	1457
241.279	2500
241.344	2848
241.408	3516
241.472	3458
241.537	4303
241.601	3270
241.665	3260
241.730	2562
241.794	3247
241.858	3659
241.922	3428
241.987	3479
242.051	2722
242.115	3049
242.179	2499
242.244	2471
242.308	2998
242.372	2711
242.436	3280
242.501	2977
242.565	2606
242.629	2396
242.693	2881
242.757	1800
242.822	1796
242.886	2784
242.950	3110
243.014	2178
243.078	3373
243.142	3033
243.206	2588
243.271	3467
243.335	3401
243.399	4288
243.463	8828
243.527	17399
243.591	5709
243.655	4183
243.719	1776
243.783	3906
243.847	4122
243.911	4855
243.975	5426
244.040	3308
244.104	3605
244.168	3124
244.232	3455
244.296	5211
244.360	5199
244.424	3634
244.488	2762
244.552	2991
244.615	1871
244.679	3056
244.743	2441
244.807	2320
244.871	2678
244.935	2750
244.999	920
245.063	2609
245.127	3444
245.191	3671
245.255	3052
245.319	3129
245.383	2697
245.446	3730
245.510	1191
245.574	1942
245.638	2028
245.702	1616
245.766	4276
245.829	4419
245.893	2546
245.957	3074
246.021	3150
246.085	3362
246.149	3325
246.212	7135
246.276	8025
246.340	3933
246.404	3903
246.467	4097
246.531	3439
246.595	4003
246.659	3172
246.722	2751
246.786	4923
246.850	4026
246.913	4725
246.977	2471
247.041	3379
247.104	2655
247.168	3597
247.232	7273
247.295	10695
247.359	6668
247.423	3554
247.486	5778
247.550	4444
247.614	3739
247.677	4092
247.741	3350
247.804	2329
247.868	3950
247.932	6039
247.995	10238
248.059	4102
248.122	3074
248.186	4899
248.249	7766
248.313	16563
248.376	16776
248.440	10572
248.503	4946
248.567	6015
248.630	6356
248.694	8553
248.757	12323
248.821	17742
248.884	13067
248.948	12015
249.011	16197
249.075	19789
249.138	15792
249.202	9313
249.265	6202
249.328	6236
249.392	5741
249.455	5367
249.519	4755
249.582	5428
249.645	8154
249.709	5406
249.772	3835
249.835	4383
249.899	4787
249.962	4976
250.025	4162
250.089	9046
250.152	9474
250.215	5631
250.279	4568
250.342	4979
250.405	5897
250.468	3923
250.532	5729
250.595	8215
250.658	21583
250.721	26897
250.785	11780
250.848	8434
250.911	5735
250.974	5708
251.038	7595
251.101	11684
251.164	7323
251.227	7242
251.290	6747
251.354	9672
251.417	27423
251.480	23416
251.543	21874
251.606	48372
251.669	32430
251.732	15716
251.795	16342
251.859	16918
251.922	28864
251.985	17027
252.048	9044
252.111	7057
252.174	6593
252.237	12588
252.300	20450
252.363	23103
252.426	34931
252.489	15180
252.552	8965
252.615	5610
252.678	8871
252.741	16964
252.804	20919
252.867	38018
252.930	22924
252.993	12896
253.056	8912
253.119	6445
253.182	4960
253.245	7229
253.308	6338
253.371	4742
253.434	5004
253.497	6314
253.559	9852
253.622	6721
253.685	7821
253.748	7981
253.811	4761
253.874	5813
253.937	4428
254.000	4138
254.062	8505
254.125	9644
254.188	10835
254.251	7342
254.314	4632
254.376	7364
254.439	7922
254.502	7218
254.565	7562
254.628	12330
254.690	6807
254.753	4357
254.816	4289
254.878	4253
254.941	8036
255.004	7476
255.067	4669
255.129	3754
255.192	3366
255.255	1505
255.317	4015
255.380	2212
255.443	2266
255.505	1611
255.568	1483
255.631	1820
255.693	2268
255.756	1164
255.819	2198
255.881	2301
255.944	2132
256.006	1885
256.069	1223
256.132	1238
256.194	3059
256.257	3823
256.319	3209
256.382	2658
256.444	4548
256.507	2829
256.569	3216
256.632	3387
256.694	5255
256.757	15485
256.819	30227
256.882	14271
256.944	7667
257.007	6553
257.069	5895
257.132	4062
257.194	4102
257.257	2986
257.319	4396
257.381	4370
257.444	12712
257.506	35549
257.569	35420
257.631	15825
257.693	10133
257.756	5202
257.818	3479
257.880	3869
257.943	4134
258.005	2686
258.067	3112
258.130	3740
258.192	4060
258.254	4373
258.317	3226
258.379	2811
258.441	6618
258.503	6154
258.566	5163
258.628	5648
258.690	2896
258.753	3721
258.815	6262
258.877	3752
258.939	3940
259.001	3270
259.064	3886
259.126	2163
259.188	3284
259.250	4483
259.312	3922
259.375	4874
259.437	3805
259.499	2755
259.561	2586
259.623	3412
259.685	3676
259.747	3260
259.809	5473
259.872	7261
259.934	13838
259.996	13155
260.058	4714
260.120	2369
260.182	2876
260.244	2575
260.306	2667
260.368	1835
260.430	1292
260.492	5180
260.554	6958
260.616	3068
260.678	8667
260.740	7339
260.802	2930
260.864	2900
260.926	2458
260.988	3034
261.050	3395
261.112	7021
261.174	13181
261.236	5726
261.298	3762
261.359	4845
261.421	6007
261.483	2272
261.545	3319
261.607	1212
261.669	3290
261.731	2900
261.793	6997
261.854	3242
261.916	3811
261.978	3073
262.040	3385
262.102	1968
262.164	2572
262.225	2116
262.287	3005
262.349	5205
262.411	4057
262.472	3268
262.534	3355
262.596	3012
262.658	3067
262.719	1403
262.781	2313
262.843	3497
262.904	3028
262.966	2466
263.028	3096
263.090	11012
263.151	22071
263.213	9351
263.275	6373
263.336	2885
263.398	3153
263.459	1016
263.521	2107
263.583	5026
263.644	4089
263.706	1636
263.767	993
263.829	1656
263.891	1770
263.952	712
264.014	1103
264.075	3273
264.137	7745
264.198	3233
264.260	1769
264.321	1802
264.383	6277
264.444	11775
264.506	3813
264.567	2792
264.629	6607
264.690	9187
264.752	4230
264.813	3336
264.875	2038
264.936	2794
264.998	1927
265.059	1570
265.120	2559
265.182	4348
265.243	22204
265.305	18898
265.366	5453
265.427	3068
265.489	3159
265.550	1449
265.611	2510
265.673	1534
265.734	2286
265.795	1181
265.857	1735
265.918	2466
265.979	8364
266.040	30749
266.102	22880
266.163	8766
266.224	6269
266.286	3675
266.347	2181
266.408	2445
266.469	1701
266.530	2014
266.592	2308
266.653	4484
266.714	5657
266.775	2221
266.836	1287
266.898	1905
266.959	4406
267.020	2070
267.081	2683
267.142	1614
267.203	1793
267.264	841
267.326	2517
267.387	1771
267.448	1246
267.509	1731
267.570	2266
267.631	1902
267.692	1087
267.753	1803
267.814	864
267.875	5058
267.936	7961
267.997	5486
268.058	4951
268.119	2660
268.180	2019
268.241	1291
268.302	1913
268.363	1608
268.424	2120
268.485	2075
268.546	1705
268.607	1197
268.668	1711
268.729	1201
268.790	2229
268.851	1995
268.912	5699
268.972	5865
269.033	3026
269.094	2032
269.155	1794
269.216	1382
269.277	1944
269.338	1593
269.398	2795
269.459	2150
269.520	2791
269.581	3327
269.642	4557
269.702	2582
269.763	3377
269.824	2087
269.885	3241
269.945	3752
270.006	3062
270.067	1499
270.128	1550
270.188	1321
270.249	2036
270.310	841
270.370	2049
270.431	1718
270.492	1331
270.553	1691
270.613	4276
270.674	6842
270.734	2253
270.795	2467
270.856	3610
270.916	1927
270.977	1761
271.038	2424
271.098	2280
271.159	4119
271.219	3631
271.280	1872
271.340	1515
271.401	1975
271.462	3540
271.522	3390
271.583	1737
271.643	1878
271.704	1764
271.764	3131
271.825	6774
271.885	19963
271.946	21962
272.006	7588
272.066	13652
272.127	17290
272.187	5902
272.248	3127
272.308	4770
272.369	12273
272.429	6043
272.489	5987
272.550	5005
272.610	6161
272.671	4676
272.731	3887
272.791	4524
272.852	2798
272.912	3496
272.972	973
273.033	2162
273.093	3475
273.153	3930
273.214	1520
273.274	2913
273.334	10195
273.394	14825
273.455	6021
273.515	7440
273.575	13990
273.635	5948
273.696	8316
273.756	13040
273.816	6446
273.876	3904
273.936	4725
273.997	6695
274.057	2473
274.117	2247
274.177	5299
274.237	20991
274.297	13472
274.358	9018
274.418	12584
274.478	9953
274.538	3369
274.598	2012
274.658	6408
274.718	6901
274.778	3655
274.838	1927
274.898	3416
274.958	9025
275.018	13711
275.078	8830
275.138	4321
275.198	2102
275.258	1110
275.318	2419
275.378	4928
275.438	6178
275.498	3157
275.558	5220
275.618	11238
275.678	9439
275.738	7560
275.798	5511
275.858	2828
275.918	1894
275.978	3470
276.038	2298
276.098	1954
276.157	5849
276.217	12694
276.277	4770
276.337	4175
276.397	2262
276.457	3249
276.517	2141
276.576	1613
276.636	1232
276.696	3079
276.756	7958
276.815	4595
276.875	2240
276.935	2539
276.995	2544
277.055	1347
277.114	2079
277.174	3680
277.234	9014
277.293	3042
277.353	2752
277.413	1645
277.472	2137
277.532	1783
277.592	2324
277.651	6759
277.711	9216
277.771	3578
277.830	15332
277.890	11188
277.950	8031
278.009	18055
278.069	7471
278.128	8932
278.188	10863
278.248	5308
278.307	12739
278.367	6500
278.426	2756
278.486	2097
278.545	1361
278.605	2232
278.664	1448
278.724	2052
278.783	7863
278.843	14116
278.902	4221
278.962	3271
279.021	3249
279.081	3711
279.140	3699
279.199	3553
279.259	4395
279.318	2758
279.378	4149
279.437	7606
279.496	20478
279.556	51608
279.615	27983
279.675	9640
279.734	6530
279.793	10505
279.853	13069
279.912	4391
279.971	4531
280.031	2872
280.090	7081
280.149	8937
280.208	8575
280.268	35431
280.327	25405
280.386	6439
280.445	8436
280.505	6381
280.564	3246
280.623	3110
280.682	5758
280.742	6942
280.801	2696
280.860	2270
280.919	1617
280.978	1207
281.037	1948
281.097	1063
281.156	2031
281.215	1234
281.274	2500
281.333	9616
281.392	6396
281.451	2203
281.510	1211
281.569	861
281.628	880
281.688	1909
281.747	2313
281.806	651
281.865	1465
281.924	1599
281.983	1141
282.042	901
282.101	928
282.160	883
282.219	1657
282.278	1452
282.337	5988
282.396	2969
282.454	2472
282.513	2535
282.572	9997
282.631	4696
282.690	1818
282.749	942
282.808	2041
282.867	1854
282.926	2331
282.985	1387
283.043	640
283.102	1674
283.161	1618
283.220	4331
283.279	9166
283.338	2929
283.396	2343
283.455	1651
283.514	2336
283.573	4103
283.631	2679
283.690	1621
283.749	2302
283.808	4818
283.866	5466
283.925	1943
283.984	2279
284.043	2976
284.101	3513
284.160	1543
284.219	3039
284.277	1647
284.336	4458
284.395	13194
284.453	9155
284.512	4534
284.570	6306
284.629	4536
284.688	4602
284.746	4198
284.805	6259
284.863	6429
284.922	9252
284.981	10648
285.039	18173
285.098	29156
285.156	58549
285.215	73918
285.273	73583
285.332	57029
285.390	34234
285.449	20963
285.507	14311
285.566	11317
285.624	8825
285.683	7140
285.741	5870
285.799	4315
285.858	4364
285.916	4126
285.975	3186
286.033	2981
286.091	2409
286.150	2356
286.208	2328
286.267	3348
286.325	3210
286.383	5323
286.442	3373
286.500	2320
286.558	1659
286.616	1485
286.675	3454
286.733	2551
286.791	1676
286.850	2564
286.908	3470
286.966	5744
287.024	2577
287.083	2083
287.141	454
287.199	1851
287.257	3557
287.315	1794
287.374	3087
287.432	6567
287.490	3547
287.548	1822
287.606	2048
287.664	1550
287.723	2941
287.781	2667
287.839	2026
287.897	2459
287.955	2548
288.013	4395
288.071	12389
288.129	41393
288.187	83819
288.245	35785
288.303	13329
288.361	8136
288.419	5952
288.477	4395
288.535	3590
288.593	3179
288.651	1876
288.709	1229
288.767	1869
288.825	1566
288.883	1847
288.941	1348
288.999	1351
289.057	856
289.115	1008
289.173	1381
289.231	1215
289.289	1156
289.346	838
289.404	2254
289.462	3512
289.520	3097
289.578	2164
289.636	1304
289.694	1511
289.751	807
289.809	900
289.867	1218
289.925	2497
289.983	2250
290.040	2644
290.098	911
290.156	1560
290.214	1820
290.271	1201
290.329	1194
290.387	1034
290.444	855
290.502	1123
290.560	507
290.617	1379
290.675	846
290.733	1348
290.790	964
290.848	1256
290.906	1351
290.963	1928
291.021	1826
291.078	1664
291.136	1742
291.194	7390
291.251	10819
291.309	3174
291.366	977
291.424	1750
291.481	1487
291.539	2276
291.596	717
291.654	164
291.711	829
291.769	1541
291.826	3090
291.884	1850
291.941	1210
291.999	1005
292.056	1316
292.114	1648
292.171	714
292.228	1370
292.286	1483
292.343	2885
292.401	3783
292.458	1346
292.515	1482
292.573	1390
292.630	1378
292.687	1061
292.745	890
292.802	2565
292.859	6704
292.917	11401
292.974	5170
293.031	2644
293.089	1767
293.146	1653
293.203	1160
293.260	1033
293.318	1503
293.375	3022
293.432	1202
293.489	2024
293.546	1358
293.604	2821
293.661	8318
293.718	18505
293.775	7842
293.832	3777
293.889	2011
293.947	2993
294.004	1897
294.061	2585
294.118	5930
294.175	12229
294.232	13970
294.289	6282
294.346	3741
294.403	4399
294.460	1807
294.517	2270
294.574	1919
294.631	1568
294.688	2110
294.745	7403
294.802	22153
294.859	22571
294.916	7995
294.973	3751
295.030	3668
295.087	3309
295.144	2703
295.201	2881
295.258	1979
295.315	3620
295.372	8532
295.429	12772
295.486	6558
295.542	5166
295.599	11965
295.656	17701
295.713	12932
295.770	13269
295.827	5931
295.883	3991
295.940	3155
295.997	4792
296.054	4142
296.111	2479
296.167	2657
296.224	2416
296.281	1072
296.338	2118
296.394	2349
296.451	2545
296.508	7167
296.564	12871
296.621	9636
296.678	19681
296.734	23839
296.791	8502
296.848	5552
296.904	6755
296.961	12775
297.018	17112
297.074	10963
297.131	6081
297.187	4137
297.244	6005
297.301	16280
297.357	25752
297.414	9396
297.470	4536
297.527	2778
297.583	2879
297.640	2726
297.696	1931
297.753	1824
297.809	1310
297.866	1468
297.922	1904
297.979	1215
298.035	2100
298.092	3646
298.148	10016
298.204	8788
298.261	5124
298.317	10711
298.374	21054
298.430	11124
298.486	5344
298.543	3014
298.599	4315
298.656	5570
298.712	8016
298.768	14997
298.824	8929
298.881	3835
298.937	2977
298.993	2916
299.050	3304
299.106	2854
299.162	2478
299.218	3384
299.275	2250
299.331	3393
299.387	6557
299.443	19017
299.500	15950
299.556	6094
299.612	3548
299.668	2807
299.724	3103
299.780	2587
299.837	1981
299.893	5123
299.949	15076
300.005	14623
300.061	15395
300.117	22602
300.173	10860
300.229	5302
300.285	6229
300.341	7884
300.397	4012
300.453	2849
300.510	2564
300.566	1918
300.622	3571
300.678	5174
300.734	12709
300.790	13090
300.845	16211
300.901	9018
300.957	13299
301.013	10882
301.069	4622
301.125	2975
301.181	4089
301.237	3013
301.293	2104
301.349	2161
301.405	1603
301.461	2610
301.516	3079
301.572	2815
301.628	5134
301.684	4401
301.740	7418
301.796	10527
301.851	8000
301.907	13039
301.963	13897
302.019	21650
302.074	47329
302.130	45918
302.186	23045
302.242	10178
302.297	6498
302.353	7597
302.409	12597
302.464	10404
302.520	8965
302.576	18849
302.631	20956
302.687	11577
302.743	5926
302.798	3735
302.854	4544
302.910	4081
302.965	4311
303.021	6636
303.076	7155
303.132	8040
303.187	10000
303.243	5639
303.299	3928
303.354	3624
303.410	3089
303.465	2148
303.521	3334
303.576	2529
303.632	3599
303.687	7361
303.743	16854
303.798	12909
303.853	6130
303.909	4335
303.964	3935
304.020	6158
304.075	8017
304.130	6826
304.186	12816
304.241	12805
304.297	10488
304.352	5756
304.358	5624
304.407	4544
304.449	3901
304.463	3690
304.518	2332
304.539	2539
304.573	2845
304.629	3925
304.630	3947
304.684	5231
304.720	10749
304.739	13557
304.794	19189
304.811	16639
304.850	9982
304.902	4885
304.905	4585
304.960	4130
304.992	3889
305.015	3714
305.071	3460
305.083	3294
305.126	2648
305.173	2900
305.181	2961
305.236	2629
305.264	2706
305.292	2839
305.347	3356
305.354	3417
305.402	3751
305.445	3288
305.457	3172
305.512	4316
305.535	4535
305.567	4701
305.622	5517
305.626	5658
305.678	10311
305.716	17749
305.733	20121
305.788	20798
305.807	18757
305.843	15091
305.897	19693
305.898	19740
305.953	18393
305.988	12796
306.008	9796
306.063	6766
306.078	5942
306.118	4213
306.168	2934
306.173	2839
306.228	2265
306.259	2181
306.283	2279
306.338	2051
306.349	2114
306.393	2464
306.440	3313
306.448	3411
306.503	3050
306.530	3004
306.558	4250
306.613	9504
306.620	10187
306.668	15494
306.711	21857
306.723	22116
306.778	16903
306.801	13541
306.833	9701
306.888	4616
306.892	4373
306.943	3386
306.982	3273
306.997	3319
307.052	2987
307.072	2868
307.107	3121
307.162	4128
307.163	4136
307.217	5817
307.253	6646
307.272	6654
307.327	6934
307.343	6825
307.381	6540
307.434	6115
307.436	6341
307.491	12238
307.524	17530
307.546	19234
307.600	21495
307.614	20406
307.655	12911
307.704	7189
307.710	7243
307.765	7534
307.795	8735
307.819	10828
307.874	16159
307.885	16822
307.929	15149
307.975	13892
307.984	14832
308.038	22741
308.065	28272
308.093	46470
308.148	90250
308.156	97570
308.202	142146
308.246	174609
308.257	167331
308.312	105942
308.336	78839
308.366	62459
308.421	38245
308.426	36013
308.475	24673
308.517	16354
308.530	15311
308.585	13028
308.607	11807
308.639	11241
308.694	11509
308.697	11515
308.748	17116
308.787	22368
308.803	22162
308.857	19170
308.877	18091
308.912	17738
308.967	17950
308.967	17934
309.021	25929
309.058	31936
309.076	40361
309.130	69589
309.148	80292
309.185	128083
309.238	201491
309.239	202478
309.293	218938
309.328	221025
309.348	195761
309.402	115278
309.418	92852
309.457	68532
309.508	40059
309.511	39543
309.566	31880
309.598	27765
309.620	29299
309.674	34231
309.688	35504
309.729	34055
309.778	31421
309.783	30887
309.837	23272
309.868	19534
309.892	23774
309.946	34671
309.959	37627
310.001	51822
310.049	65479
310.055	62906
310.109	36348
310.139	21554
310.163	17421
310.218	9778
310.229	8355
310.272	7341
310.319	6349
310.326	6179
310.381	5158
310.409	4507
310.435	4411
310.489	4487
310.499	4463
310.543	4407
310.589	4486
310.598	4577
310.652	5119
310.679	5340
310.706	5022
310.760	4253
310.769	4136
310.814	3602
310.859	3009
310.868	3045
310.923	3283
310.948	3387
310.977	3916
311.031	4945
311.038	5088
311.085	4881
311.128	4474
311.139	4510
311.193	4774
311.218	4866
311.247	4641
311.301	4132
311.308	4060
311.356	4128
311.398	4192
311.410	4177
311.464	4018
311.488	3953
311.518	3846
311.572	3556
311.578	3538
311.626	5817
311.668	7692
311.680	7560
311.734	6786
311.758	6449
311.788	6431
311.842	6389
311.847	6364
311.896	8378
311.937	10119
311.950	10157
312.004	10141
312.027	10099
312.058	8515
312.112	5631
312.117	5329
312.165	5088
312.207	4861
312.297	7184
312.386	6620
312.476	5654
312.566	13005
312.656	6787
312.745	4208
312.835	4709
312.925	5990
313.015	4925
313.104	5244
313.194	3549
313.284	4896
313.374	6450
313.463	6581
313.553	4183
313.643	3170
313.732	3589
313.822	3279
313.912	4577
314.001	5638
314.091	5302
314.180	9291
314.270	7088
314.360	7738
314.449	6512
314.539	3957
314.628	4252
314.718	4100
314.808	6277
314.897	4685
314.987	3040
315.076	4761
315.166	6650
315.255	6159
315.345	7163
315.434	6482
315.524	4996
315.613	5812
315.703	8109
315.792	8116
315.881	6838
315.971	5881
316.060	11520
316.150	14654
316.239	15399
316.328	6896
316.418	3502
316.507	3229
316.597	6499
316.686	5438
316.775	6827
316.865	15565
316.954	4391
317.043	2758
317.133	4306
317.222	3763
317.311	3553
317.400	3508
317.490	5934
317.579	8769
317.668	4428
317.757	6076
317.847	8203
317.936	11994
318.025	17699
318.114	9466
318.203	6885
318.293	12066
318.382	26995
318.471	21710
318.560	27776
318.649	57484
318.738	15265
318.828	7824
318.917	8522
319.006	9129
319.095	20906
319.184	67384
319.273	44320
319.362	23176
319.451	7378
319.540	6908
319.629	13999
319.718	29210
319.807	12675
319.896	20498
319.985	83170
320.074	38239
320.163	8064
320.252	11131
320.341	10354
320.430	11389
320.519	12731
320.608	9115
320.697	5752
320.786	6596
320.875	7709
320.964	10716
321.053	17157
321.142	23264
321.230	29496
321.319	18100
321.408	46599
321.497	21316
321.586	17778
321.675	16808
321.764	19280
321.852	12445
321.941	26443
322.030	19592
322.119	16891
322.207	48155
322.296	28160
322.385	15559
322.474	16155
322.562	54749
322.651	33398
322.740	16915
322.829	24381
322.917	21648
323.006	15816
323.095	13225
323.183	9275
323.272	14117
323.361	22106
323.449	62296
323.538	25339
323.626	40415
323.715	29813
323.804	11029
323.892	36486
323.981	29052
324.069	8583
324.158	17604
324.246	22857
324.335	9098
324.424	17281
324.512	7581
324.601	9354
324.689	12372
324.778	23555
324.866	15928
324.954	6112
325.043	5330
325.131	9166
325.220	15917
325.308	18682
325.397	14213
325.485	10063
325.574	3621
325.662	3510
325.750	4566
325.839	3922
325.927	3227
326.015	4793
326.104	5670
326.192	9692
326.280	4387
326.369	3810
326.457	6932
326.545	14219
326.634	7761
326.722	2973
326.810	3668
326.898	3555
326.987	4889
327.075	11467
327.163	12323
327.251	5551
327.340	7087
327.428	11253
327.516	3225
327.604	3402
327.692	3869
327.781	3764
327.869	6833
327.957	5040
328.045	6334
328.133	3488
328.221	3828
328.309	4671
328.397	4174
328.485	5513
328.574	7161
328.662	29290
328.750	17331
328.838	5355
328.926	3854
329.014	4356
329.102	7194
329.190	17553
329.278	13436
329.366	3581
329.454	3122
329.542	3902
329.630	3188
329.718	4132
329.806	6449
329.893	7080
329.981	9170
330.069	17584
330.157	56848
330.245	155972
330.333	100874
330.421	20564
330.509	12572
330.597	37251
330.684	30348
330.772	9323
330.860	10966
330.948	15102
331.036	7725
331.123	3138
331.211	3466
331.299	4998
331.387	11117
331.475	25341
331.562	6937
331.650	3007
331.738	3157
331.825	5559
331.913	3080
332.001	2620
332.089	4276
332.176	9447
332.264	18170
332.352	17709
332.439	7034
332.527	4848
332.614	3298
332.702	4138
332.790	4323
332.877	8117
332.965	19656
333.052	6599
333.140	5178
333.228	14410
333.315	5821
333.403	3508
333.490	10009
333.578	10803
333.665	15904
333.753	11505
333.840	3765
333.928	5530
334.015	11763
334.103	20346
334.190	76102
334.278	23690
334.365	6375
334.452	4107
334.540	2861
334.627	3695
334.715	7625
334.802	11080
334.889	57262
334.977	73219
335.064	9029
335.151	4751
335.239	5090
335.326	8977
335.413	33223
335.501	62173
335.588	8892
335.675	4523
335.762	5786
335.850	13261
335.937	7126
336.024	14196
336.111	71742
336.199	35832
336.286	5831
336.373	3892
336.460	2495
336.547	3425
336.635	4618
336.722	5436
336.809	4497
336.896	7437
336.983	22791
337.070	62022
337.157	88501
337.245	48885
337.332	38438
337.419	6112
337.506	3639
337.593	5563
337.680	17357
337.767	65962
337.854	20377
337.941	19019
338.028	17633
338.115	7961
338.202	8537
338.289	14065
338.376	46483
338.463	19797
338.550	32274
338.637	44470
338.724	10326
338.811	15014
338.898	4773
338.984	2350
339.071	5102
339.158	5929
339.245	17066
339.332	11738
339.419	10194
339.506	11686
339.593	2671
339.679	3526
339.766	3242
339.853	5085
339.940	13461
340.027	5611
340.113	4218
340.200	6729
340.287	3840
340.374	6001
340.460	12221
340.547	5188
340.634	7347
340.720	32519
340.807	24647
340.894	3217
340.980	3332
341.067	3919
341.154	4928
341.240	6309
341.327	18241
341.414	6369
341.500	5101
341.587	4821
341.674	3008
341.760	9759
341.847	15073
341.933	6142
342.020	2531
342.106	1945
342.193	3319
342.279	9742
342.366	5886
342.452	12323
342.539	6326
342.625	13365
342.712	39551
342.798	18057
342.885	7323
342.971	2671
343.058	1789
343.144	1702
343.230	2860
343.317	2618
343.403	2996
343.490	1715
343.576	1741
343.662	3329
343.749	3882
343.835	6099
343.921	9888
344.008	49153
344.094	136379
344.180	36880
344.267	11917
344.353	34393
344.439	44456
344.525	20514
344.612	10384
344.698	9608
344.784	6478
344.870	3603
344.957	3100
345.043	7132
345.129	4997
345.215	11032
345.301	6020
345.387	3282
345.474	2407
345.560	1720
345.646	3051
345.732	3827
345.818	4027
345.904	4772
345.990	4412
346.076	4111
346.162	7984
346.249	3529
346.335	2596
346.421	4170
346.507	12101
346.593	53839
346.679	17058
346.765	3814
346.851	3256
346.937	3551
347.023	2780
347.108	4397
347.194	4144
347.280	3170
347.366	3849
347.452	12211
347.538	60259
347.624	49989
347.710	43425
347.796	6554
347.882	3791
347.967	2655
348.053	5338
348.139	3640
348.225	2067
348.311	3017
348.397	2622
348.482	4202
348.568	5512
348.654	1782
348.740	1929
348.825	1902
348.911	5868
348.997	23702
349.083	60793
349.168	11619
349.254	4186
349.340	4142
349.425	2639
349.511	4171
349.597	5566
349.682	11034
349.768	40622
349.854	23161
349.939	4310
350.025	3258
350.110	4204
350.196	2620
350.282	1884
350.367	2092
350.453	3937
350.538	6001
350.624	5197
350.709	5431
350.795	2744
350.880	3414
350.966	3227
351.051	4772
351.137	4120
351.222	3810
351.308	10518
351.393	39178
351.479	11532
351.564	3396
351.649	2923
351.735	2584
351.820	2082
351.906	3273
351.991	5161
352.076	20161
352.162	40560
352.247	8559
352.332	4285
352.418	9288
352.503	11659
352.588	51005
352.673	51955
352.759	11194
352.844	5136
352.929	4559
353.014	7908
353.100	4372
353.185	4374
353.270	11487
353.355	15474
353.441	3995
353.526	4227
353.611	10749
353.696	15840
353.781	9199
353.866	4363
353.952	4220
354.037	10561
354.122	27395
354.207	26502
354.292	11135
354.377	3998
354.462	4111
354.547	5367
354.632	4924
354.717	6009
354.802	4913
354.887	3166
354.972	2211
355.057	2321
355.142	2260
355.227	3896
355.312	7746
355.397	16712
355.482	44496
355.567	24835
355.652	14849
355.737	15568
355.822	42407
355.907	46230
355.991	7503
356.076	3336
356.161	3083
356.246	3603
356.331	4410
356.416	8824
356.501	60917
356.585	81500
356.670	13023
356.755	7078
356.840	10039
356.924	37786
357.009	161523
357.094	80465
357.179	16602
357.263	10764
357.348	8265
357.433	10699
357.517	9060
357.602	7312
357.687	5347
357.771	7771
357.856	31892
357.941	23147
358.025	32002
358.110	155118
358.195	94489
358.279	15123
358.364	10287
358.448	29760
358.533	92020
358.617	72499
358.702	66060
358.787	27683
358.871	14092
358.956	12644
359.040	4179
359.125	2511
359.209	3413
359.294	13293
359.378	27827
359.462	11721
359.547	6841
359.631	3747
359.716	2519
359.800	3712
359.885	6254
359.969	5078
360.053	4263
360.138	3971
360.222	6326
360.306	12975
360.391	11128
360.475	17138
360.559	44437
360.644	36101
360.728	27192
360.812	30612
360.896	105361
360.981	52283
361.065	28558
361.149	7540
361.233	7365
361.318	4898
361.402	5691
361.486	4850
361.570	3991
361.654	5473
361.739	14262
361.823	59603
361.907	110476
361.991	23117
362.075	9651
362.159	25378
362.243	18598
362.327	10238
362.411	8633
362.495	6381
362.580	4865
362.664	2755
362.748	2957
362.832	3179
362.916	3509
363.000	11289
363.084	49691
363.168	121310
363.252	34988
363.336	10517
363.420	12900
363.503	48996
363.587	74509
363.671	14338
363.755	7550
363.839	12937
363.923	6207
364.007	12164
364.091	15204
364.175	14349
364.258	81662
364.342	49961
364.426	15802
364.510	10466
364.594	13369
364.677	17172
364.761	82731
364.845	74524
364.929	24665
365.013	19943
365.096	14576
365.180	20286
365.264	19047
365.347	88750
365.431	45669
365.515	11870
365.598	4615
365.682	4464
365.766	8948
365.849	14312
365.933	6020
366.017	8258
366.100	7979
366.184	2221
366.267	3200
366.351	2908
366.435	2055
366.518	1800
366.602	2030
366.685	2949
366.769	3698
366.852	8494
366.936	17489
367.019	9897
367.103	5627
367.186	14902
367.270	5406
367.353	1851
367.436	3934
367.520	2685
367.603	4643
367.687	6829
367.770	16207
367.853	8180
367.937	23470
368.020	49935
368.104	12631
368.187	10333
368.270	16705
368.353	15686
368.437	14977
368.520	29802
368.603	24349
368.687	30472
368.770	69865
368.853	18759
368.936	14418
369.020	17215
369.103	6252
369.186	2992
369.269	3707
369.352	9143
369.436	14319
369.519	9431
369.602	4373
369.685	5031
369.768	5600
369.851	4598
369.934	2280
370.018	4003
370.101	12247
370.184	10677
370.267	6615
370.350	13161
370.433	19962
370.516	42191
370.599	56336
370.682	15828
370.765	35633
370.848	41608
370.931	78124
371.014	35524
371.097	6947
371.180	4893
371.263	2026
371.346	990
371.429	3313
371.511	2506
371.594	8070
371.677	13831
371.760	17268
371.843	12503
371.926	51432
372.009	140881
372.091	52639
372.174	26376
372.257	67532
372.340	30176
372.423	20748
372.505	28466
372.588	11139
372.671	19054
372.754	75621
372.836	44529
372.919	23656
373.002	60739
373.085	20257
373.167	11673
373.250	30963
373.332	69550
373.415	80835
373.498	186548
373.580	80473
373.663	68445
373.746	116086
373.828	32163
373.911	12775
373.993	11616
374.076	48340
374.159	56309
374.241	20095
374.324	63778
374.406	49484
374.489	42836
374.571	145312
374.654	71956
374.736	26585
374.819	84204
374.901	120583
374.983	143467
375.066	28695
375.148	9775
375.231	33955
375.313	87399
375.395	34986
375.478	7762
375.560	4995
375.643	6448
375.725	20395
375.807	105296
375.890	90966
375.972	34180
376.054	18808
376.136	24322
376.219	12906
376.301	25139
376.383	97113
376.465	43760
376.548	24720
376.630	27130
376.712	82400
376.794	46280
376.877	6288
376.959	3068
377.041	3999
377.123	9916
377.205	15304
377.287	3041
377.369	2051
377.452	3638
377.534	3096
377.616	2731
377.698	2641
377.780	1859
377.862	3223
377.944	3244
378.026	1779
378.108	2569
378.190	2592
378.272	2590
378.354	1984
378.436	1969
378.518	4531
378.600	24472
378.682	22183
378.764	44064
378.846	41406
378.928	10508
379.010	15455
379.091	8314
379.173	4322
379.255	3180
379.337	4682
379.419	17460
379.501	65838
379.583	30521
379.664	6363
379.746	14293
379.828	44209
379.910	63812
379.991	60681
380.073	11377
380.155	5736
380.237	4807
380.318	3510
380.400	2668
380.482	8235
380.564	15369
380.645	12645
380.727	12373
380.809	8714
380.890	5194
380.972	3889
381.053	3545
381.135	4625
381.217	12954
381.298	50029
381.380	27013
381.461	16666
381.543	72863
381.624	113361
381.706	24897
381.787	10359
381.869	11012
381.951	27657
382.032	127752
382.113	99690
382.195	23316
382.276	12425
382.358	20617
382.439	71468
382.521	77394
382.602	130334
382.684	62517
382.765	104277
382.846	117163
382.928	135380
383.009	86323
383.090	54617
383.172	178412
383.253	303919
383.334	118194
383.416	115789
383.497	70223
383.578	29935
383.659	51495
383.741	157107
383.822	423669
383.903	251635
383.984	88291
384.066	146936
384.147	106751
384.228	22737
384.309	14735
384.390	10754
384.471	7387
384.553	8458
384.634	11777
384.715	14484
384.796	6340
384.877	8877
384.958	37670
385.039	58127
385.120	21637
385.201	8380
385.282	10714
385.363	10306
385.444	9588
385.525	13703
385.606	53422
385.687	56259
385.768	13706
385.849	15210
385.930	56458
386.011	116765
386.092	37783
386.173	8122
386.254	6280
386.335	6498
386.416	7159
386.496	24438
386.577	49988
386.658	19955
386.739	10308
386.820	9790
386.901	6764
386.981	6751
387.062	3953
387.143	7846
387.224	41648
387.304	46080
387.385	14734
387.466	8078
387.547	10581
387.627	6515
387.708	12219
387.789	68696
387.869	99869
387.950	29583
388.031	4677
388.111	3444
388.192	13053
388.273	21747
388.353	13358
388.434	7425
388.514	12104
388.595	58983
388.676	94193
388.756	50644
388.837	43703
388.917	31443
388.998	5823
389.078	4986
389.159	4024
389.239	3345
389.320	7743
389.400	7230
389.480	13751
389.561	47674
389.641	26688
389.722	7919
389.802	14347
389.883	16936
389.963	52310
390.043	37587
390.124	11314
390.204	13109
390.284	52761
390.365	38066
390.445	33282
390.525	92101
390.605	92184
390.686	32213
390.766	10893
390.846	5636
390.927	2509
391.007	3803
391.087	5125
391.167	4653
391.247	2808
391.328	6232
391.408	11926
391.488	9593
391.568	2543
391.648	4861
391.728	9213
391.808	7953
391.888	8916
391.969	20758
392.049	44704
392.129	19711
392.209	16185
392.289	51447
392.369	30350
392.449	24588
392.529	15636
392.609	9721
392.689	11098
392.769	44821
392.849	45063
392.929	21211
393.009	65411
393.089	47550
393.169	13753
393.248	29460
393.328	176961
393.408	239168
393.488	50600
393.568	13723
393.648	8845
393.728	6350
393.807	5113
393.887	6766
393.967	6545
394.047	10474
394.127	15213
394.206	28252
394.286	83161
394.366	328494
394.446	426134
394.525	146594
394.605	40684
394.685	23388
394.764	36644
394.844	62012
394.924	48492
395.003	15058
395.083	10349
395.163	9318
395.242	8770
395.322	8689
395.402	6443
395.481	9663
395.561	20432
395.640	67404
395.720	47805
395.799	69870
395.879	71155
395.958	49610
396.038	133787
396.117	421266
396.197	533048
396.276	236076
396.356	82838
396.435	45465
396.515	26228
396.594	20211
396.673	22768
396.753	43875
396.832	185057
396.912	184489
396.991	58718
397.070	15035
397.150	7551
397.229	6084
397.308	4103
397.388	5934
397.467	4434
397.546	3307
397.625	1845
397.705	6690
397.784	7301
397.863	3456
397.942	2314
398.022	2888
398.101	13926
398.180	61510
398.259	35586
398.338	9280
398.417	5551
398.497	3672
398.576	4134
398.655	1728
398.734	2273
398.813	2867
398.892	12456
398.971	61973
399.050	38014
399.129	4532
399.208	2536
399.287	2663
399.366	2525
399.445	1709
399.524	2134
399.603	1934
399.682	5680
399.761	16802
399.840	63212
399.919	58893
399.998	8210
400.077	2451
400.156	761
400.235	4119
400.313	2152
400.392	2770
400.471	19947
400.550	44022
400.629	12304
400.708	4281
400.786	3365
400.865	12969
400.944	17307
401.023	8582
401.102	1371
401.180	984
401.259	1869
401.338	2274
401.416	4205
401.495	3683
401.574	3512
401.652	1610
401.731	4594
401.810	2568
401.888	836
401.967	532
402.046	1619
402.124	3204
402.203	5390
402.281	3429
402.360	4094
402.438	16465
402.517	14729
402.596	4508
402.674	3212
402.753	2468
402.831	1424
402.910	2214
402.988	5721
403.066	23542
403.145	15761
403.223	6841
403.302	17540
403.380	13338
403.459	11591
403.537	5101
403.615	2812
403.694	27
403.772	1807
403.850	619
403.929	890
404.007	709
404.085	4476
404.164	2398
404.242	2614
404.320	12647
404.398	42541
404.477	46538
404.555	99836
404.633	110223
404.711	41255
404.789	21913
404.868	4775
404.946	1717
405.024	1078
405.102	1012
405.180	528
405.258	722
405.336	2262
405.415	1315
405.493	5274
405.571	4430
405.649	311
405.727	1237
405.805	4307
405.883	2779
405.961	3191
406.039	4928
406.117	955
406.195	4775
406.273	18293
406.351	87805
406.429	64499
406.507	10572
406.585	2678
406.663	3217
406.740	4525
406.818	3580
406.896	2179
406.974	2213
407.052	4464
407.130	46728
407.208	85488
407.285	18659
407.363	2510
407.441	1948
407.519	1775
407.596	2129
407.674	5066
407.752	14740
407.830	19602
407.907	10581
407.985	2261
408.063	2035
408.141	798
408.218	3546
408.296	3589
408.373	1653
408.451	3639
408.529	2355
408.606	796
408.684	329
408.762	650
408.839	508
408.917	-309
408.994	512
409.072	500
409.149	407
409.227	1936
409.304	1558
409.382	-432
409.459	-98
409.537	1065
409.614	1502
409.692	955
409.769	760
409.846	1225
409.924	2664
410.001	2202
410.079	2530
410.156	1113
410.233	2529
410.311	1591
410.388	695
410.465	1141
410.543	2785
410.620	558
410.697	1565
410.775	2814
410.852	177
410.929	1928
411.006	4181
411.083	1141
411.161	5431
411.238	7631
411.315	3645
411.392	1263
411.469	2764
411.547	3233
411.624	634
411.701	844
411.778	1440
411.855	6275
411.932	3824
412.009	1141
412.086	663
412.163	1462
412.240	2659
412.317	3471
412.394	3917
412.471	1059
412.548	278
412.625	951
412.702	1912
412.779	5368
412.856	5482
412.933	386
413.010	447
413.087	3106
413.164	19074
413.241	36834
413.318	8496
413.395	3380
413.471	6886
413.548	3337
413.625	1601
413.702	2621
413.779	2543
413.855	532
413.932	-535
414.009	150
414.086	432
414.162	710
414.239	3052
414.316	18020
414.393	52400
414.469	21294
414.546	2026
414.623	516
414.699	846
414.776	1376
414.853	1041
414.929	1387
415.006	1299
415.082	1498
415.159	1793
415.236	1389
415.312	1048
415.389	3847
415.465	6823
415.542	3013
415.618	607
415.695	4107
415.771	2497
415.848	1959
415.924	1595
416.000	1060
416.077	765
416.153	-770
416.230	-1265
416.306	-438
416.383	85
416.459	510
416.535	-328
416.612	-191
416.688	692
416.764	489
416.841	303
416.917	622
416.993	643
417.069	1996
417.146	3263
417.222	7143
417.298	3287
417.374	994
417.451	1435
417.527	2472
417.603	3167
417.679	1693
417.755	1037
417.831	573
417.908	458
417.984	349
418.060	-380
418.136	3579
418.212	8619
418.288	3058
418.364	1215
418.440	-51
418.516	2947
418.592	4028
418.668	9311
418.744	15247
418.820	12616
418.896	2424
418.972	218
419.048	553
419.124	5761
419.200	5151
419.276	600
419.352	20
419.428	-62
419.504	572
419.579	2592
419.655	1560
419.731	1140
419.807	7741
419.883	16737
419.959	13548
420.034	3101
420.110	4748
420.186	28448
420.262	28077
420.337	4155
420.413	2542
420.489	1043
420.565	481
420.640	350
420.716	687
420.792	-608
420.867	699
420.943	-380
421.019	3165
421.094	2442
421.170	806
421.245	-397
421.321	1020
421.397	199
421.472	1969
421.548	5944
421.623	6114
421.699	2071
421.774	2219
421.850	295
421.925	3836
422.001	3794
422.076	1248
422.152	875
422.227	3858
422.302	4789
422.378	3086
422.453	6756
422.529	14263
422.604	63364
422.679	178749
422.755	111106
422.830	23958
422.905	6197
422.981	2894
423.056	1890
423.131	2050
423.207	1313
423.282	859
423.357	7093
423.432	5979
423.508	2928
423.583	12253
423.658	12044
423.733	3003
423.808	3258
423.883	3998
423.959	2280
424.034	615
424.109	709
424.184	170
424.259	525
424.334	-83
424.409	512
424.484	454
424.559	437
424.634	-152
424.709	1373
424.784	4113
424.859	1648
424.934	1915
425.009	18314
425.084	37496
425.159	15030
425.234	2100
425.309	420
425.384	5563
425.459	12718
425.534	4284
425.609	1004
425.683	321
425.758	310
425.833	884
425.908	1555
425.983	8816
426.058	37473
426.132	19677
426.207	3445
426.282	5020
426.357	3958
426.431	788
426.506	1445
426.581	854
426.655	724
426.730	348
426.805	640
426.879	850
426.954	617
427.029	3445
427.103	25209
427.178	79644
427.253	42504
427.327	4305
427.402	4381
427.476	14584
427.551	8349
427.625	1450
427.700	1734
427.774	-160
427.849	1984
427.923	225
427.998	462
428.072	-5
428.147	3882
428.221	10176
428.296	22831
428.370	10811
428.444	2453
428.519	4572
428.593	11976
428.667	10585
428.742	12740
428.816	10099
428.890	17484
428.965	30044
429.039	14096
429.113	15668
429.188	5853
429.262	1277
429.336	2801
429.410	15573
429.485	11205
429.559	10221
429.633	9375
429.707	1745
429.781	3822
429.855	24590
429.930	42539
430.004	30261
430.078	57092
430.152	49209
430.226	28754
430.300	31374
430.374	5031
430.448	2457
430.522	12870
430.596	57656
430.670	35972
430.744	38294
430.818	83926
430.892	23031
430.966	2988
431.040	1144
431.114	469
431.188	-778
431.262	-57
431.336	476
431.410	3512
431.484	16275
431.557	12687
431.631	733
431.705	359
431.779	1666
431.853	12484
431.927	11502
432.000	731
432.074	415
432.148	1415
432.222	1745
432.295	-24
432.369	640
432.443	2807
432.516	22317
432.590	77847
432.664	35104
432.737	4349
432.811	-140
432.885	526
432.958	-267
433.032	13
433.106	-622
433.179	270
433.253	749
433.326	-33
433.400	-337
433.473	-484
433.547	-259
433.620	-530
433.694	2433
433.767	3134
433.841	-60
433.914	-466
433.988	-533
434.061	157
434.134	-213
434.208	-608
434.281	-857
434.355	-139
434.428	347
434.501	-123
434.575	208
434.648	8
434.721	-356
434.795	-176
434.868	-522
434.941	-890
435.014	-911
435.088	-246
435.161	976
435.234	1860
435.307	3531
435.381	1506
435.454	-22
435.527	-22
435.600	23
435.673	-684
435.746	-191
435.819	-180
435.892	-8
435.966	-675
436.039	-521
436.112	489
436.185	-551
436.258	-334
436.331	-1303
436.404	-411
436.477	-774
436.550	-457
436.623	-559
436.696	-1473
436.769	92
436.842	-322
436.915	511
436.987	955
437.060	-436
437.133	-316
437.206	-791
437.279	507
437.352	-417
437.425	-388
437.498	860
437.570	3333
437.643	3803
437.716	94
437.789	-70
437.861	1910
437.934	9230
438.007	4227
438.080	16
438.152	623
438.225	3802
438.298	26640
438.370	99131
438.443	49042
438.516	11028
438.588	2566
438.661	74
438.734	-124
438.806	1014
438.879	1916
438.951	1501
439.024	5064
439.096	1241
439.169	437
439.241	-25
439.314	-499
439.386	1397
439.459	2026
439.531	4692
439.604	1104
439.676	500
439.749	-814
439.821	-987
439.893	-675
439.966	-170
440.038	-177
440.110	1818
440.183	48
440.255	-184
440.327	1717
440.400	10352
440.472	60975
440.544	49329
440.617	5925
440.689	2971
440.761	3637
440.833	7563
440.905	4591
440.978	-174
441.050	-766
441.122	141
441.194	-698
441.266	-840
441.338	-617
441.411	1233
441.483	16398
441.555	33814
441.627	6797
441.699	2705
441.771	2617
441.843	33
441.915	-68
441.987	-262
442.059	-1072
442.131	386
442.203	1802
442.275	2298
442.347	1839
442.419	304
442.491	3329
442.563	9857
442.635	7206
442.706	13024
442.778	13289
442.850	598
442.922	-973
442.994	159
443.066	2085
443.137	1357
443.209	-269
443.281	113
443.353	1830
443.425	6198
443.496	18462
443.568	17523
443.640	6174
443.711	2088
443.783	-223
443.855	484
443.926	-420
443.998	-26
444.070	1606
444.141	1012
444.213	2335
444.285	3905
444.356	1189
444.428	1678
444.499	170
444.571	-976
444.642	-4
444.714	-230
444.785	2417
444.857	2032
444.928	9116
445.000	5131
445.071	4734
445.143	7059
445.214	1907
445.285	2766
445.357	13951
445.428	18558
445.500	39171
445.571	29083
445.642	11469
445.714	7600
445.785	16628
445.856	3495
445.928	4176
445.999	3187
446.070	2056
446.141	2127
446.213	3341
446.284	1244
446.355	1462
446.426	1020
446.497	189
446.569	2056
446.640	4407
446.711	3271
446.782	293
446.853	1126
446.924	1435
446.995	1019
447.066	326
447.138	2804
447.209	1446
447.280	-19
447.351	-356
447.422	-768
447.493	1233
447.564	1847
447.635	2596
447.706	805
447.777	-133
447.847	-196
447.918	-782
447.989	651
448.060	1818
448.131	6306
448.202	5340
448.273	3632
448.344	1480
448.414	273
448.485	261
448.556	282
448.627	7
448.698	643
448.768	-798
448.839	-159
448.910	2353
448.981	3136
449.051	287
449.122	-143
449.193	-783
449.263	-214
449.334	-193
449.405	852
449.475	4618
449.546	2754
449.616	4259
449.687	2980
449.758	842
449.828	582
449.899	-237
449.969	-179
450.040	-864
450.110	830
450.181	469
450.251	-232
450.322	-253
450.392	1148
450.463	263
450.533	-10
450.604	241
450.674	-258
450.744	98
450.815	365
450.885	457
450.955	-15
451.026	-327
451.096	-489
451.166	652
451.237	2120
451.307	10937
451.377	3471
451.447	-300
451.518	-125
451.588	-185
451.658	515
451.728	1503
451.799	9690
451.869	13704
451.939	2923
452.009	-110
452.079	503
452.149	430
452.219	1073
452.289	11583
452.360	9744
452.430	1418
452.500	789
452.570	1985
452.640	1362
452.710	4772
452.780	11793
452.850	7301
452.920	8251
452.990	2663
453.060	910
453.129	2451
453.199	2857
453.269	10071
453.339	30870
453.409	51718
453.479	42990
453.549	68177
453.619	76353
453.688	29836
453.758	4413
453.828	1257
453.898	380
453.968	288
454.037	428
454.087	177
454.107	57
454.168	-136
454.177	-185
454.247	526
454.249	519
454.316	-64
454.330	80
454.386	614
454.411	2149
454.456	4527
454.492	7705
454.525	10534
454.574	5233
454.595	2911
454.655	1090
454.665	792
454.734	533
454.736	605
454.804	2413
454.817	3892
454.873	9657
454.898	11040
454.943	13400
454.979	8073
455.013	3293
455.060	2121
455.082	1679
455.141	2274
455.152	2346
455.221	6209
455.222	6370
455.291	17274
455.303	16836
455.360	13971
455.384	21961
455.430	36027
455.465	28393
455.499	21012
455.546	14714
455.569	11735
455.627	7974
455.638	7332
455.707	1503
455.708	1519
455.777	730
455.789	766
455.846	736
455.869	782
455.916	910
455.950	756
455.985	559
456.031	767
456.054	778
456.112	808
456.124	848
456.193	494
456.193	474
456.262	442
456.274	650
456.332	1597
456.355	1672
456.401	1654
456.436	1223
456.470	804
456.516	883
456.540	906
456.597	669
456.609	605
456.678	634
456.678	620
456.747	917
456.759	804
456.817	299
456.840	494
456.886	774
456.920	892
456.955	917
457.001	712
457.024	652
457.082	1201
457.093	1276
457.162	1546
457.163	1560
457.232	1535
457.243	1580
457.301	1554
457.324	1238
457.370	639
457.405	749
457.439	824
457.485	1091
457.508	1353
457.566	1500
457.577	1444
457.646	1719
457.647	1726
457.715	1334
457.727	1476
457.784	1680
457.808	1779
457.853	2098
457.889	2449
457.922	2662
457.969	2325
457.991	2224
458.050	2892
458.060	2944
458.129	2937
458.130	2954
458.198	2827
458.211	2748
458.267	2226
458.292	1989
458.336	1674
458.372	1496
458.405	1518
458.453	1625
458.474	1703
458.533	2998
458.543	3181
458.611	4150
458.614	4206
458.680	4721
458.694	4410
458.749	2938
458.775	2574
458.818	2054
458.855	1792
458.887	1741
458.936	1847
458.955	1781
459.016	1422
459.024	1430
459.093	2229
459.097	2272
459.162	2584
459.177	2589
459.230	2650
459.257	2930
459.299	3517
459.338	3684
459.368	3573
459.418	3795
459.437	3758
459.499	3074
459.505	3020
459.574	2443
459.579	2432
459.643	2399
459.659	2441
459.711	2533
459.740	2816
459.780	3180
459.820	2964
459.849	2960
459.900	3503
459.917	3526
459.981	3619
459.986	3634
460.054	3510
460.061	3514
460.123	3381
460.141	3458
460.191	4420
460.222	4615
460.260	4485
460.302	5349
460.328	5510
460.382	4897
460.397	4716
460.462	3871
460.465	3887
460.534	4548
460.543	4649
460.602	8898
460.623	10631
460.671	16089
460.703	21247
460.739	21912
460.783	21835
460.808	19007
460.864	6012
460.876	4931
460.944	3782
460.945	3767
461.013	3399
461.024	3376
461.081	3801
461.104	3919
461.150	3565
461.184	3393
461.218	3580
461.264	3861
461.286	3870
461.345	3437
461.355	3366
461.423	3702
461.425	3704
461.491	3850
461.505	3947
461.559	5222
461.585	5605
461.628	8142
461.665	10903
461.696	12184
461.745	16510
461.764	15645
461.825	7293
461.832	6974
461.901	4153
461.905	4112
461.969	3738
461.985	3679
462.037	4414
462.065	4609
462.105	4074
462.145	4043
462.173	5298
462.225	7092
462.241	7425
462.305	10343
462.310	10280
462.378	8499
462.385	8038
462.446	5153
462.465	4515
462.514	4220
462.545	4395
462.582	4483
462.625	4721
462.650	4806
462.705	4487
462.718	4444
462.785	4501
462.786	4522
462.854	5512
462.865	5724
462.922	6521
462.945	6979
462.990	6454
463.025	5550
463.058	5140
463.104	4364
463.126	4210
463.184	4414
463.194	4524
463.262	4830
463.264	4857
463.330	4705
463.344	4606
463.398	5205
463.424	5361
463.466	5004
463.504	5004
463.533	5200
463.583	5203
463.601	5165
463.663	5263
463.669	5380
463.737	6547
463.743	6673
463.805	8112
463.823	8428
463.873	11822
463.903	14104
463.940	15163
463.982	16930
464.008	15220
464.062	9962
464.076	9280
464.142	5281
464.144	5259
464.211	5278
464.221	5296
464.279	5390
464.301	5481
464.347	5644
464.381	5851
464.414	6185
464.461	6275
464.482	6579
464.540	7642
464.550	7566
464.617	6911
464.620	6875
464.685	7499
464.699	7646
464.753	9476
464.779	10381
464.820	11493
464.859	12571
464.888	12129
464.938	11261
464.956	11444
465.018	11810
465.023	11730
465.091	10478
465.098	10348
465.158	9990
465.177	9866
465.226	10265
465.257	10474
465.293	10520
465.336	10440
465.361	10457
465.416	10701
465.428	11198
465.495	13500
465.496	13552
465.563	18249
465.575	19072
465.631	23143
465.654	25065
465.698	19412
465.734	13825
465.765	12291
465.813	10096
465.833	10123
465.893	10545
465.900	10544
465.968	10449
465.972	10411
466.035	10490
466.052	10529
466.102	11310
466.131	11731
466.170	11289
466.210	10697
466.237	11121
466.290	11967
466.304	12109
466.369	12575
466.372	12620
466.439	13310
466.449	13370
466.506	13322
466.528	13290
466.573	15212
466.607	16591
466.641	20616
466.687	26154
466.708	28584
466.766	35379
466.775	33817
466.842	21546
466.845	20915
466.909	16360
466.925	15298
466.977	14958
467.004	14790
467.044	15607
467.083	16368
467.111	17104
467.163	18377
467.178	19320
467.242	23084
467.245	22952
467.312	19263
467.321	18737
467.379	18946
467.400	18964
467.446	18599
467.480	18268
467.559	17976
467.638	15585
467.717	15950
467.796	15615
467.875	16372
467.955	15217
468.034	17774
468.113	30219
468.192	41433
468.271	21609
468.350	12845
468.429	13720
468.508	13482
468.588	12247
468.667	13396
468.746	13105
468.825	13651
468.904	11665
468.983	12227
469.062	15584
469.141	19147
469.220	13078
469.299	13276
469.378	13321
469.456	17217
469.535	17870
469.614	14342
469.693	13958
469.772	16548
469.851	17726
469.930	16395
470.009	13732
470.088	13191
470.166	13228
470.245	13812
470.324	14675
470.403	14907
470.482	12722
470.560	13229
470.639	12604
470.718	13757
470.797	12634
470.875	13563
470.954	14644
471.033	16643
471.111	12531
471.190	11616
471.269	9773
471.347	11476
471.426	12092
471.505	14099
471.583	14335
471.662	14530
471.740	12979
471.819	12868
471.898	11818
471.976	12829
472.055	11083
472.133	12568
472.212	14591
472.290	15023
472.369	12928
472.447	12610
472.526	12084
472.604	12262
472.683	11258
472.761	11770
472.839	11111
472.918	11409
472.996	11249
473.075	11712
473.153	11695
473.231	10853
473.310	12976
473.388	13415
473.466	11901
473.545	13036
473.623	16089
473.701	14465
473.780	12896
473.858	10901
473.936	12269
474.014	12061
474.093	10777
474.171	12938
474.249	15690
474.327	14723
474.405	11427
474.484	10759
474.562	10926
474.640	11114
474.718	11424
474.796	12108
474.874	12815
474.952	11961
475.030	11181
475.108	11825
475.187	12859
475.265	12671
475.343	13213
475.421	14367
475.499	11971
475.577	11917
475.655	12677
475.733	17420
475.811	24911
475.889	24774
475.966	21084
476.044	10863
476.122	10392
476.200	11008
476.278	10700
476.356	10124
476.434	10276
476.512	11065
476.590	10262
476.667	12186
476.745	10286
476.823	11115
476.901	11081
476.979	10461
477.056	10141
477.134	10433
477.212	10689
477.290	10743
477.367	10893
477.445	9730
477.523	9327
477.601	10766
477.678	9041
477.756	10911
477.834	11305
477.911	9635
477.989	9480
478.066	10065
478.144	9903
478.222	10130
478.299	9989
478.377	10651
478.454	9608
478.532	8156
478.609	9418
478.687	10476
478.764	9207
478.842	9719
478.919	10199
478.997	10197
479.074	8909
479.152	10248
479.229	10343
479.307	9882
479.384	7966
479.461	9133
479.539	7986
479.616	10165
479.694	9174
479.771	9115
479.848	9643
479.926	9421
480.003	12749
480.080	8743
480.157	7959
480.235	8784
480.312	8300
480.389	9911
480.467	11212
480.544	13436
480.621	10416
480.698	10281
480.775	10771
480.853	10806
480.930	9399
481.007	9096
481.084	9411
481.161	10327
481.238	11001
481.315	8866
481.392	9580
481.470	9382
481.547	7935
481.624	9562
481.701	8997
481.778	8683
481.855	8891
481.932	11072
482.009	15212
482.086	14781
482.163	8933
482.240	8507
482.317	9664
482.393	10410
482.470	8808
482.547	9701
482.624	9573
482.701	9374
482.778	8434
482.855	8133
482.932	8564
483.009	8366
483.085	8574
483.162	9322
483.239	8408
483.316	8481
483.393	8242
483.469	7937
483.546	8344
483.623	9082
483.699	7976
483.776	9463
483.853	8344
483.930	10962
484.006	21418
484.083	37284
484.160	34812
484.236	53904
484.313	47374
484.389	33825
484.466	28360
484.543	26991
484.619	27021
484.696	26631
484.772	27352
484.849	28813
484.925	25415
485.002	25936
485.078	26383
485.155	26224
485.231	24802
485.308	24801
485.384	25040
485.461	25622
485.537	31437
485.614	37781
485.690	26062
485.766	23293
485.843	23051
485.919	26779
485.995	29183
486.072	21984
486.148	21677
486.224	22098
486.301	20967
486.377	24212
486.453	24004
486.530	24707
486.606	30127
486.682	36905
486.758	34071
486.835	35334
486.911	29983
486.987	37277
487.063	43373
487.139	47643
487.215	40711
487.292	29856
487.368	24793
487.444	24017
487.520	25579
487.596	25764
487.672	23899
487.748	27582
487.824	31387
487.900	27576
487.976	21892
488.052	23094
488.128	27051
488.204	24257
488.280	22670
488.356	22958
488.432	30113
488.508	45648
488.584	29235
488.660	20477
488.736	20120
488.812	19789
488.888	24491
488.964	27806
489.039	38411
489.115	59749
489.191	49902
489.267	22960
489.343	20437
489.418	19484
489.494	18602
489.570	17560
489.646	19583
489.722	18058
489.797	18612
489.873	20480
489.949	33211
490.024	36294
490.100	18113
490.176	18539
490.251	18176
490.327	20793
490.403	18423
490.478	17417
490.554	15519
490.629	15997
490.705	14449
490.781	16439
490.856	15447
490.932	17106
491.007	17203
491.083	17329
491.158	15867
491.234	17500
491.309	25232
491.385	31399
491.460	18059
491.536	16694
491.611	16830
491.686	15183
491.762	18246
491.837	25433
491.913	40609
491.988	51117
492.063	73423
492.139	34556
492.214	20079
492.289	15223
492.365	12993
492.440	15407
492.515	14101
492.590	15798
492.666	13189
492.741	15233
492.816	18418
492.891	15304
492.967	13808
493.042	11879
493.117	13018
493.192	14459
493.267	17216
493.342	44387
493.418	74575
493.493	28774
493.568	12587
493.643	11458
493.718	13251
493.793	15818
493.868	19497
493.943	15413
494.018	13510
494.093	12725
494.168	11669
494.243	12842
494.318	11067
494.393	11243
494.468	10415
494.543	11118
494.618	12312
494.693	12676
494.768	10615
494.842	12762
494.917	10884
494.992	11456
495.067	11901
495.142	10939
495.217	11905
495.292	12114
495.366	12698
495.441	14826
495.516	17068
495.591	19829
495.665	39813
495.740	102093
495.815	81759
495.890	19897
495.964	13133
496.039	16541
496.114	13978
496.188	14712
496.263	16572
496.338	13972
496.412	15082
496.487	19469
496.561	17337
496.636	18808
496.710	16664
496.785	16738
496.860	18238
496.934	17472
497.009	17012
497.083	18470
497.158	18441
497.232	21202
497.307	23074
497.381	23728
497.455	23137
497.530	28829
497.604	25953
497.679	25801
497.753	33002
497.827	41874
497.902	43524
497.976	44843
498.050	58647
498.125	163192
498.199	251380
498.273	75311
498.348	50226
498.422	44588
498.496	42045
498.570	38631
498.645	31917
498.719	29937
498.793	30712
498.867	33317
498.941	37517
499.016	65172
499.090	186458
499.164	137276
499.238	24070
499.312	19149
499.386	20170
499.460	21836
499.534	17332
499.609	18512
499.683	23004
499.757	23921
499.831	29360
499.905	106697
499.979	164739
500.053	35817
500.127	26095
500.201	21108
500.275	16622
500.349	15845
500.422	15292
500.496	18409
500.570	29553
500.644	65261
500.718	139242
500.792	69014
500.866	15297
500.940	16182
501.013	15889
501.087	14117
501.161	20606
501.235	28965
501.309	36683
501.382	102550
501.456	146173
501.530	36086
501.603	40505
501.677	30144
501.751	10935
501.825	13792
501.898	17316
501.972	44481
502.046	49955
502.119	14224
502.193	20285
502.266	50368
502.340	43692
502.413	22734
502.487	47167
502.561	35153
502.634	16222
502.708	11541
502.781	10491
502.855	10957
502.928	9169
503.002	9405
503.075	7927
503.149	9684
503.222	9362
503.295	9552
503.369	10958
503.442	13312
503.516	27033
503.589	79951
503.662	79464
503.736	26183
503.809	35651
503.882	44790
503.956	43589
504.029	62088
504.102	22580
504.175	20152
504.249	13021
504.322	10213
504.395	11317
504.468	10094
504.542	8675
504.615	8199
504.688	8083
504.761	7682
504.834	9670
504.907	10950
504.980	16225
505.053	12555
505.127	10426
505.200	15824
505.273	11747
505.346	10769
505.419	8263
505.492	9295
505.565	6903
505.638	7270
505.711	7095
505.784	6614
505.857	7510
505.930	8828
506.003	7016
506.076	10108
506.149	9167
506.221	12243
506.294	10476
506.367	16328
506.440	58870
506.513	62734
506.586	13574
506.659	9468
506.731	8333
506.804	8668
506.877	10355
506.950	10076
507.022	8318
507.095	8553
507.168	10739
507.241	8632
507.313	6845
507.386	6952
507.459	9281
507.531	9248
507.604	6189
507.677	7773
507.749	6976
507.822	9318
507.894	16355
507.967	26658
508.040	17918
508.112	14075
508.185	13459
508.257	12431
508.330	16546
508.402	13773
508.475	11342
508.547	13290
508.620	11331
508.692	16175
508.765	14082
508.837	11411
508.909	10511
508.982	11162
509.054	10578
509.127	10814
509.199	8910
509.271	9403
509.344	9831
509.416	9742
509.488	10129
509.560	10513
509.633	10133
509.705	12097
509.777	11808
509.849	14274
509.922	13756
509.994	11909
510.066	12482
510.138	12225
510.210	22281
510.283	25014
510.355	18987
510.427	17123
510.499	14511
510.571	14653
510.643	14260
510.715	18060
510.787	19307
510.859	15440
510.931	15154
511.003	19675
511.076	20489
511.148	14849
511.219	13762
511.291	17041
511.363	20518
511.435	14210
511.507	12676
511.579	13424
511.651	12643
511.723	13046
511.795	11857
511.867	11139
511.939	11757
512.010	16507
512.082	19272
512.154	12433
512.226	12248
512.298	15814
512.369	26393
512.441	21969
512.513	18663
512.585	16153
512.656	15766
512.728	17168
512.800	15578
512.871	13703
512.943	13882
513.015	12439
513.086	12756
513.158	14335
513.230	13206
513.301	14501
513.373	17412
513.444	14977
513.516	11944
513.588	12145
513.659	12614
513.731	14287
513.802	13856
513.874	17841
513.945	29619
514.016	21020
514.088	13166
514.159	13121
514.231	15598
514.302	22054
514.374	19774
514.445	17020
514.516	20979
514.588	23774
514.659	15810
514.730	20744
514.802	22924
514.873	18364
514.944	24374
515.016	19730
515.087	19238
515.158	19212
515.229	26908
515.301	21878
515.372	28394
515.443	26420
515.514	20427
515.585	15569
515.656	14784
515.728	13897
515.799	11987
515.870	12827
515.941	13014
516.012	13085
516.083	17384
516.154	17219
516.225	17797
516.296	19482
516.367	15889
516.438	16591
516.509	18683
516.580	22063
516.651	40931
516.722	142639
516.793	148691
516.864	31741
516.935	25805
517.006	24505
517.077	29500
517.148	50710
517.219	119985
517.289	300015
517.360	141931
517.431	62374
517.502	18204
517.573	17263
517.643	15814
517.714	17762
517.785	18683
517.856	17055
517.926	18895
517.997	20293
518.068	23272
518.138	27863
518.209	32819
518.280	75445
518.350	324977
518.421	295185
518.492	43391
518.562	21707
518.633	17186
518.703	14960
518.774	16153
518.845	17856
518.915	20336
518.986	17026
519.056	17254
519.127	25807
519.197	35159
519.268	73593
519.338	82135
519.408	21554
519.479	21522
519.549	19173
519.620	13494
519.690	11679
519.760	12855
519.831	11922
519.901	12785
519.971	11099
520.042	11235
520.112	12305
520.182	13722
520.253	15882
520.323	12125
520.393	15281
520.463	24689
520.534	17118
520.604	30205
520.674	22902
520.744	14458
520.814	26902
520.885	35845
520.955	24386
521.025	80946
521.095	70959
521.165	15067
521.235	12230
521.305	11587
521.375	11993
521.445	11951
521.515	13133
521.585	14438
521.655	15551
521.725	12672
521.795	13244
521.865	9035
521.935	14170
522.005	14040
522.075	10034
522.145	10089
522.215	10642
522.285	13089
522.355	15036
522.424	23798
522.494	27241
522.564	16939
522.634	20111
522.704	59820
522.774	50171
522.843	12301
522.913	10673
522.983	11280
523.053	11659
523.122	10526
523.192	11095
523.262	24288
523.331	43647
523.401	15373
523.471	8741
523.540	8825
523.610	8746
523.680	8652
523.749	9989
523.819	9660
523.888	11224
523.958	8273
524.027	9215
524.097	9652
524.166	9012
524.236	8524
524.305	10915
524.375	8801
524.444	8246
524.514	10144
524.583	8947
524.653	10000
524.722	12400
524.791	10142
524.861	9166
524.930	8349
524.999	8778
525.069	10701
525.138	10496
525.207	11426
525.277	10487
525.346	9077
525.415	9427
525.484	8637
525.554	9486
525.623	9649
525.692	9164
525.761	8848
525.830	9076
525.900	8692
525.969	8995
526.038	10912
526.107	10093
526.176	17921
526.245	20889
526.314	15536
526.383	18369
526.452	18348
526.522	23737
526.591	37056
526.660	34176
526.729	23263
526.797	19073
526.867	28532
526.935	139272
527.004	180833
527.073	80322
527.142	16079
527.211	9732
527.280	9943
527.349	11588
527.418	7585
527.487	8372
527.555	7191
527.624	7096
527.693	6575
527.762	8378
527.831	5900
527.899	7635
527.968	7086
528.037	6430
528.106	8128
528.174	12577
528.243	12925
528.312	13394
528.380	19531
528.449	10032
528.518	8567
528.586	6381
528.655	7366
528.723	7366
528.792	6194
528.861	7286
528.929	6090
528.998	8382
529.066	6246
529.135	7026
529.203	6256
529.272	5862
529.340	7045
529.409	8111
529.477	6701
529.545	7667
529.614	10354
529.682	8268
529.751	10318
529.819	10739
529.887	8839
529.956	7342
530.024	7022
530.092	6881
530.161	7359
530.229	9536
530.297	7778
530.365	7695
530.434	6275
530.502	6175
530.570	7039
530.638	4925
530.707	6477
530.775	9833
530.843	7412
530.911	6686
530.979	5946
531.047	6571
531.115	7462
531.183	6856
531.252	6904
531.320	7270
531.388	6556
531.456	7091
531.524	6748
531.592	6759
531.660	7750
531.728	6149
531.796	6374
531.864	6459
531.932	7416
532.000	6124
532.067	7425
532.135	8481
532.203	10481
532.271	8835
532.339	12616
532.407	25476
532.475	27216
532.542	14462
532.610	12605
532.678	14199
532.746	37288
532.814	147627
532.881	70995
532.949	13472
533.017	9533
533.084	7894
533.152	8146
533.220	8130
533.287	7530
533.355	8174
533.423	6248
533.490	7333
533.558	7321
533.625	8566
533.693	7672
533.761	9609
533.828	9514
533.896	9352
533.963	13960
534.031	19401
534.098	23026
534.166	17500
534.233	10039
534.300	10987
534.368	11147
534.435	9707
534.503	10345
534.570	10108
534.637	9233
534.705	8556
534.772	8341
534.840	8169
534.907	11831
534.974	17172
535.041	9722
535.109	9115
535.176	7964
535.243	7883
535.310	7591
535.378	6893
535.445	7152
535.512	7580
535.579	7995
535.646	7313
535.714	7855
535.781	10694
535.848	10656
535.915	11599
535.982	12647
536.049	12986
536.116	13257
536.183	10100
536.250	10560
536.317	9819
536.384	10040
536.451	12270
536.518	12646
536.585	9801
536.652	12059
536.719	14532
536.786	11559
536.853	11506
536.920	12696
536.987	18468
537.053	17863
537.120	56712
537.187	95058
537.254	17044
537.321	8366
537.388	8985
537.454	7142
537.521	7857
537.588	6931
537.654	9284
537.721	11041
537.788	10811
537.855	9333
537.921	8609
537.988	9094
538.055	9204
538.121	7970
538.188	9225
538.254	10583
538.321	16966
538.388	15495
538.454	9642
538.521	8554
538.587	7829
538.654	7763
538.720	8040
538.787	7529
538.853	7732
538.920	8911
538.986	10098
539.053	9027
539.119	9333
539.185	8851
539.252	10757
539.318	12450
539.385	13915
539.451	11772
539.517	13834
539.583	12484
539.650	17194
539.716	59102
539.782	33527
539.849	10729
539.915	9822
539.981	9655
540.047	10597
540.114	9950
540.180	11083
540.246	9089
540.312	11936
540.378	15744
540.444	21520
540.510	20104
540.576	61537
540.643	41312
540.709	10035
540.775	8918
540.841	9217
540.907	11392
540.973	17431
541.039	17276
541.105	15175
541.171	11433
541.237	9226
541.303	10048
541.369	11923
541.435	11289
541.500	14679
541.566	13353
541.632	10523
541.698	8913
541.764	8747
541.830	8096
541.896	7972
541.961	10171
542.027	8864
542.093	8969
542.159	10660
542.224	9624
542.290	13144
542.356	16288
542.421	20466
542.487	14206
542.553	11070
542.618	12479
542.684	11517
542.750	10296
542.815	12179
542.881	14262
542.947	45852
543.012	65857
543.078	13189
543.143	9473
543.209	10231
543.274	10176
543.340	12862
543.405	17167
543.471	43381
543.536	17558
543.602	10218
543.667	8707
543.732	10326
543.798	8401
543.863	10515
543.928	8451
543.994	8915
544.059	8692
544.124	9454
544.190	8625
544.255	10787
544.320	9978
544.386	9871
544.451	12183
544.516	14300
544.581	12526
544.646	27395
544.712	69092
544.777	24790
544.842	12385
544.907	12768
544.972	12095
545.037	11744
545.102	11981
545.168	11405
545.233	12776
545.298	13799
545.363	14456
545.428	16051
545.493	18600
545.558	45036
545.623	34243
545.688	12618
545.753	12033
545.818	11465
545.883	11923
545.947	11955
546.012	11824
546.077	12729
546.142	12847
546.207	11625
546.272	12661
546.337	13359
546.401	13614
546.466	12028
546.531	11040
546.596	13567
546.661	11999
546.725	12897
546.790	10306
546.855	11030
546.919	9100
546.984	11421
547.049	11185
547.113	11517
547.178	11708
547.243	11903
547.307	12670
547.372	13699
547.436	14888
547.501	12527
547.565	11787
547.630	13392
547.695	13909
547.759	14913
547.823	13486
547.888	11732
547.952	10300
548.017	11990
548.081	12884
548.146	15074
548.210	15350
548.274	11968
548.339	11542
548.403	12294
548.468	10328
548.532	11524
548.596	10326
548.660	11819
548.725	12424
548.789	12890
548.853	16090
548.917	13088
548.982	13659
549.046	17583
549.110	11717
549.174	10729
549.238	10631
549.303	10822
549.367	12220
549.431	11597
549.495	11363
549.559	11089
549.623	11527
549.687	12775
549.751	18147
549.815	16025
549.879	13841
549.943	11505
550.007	12615
550.071	12752
550.135	15971
550.199	15541
550.263	12816
550.327	12833
550.391	15424
550.455	14340
550.519	12526
550.582	14331
550.646	15479
550.710	20772
550.774	14048
550.838	13047
550.901	12434
550.965	14850
551.029	13971
551.093	15549
551.156	15711
551.220	24901
551.284	35585
551.347	19397
551.411	25933
551.475	44816
551.538	18697
551.602	13537
551.666	13225
551.729	11669
551.793	12430
551.856	12927
551.920	12966
551.983	13698
552.047	12306
552.110	12185
552.174	12110
552.237	12451
552.301	11341
552.364	11609
552.428	11459
552.491	11342
552.554	12396
552.618	11663
552.681	12971
552.745	12123
552.808	14745
552.871	19810
552.934	17987
552.998	14305
553.061	14414
553.124	14591
553.187	15508
553.251	16147
553.314	18344
553.377	18707
553.440	24054
553.503	59636
553.567	173879
553.630	59976
553.693	16857
553.756	14400
553.819	12439
553.882	11686
553.945	12282
554.008	11471
554.071	10142
554.134	12338
554.197	10895
554.260	10432
554.323	11925
554.386	12627
554.449	11713
554.512	12147
554.575	10618
554.638	11304
554.701	11382
554.764	11324
554.827	11034
554.889	11187
554.952	9547
555.015	9901
555.078	10070
555.141	11666
555.203	9672
555.266	9970
555.329	10799
555.391	10783
555.454	9895
555.517	11317
555.580	10453
555.642	9777
555.705	9582
555.768	10057
555.830	10922
555.893	10019
555.955	9360
556.018	9876
556.080	10908
556.143	10571
556.206	8909
556.268	11254
556.330	11040
556.393	11372
556.455	10828
556.518	12186
556.580	15318
556.643	11093
556.705	10368
556.767	9860
556.830	10340
556.892	11677
556.955	13779
557.017	14557
557.079	10504
557.142	11347
557.204	9538
557.266	16838
557.328	19984
557.391	10787
557.453	9412
557.515	10100
557.577	10870
557.639	12667
557.701	10852
557.764	8810
557.826	9353
557.888	10637
557.950	9651
558.012	10094
558.074	9885
558.136	11351
558.198	18076
558.260	16216
558.322	10368
558.384	10330
558.446	11518
558.508	11431
558.570	13416
558.632	18123
558.694	29766
558.756	22232
558.818	23923
558.880	72151
558.942	46244
559.003	20032
559.065	17647
559.127	12531
559.189	10453
559.251	12016
559.312	12554
559.374	15906
559.436	38387
559.498	39943
559.559	12493
559.621	12198
559.683	11496
559.744	14423
559.806	24071
559.868	39846
559.929	20943
559.991	13532
560.052	14220
560.114	18031
560.176	19385
560.237	15346
560.299	21537
560.360	16456
560.422	12161
560.483	12586
560.545	11430
560.606	11350
560.667	10028
560.729	10652
560.790	10248
560.852	11636
560.913	10418
560.974	11440
561.036	10310
561.097	10373
561.158	11246
561.220	11691
561.281	11027
561.342	11596
561.403	13125
561.465	14405
561.526	22214
561.587	38655
561.648	19339
561.709	12234
561.771	13424
561.832	11320
561.893	11161
561.954	12722
562.015	11737
562.076	11777
562.137	11741
562.198	12221
562.259	12217
562.320	11503
562.381	12615
562.442	15298
562.503	14659
562.564	12416
562.625	12057
562.686	11533
562.747	12043
562.808	12747
562.869	12575
562.930	13505
562.991	14603
563.051	13363
563.112	12740
563.173	13232
563.234	11020
563.294	12257
563.355	12000
563.416	13089
563.477	11740
563.537	12415
563.598	13341
563.659	12491
563.720	12749
563.780	13784
563.841	13355
563.901	13454
563.962	11722
564.023	11517
564.083	12202
564.144	12213
564.204	12951
564.265	12603
564.325	13167
564.386	17393
564.446	22396
564.507	14096
564.567	12246
564.628	13930
564.688	13237
564.749	13352
564.809	13446
564.869	16006
564.930	14337
564.990	13822
565.050	12767
565.111	13862
565.171	13199
565.231	13310
565.292	13357
565.352	12971
565.412	13871
565.472	14318
565.532	13883
565.593	14466
565.653	14165
565.713	14645
565.773	15592
565.833	15316
565.893	18380
565.953	16187
566.013	14660
566.074	16223
566.134	17951
566.194	22132
566.254	24512
566.314	22015
566.374	17486
566.434	19232
566.494	18828
566.554	19598
566.614	20010
566.673	20763
566.733	22750
566.793	22702
566.853	23643
566.913	23956
566.973	25662
567.033	25759
567.092	24515
567.152	24956
567.212	25412
567.272	25564
567.331	26291
567.391	27542
567.451	28835
567.511	30801
567.570	32124
567.630	28555
567.690	25829
567.749	26505
567.809	27450
567.868	30917
567.928	33651
567.988	39194
568.047	46221
568.107	53407
568.166	67967
568.226	94435
568.285	131987
568.345	138323
568.404	124386
568.464	111977
568.523	103532
568.582	99714
568.642	104438
568.701	120367
568.761	149950
568.820	213287
568.879	246969
568.939	218067
568.998	177069
569.057	140422
569.116	115442
569.176	94899
569.235	79469
569.294	68127
569.353	57861
569.413	51273
569.472	46036
569.531	41167
569.590	36407
569.649	34081
569.708	31176
569.767	28779
569.827	29202
569.886	26827
569.945	24056
570.004	22306
570.063	21799
570.122	21914
570.181	20709
570.240	20080
570.299	21379
570.358	20266
570.417	18300
570.475	16601
570.534	16300
570.593	17128
570.652	17071
570.711	17239
570.770	15194
570.829	16483
570.887	14575
570.946	15850
571.005	14450
571.064	15159
571.122	12922
571.181	14446
571.240	15488
571.299	14103
571.357	13035
571.416	14189
571.475	14388
571.533	15174
571.592	13074
571.650	12908
571.709	11921
571.768	12193
571.826	11521
571.885	12015
571.943	10289
572.002	11978
572.060	12269
572.119	11073
572.177	11815
572.236	11643
572.294	9998
572.352	11347
572.411	10477
572.469	11453
572.528	9974
572.586	11090
572.644	11600
572.703	13976
572.761	12554
572.819	12296
572.877	10132
572.936	10923
572.994	9972
573.052	10438
573.110	10760
573.169	10597
573.227	9319
573.285	10576
573.343	10409
573.401	10781
573.459	10540
573.517	10145
573.576	9634
573.634	11353
573.692	10841
573.750	10342
573.808	10050
573.866	10636
573.924	11972
573.982	12111
574.040	11199
574.098	10367
574.155	9823
574.213	10410
574.271	9663
574.329	10253
574.387	9560
574.445	9184
574.503	9602
574.560	8733
574.618	8973
574.676	10011
574.734	9779
574.792	9533
574.849	8972
574.907	8686
574.965	9161
575.022	9009
575.080	8878
575.138	9792
575.195	9341
575.253	9808
575.311	10366
575.368	9324
575.426	8789
575.483	9522
575.541	9783
575.598	9529
575.656	9649
575.713	10306
575.771	10028
575.828	9838
575.886	9668
575.943	10202
576.001	10113
576.058	10603
576.115	9404
576.173	11484
576.230	11901
576.287	12900
576.345	11761
576.402	10438
576.459	10541
576.517	10627
576.574	10757
576.631	10816
576.688	10600
576.746	10403
576.803	10714
576.860	10429
576.917	10756
576.974	10952
577.031	10662
577.089	10948
577.146	10639
577.203	10367
577.260	10818
577.317	11206
577.374	11171
577.431	10986
577.488	11253
577.545	10955
577.602	11478
577.659	11576
577.716	12458
577.773	13063
577.830	12058
577.886	11646
577.943	11424
578.000	11607
578.057	12283
578.114	12550
578.171	13942
578.227	16605
578.284	17772
578.341	16281
578.398	13536
578.454	14076
578.511	13221
578.568	13036
578.625	11889
578.681	11457
578.738	11616
578.794	11403
578.851	11243
578.908	11328
578.964	11788
579.021	12734
579.077	11313
579.134	12181
579.190	10576
579.247	10908
579.303	11470
579.360	10709
579.416	10798
579.473	11321
579.529	11055
579.586	10398
579.642	10194
579.698	10939
579.755	11613
579.811	11993
579.867	11456
579.924	12019
579.980	12211
580.036	14645
580.093	16503
580.149	21721
580.205	26518
580.261	22138
580.317	19134
580.374	17764
580.430	16107
580.486	14980
580.542	13296
580.598	13362
580.619	13253
580.654	13078
580.692	13243
580.710	13358
580.765	12887
580.767	12889
580.823	14217
580.838	13913
580.879	13159
580.911	12550
580.935	12121
580.984	12588
580.991	12673
581.047	13445
581.057	13217
581.103	12245
581.130	12737
581.159	13300
581.203	14424
581.215	14745
581.270	14510
581.276	14482
581.326	14292
581.349	14270
581.382	14309
581.422	13633
581.438	13360
581.494	12854
581.494	12845
581.550	13183
581.567	13074
581.606	12902
581.640	12746
581.661	12647
581.713	14012
581.717	14141
581.773	12635
581.786	12700
581.829	12839
581.859	12789
581.885	12807
581.932	12887
581.940	12913
581.996	12353
582.004	12501
582.052	13335
582.077	12991
582.107	12649
582.150	13276
582.163	13467
582.219	12749
582.223	12791
582.274	13332
582.296	13076
582.330	12756
582.368	13138
582.386	13296
582.441	13388
582.441	13394
582.497	13701
582.514	13820
582.552	14156
582.587	14464
582.608	14614
582.659	13325
582.663	13234
582.719	14616
582.732	14376
582.774	13551
582.805	13495
582.830	13469
582.877	14267
582.885	14416
582.941	13907
582.950	13993
582.996	14315
583.023	14661
583.052	15220
583.095	15713
583.107	15800
583.162	17520
583.168	17667
583.218	19173
583.240	18898
583.273	18280
583.313	17037
583.328	16629
583.384	16438
583.385	16389
583.439	14782
583.458	14978
583.494	15429
583.531	15359
583.549	15308
583.603	15391
583.605	15395
583.660	15279
583.676	15434
583.715	15742
583.748	15427
583.770	15248
583.820	15649
583.825	15667
583.881	15506
583.893	15439
583.936	15377
583.965	15248
583.991	15035
584.038	15287
584.046	15354
584.101	15097
584.110	15218
584.156	15494
584.183	15482
584.211	15647
584.255	15392
584.266	15315
584.321	15414
584.328	15532
584.376	16358
584.400	16229
584.431	15972
584.472	15889
584.486	15838
584.541	15245
584.545	15303
584.596	16378
584.617	16357
584.651	16399
584.689	17259
584.706	17504
584.761	17067
584.762	17077
584.816	17056
584.834	17181
584.871	17415
584.906	17636
584.926	17837
584.978	17917
584.980	17904
585.035	18697
585.051	18851
585.090	19295
585.123	19550
585.145	19616
585.195	19633
585.200	19642
585.254	20766
585.267	21004
585.309	22222
585.340	23462
585.364	23905
585.412	23458
585.419	23287
585.473	22145
585.484	21974
585.528	22014
585.556	22845
585.583	23938
585.628	24571
585.637	24952
585.692	29582
585.700	30766
585.747	36765
585.772	37051
585.801	33934
585.845	26973
585.856	25749
585.910	24837
585.917	24608
585.965	24053
585.989	24382
586.019	24640
586.061	24327
586.074	24392
586.128	26604
586.133	26704
586.183	26424
586.205	26545
586.237	27190
586.277	28049
586.292	28199
586.346	28108
586.349	28193
586.401	28639
586.421	28805
586.455	29748
586.493	30762
586.509	31573
586.564	35179
586.565	35350
586.618	43717
586.637	46027
586.672	44377
586.709	39167
586.727	36997
586.781	34714
586.781	34662
586.835	35304
586.853	35590
586.889	35721
586.925	35476
586.944	35653
586.996	38247
586.998	38224
587.052	38949
587.068	39352
587.106	41123
587.140	42618
587.161	42973
587.212	44410
587.215	44439
587.269	46411
587.284	47172
587.323	48040
587.356	49156
587.377	50195
587.427	52789
587.431	52848
587.485	55041
587.499	56017
587.539	58555
587.571	60571
587.593	61957
587.643	65625
587.648	65854
587.702	69737
587.715	71366
587.755	75527
587.786	78235
587.810	80322
587.858	85856
587.864	86329
587.917	93338
587.930	95449
587.971	102558
588.001	108259
588.025	112243
588.073	121975
588.079	123111
588.133	136700
588.145	140513
588.187	152673
588.217	162410
588.241	171540
588.288	191306
588.295	193584
588.348	220251
588.360	226730
588.402	251276
588.431	271912
588.456	290009
588.503	329405
588.510	335152
588.564	393562
588.575	407671
588.617	468614
588.646	516484
588.671	567549
588.718	675572
588.725	696557
588.778	871762
588.789	907819
588.832	1089249
588.861	1194422
588.886	1244728
588.932	1280178
588.939	1260340
588.993	1085063
589.004	1077170
589.047	1209260
589.075	1296049
589.100	1241052
589.147	1069100
589.154	1045239
589.207	839727
589.218	799609
589.261	721892
589.290	682182
589.314	681954
589.361	699966
589.368	711775
589.421	840113
589.433	869567
589.475	1040351
589.504	1143442
589.528	1168175
589.576	1156878
589.582	1146164
589.635	1132781
589.647	1131490
589.689	995710
589.718	859719
589.742	753710
589.790	533585
589.795	517946
589.849	394175
589.861	368854
589.902	314144
589.932	279043
589.955	254566
590.004	210622
590.009	206674
590.062	175995
590.075	169737
590.115	151791
590.146	140141
590.168	133274
590.218	120995
590.222	119509
590.275	107050
590.289	104556
590.328	97327
590.360	92739
590.381	89251
590.431	82234
590.435	81460
590.488	74423
590.503	72898
590.541	69034
590.574	66335
590.594	64419
590.645	60956
590.647	60527
590.700	55623
590.716	54500
590.753	51780
590.787	49712
590.806	48874
590.859	47780
590.859	47538
590.912	44800
590.930	44192
590.965	42544
591.001	41215
591.018	40246
591.071	38157
591.072	38311
591.124	37580
591.143	37542
591.177	36052
591.214	34859
591.230	34578
591.283	34423
591.285	34543
591.336	33330
591.356	33138
591.389	32667
591.427	32350
591.442	31560
591.495	29101
591.498	29046
591.547	28513
591.569	28472
591.600	27656
591.640	26727
591.653	26442
591.706	25934
591.711	25981
591.759	25738
591.782	25768
591.811	26053
591.853	26860
591.864	26452
591.917	24694
591.924	24532
591.969	23778
591.995	23530
592.022	22851
592.066	21930
592.075	22096
592.127	23812
592.137	24202
592.180	25322
592.208	26178
592.233	24619
592.279	21822
592.285	21512
592.338	19635
592.350	19300
592.390	18880
592.421	18695
592.443	18441
592.491	18211
592.495	18151
592.548	18493
592.562	18668
592.600	17666
592.633	16968
592.653	16906
592.704	16875
592.705	16962
592.775	16574
592.846	17294
592.916	18204
592.987	18152
593.058	18214
593.128	16242
593.199	15655
593.270	15172
593.341	14638
593.411	15348
593.482	14990
593.553	14674
593.623	14361
593.694	14152
593.764	14806
593.835	14642
593.906	12498
593.976	13261
594.047	12932
594.117	15819
594.188	16970
594.258	12267
594.329	12084
594.399	12072
594.470	12560
594.540	12192
594.611	11781
594.681	11126
594.751	12380
594.822	12714
594.892	12679
594.963	13369
595.033	12197
595.103	12718
595.174	13322
595.244	19296
595.314	26951
595.384	13713
595.455	10711
595.525	11807
595.595	11977
595.665	10791
595.736	12038
595.806	11963
595.876	11202
595.946	11398
596.016	10186
596.087	9496
596.157	10588
596.227	11506
596.297	10649
596.367	11211
596.437	12910
596.507	16855
596.577	24206
596.647	14513
596.717	9358
596.787	10539
596.857	10002
596.927	10451
596.997	10342
597.067	11362
597.137	12691
597.207	11874
597.277	10176
597.347	10574
597.417	10366
597.487	10900
597.557	10624
597.626	11216
597.696	11919
597.766	14446
597.836	20634
597.906	14633
597.975	10551
598.045	9892
598.115	9236
598.185	9699
598.254	10532
598.324	11765
598.394	11064
598.464	11763
598.533	10238
598.603	9968
598.672	9827
598.742	10602
598.812	9373
598.881	10567
598.951	9645
599.020	9016
599.090	9571
599.159	9316
599.229	8694
599.299	8940
599.368	9199
599.437	9248
599.507	8114
599.576	9914
599.646	10346
599.715	11902
599.785	9895
599.854	9887
599.924	11382
599.993	11391
600.062	8740
600.132	9686
600.201	9775
600.270	10824
600.340	10124
600.409	8862
600.478	9050
600.547	8381
600.617	9097
600.686	8489
600.755	9501
600.824	10807
600.894	9766
600.963	8878
601.032	8327
601.101	8523
601.170	7133
601.239	8416
601.308	8746
601.378	7847
601.447	8433
601.516	7944
601.585	8030
601.654	9692
601.723	8465
601.792	9084
601.861	9557
601.930	12277
601.999	11555
602.068	9097
602.137	7790
602.206	8801
602.275	8207
602.343	10654
602.412	11836
602.481	8883
602.550	8001
602.619	7645
602.688	8234
602.756	7593
602.825	7558
602.894	6904
602.963	6940
603.032	7780
603.100	7208
603.169	7145
603.238	7068
603.307	7836
603.375	7616
603.444	7324
603.513	7204
603.581	6746
603.650	7298
603.719	6884
603.787	6993
603.856	7220
603.924	7814
603.993	7544
604.061	7162
604.130	6741
604.198	8042
604.267	6540
604.335	7548
604.404	6654
604.472	6470
604.541	7254
604.609	7021
604.678	7323
604.746	7241
604.815	6932
604.883	7032
604.951	7202
605.020	6813
605.088	7270
605.156	7575
605.225	7994
605.293	7140
605.361	7396
605.429	7453
605.498	7939
605.566	8133
605.634	8315
605.702	7567
605.771	8194
605.839	7304
605.907	8882
605.975	7577
606.043	8094
606.111	7514
606.180	8167
606.248	10074
606.316	12513
606.384	8318
606.452	12341
606.520	12208
606.588	9944
606.656	7488
606.724	7483
606.792	7081
606.860	6613
606.928	5708
606.996	5957
607.064	6050
607.132	6260
607.200	6589
607.267	6605
607.335	6756
607.403	7359
607.471	6960
607.539	7258
607.607	6533
607.674	6868
607.742	7021
607.810	7823
607.878	7670
607.946	6309
608.013	6528
608.081	7560
608.149	7618
608.216	5813
608.284	6722
608.352	7253
608.419	6204
608.487	11838
608.555	9404
608.622	6872
608.690	6075
608.757	6207
608.825	6065
608.893	6862
608.960	8080
609.028	11656
609.095	13425
609.163	9002
609.230	6582
609.298	7580
609.365	5909
609.432	6586
609.500	5638
609.567	6784
609.635	7502
609.702	7403
609.769	7727
609.837	9237
609.904	8542
609.971	7144
610.039	10022
610.106	13476
610.173	22930
610.241	52795
610.308	79708
610.375	60733
610.442	18170
610.509	9539
610.577	8630
610.644	7044
610.711	7149
610.778	6859
610.845	7044
610.912	7632
610.980	8471
611.047	13981
611.114	10361
611.181	7623
611.248	5708
611.315	6031
611.382	5692
611.449	6697
611.516	6556
611.583	7224
611.650	6985
611.717	7091
611.784	5875
611.851	7545
611.918	9016
611.984	9565
612.051	12180
612.118	25406
612.185	60151
612.252	58453
612.319	11895
612.386	8601
612.452	7013
612.519	8523
612.586	12648
612.653	11194
612.719	7618
612.786	6574
612.853	6670
612.919	6083
612.986	6418
613.053	5794
613.120	6133
613.186	5801
613.253	7098
613.319	5820
613.386	6326
613.453	6514
613.519	8530
613.586	10514
613.652	19547
613.719	14597
613.785	13800
613.852	7092
613.918	7327
613.985	9000
614.051	14684
614.118	38551
614.184	52134
614.250	11522
614.317	6239
614.383	6573
614.449	5993
614.516	5706
614.582	6055
614.648	6425
614.715	6115
614.781	6157
614.847	6348
614.914	7620
614.980	7109
615.046	6780
615.112	6892
615.179	7255
615.245	9935
615.311	12573
615.377	24685
615.443	35686
615.509	19825
615.575	10918
615.642	8543
615.708	9716
615.774	10723
615.840	11599
615.906	17290
615.972	27795
616.038	57829
616.104	89278
616.170	104748
616.236	109054
616.302	27298
616.368	14463
616.434	10747
616.500	10426
616.565	10033
616.631	10664
616.697	9320
616.763	9477
616.829	10987
616.895	19319
616.961	20753
617.026	12285
617.092	7782
617.158	7453
617.224	6392
617.289	6456
617.355	6621
617.421	7610
617.487	8091
617.552	7030
617.618	6146
617.684	5509
617.749	7491
617.815	6329
617.880	5982
617.946	6560
618.012	6179
618.077	6021
618.143	5995
618.208	6292
618.274	6516
618.339	7123
618.405	5853
618.470	6234
618.536	7116
618.601	7800
618.667	6480
618.732	7288
618.798	6785
618.863	6978
618.928	7018
618.994	7511
619.059	9367
619.124	15200
619.190	12222
619.255	6295
619.320	6350
619.386	6869
619.451	5167
619.516	6505
619.581	6220
619.647	6397
619.712	6746
619.777	6574
619.842	7072
619.907	6896
619.972	6528
620.038	7461
620.103	6349
620.168	5800
620.233	5858
620.298	6368
620.363	5769
620.428	6034
620.493	6104
620.558	6230
620.623	5368
620.688	5874
620.753	5785
620.818	6273
620.883	5889
620.948	5591
621.013	5646
621.078	6060
621.143	4802
621.207	8286
621.272	7032
621.337	8868
621.402	8145
621.467	11927
621.532	13180
621.596	9528
621.661	8180
621.726	8665
621.791	7776
621.855	9060
621.920	9257
621.985	9563
622.049	12009
622.114	11016
622.179	8374
622.243	8771
622.308	8042
622.373	9148
622.437	7324
622.502	7089
622.566	7286
622.631	7686
622.695	8189
622.760	8168
622.824	7662
622.889	8799
622.953	10005
623.018	15905
623.082	18814
623.147	9367
623.211	8391
623.276	8576
623.340	7245
623.404	7495
623.469	7452
623.533	8443
623.597	6378
623.662	6786
623.726	7611
623.790	7036
623.854	7116
623.919	7665
623.983	7415
624.047	7182
624.111	7387
624.176	7232
624.240	7939
624.304	9926
624.368	7626
624.432	8211
624.496	7656
624.560	9856
624.625	10797
624.689	7886
624.753	6815
624.817	6776
624.881	6855
624.945	6830
625.009	7144
625.073	7008
625.137	7873
625.201	11488
625.265	12741
625.329	6746
625.393	7340
625.456	8748
625.520	6951
625.584	9575
625.648	12074
625.712	19567
625.776	49045
625.839	67216
625.903	31543
625.967	10914
626.031	17691
626.095	36486
626.158	14224
626.222	6505
626.286	6016
626.349	6305
626.413	5629
626.477	7523
626.540	6486
626.604	6056
626.668	5706
626.731	5491
626.795	5651
626.858	6617
626.922	5312
626.986	6055
627.049	4551
627.113	5312
627.176	5953
627.240	6086
627.303	5441
627.366	5819
627.430	6032
627.493	5957
627.557	5801
627.620	6370
627.684	5307
627.747	5435
627.810	4573
627.874	6257
627.937	3732
628.000	5977
628.064	5772
628.127	4413
628.190	5098
628.253	5223
628.317	4772
628.380	5782
628.443	4721
628.506	5098
628.569	5111
628.632	4759
628.696	5042
628.759	4828
628.822	4381
628.885	4574
628.948	4433
629.011	5064
629.074	5537
629.137	4412
629.200	4554
629.263	6070
629.326	4312
629.389	4528
629.452	4106
629.515	4845
629.578	4814
629.641	5417
629.704	4886
629.767	6034
629.830	5301
629.892	3848
629.955	3884
630.018	6522
630.081	5487
630.144	8957
630.207	5453
630.269	6572
630.332	6272
630.395	5929
630.458	4312
630.520	4327
630.583	4905
630.646	4477
630.708	3943
630.771	4240
630.834	3743
630.896	3497
630.959	3935
631.021	3727
631.084	4126
631.146	4052
631.209	6079
631.272	4524
631.334	3953
631.397	3951
631.459	3444
631.522	5217
631.584	4268
631.646	4329
631.709	5548
631.771	6038
631.834	5827
631.896	3999
631.958	3565
632.021	4473
632.083	3165
632.145	4253
632.208	4095
632.270	4888
632.332	3272
632.395	2330
632.457	4316
632.519	3919
632.581	4327
632.643	2792
632.706	3690
632.768	3120
632.830	3851
632.892	2744
632.954	3064
633.016	4237
633.078	3160
633.141	3390
633.203	3075
633.265	3863
633.327	3002
633.389	2536
633.451	4413
633.513	6930
633.575	5819
633.637	6055
633.698	4174
633.760	4201
633.822	3143
633.884	4037
633.946	3190
634.008	3476
634.070	3110
634.132	5897
634.193	4290
634.255	4080
634.317	3369
634.379	4516
634.441	2563
634.502	3776
634.564	3171
634.626	2951
634.687	3049
634.749	3321
634.811	3423
634.873	2438
634.934	3348
634.996	3294
635.057	2353
635.119	2296
635.181	2605
635.242	3619
635.304	1838
635.365	4051
635.427	2374
635.488	2679
635.550	3023
635.611	3100
635.673	995
635.734	3942
635.796	2124
635.857	4093
635.918	2578
635.980	3634
636.041	2748
636.102	3216
636.164	2735
636.225	3773
636.286	2370
636.348	3425
636.409	3024
636.470	3024
636.531	2814
636.593	3482
636.654	3819
636.715	2904
636.776	2752
636.838	2691
636.899	2929
636.960	2886
637.021	1789
637.082	2703
637.143	2663
637.204	2268
637.265	2011
637.326	2314
637.387	1824
637.448	1472
637.509	2576
637.570	2433
637.631	2331
637.692	1998
637.753	1302
637.814	2088
637.875	1614
637.936	2672
637.997	2040
638.058	2358
638.119	2853
638.179	3028
638.240	1758
638.301	2590
638.362	1605
638.423	2736
638.483	2658
638.544	1999
638.605	1951
638.666	1507
638.726	1985
638.787	2451
638.848	1853
638.908	2413
638.969	2332
639.030	2272
639.090	918
639.151	2025
639.211	3071
639.272	5222
639.332	9431
639.393	5830
639.453	1984
639.514	2912
639.574	3101
639.635	2531
639.695	2016
639.756	1790
639.816	2621
639.877	4232
639.937	7380
639.997	11921
640.058	4639
640.118	1750
640.178	2257
640.239	1576
640.299	1024
640.359	1265
640.420	2192
640.480	1625
640.540	1518
640.600	2676
640.661	2487
640.721	1467
640.781	4525
640.841	2495
640.901	2782
640.961	3103
641.021	1877
641.082	2857
641.142	6269
641.202	4652
641.262	763
641.322	3434
641.382	1890
641.442	1794
641.502	1809
641.562	1419
641.622	1385
641.682	1834
641.742	1021
641.802	2471
641.861	2146
641.921	2920
641.981	3487
642.041	3573
642.101	4156
642.161	3014
642.221	1362
642.280	2074
642.340	1217
642.400	871
642.460	1205
642.519	2027
642.579	1311
642.639	1953
642.698	655
642.758	3431
642.818	1464
642.877	1591
642.937	1928
642.997	3121
643.056	5539
643.116	2242
643.175	2341
643.235	977
643.294	2349
643.354	1721
643.414	2033
643.473	2915
643.532	2088
643.592	2912
643.651	4188
643.711	6857
643.770	11486
643.830	25472
643.889	69989
643.948	28272
644.008	4231
644.067	2428
644.126	1388
644.186	798
644.245	1820
644.304	931
644.363	2267
644.423	718
644.482	1845
644.541	2028
644.600	266
644.659	2698
644.719	827
644.778	2434
644.837	2526
644.896	5449
644.955	11564
645.014	7961
645.073	4167
645.132	2308
645.191	2173
645.250	2158
645.309	2196
645.368	1851
645.427	2733
645.486	1325
645.545	3399
645.604	2323
645.663	1426
645.722	788
645.781	1151
645.840	1767
645.898	1673
645.957	2433
646.016	1402
646.075	5920
646.134	8935
646.192	22938
646.251	47961
646.310	11661
646.369	1941
646.427	1976
646.486	1137
646.545	1661
646.603	2449
646.662	2230
646.721	866
646.779	973
646.838	63
646.896	1378
646.955	1810
647.014	2277
647.072	2231
647.131	6437
647.189	4478
647.248	654
647.306	1424
647.365	1285
647.423	-215
647.481	2438
647.540	22
647.598	1566
647.657	-38
647.715	1549
647.773	-295
647.832	1222
647.890	160
647.948	1543
648.007	1400
648.065	1564
648.123	1008
648.181	3358
648.240	2684
648.298	2454
648.356	1498
648.414	1931
648.472	2096
648.531	963
648.589	748
648.647	457
648.705	1088
648.763	266
648.821	1824
648.879	1087
648.937	1165
648.995	1531
649.053	1012
649.111	2182
649.169	2678
649.227	4180
649.285	6867
649.343	20924
649.401	19160
649.459	12640
649.516	12791
649.574	6036
649.632	14677
649.690	25895
649.748	8449
649.806	4515
649.863	10640
649.921	6853
649.979	3870
650.037	1820
650.094	-136
650.152	1481
650.210	802
650.268	1831
650.325	928
650.383	1655
650.440	126
650.498	1278
650.556	634
650.613	1210
650.671	1493
650.728	1207
650.786	842
650.843	1204
650.901	-390
650.958	1058
651.016	1788
651.073	316
651.131	80
651.188	-52
651.246	390
651.303	-138
651.360	1312
651.418	383
651.475	911
651.532	-301
651.590	1190
651.647	383
651.704	-396
651.762	1224
651.819	1182
651.876	364
651.933	976
651.990	1329
652.048	-229
652.105	79
652.162	730
652.219	1206
652.276	167
652.333	874
652.390	-397
652.448	912
652.505	939
652.562	748
652.619	1521
652.676	3077
652.733	4584
652.790	1957
652.847	-924
652.904	868
652.961	-106
653.017	392
653.074	992
653.131	1016
653.188	419
653.245	897
653.302	524
653.359	-127
653.415	932
653.472	-15
653.529	671
653.586	-198
653.642	688
653.699	1707
653.756	-116
653.813	191
653.869	344
653.926	428
653.983	-743
654.039	750
654.096	16
654.152	1242
654.209	-820
654.266	1688
654.322	257
654.379	860
654.435	1380
654.492	1801
654.548	1669
654.605	5234
654.661	1892
654.717	905
654.774	1111
654.830	872
654.887	642
654.943	630
655.000	401
655.056	1135
655.112	482
655.168	232
655.225	739
655.281	1146
655.337	791
655.394	4193
655.450	3271
655.506	2730
655.562	3866
655.618	5510
655.675	143
655.731	1322
655.787	368
655.843	1652
655.899	572
655.955	1624
656.011	876
656.067	118
656.123	1278
656.179	2111
656.235	2182
656.291	541
656.347	1333
656.403	293
656.459	811
656.515	1432
656.571	1168
656.627	818
656.683	1130
656.739	1965
656.795	666
656.850	813
656.906	1062
656.962	2468
657.018	-191
657.074	101
657.129	-105
657.185	1414
657.241	-17
657.297	482
657.352	693
657.408	-55
657.464	1689
657.519	1159
657.575	-651
657.630	1057
657.686	-19
657.742	233
657.797	310
657.853	63
657.908	1017
657.964	-95
658.019	465
658.075	841
658.130	82
658.186	-656
658.241	-193
658.297	-157
658.352	-118
658.407	927
658.463	-53
658.518	825
658.573	1090
658.629	8
658.684	78
658.739	478
658.795	-231
658.850	890
658.905	189
658.960	1628
659.016	-816
659.071	1120
659.126	729
659.181	197
659.236	2473
659.291	3404
659.346	1046
659.401	1499
659.457	1603
659.512	2109
659.567	1545
659.622	210
659.677	-189
659.732	-477
659.787	466
659.842	817
659.897	1724
659.952	1656
660.007	614
660.061	332
660.116	506
660.171	-115
660.226	-41
660.281	1239
660.336	162
660.391	807
660.445	322
660.500	157
660.555	382
660.610	894
660.664	438
660.719	67
660.774	445
660.828	1081
660.883	645
660.938	1268
660.992	-455
661.047	636
661.101	-544
661.156	708
661.211	-516
661.265	-360
661.320	311
661.374	829
661.429	166
661.483	461
661.538	182
661.592	40
661.647	24
661.701	1329
661.755	1094
661.810	530
661.864	-72
661.919	457
661.973	526
662.027	829
662.081	-183
662.136	225
662.190	-193
662.244	825
662.299	151
662.353	919
662.407	-627
662.461	-186
662.515	562
662.569	-295
662.624	703
662.678	62
662.732	504
662.786	-86
662.840	440
662.894	1235
662.948	105
663.002	740
663.056	352
663.110	1
663.164	593
663.218	153
663.272	25
663.326	763
663.380	351
663.434	732
663.488	-181
663.542	284
663.595	251
663.649	631
663.703	964
663.757	228
663.811	-502
663.864	260
663.918	1018
663.972	-51
664.026	935
664.079	-227
664.133	458
664.187	230
664.240	20
664.294	-458
664.348	472
664.401	623
664.455	411
664.508	232
664.562	393
664.615	537
664.669	-133
664.722	441
664.776	-184
664.829	44
664.883	-277
664.936	131
664.990	274
665.043	1438
665.097	51
665.150	1515
665.203	-384
665.257	449
665.310	1112
665.363	255
665.417	290
665.470	1140
665.523	-169
665.576	1101
665.630	118
665.683	-10
665.736	905
665.789	1474
665.842	-522
665.895	758
665.949	946
666.002	487
666.055	463
666.108	1541
666.161	821
666.214	379
666.267	499
666.320	1303
666.373	1153
666.426	-70
666.479	-202
666.532	1019
666.585	586
666.638	1598
666.691	805
666.744	999
666.796	695
666.849	1397
666.902	1063
666.955	954
667.008	349
667.060	-11
667.113	-207
667.166	475
667.219	-468
667.271	1075
667.324	-449
667.377	714
667.430	795
667.482	662
667.535	1587
667.587	853
667.640	1054
667.693	1366
667.745	1781
667.798	4644
667.850	875
667.903	531
667.955	426
668.008	218
668.060	1479
668.113	75
668.165	691
668.218	1066
668.270	556
668.322	280
668.375	438
668.427	1116
668.479	257
668.532	1188
668.584	771
668.636	1103
668.689	610
668.741	814
668.793	873
668.845	277
668.898	993
668.950	606
669.002	-142
669.054	304
669.106	189
669.158	1401
669.211	597
669.263	625
669.315	1814
669.367	1815
669.419	1144
669.471	2763
669.523	1669
669.575	3786
669.627	2922
669.679	1814
669.731	994
669.783	2004
669.835	1903
669.886	1755
669.938	2419
669.990	1903
670.042	590
670.094	2423
670.146	1338
670.197	1809
670.249	2524
670.301	3467
670.353	6330
670.404	8754
670.456	11440
670.508	20546
670.560	33134
670.611	55233
670.663	93411
670.715	195186
670.766	397890
670.818	209609
670.869	37709
670.921	12822
670.972	8672
671.024	5461
671.075	4616
671.127	3794
671.178	2480
671.230	2896
671.281	1966
671.333	2155
671.384	1296
671.436	1437
671.487	2014
671.538	2264
671.590	1614
671.641	1766
671.692	1789
671.744	2761
671.795	3160
671.846	1554
671.897	1332
671.949	1626
672.000	320
672.051	1326
672.102	1478
672.153	1030
672.204	493
672.256	556
672.307	428
672.358	944
672.409	661
672.460	545
672.511	577
672.562	703
672.613	638
672.664	232
672.715	-372
672.766	336
672.817	822
672.868	1061
672.919	671
672.970	419
673.021	582
673.071	528
673.122	1265
673.173	440
673.224	-113
673.275	300
673.326	262
673.376	912
673.427	-945
673.478	-389
673.528	448
673.579	285
673.630	-262
673.680	910
673.731	44
673.782	491
673.832	676
673.883	592
673.934	77
673.984	-17
674.035	-186
674.085	279
674.136	566
674.186	855
674.237	743
674.287	1668
674.338	1440
674.388	343
674.438	-349
674.489	-59
674.539	574
674.589	517
674.640	1267
674.690	754
674.740	202
674.791	1104
674.841	974
674.891	799
674.942	441
674.992	692
675.042	587
675.092	639
675.142	863
675.193	778
675.243	-1054
675.293	1049
675.343	229
675.393	626
675.443	6
675.493	346
675.543	-542
675.593	477
675.643	758
675.693	-74
675.743	81
675.793	522
675.843	4
675.893	395
675.943	35
675.993	-111
676.043	48
676.093	1988
676.142	-217
676.192	616
676.242	-340
676.292	-211
676.341	110
676.391	80
676.441	-314
676.491	-506
676.540	-490
676.590	515
676.640	609
676.689	537
676.739	233
676.789	664
676.838	-507
676.888	250
676.937	-337
676.987	618
677.037	-894
677.086	-747
677.136	-10
677.185	-573
677.235	-327
677.284	200
677.333	-121
677.383	58
677.432	121
677.482	794
677.531	92
677.580	-498
677.630	457
677.679	543
677.728	-16
677.778	-199
677.827	569
677.876	-111
677.925	-907
677.975	429
678.024	-218
678.073	61
678.122	221
678.171	-154
678.220	-101
678.269	341
678.319	203
678.368	30
678.417	253
678.466	1023
678.515	-148
678.564	155
678.613	281
678.662	-1
678.711	-202
678.760	683
678.809	-63
678.857	-430
678.906	-5
678.955	601
679.004	25
679.053	192
679.102	-676
679.151	118
679.199	-569
679.248	116
679.297	-37
679.346	380
679.394	594
679.443	65
679.492	-447
679.540	296
679.589	205
679.638	150
679.686	213
679.735	839
679.784	-30
679.832	288
679.881	-435
679.929	-392
679.978	-619
680.026	212
680.075	-478
680.123	-15
680.172	-304
680.220	-77
680.268	88
680.317	488
680.365	-902
680.414	-523
680.462	-203
680.510	596
680.559	104
680.607	-28
680.655	-445
680.703	681
680.752	316
680.800	354
680.848	93
680.896	353
680.945	-669
680.993	154
681.041	-404
681.089	105
681.137	-115
681.185	-326
681.233	-689
681.258	-628
681.281	-580
681.329	-192
681.377	194
681.380	177
681.425	-298
681.473	-82
681.502	-38
681.521	-24
681.569	1051
681.617	-724
681.624	-640
681.665	-163
681.713	-272
681.745	71
681.761	221
681.809	-169
681.857	527
681.867	391
681.904	-126
681.952	560
681.989	-15
682.000	-200
682.048	274
682.096	36
682.111	181
682.143	478
682.191	546
682.233	215
682.239	153
682.286	-125
682.334	-155
682.354	-82
682.382	4
682.430	-8
682.476	793
682.477	802
682.525	-405
682.572	-466
682.598	65
682.620	529
682.667	157
682.715	1622
682.720	1525
682.763	480
682.810	224
682.841	-53
682.857	-188
682.905	33
682.952	-126
682.963	162
683.000	1117
683.047	149
683.085	956
683.095	1171
683.142	416
683.190	46
683.206	-36
683.237	-213
683.284	1014
683.328	685
683.332	651
683.379	357
683.426	525
683.449	593
683.473	634
683.521	465
683.568	675
683.571	590
683.615	-566
683.662	624
683.693	464
683.709	349
683.757	57
683.804	664
683.814	777
683.851	1146
683.898	852
683.936	794
683.945	782
683.992	195
684.039	905
684.057	705
684.086	333
684.133	706
684.179	624
684.180	620
684.227	851
684.274	1058
684.300	1396
684.321	1598
684.368	682
684.415	820
684.422	800
684.462	695
684.509	40
684.543	947
684.556	1270
684.603	1536
684.649	297
684.665	652
684.696	1372
684.743	873
684.786	1177
684.790	1199
684.837	1051
684.883	738
684.908	968
684.930	1185
684.977	1523
685.023	1446
685.029	1384
685.070	853
685.117	515
685.150	954
685.164	1110
685.210	1164
685.257	1639
685.272	1697
685.303	1812
685.350	1129
685.393	1165
685.396	1165
685.443	1009
685.490	1943
685.514	1837
685.536	1761
685.583	1742
685.629	1122
685.636	1116
685.675	949
685.722	1168
685.757	1324
685.768	1386
685.815	1332
685.861	1719
685.878	1623
685.908	1485
685.954	1609
686.000	1671
686.000	1672
686.047	1329
686.093	2045
686.121	2329
686.139	2393
686.185	2000
686.232	1534
686.242	1571
686.278	1776
686.324	1467
686.363	1221
686.370	1177
686.416	1381
686.463	1761
686.484	1766
686.509	1803
686.555	2051
686.601	1372
686.606	1433
686.647	1856
686.693	1270
686.727	1368
686.739	1448
686.785	1441
686.831	1565
686.848	1516
686.877	1332
686.923	1646
686.969	1115
686.969	1113
687.015	1730
687.061	1303
687.090	1585
687.107	1722
687.153	1545
687.199	1884
687.211	1934
687.245	2013
687.291	2144
687.332	1556
687.336	1516
687.382	1975
687.428	1736
687.453	2301
687.474	2642
687.520	1340
687.565	1879
687.574	1750
687.611	1296
687.657	1807
687.695	1537
687.702	1491
687.748	1990
687.794	2103
687.816	2014
687.839	1945
687.885	1715
687.931	1782
687.937	1793
687.976	1818
688.022	2163
688.058	1892
688.067	1834
688.113	1847
688.158	1524
688.179	1571
688.204	1622
688.249	1588
688.295	1983
688.300	1953
688.340	1925
688.386	2254
688.421	2106
688.431	2025
688.477	2104
688.522	2161
688.542	2224
688.567	2295
688.613	2205
688.658	1848
688.663	1858
688.703	2032
688.749	2157
688.784	2051
688.794	2004
688.839	1905
688.884	2043
688.905	2095
688.930	2205
688.975	2068
689.020	2079
689.026	2104
689.065	2262
689.110	2131
689.146	1713
689.155	1608
689.201	1993
689.246	2231
689.267	2017
689.291	1852
689.336	2255
689.381	2406
689.388	2428
689.426	2490
689.471	2405
689.509	2279
689.516	2272
689.561	2328
689.606	2349
689.630	2453
689.651	2518
689.696	1986
689.741	2271
689.750	2311
689.785	2508
689.830	2614
689.871	2194
689.875	2156
689.920	2506
689.965	2276
689.992	2251
690.010	2244
690.054	2339
690.099	2534
690.112	2498
690.144	2429
690.189	2492
690.233	2413
690.233	2417
690.278	2459
690.323	2557
690.354	2446
690.367	2426
690.412	2150
690.457	2501
690.474	2484
690.501	2559
690.546	3128
690.590	3088
690.595	3099
690.635	3110
690.680	3082
690.716	2975
690.724	2982
690.769	3385
690.813	3580
690.836	3701
690.857	4174
690.902	5299
690.946	5892
690.957	6301
690.991	8785
691.035	11396
691.077	14686
691.080	14801
691.124	15257
691.168	14726
691.198	15200
691.213	14277
691.257	11029
691.301	7748
691.318	6715
691.346	6306
691.390	5393
691.434	4315
691.439	4226
691.478	4105
691.522	3965
691.559	3194
691.567	3111
691.611	3268
691.655	3103
691.680	3111
691.699	3025
691.743	2908
691.787	2661
691.800	2540
691.831	2673
691.875	2895
691.919	3293
691.921	3294
691.964	3221
692.008	3157
692.041	3160
692.052	3159
692.096	2677
692.139	2918
692.162	2766
692.183	2720
692.227	3170
692.271	2935
692.282	2959
692.315	3211
692.359	3488
692.402	3523
692.403	3530
692.447	3466
692.490	3250
692.523	3161
692.534	3189
692.578	3499
692.622	3166
692.643	3193
692.666	3182
692.709	2828
692.753	2603
692.763	2680
692.797	3273
692.840	3280
692.884	3582
692.884	3593
692.928	3887
692.971	3696
693.004	3824
693.015	3862
693.059	3635
693.102	3644
693.124	3513
693.146	3428
693.189	3557
693.233	3597
693.245	3614
693.276	3868
693.320	3993
693.363	3990
693.365	3995
693.407	4557
693.450	5025
693.485	4927
693.493	4992
693.537	6136
693.580	7017
693.605	7421
693.624	8189
693.667	9817
693.710	12040
693.725	12834
693.753	17186
693.797	23768
693.840	30906
693.845	31647
693.883	32675
693.926	32688
693.966	32853
693.970	32210
694.013	25086
694.056	18286
694.086	13595
694.099	12851
694.142	10210
694.185	7808
694.206	6708
694.229	6524
694.272	5748
694.315	5409
694.326	5190
694.358	4829
694.401	4873
694.444	4389
694.446	4375
694.487	4856
694.530	5065
694.566	5036
694.573	4940
694.616	4480
694.659	4116
694.686	3961
694.702	4018
694.745	3886
694.787	4003
694.806	3829
694.830	3575
694.873	3478
694.916	3120
694.926	3084
694.959	3298
695.002	3630
695.044	3685
695.046	3688
695.087	3774
695.130	3520
695.166	3550
695.172	3585
695.215	3457
695.258	3657
695.286	3548
695.301	3499
695.343	3722
695.386	3698
695.406	3616
695.428	3466
695.471	3351
695.514	3140
695.526	3043
695.556	3179
695.599	3824
695.641	3876
695.646	3908
695.684	3901
695.726	3820
695.766	3647
695.769	3664
695.811	3751
695.854	3821
695.886	3944
695.896	3936
695.938	3748
695.981	3560
696.005	3536
696.023	3635
696.065	3782
696.108	3822
696.125	3805
696.150	3682
696.192	3574
696.235	3354
696.245	3329
696.277	3512
696.319	3621
696.361	3899
696.365	3895
696.404	3956
696.446	3993
696.485	4096
696.488	4112
696.530	4157
696.572	4150
696.604	4148
696.614	4180
696.656	4165
696.698	4343
696.724	4423
696.740	4361
696.783	4012
696.825	3756
696.844	3613
696.867	3714
696.909	3869
696.951	4083
696.964	4114
696.992	4109
697.034	4169
697.076	4095
697.083	4096
697.118	4072
697.160	3901
697.202	3784
697.203	3766
697.244	3628
697.286	3657
697.323	3577
697.327	3590
697.369	3609
697.411	3648
697.442	3619
697.453	3653
697.494	3730
697.536	3889
697.562	3922
697.578	3898
697.620	3911
697.661	3798
697.682	3780
697.703	3888
697.744	3944
697.786	4279
697.801	4295
697.828	4409
697.869	4622
697.911	4836
697.921	4882
697.952	4657
697.994	4303
698.035	3978
698.040	3916
698.077	3886
698.118	3922
698.160	3928
698.160	3915
698.201	3827
698.243	3678
698.279	3589
698.284	3623
698.325	3775
698.367	3986
698.399	4086
698.408	4043
698.449	3816
698.491	3583
698.518	3423
698.532	3474
698.573	3577
698.614	3679
698.638	3724
698.656	3851
698.697	4145
698.738	4405
698.757	4516
698.779	4390
698.820	4124
698.862	3859
698.877	3744
698.903	3995
698.944	4387
698.985	4775
698.996	4869
699.026	4508
699.067	3988
699.116	3358
699.235	3695
699.354	4234
699.474	4301
699.593	4228
699.713	5092
699.832	4383
699.951	3999
700.070	3782
700.190	3805
700.309	3559
700.428	4166
700.547	3805
700.667	4553
700.786	4545
700.905	3384
701.024	2949
701.143	3223
701.262	3794
701.381	3076
701.500	4384
701.619	4903
701.738	3389
701.857	2837
701.976	3336
702.095	3092
702.214	4231
702.333	3623
702.452	2932
702.571	3884
702.690	3828
702.809	3639
702.928	3322
703.047	3799
703.165	3718
703.284	2593
703.403	3197
703.522	4154
703.640	3918
703.759	4945
703.878	5966
703.997	4024
704.115	3267
704.234	3856
704.353	4213
704.471	3720
704.590	3879
704.708	3414
704.827	3512
704.946	3056
705.064	3172
705.183	3998
705.301	4337
705.420	4816
705.538	5372
705.656	4764
705.775	5981
705.893	9338
706.012	15548
706.130	5731
706.249	4629
706.367	4953
706.485	4484
706.604	4363
706.722	4762
706.840	5495
706.958	5673
707.077	5076
707.195	4857
707.313	3630
707.431	4244
707.549	3980
707.668	4306
707.786	3611
707.904	3529
708.022	3989
708.140	3812
708.258	4206
708.376	4853
708.494	3347
708.612	4862
708.730	5991
708.848	6767
708.966	5322
709.084	5499
709.202	5025
709.320	5319
709.438	5174
709.556	4824
709.674	5193
709.791	4916
709.909	4000
710.027	4504
710.145	4020
710.263	4986
710.380	5306
710.498	5141
710.616	4796
710.733	5347
710.851	4350
710.969	4894
711.086	4228
711.204	4464
711.322	4223
711.439	4590
711.557	4407
711.674	4668
711.792	4323
711.909	4399
712.027	6444
712.144	5259
712.262	4655
712.379	4618
712.497	5593
712.614	7711
712.732	5099
712.849	5342
712.966	5617
713.084	7305
713.201	5613
713.318	6125
713.436	5284
713.553	6346
713.670	5340
713.787	6434
713.905	6162
714.022	5036
714.139	4742
714.256	6079
714.373	5676
714.490	6244
714.608	7551
714.725	16580
714.842	24011
714.959	6284
715.076	5341
715.193	4972
715.310	4348
715.427	4715
715.544	4667
715.661	4888
715.778	4582
715.895	6032
716.011	5062
716.128	4393
716.245	4354
716.362	5320
716.479	5469
716.596	4272
716.713	4867
716.829	4293
716.946	4401
717.063	4678
717.180	4567
717.296	4396
717.413	4226
717.530	4255
717.646	4614
717.763	4189
717.880	4013
717.996	4224
718.113	4832
718.229	3486
718.346	3974
718.462	4271
718.579	4573
718.695	7013
718.812	6371
718.928	4704
719.045	5095
719.161	3552
719.277	3870
719.394	3828
719.510	4510
719.626	3287
719.743	5069
719.859	4155
719.975	4093
720.092	6394
720.208	11587
720.324	5585
720.440	3735
720.557	4878
720.673	5952
720.789	7951
720.905	15677
721.021	8813
721.137	4268
721.253	4015
721.369	3965
721.486	4397
721.602	6077
721.718	4357
721.834	3257
721.950	3643
722.066	3551
722.181	3583
722.297	3368
722.413	3637
722.529	2689
722.645	3607
722.761	3459
722.877	3434
722.993	3042
723.108	3493
723.224	3348
723.340	3786
723.456	3436
723.571	3551
723.687	3164
723.803	3356
723.918	3105
724.034	2627
724.150	3277
724.265	2988
724.381	5807
724.497	9422
724.612	3167
724.728	2476
724.843	2556
724.959	3206
725.074	5631
725.190	8907
725.305	2969
725.421	3297
725.536	2334
725.651	2834
725.767	2135
725.882	2710
725.997	2530
726.113	2535
726.228	2933
726.343	2840
726.459	1849
726.574	3119
726.689	1804
726.804	2605
726.920	2481
727.035	2381
727.150	3192
727.265	3133
727.380	1767
727.495	3261
727.610	2338
727.725	3283
727.841	3530
727.956	6688
728.071	6322
728.186	2569
728.301	2713
728.416	2384
728.531	2493
728.645	2796
728.760	2824
728.875	2398
728.990	2727
729.105	2498
729.220	2563
729.335	2124
729.449	2423
729.564	3055
729.679	2348
729.794	2652
729.908	2197
730.023	1647
730.138	2466
730.253	1788
730.367	1958
730.482	2182
730.596	2074
730.711	3187
730.826	2320
730.940	1458
731.055	2427
731.169	2575
731.284	2265
731.398	1387
731.513	2786
731.627	2164
731.742	1856
731.856	2787
731.970	2308
732.085	1896
732.199	2123
732.313	1995
732.428	2477
732.542	5243
732.656	3817
732.771	2209
732.885	2348
732.999	1832
733.113	2157
733.227	2883
733.342	2039
733.456	956
733.570	2087
733.684	1925
733.798	1924
733.912	2126
734.026	1910
734.140	1017
734.254	2436
734.368	3105
734.482	5317
734.596	1294
734.710	2117
734.824	1639
734.938	2818
735.052	1656
735.166	1529
735.280	2452
735.393	2050
735.507	2327
735.621	2267
735.735	4663
735.849	2380
735.962	2219
736.076	2531
736.190	2014
736.303	2797
736.417	3999
736.531	1750
736.644	2281
736.758	1563
736.872	2559
736.985	2169
737.099	2226
737.212	1041
737.326	1732
737.439	767
737.553	1217
737.666	1673
737.780	2346
737.893	1557
738.007	1986
738.120	1542
738.233	2575
738.347	1324
738.460	2746
738.573	1415
738.687	2146
738.800	1915
738.913	2022
739.026	1347
739.140	2794
739.253	2145
739.366	1931
739.479	1497
739.592	1255
739.705	1821
739.818	953
739.932	1538
740.045	1668
740.158	1458
740.271	1489
740.384	1221
740.497	1695
740.610	1719
740.723	1034
740.836	1687
740.949	1564
741.062	1913
741.174	1980
741.287	1406
741.400	851
741.513	1438
741.626	1443
741.739	1044
741.851	1856
741.964	1030
742.077	2156
742.189	1245
742.302	2060
742.415	1540
742.527	1757
742.640	1168
742.753	1479
742.865	1154
742.978	1807
743.090	1313
743.203	1749
743.316	1743
743.428	1245
743.541	1888
743.653	1209
743.766	1361
743.878	1240
743.990	1589
744.103	3463
744.215	2018
744.327	1714
744.440	1756
744.552	3206
744.664	1528
744.777	1566
744.889	1393
745.001	1476
745.113	499
745.226	1007
745.338	1794
745.450	1187
745.562	1249
745.674	1265
745.786	909
745.898	548
746.010	1654
746.122	746
746.234	1161
746.347	1806
746.459	1455
746.570	1732
746.682	1733
746.794	2629
746.906	1020
747.018	1310
747.130	1629
747.242	1216
747.354	1866
747.466	1400
747.577	318
747.689	1326
747.801	683
747.913	1026
748.024	519
748.136	313
748.248	1773
748.359	1363
748.471	562
748.583	863
748.694	1404
748.806	2492
748.918	1452
749.029	1163
749.141	1406
749.252	1604
749.364	1389
749.475	2955
749.587	2249
749.698	978
749.809	1201
749.921	607
750.032	1369
750.144	378
750.255	1178
750.366	1608
750.478	1080
750.589	676
750.700	424
750.811	1410
750.923	1830
751.034	2350
751.145	3998
751.256	1410
751.367	1558
751.479	935
751.590	701
751.701	1366
751.812	747
751.923	1991
752.034	1014
752.145	789
752.256	811
752.367	1436
752.478	1452
752.589	1083
752.700	1114
752.811	907
752.922	639
753.032	802
753.143	475
753.254	862
753.365	1017
753.476	1480
753.586	1205
753.697	882
753.808	383
753.919	1223
754.029	480
754.140	910
754.251	1347
754.361	1262
754.472	491
754.582	960
754.693	1321
754.804	1356
754.914	454
755.025	-122
755.135	949
755.246	863
755.356	731
755.466	1538
755.577	1539
755.687	1105
755.798	626
755.908	1627
756.018	992
756.129	1467
756.239	1592
756.349	1262
756.460	697
756.570	1455
756.680	455
756.790	1368
756.900	1814
757.011	1099
757.121	1358
757.231	661
757.341	869
757.451	331
757.561	1178
757.671	1527
757.781	284
757.891	1723
758.001	927
758.111	732
758.221	1601
758.331	2506
758.441	720
758.551	1851
758.661	2444
758.771	1376
758.880	1017
758.990	1713
759.100	1994
759.210	2123
759.320	1626
759.429	1408
759.539	1791
759.649	2065
759.758	1723
759.868	1181
759.978	1600
760.087	1820
760.197	1358
760.307	2233
760.416	717
760.526	842
760.635	2159
760.745	1053
760.854	1955
760.964	2394
761.073	923
761.182	1826
761.292	1675
761.401	1945
761.511	2695
761.620	2352
761.729	1834
761.839	2090
761.948	2799
762.057	2825
762.166	2612
762.276	1742
762.385	2510
762.494	2359
762.603	2752
762.712	2833
762.822	2998
762.931	3334
763.040	2865
763.149	2836
763.258	3344
763.367	3519
763.476	3661
763.585	3781
763.694	4622
763.803	4268
763.912	4652
764.021	4727
764.130	5266
764.238	5113
764.347	5594
764.456	6053
764.565	6135
764.674	7587
764.783	7520
764.891	7721
765.000	10421
765.109	10507
765.217	11980
765.326	14310
765.435	17619
765.543	21000
765.652	25539
765.761	34106
765.869	46494
765.978	68069
766.086	106640
766.195	175195
766.303	301306
766.412	404355
766.520	386045
766.629	319371
766.737	172120
766.846	102909
766.954	66297
767.062	48897
767.171	37376
767.279	27266
767.387	21673
767.496	18909
767.604	15714
767.712	13505
767.820	11613
767.928	10750
768.037	10742
768.145	9727
768.253	9129
768.361	9470
768.469	9109
768.577	9117
768.685	9538
768.793	9815
768.901	10639
769.009	12619
769.117	15512
769.225	19352
769.333	26971
769.441	43231
769.549	71864
769.657	134377
769.765	266569
769.873	353835
769.981	293797
770.088	139356
770.196	69185
770.304	43090
770.412	31054
770.519	22282
770.627	17132
770.735	13426
770.842	12249
770.950	10304
771.058	8957
771.165	7852
771.273	6433
771.380	5983
771.488	5734
771.595	5915
771.703	4891
771.810	5571
771.918	3809
772.025	4324
772.133	3105
772.240	3051
772.348	3757
772.455	2951
772.562	2447
772.670	3283
772.777	3911
772.884	2537
772.991	2703
773.099	2852
773.206	1686
773.313	2358
773.420	1986
773.528	2167
773.635	2382
773.742	2384
773.849	2165
773.956	1634
774.063	1957
774.170	2177
774.277	2681
774.384	1947
774.491	1831
774.598	2548
774.705	1944
774.812	1478
774.919	1495
775.026	1612
775.133	1741
775.239	1464
775.346	1311
775.453	2027
775.560	1108
775.667	1287
775.773	485
775.880	1675
775.987	1647
776.093	2038
776.200	1377
776.307	864
776.413	1892
776.520	812
776.627	1644
776.733	1268
776.840	579
776.946	2421
777.053	1916
777.159	4639
777.266	2152
777.372	4382
777.478	3210
777.585	1925
777.691	898
777.798	1670
777.904	1861
778.010	2636
778.117	2077
778.223	1219
778.329	1307
778.435	917
778.542	1017
778.648	1203
778.754	571
778.860	761
778.966	669
779.072	1414
779.178	590
779.284	1565
779.391	613
779.497	514
779.603	3638
779.708	1734
779.815	7142
779.920	22601
780.026	52767
780.132	11404
780.238	2465
780.344	2066
780.450	1260
780.556	598
780.661	422
780.767	1276
780.873	823
780.979	688
781.085	969
781.190	648
781.296	1039
781.402	659
781.507	730
781.613	574
781.719	94
781.824	704
781.930	272
782.035	417
782.141	971
782.246	-101
782.352	636
782.457	1130
782.563	21
782.668	659
782.773	661
782.879	817
782.984	573
783.090	1162
783.195	968
783.300	682
783.405	1170
783.511	445
783.616	1466
783.721	16
783.826	51
783.932	805
784.037	592
784.142	984
784.247	515
784.352	885
784.457	88
784.562	1055
784.667	242
784.772	1583
784.877	879
784.982	879
785.087	-52
785.192	1062
785.297	3
785.402	233
785.507	602
785.611	903
785.716	101
785.821	843
785.926	-157
786.031	-454
786.135	337
786.240	909
786.345	-213
786.450	535
786.554	-257
786.659	43
786.763	-785
786.868	580
786.973	432
787.077	21
787.182	215
787.286	-31
787.391	458
787.495	121
787.600	169
787.704	-265
787.809	-547
787.913	660
788.017	269
788.122	325
788.226	-197
788.330	129
788.435	327
788.539	-88
788.643	242
788.747	416
788.852	-359
788.956	-6
789.060	385
789.164	-105
789.268	94
789.372	220
789.476	174
789.580	-89
789.684	-320
789.788	654
789.892	-89
789.996	-101
790.100	75
790.204	295
790.308	49
790.412	-12
790.516	968
790.620	232
790.724	803
790.828	771
790.931	-148
791.035	89
791.139	794
791.242	-48
791.346	828
791.450	484
791.554	209
791.657	-411
791.761	980
791.864	279
791.968	-447
792.072	200
792.175	-49
792.279	567
792.382	54
792.486	448
792.589	33
792.693	563
792.796	-90
792.899	697
793.003	-52
793.106	-433
793.209	-613
793.313	726
793.416	-624
793.519	1368
793.623	766
793.726	908
793.829	112
793.932	499
794.035	365
794.138	1094
794.242	779
794.345	884
794.448	963
794.551	2990
794.654	12583
794.757	27721
794.860	7123
794.963	533
795.066	337
795.169	978
795.272	-290
795.375	113
795.477	-461
795.580	424
795.683	-770
795.786	199
795.889	-543
795.991	502
796.094	259
796.197	117
796.300	464
796.402	-802
796.505	-395
796.608	-45
796.710	32
796.813	-175
796.915	-838
797.018	636
797.120	-78
797.223	-458
797.326	1189
797.428	637
797.530	-824
797.633	-602
797.735	206
797.838	296
797.940	1522
798.042	2
798.145	-554
798.247	600
798.349	-669
798.452	298
798.554	-187
798.656	-987
798.758	1537
798.860	101
798.962	-651
799.065	-180
799.167	-682
799.269	1006
799.371	548
799.473	826
799.575	-154
799.677	475
799.779	557
799.881	-1049
799.983	756
800.085	482
800.187	-185
800.289	-382
800.390	867
800.492	96
800.594	168
800.696	-132
800.798	-338
800.899	-80
801.001	-22
801.103	-738
801.205	-591
801.306	333
801.408	-392
801.509	-103
801.611	-91
801.713	770
801.814	39
801.916	-107
802.017	-18
802.119	-1087
802.220	-168
802.322	-841
802.423	851
802.525	-504
802.626	42
802.727	-49
802.829	-277
802.930	-1131
803.031	1173
803.133	-472
803.234	-107
803.335	-300
803.436	-420
803.538	-5
803.639	-915
803.740	-298
803.841	381
803.942	-900
804.043	519
804.144	-518
804.245	-627
804.346	-544
804.447	-724
804.548	117
804.649	69
804.750	-288
804.851	-452
804.952	118
805.053	26
805.154	-959
805.255	395
805.355	-177
805.456	105
805.557	-163
805.658	-843
805.758	330
805.859	-292
805.960	-606
806.061	-329
806.161	-847
806.262	-576
806.362	-947
806.463	244
806.564	245
806.664	-1069
806.765	-160
806.865	-244
806.966	342
807.066	288
807.166	-481
807.267	-873
807.367	139
807.468	298
807.568	-327
807.668	105
807.769	-144
807.869	153
807.969	373
808.069	-278
808.170	467
808.270	-590
808.370	301
808.470	-937
808.570	-366
808.670	-760
808.770	455
808.870	-293
808.970	514
809.070	-1396
809.170	187
809.271	-187
809.370	79
809.470	-112
809.570	-729
809.670	-472
809.770	-514
809.870	373
809.970	-304
810.070	-51
810.169	-456
810.269	-1187
810.369	670
810.469	-208
810.568	-647
810.668	-1277
810.768	-186
810.867	-4
810.967	-552
811.066	-622
811.166	-326
811.265	-814
811.365	-554
811.464	-590
811.564	-291
811.663	-402
811.763	-646
811.862	-372
811.962	754
812.061	-25
812.160	346
812.260	-350
812.359	-115
812.458	212
812.557	565
812.657	2701
812.756	990
812.855	40
812.954	28
813.053	250
813.153	-155
813.252	-781
813.351	-176
813.450	293
813.549	-458
813.648	235
813.747	-323
813.846	131
813.945	-196
814.044	-532
814.143	66
814.242	334
814.341	-500
814.439	-151
814.538	700
814.637	-73
814.736	-255
814.835	-109
814.933	-1018
815.032	22
815.131	-291
815.229	169
815.328	141
815.427	-146
815.525	284
815.624	155
815.722	313
815.821	-6
815.919	-210
816.018	-134
816.116	417
816.215	-528
816.313	-297
816.412	229
816.510	-434
816.609	778
816.707	1154
816.805	42
816.904	94
817.002	-34
817.100	1525
817.198	980
817.296	1030
817.395	1164
817.493	2311
817.591	2472
817.689	2903
817.787	5363
817.885	9633
817.983	18671
818.081	35033
818.179	81170
818.277	186751
818.375	214743
818.473	78167
818.571	28621
818.669	16082
818.767	12816
818.865	12729
818.963	14217
819.061	20290
819.158	34063
819.256	67495
819.354	143771
819.452	291692
819.549	256514
819.647	99491
819.745	40425
819.842	22847
819.940	14359
820.038	9067
820.135	8011
820.233	6528
820.330	3984
820.428	2946
820.525	3607
820.623	2701
820.720	1761
820.818	2591
820.915	1728
821.012	810
821.110	420
821.207	1278
821.304	619
821.402	1190
821.499	1420
821.596	2075
821.693	816
821.791	928
821.888	578
821.985	1139
822.082	1777
822.179	1132
822.276	485
822.373	449
822.470	4
822.567	-681
822.664	260
822.761	335
822.858	-480
822.955	210
823.052	208
823.149	269
823.246	-484
823.343	42
823.440	484
823.536	-224
823.633	-1271
823.730	-346
823.827	-47
823.923	28
824.020	660
824.117	-775
824.213	52
824.310	-266
824.407	-55
824.503	472
824.600	129
824.696	-872
824.793	-730
824.889	-1131
824.986	-320
825.082	-322
825.179	-208
825.275	-383
825.371	-491
825.468	-486
825.564	-1308
825.660	-828
825.757	-582
825.853	-370
825.949	-806
826.045	-951
826.142	-1331
826.238	-60
826.334	-253
826.430	-1536
826.526	-895
826.622	-1028
826.718	-600
826.814	-851
826.910	-293
827.006	-446
827.102	-1019
827.198	-72
827.294	-592
827.390	-479
827.486	-610
827.582	-1754
827.678	-1706
827.774	279
827.869	-573
827.965	-334
828.061	-29
828.157	-757
828.252	-248
828.348	-1620
828.444	-1
828.539	-975
828.635	-572
828.731	-31
828.826	-2171
828.922	180
829.017	-674
829.113	336
829.208	-917
829.304	-853
829.399	373
829.495	166
829.590	-227
829.685	-1272
829.781	-26
829.876	-513
829.971	-312
830.066	-718
830.162	-349
830.257	-290
830.352	-1031
830.447	-441
830.543	-1181
830.638	-1439
830.733	497
830.828	-880
830.923	-585
831.018	-1842
831.113	-808
831.208	-1003
831.303	-674
831.398	-685
831.493	-1010
831.588	-99
831.683	-1785
831.778	-217
831.873	221
831.967	-106
832.062	-717
832.157	-1462
832.252	187
832.346	34
832.441	-478
832.536	-248
832.631	920
832.725	204
832.820	-353
832.914	-399
833.009	-1211
833.104	-237
833.198	-19
833.293	-182
833.387	-301
833.482	-609
833.576	-1382
833.670	-73
833.765	-505
833.859	-317
833.954	-691
834.048	-529
834.142	-507
834.237	-473
834.331	-1096
834.425	-1003
834.519	-881
834.613	-7
834.708	-881
834.802	-316
834.896	-1316
834.990	-475
835.084	-770
835.178	-1134
835.272	-1329
835.366	-861
835.460	-469
835.554	-362
835.648	-993
835.742	-1478
835.836	-1055
835.930	-1165
836.024	-695
836.117	-592
836.211	-705
836.305	-304
836.399	-180
836.493	-908
836.586	-227
836.680	-979
836.774	-1281
836.867	-339
836.961	-962
837.055	-1124
837.148	-531
837.242	-1030
837.335	-643
837.429	-367
837.522	-1022
837.616	-615
837.709	-687
837.803	-287
837.896	-730
837.989	-1630
838.083	334
838.176	-245
838.269	433
838.363	425
838.456	-1751
838.549	-245
838.642	-178
838.735	1459
838.829	484
838.922	-942
839.015	-370
839.108	-1171
839.201	-1279
839.294	-1006
839.387	-814
839.480	-914
839.573	-1089
839.666	-468
839.759	-777
839.852	-1761
839.945	-124
840.038	309
840.131	-608
840.223	-173
840.316	-576
840.409	-1383
840.502	-1129
840.594	-104
840.687	-1212
840.780	-954
840.873	-780
840.965	-384
841.058	-22
841.150	67
841.243	-330
841.336	-430
841.428	-1192
841.521	-881
841.613	-1444
841.706	-198
841.798	-794
841.890	-274
841.983	-1249
842.075	132
842.167	-1222
842.260	-989
842.352	-94
842.444	-869
842.537	367
842.629	1422
842.721	-254
842.813	-1117
842.905	-1243
842.997	-298
843.090	-1545
843.182	-881
843.274	309
843.366	2330
843.458	3608
843.550	3945
843.642	543
843.734	-218
843.826	-944
843.918	-28
844.009	-886
844.101	-706
844.193	-811
844.285	-1322
844.377	-405
844.469	-715
844.560	-849
844.652	136
844.744	-1086
844.835	-1322
844.927	-1010
845.019	-1124
845.110	-607
845.202	-366
845.293	-724
845.385	-1301
845.476	-826
845.568	-676
845.659	-750
845.751	28
845.842	-964
845.934	-1047
846.025	-1125
846.116	-294
846.208	-912
846.299	-1748
846.390	-656
846.482	-654
846.573	20
846.664	-361
846.755	450
846.846	533
846.937	-1193
847.029	-1568
847.120	-1036
847.211	-1500
847.302	-129
847.393	-2450
847.484	-753
847.575	-640
847.666	-886
847.757	-1004
847.847	-411
847.938	-431
848.029	-1698
848.120	-948
848.211	-1118
848.302	-1363
848.392	-1407
848.483	-434
848.574	-1481
848.664	-863
848.755	-1359
848.846	-847
848.936	-1871
849.027	-342
849.118	-1058
849.208	-1097
849.299	-1236
849.389	-516
849.480	-482
849.570	-281
849.661	139
849.751	-411
849.841	-416
849.932	-1139
850.022	-1429
850.112	-781
850.203	-876
850.293	-869
850.383	-1414
850.474	-886
850.564	-1047
850.654	-918
850.744	-534
850.834	-910
850.924	-483
851.014	-629
851.104	-632
851.194	-1606
851.284	-1161
851.374	-10
851.464	-1222
851.554	-1111
851.644	-208
851.734	-123
851.824	-228
851.914	-1108
852.004	339
852.094	367
852.183	-1020
852.273	-1494
852.363	-1212
852.452	-678
852.542	-733
852.632	-1260
852.721	-831
852.811	-1289
852.901	-1022
852.990	-1463
853.080	-859
853.169	-1305
853.259	-521
853.348	-1288
853.438	-1083
853.527	68
853.617	-1751
853.706	-775
853.795	-1136
853.885	952
853.974	855
854.063	3955
854.152	5657
854.242	3069
854.331	-820
854.420	-1574
854.509	-854
854.598	-1108
854.687	-1148
854.777	-350
854.866	-291
854.955	616
855.044	-665
855.133	-1107
855.222	-1773
855.311	-1999
855.400	-465
855.488	-215
855.577	-898
855.666	-688
855.755	-605
855.844	-1013
855.933	-515
856.021	-981
856.110	-962
856.199	-944
856.288	-1350
856.376	-993
856.465	-766
856.554	-1432
856.642	-2565
856.731	-764
856.819	-1342
856.908	-1618
856.996	-914
857.085	-1466
857.173	-980
857.262	-1458
857.350	-1395
857.438	-1274
857.527	-922
857.615	-967
857.703	-561
857.792	-659
857.880	-1408
857.968	-1262
858.056	-1108
858.145	-901
858.233	-1172
858.321	-1055
858.409	-883
858.497	-758
858.585	-1857
858.673	-118
858.761	-1793
858.849	-1077
858.937	-889
859.025	-1176
859.113	-915
859.201	-994
859.289	-238
859.377	-1454
859.465	-1207
859.552	-1152
859.640	-1450
859.728	-619
859.816	-428
859.903	-919
859.991	-1178
860.079	-731
860.166	-1123
860.254	-1619
860.342	-1277
860.429	-900
860.517	-1667
860.604	-671
860.692	-1040
860.779	-1698
860.867	-1194
860.954	-1083
861.042	-927
861.129	-693
861.216	-1175
861.304	-509
861.391	-1272
861.478	-1246
861.565	-945
861.653	-634
861.740	-1099
861.827	-531
861.914	-246
862.001	-1251
862.089	-1045
862.176	-585
862.263	-1767
862.350	-1223
862.437	-1301
862.524	-1426
862.611	-651
862.698	-1071
862.785	-932
862.871	-49
862.958	-274
863.045	-1367
863.132	-885
863.219	-1194
863.306	-1392
863.392	-433
863.479	-655
863.566	-1312
863.652	-432
863.739	-1194
863.826	-1129
863.912	-1636
863.999	-2309
864.086	-687
864.172	-1487
864.259	-692
864.345	-1153
864.432	-591
864.518	-1107
864.604	-886
864.691	-1021
864.777	-142
864.863	-956
864.950	-531
865.036	-1233
865.122	-1304
865.209	-1702
865.295	-1114
865.381	-1576
865.467	-1570
865.553	-1130
865.639	-1161
865.726	-1808
865.812	-520
865.898	612
865.984	144
866.070	1668
866.156	3635
866.242	-165
866.328	-674
866.414	-1492
866.499	-1225
866.585	-495
866.671	-2073
866.757	-1019
866.843	46
866.928	-1626
867.014	-1094
867.100	-1030
867.186	-1329
867.271	-1209
867.357	-332
867.442	-923
867.528	-1217
867.614	-507
867.699	-1588
867.785	-372
867.870	-974
867.956	165
868.041	461
868.127	-790
868.212	-890
868.297	-790
868.383	-422
868.468	-1010
868.553	-283
868.639	-663
868.724	851
868.809	966
868.894	-375
868.979	-1039
869.065	-981
869.150	-1040
869.235	-964
869.320	-1517
869.405	-1660
869.490	-1526
869.575	-979
869.660	-1306
869.745	-779
869.830	-2132
869.915	-1519
870.000	-789
870.085	-1565
870.169	-1300
870.254	-960
870.339	-1667
870.424	-1071
870.509	-1142
870.593	-931
870.678	-660
870.763	-684
870.847	-773
870.932	-1257
871.016	-1590
871.101	-979
871.186	-1139
871.270	-702
871.355	-681
871.439	-1918
871.523	-1451
871.608	-1033
871.692	-1268
871.777	143
871.861	-905
871.945	-1919
872.030	-630
872.114	-1089
872.198	-1585
872.282	-1077
872.367	-1177
872.451	-1972
872.535	-992
872.619	-1368
872.703	-1449
872.787	-1117
872.871	-1395
872.955	-534
873.039	-533
873.123	-1832
873.207	-879
873.291	-613
873.375	-1126
873.459	-616
873.543	-1761
873.627	-1170
873.711	-1591
873.794	-1313
873.878	-2074
873.962	-1096
874.045	-1421
874.129	-853
874.137	-911
874.213	-1495
874.245	-1414
874.296	-1283
874.352	-1023
874.380	-899
874.460	-521
874.464	-506
874.547	-1115
874.568	-1122
874.631	-1158
874.676	-661
874.714	-232
874.784	-1380
874.798	-1618
874.881	-628
874.892	-693
874.965	-1090
874.999	-1204
875.048	-1365
875.107	-1437
875.131	-1470
875.215	-894
875.215	-894
875.298	-1170
875.323	-1054
875.381	-761
875.430	-796
875.465	-809
875.538	-884
875.548	-899
875.631	-283
875.646	-423
875.714	-1075
875.753	-1324
875.798	-1576
875.861	-1554
875.881	-1594
875.964	-1339
875.968	-1317
876.047	-731
876.076	-771
876.130	-936
876.183	-1229
876.213	-1353
876.291	-713
876.296	-673
876.379	-1233
876.398	-1074
876.462	-588
876.506	-769
876.545	-855
876.613	-254
876.628	-153
876.711	-679
876.721	-669
876.794	-512
876.828	-807
876.877	-1188
876.935	-904
876.960	-802
877.043	-415
877.043	-416
877.125	-625
877.150	-454
877.208	-17
877.258	-395
877.291	-581
877.365	169
877.374	232
877.456	-236
877.472	-387
877.539	-831
877.579	-378
877.622	-81
877.687	-767
877.704	-873
877.787	-415
877.794	-412
877.869	-518
877.901	-393
877.952	-160
878.008	-580
878.034	-817
878.115	-386
878.117	-372
878.199	-759
878.222	-644
878.282	-294
878.329	-123
878.364	-168
878.437	13
878.447	98
878.529	-136
878.544	9
878.611	384
878.651	280
878.694	205
878.758	-351
878.776	-456
878.858	-596
878.865	-546
878.941	-128
878.972	-234
879.023	-335
879.078	-613
879.105	-728
879.185	-233
879.187	-221
879.269	-10
879.292	-138
879.351	-598
879.399	-532
879.433	-421
879.506	14
879.516	80
879.598	-696
879.613	-690
879.680	-445
879.720	-23
879.762	254
879.827	44
879.844	20
879.926	236
879.933	197
880.007	-389
880.040	-445
880.089	-380
880.147	-183
880.171	-75
880.253	548
880.254	546
880.335	807
880.360	1001
880.417	1135
880.467	1081
880.499	1226
880.574	2489
880.580	2540
880.662	603
880.680	440
880.744	232
880.787	57
880.825	-50
880.893	57
880.907	100
880.989	165
881.000	270
881.070	475
881.106	185
881.152	103
881.213	209
881.233	226
881.315	-145
881.319	-105
881.396	598
881.426	419
881.478	185
881.532	-82
881.559	-121
881.639	296
881.641	298
881.722	-101
881.745	-116
881.803	215
881.852	248
881.885	137
881.958	-56
881.966	-61
882.047	23
882.064	57
882.129	450
882.171	641
882.210	985
882.277	1315
882.291	1235
882.372	477
882.383	402
882.454	367
882.489	459
882.535	242
882.596	-24
882.616	106
882.697	493
882.702	512
882.778	556
882.808	393
882.859	163
882.914	293
882.940	319
883.020	809
883.021	819
883.102	536
883.127	506
883.183	292
883.233	468
883.264	700
883.339	766
883.345	766
883.426	437
883.445	444
883.507	729
883.551	825
883.587	634
883.657	539
883.668	601
883.749	469
883.763	501
883.830	793
883.869	1040
883.910	950
883.975	634
883.991	722
884.072	1068
884.081	1097
884.152	758
884.187	541
884.233	712
884.292	1130
884.314	1243
884.394	1353
884.398	1372
884.475	960
884.504	530
884.555	497
884.610	748
884.636	780
884.716	774
884.716	782
884.797	1063
884.821	990
884.877	849
884.927	675
884.958	742
885.033	1251
885.038	1267
885.118	1000
885.139	878
885.199	595
885.244	867
885.279	918
885.350	369
885.359	408
885.439	953
885.456	977
885.520	876
885.561	1164
885.600	1372
885.667	1400
885.680	1350
885.760	889
885.773	831
885.840	1374
885.878	1621
885.920	1332
885.984	887
886.000	902
886.080	1042
886.089	1013
886.160	902
886.195	1037
886.240	971
886.300	635
886.320	706
886.400	1182
886.406	1193
886.480	1035
886.511	975
886.560	930
886.616	883
886.640	931
886.720	974
886.722	968
886.800	1177
886.827	1277
886.879	1408
886.932	1421
886.959	1512
887.038	1794
887.039	1803
887.119	1713
887.143	1731
887.198	1626
887.248	1323
887.278	1366
887.354	1680
887.358	1700
887.437	1800
887.459	1806
887.517	1456
887.564	1136
887.596	1280
887.669	1671
887.676	1690
887.755	1784
887.774	1793
887.835	1873
887.880	1857
887.914	1957
887.985	2217
887.994	2166
888.073	1566
888.090	1432
888.153	1531
888.195	1536
888.232	1387
888.300	1181
888.311	1250
888.391	1617
888.405	1680
888.470	1965
888.510	2115
888.549	2035
888.615	1878
888.628	1826
888.708	1437
888.720	1380
888.787	2099
888.825	2423
888.866	2248
888.930	2021
888.945	2078
889.024	2344
889.035	2367
889.103	2125
889.140	1964
889.182	2185
889.245	2515
889.261	2477
889.340	2217
889.349	2181
889.419	1938
889.454	1780
889.498	1650
889.559	1485
889.577	1441
889.656	1206
889.664	1178
889.735	1521
889.768	1677
889.814	2311
889.873	3133
889.978	1952
890.083	2550
890.187	1686
890.292	2298
890.397	1791
890.501	2058
890.606	2096
890.710	2153
890.815	2040
890.919	2535
891.024	1779
891.128	2310
891.233	2063
891.337	2582
891.442	1661
891.546	2287
891.650	825
891.755	2719
891.859	2736
891.963	2316
892.068	1982
892.172	2102
892.276	1917
892.380	2144
892.484	1053
892.589	1411
892.693	1725
892.797	2317
892.901	1796
893.005	1917
893.109	1608
893.213	2090
893.317	2290
893.421	2893
893.525	1832
893.629	1822
893.733	1921
893.837	1839
893.941	2507
894.045	2339
894.148	3535
894.252	8560
894.356	6071
894.460	1363
894.564	1333
894.667	2729
894.771	1395
894.875	1331
894.978	2149
895.082	1661
895.186	1003
895.289	2399
895.393	1523
895.496	1831
895.600	1271
895.703	1194
895.807	864
895.910	2329
896.014	1322
896.117	1150
896.221	2175
896.324	1629
896.427	1658
896.531	1736
896.634	952
896.737	1227
896.840	1397
896.944	2201
897.047	2204
897.150	1845
897.253	2046
897.356	1991
897.460	1412
897.563	1449
897.666	1726
897.769	1783
897.872	1366
897.975	1460
898.078	-71
898.181	2133
898.284	1596
898.387	1975
898.490	1174
898.593	2620
898.695	764
898.798	1502
898.901	1511
899.004	2134
899.107	2009
899.209	1424
899.312	2281
899.415	1673
899.518	1731
899.620	1536
899.723	1071
899.826	2382
899.928	1689
900.031	1740
900.133	1215
900.236	1983
900.338	926
900.441	1430
900.543	0
900.646	1831
900.748	1349
900.851	1873
900.953	1031
901.055	2337
901.158	1501
901.260	1591
901.362	1219
901.465	1206
901.567	1197
901.669	2025
901.771	927
901.873	1170
901.976	1888
902.078	1840
902.180	2167
902.282	1632
902.384	883
902.486	1575
902.588	1888
902.690	1784
902.792	1099
902.894	1822
902.996	1691
903.098	1216
903.200	1200
903.302	1871
903.404	1868
903.505	1839
903.607	1626
903.709	1482
903.811	1078
903.913	873
904.014	1601
904.116	1714
904.218	2319
904.319	1754
904.421	2155
904.523	2915
904.624	497
904.726	1913
904.827	1154
904.929	1410
905.030	1214
905.132	1225
905.233	1905
905.335	1518
905.436	1112
905.537	1807
905.639	1836
905.740	1242
905.841	1639
905.943	1491
906.044	2163
906.145	1890
906.247	795
906.348	2389
906.449	1772
906.550	1290
906.651	1883
906.752	1455
906.854	2047
906.955	1739
907.056	1533
907.157	1476
907.258	1637
907.359	2346
907.460	1617
907.561	2271
907.662	769
907.762	1535
907.863	1900
907.964	1563
908.065	2036
908.166	1438
908.267	1957
908.367	1268
908.468	1426
908.569	1047
908.670	2120
908.770	1984
908.871	1356
908.971	1476
909.072	1639
909.173	1097
909.273	2038
909.374	1638
909.474	2284
909.575	1476
909.675	1745
909.776	2269
909.876	885
909.977	1453
910.077	1259
910.177	1879
910.278	1915
910.378	2325
910.478	1370
910.579	1811
910.679	1890
910.779	2297
910.879	1574
910.980	1975
911.080	1325
911.180	2101
911.280	1347
911.380	2074
911.480	1250
911.580	1950
911.680	1999
911.780	1991
911.880	1451
911.980	2298
912.080	1337
912.180	1845
912.280	1334
912.380	1593
912.480	2074
912.580	1671
912.679	1415
912.779	1925
912.879	987
912.979	1816
913.078	1565
913.178	1870
913.278	1722
913.377	2460
913.477	1678
913.577	1542
913.676	1737
913.776	1248
913.875	1875
913.975	1844
914.074	1409
914.174	1630
914.273	1260
914.373	1161
914.472	1506
914.572	1387
914.671	1159
914.770	1478
914.870	490
914.969	1220
915.068	1218
915.167	1674
915.267	686
915.366	1738
915.465	1002
915.564	758
915.663	1992
915.763	967
915.862	1347
915.961	1661
916.060	1485
916.159	2254
916.258	1999
916.357	752
916.456	824
916.555	815
916.654	1330
916.752	1890
916.851	878
916.950	1427
917.049	991
917.148	1514
917.247	1270
917.345	1217
917.444	482
917.543	845
917.642	1598
917.740	1417
917.839	1408
917.937	1568
918.036	1607
918.135	1420
918.233	922
918.332	1172
918.430	1626
918.529	1092
918.627	1122
918.726	1531
918.824	1530
918.923	2067
919.021	1711
919.119	1520
919.218	965
919.316	1633
919.414	1103
919.512	665
919.611	1338
919.709	1456
919.807	1073
919.905	1648
920.003	1321
920.102	1417
920.200	1222
920.298	1183
920.396	1420
920.494	1934
920.592	1174
920.690	1301
920.788	1606
920.886	1936
920.984	1468
921.082	1440
921.180	1430
921.277	2051
921.375	832
921.473	1097
921.571	1403
921.669	907
921.766	963
921.864	1220
921.962	1476
922.060	1657
922.157	1273
922.255	1263
922.352	1118
922.450	2385
922.548	1407
922.645	19
922.743	573
922.840	1542
922.938	1546
923.035	1739
923.133	1961
923.230	1513
923.327	1726
923.425	1480
923.522	784
923.619	1860
923.717	838
923.814	1668
923.911	1426
924.008	1558
924.106	429
924.203	1935
924.300	279
924.397	558
924.494	2075
924.591	1227
924.688	438
924.786	1114
924.883	1680
924.979	1064
925.077	1351
925.173	1053
925.270	1135
925.367	1344
925.464	1423
925.561	1422
925.658	1921
925.755	1139
925.852	1118
925.948	1521
926.045	2400
926.142	1233
926.239	2831
926.335	1480
926.432	1627
926.529	2618
926.625	2280
926.722	1423
926.818	562
926.915	1834
927.011	859
927.108	583
927.204	965
927.301	1946
927.397	379
927.494	1720
927.590	1550
927.687	1402
927.783	389
927.879	677
927.976	720
928.072	2089
928.168	1205
928.264	578
928.361	912
928.457	1487
928.553	654
928.649	1170
928.745	1294
928.841	1695
928.937	1036
929.033	1101
929.129	1258
929.225	1136
929.321	787
929.417	1906
929.513	578
929.609	1160
929.705	970
929.801	1502
929.897	347
929.993	976
930.089	36
930.184	633
930.280	1192
930.376	889
930.471	1191
930.567	1333
930.663	912
930.758	889
930.854	993
930.950	1312
931.045	908
931.141	1418
931.236	1453
931.332	1009
931.427	742
931.523	1435
931.618	1010
931.714	978
931.809	1264
931.905	1135
932.000	655
932.095	1035
932.191	834
932.286	997
932.381	508
932.476	964
932.572	686
932.667	914
932.762	1333
932.857	671
932.952	606
933.047	1089
933.142	305
933.237	1102
933.332	359
933.427	1416
933.522	594
933.617	1225
933.712	1277
933.807	663
933.902	-201
933.997	1880
934.092	883
934.187	522
934.282	967
934.376	1031
934.471	611
934.566	1213
934.661	789
934.755	521
934.850	487
934.945	882
935.039	974
935.134	529
935.228	1118
935.323	1673
935.417	-416
935.512	910
935.606	756
935.701	1523
935.795	853
935.890	758
935.984	1154
936.079	950
936.173	1126
936.267	1044
936.362	601
936.456	753
936.550	707
936.644	997
936.738	728
936.833	1119
936.927	952
937.021	900
937.115	79
937.209	543
937.303	512
937.397	1362
937.491	401
937.585	909
937.679	813
937.773	628
937.867	1917
937.961	677
938.055	203
938.149	1308
938.243	1022
938.337	1289
938.430	841
938.524	1552
938.618	1709
938.712	1347
938.805	713
938.899	1153
938.993	797
939.086	1303
939.180	1720
939.274	1676
939.367	452
939.461	1334
939.554	432
939.648	1052
939.741	619
939.835	786
939.928	502
940.022	659
940.115	1203
940.208	838
940.302	993
940.395	-7
940.488	925
940.582	671
940.675	540
940.768	683
940.861	659
940.954	753
941.048	670
941.141	913
941.234	-35
941.327	598
941.420	749
941.513	1335
941.606	-50
941.699	1141
941.792	243
941.885	-167
941.978	722
942.071	269
942.164	193
942.257	659
942.349	526
942.442	1275
942.535	845
942.628	903
942.721	607
942.813	-9
942.906	892
942.999	264
943.091	-119
943.184	473
943.277	-56
943.369	635
943.462	1004
943.554	765
943.647	490
943.739	785
943.832	484
943.924	220
944.017	1203
944.109	791
944.201	1342
944.294	1158
944.386	705
944.478	1213
944.571	624
944.663	1086
944.755	746
944.847	499
944.940	1131
945.032	548
945.124	622
945.216	554
945.308	632
945.400	539
945.492	757
945.584	1410
945.676	773
945.768	850
945.860	411
945.952	659
946.044	314
946.136	528
946.228	540
946.320	698
946.412	452
946.503	676
946.595	704
946.687	906
946.779	-437
946.870	704
946.962	337
947.054	835
947.145	119
947.237	1034
947.329	624
947.420	786
947.512	883
947.603	573
947.695	638
947.786	760
947.878	445
947.969	1455
948.061	490
948.152	424
948.243	149
948.335	765
948.426	102
948.517	303
948.609	-270
948.700	469
948.791	-75
948.882	1463
948.973	735
949.065	-387
949.156	777
949.247	986
949.338	87
949.429	444
949.520	533
949.611	-452
949.702	402
949.793	1668
949.884	424
949.975	498
950.066	478
950.157	482
950.247	194
950.338	662
950.429	422
950.520	703
950.611	165
950.701	706
950.792	1030
950.883	896
950.973	90
951.064	-63
951.155	-88
951.245	554
951.336	214
951.427	-8
951.517	425
951.608	836
951.698	-104
951.788	356
951.879	230
951.969	647
952.060	860
952.150	13
952.240	1026
952.331	-231
952.421	1530
952.511	548
952.602	607
952.692	517
952.782	123
952.872	444
952.962	218
953.052	1554
953.143	702
953.233	279
953.323	785
953.413	-23
953.503	657
953.593	667
953.683	380
953.773	412
953.863	220
953.953	294
954.042	618
954.132	420
954.222	103
954.312	904
954.402	661
954.492	701
954.581	142
954.671	582
954.761	55
954.850	574
954.940	55
955.030	908
955.119	-352
955.209	314
955.298	185
955.388	270
955.477	548
955.567	-105
955.656	805
955.746	1410
955.835	781
955.925	185
956.014	116
956.103	387
956.193	651
956.282	681
956.371	377
956.461	1049
956.550	254
956.639	372
956.728	874
956.817	1137
956.906	501
956.995	992
957.085	320
957.174	1058
957.263	299
957.352	543
957.441	106
957.530	453
957.619	187
957.708	921
957.796	-526
957.885	801
957.974	216
958.063	713
958.152	1066
958.241	872
958.329	1286
958.418	1041
958.507	431
958.596	1396
958.684	175
958.773	1610
958.861	1571
958.950	1279
959.039	2319
959.127	2594
959.216	521
959.304	1990
959.393	1198
959.481	1491
959.570	978
959.658	2184
959.746	1577
959.835	1871
959.923	2013
960.011	976
960.100	1505
960.188	1027
960.276	1073
960.365	708
960.453	1081
960.541	721
960.629	844
960.717	544
960.805	585
960.893	369
960.981	-205
961.069	1500
961.158	-186
961.245	522
961.333	354
961.421	871
961.509	812
961.597	1343
961.685	640
961.773	546
961.861	375
961.949	18
962.036	282
962.124	801
962.212	209
962.299	870
962.387	230
962.475	343
962.562	-300
962.650	892
962.738	-220
962.825	506
962.913	621
963.000	494
963.088	341
963.175	-498
963.263	368
963.350	162
963.438	516
963.525	146
963.612	389
963.700	1215
963.787	1974
963.874	1157
963.962	-8
964.049	691
964.136	245
964.223	-7
964.310	51
964.398	745
964.485	-10
964.572	539
964.659	517
964.746	323
964.833	-663
964.920	-21
965.007	185
965.094	-40
965.181	-30
965.268	374
965.355	-2
965.441	531
965.528	13
965.615	862
965.702	178
965.789	-215
965.875	-157
965.962	-588
966.049	-372
966.136	352
966.222	-738
966.309	415
966.395	-803
966.482	307
966.569	80
966.655	202
966.742	-420
966.828	851
966.915	596
967.001	-42
967.087	161
967.174	528
967.260	628
967.347	-108
967.433	-107
967.519	1339
967.605	943
967.692	-69
967.778	187
967.864	245
967.950	-869
968.036	270
968.123	-80
968.209	494
968.295	-287
968.381	-24
968.467	253
968.553	-516
968.639	679
968.725	92
968.811	-398
968.897	441
968.983	-598
969.069	557
969.154	-354
969.240	-310
969.326	-229
969.412	-78
969.497	-483
969.583	-121
969.669	-290
969.755	261
969.840	192
969.926	152
970.012	35
970.097	-144
970.183	-411
970.268	-213
970.354	75
970.439	-600
970.525	1027
970.610	-216
970.696	-728
970.781	-309
970.866	-524
970.952	66
971.037	-611
971.122	41
971.208	156
971.293	-657
971.378	-1007
971.463	231
971.549	-286
971.634	-699
971.719	-509
971.804	203
971.889	800
971.974	-227
972.059	557
972.144	-3
972.229	-529
972.314	-478
972.399	-346
972.484	-128
972.569	364
972.654	-677
972.739	458
972.824	203
972.908	-108
972.993	-106
973.078	142
973.163	-447
973.247	-808
973.332	-1240
973.417	299
973.501	-761
973.586	-440
973.671	44
973.755	-807
973.840	265
973.924	-16
974.009	194
974.093	-26
974.178	242
974.262	753
974.346	-216
974.431	-526
974.515	-438
974.600	-1142
974.684	142
974.768	-901
974.852	-221
974.937	-313
975.021	-86
975.105	116
975.189	-763
975.273	-146
975.358	-642
975.442	-616
975.526	-812
975.610	-170
975.694	4
975.778	40
975.862	-310
975.946	-1325
976.030	259
976.114	-395
976.198	-235
976.281	-166
976.365	12
976.449	-524
976.533	211
976.617	-807
976.700	54
976.784	-537
976.868	-740
976.951	73
977.035	-83
977.119	46
977.202	-411
977.286	-895
977.369	681
977.453	-312
977.536	-927
977.620	-602
977.703	-145
977.787	-1621
977.870	-276
977.953	571
978.037	-709
978.120	-841
978.203	434
978.287	-273
978.370	-146
978.453	-491
978.536	-701
978.620	-308
978.703	-676
978.786	-263
978.869	-611
978.952	-1568
979.035	441
979.118	-974
979.201	-444
979.284	-217
979.367	-461
979.450	-607
979.533	-34
979.616	-284
979.699	-549
979.782	-620
979.865	-229
979.948	-829
980.030	-290
980.113	-858
980.196	-392
980.279	-411
980.361	-369
980.444	-734
980.526	-806
980.609	-1580
980.692	-576
980.774	-62
980.857	-429
980.939	-21
981.022	-767
981.104	-704
981.187	132
981.269	-155
981.352	-772
981.434	-1257
981.516	-1017
981.599	116
981.681	-348
981.763	78
981.846	-941
981.928	-699
982.010	-724
982.092	-721
982.174	340
982.256	-1366
982.339	-698
982.421	-671
982.503	311
982.585	-282
982.667	-674
982.749	-747
982.831	-18
982.913	-1435
982.995	-274
983.077	-1574
983.158	-61
983.240	-1543
983.322	-379
983.404	-912
983.486	-812
983.568	-501
983.649	-962
983.731	-701
983.813	-941
983.894	-1382
983.976	-1226
984.058	-1546
984.139	252
984.221	-1033
984.302	-424
984.384	-1208
984.465	-1410
984.547	-1212
984.628	-1695
984.710	-623
984.791	376
984.872	-602
984.954	-459
985.035	-519
985.116	-1530
985.198	-627
985.279	160
985.360	-1010
985.441	-1121
985.522	-183
985.604	-529
985.685	-1842
985.766	586
985.847	-559
985.928	-1953
986.009	-1401
986.090	-1405
986.171	-204
986.252	-440
986.333	-1060
986.414	-1294
986.495	-1365
986.576	-1419
986.656	-1329
986.737	-657
986.818	-617
986.899	-871
986.980	-974
987.060	-310
987.141	-1400
987.222	-251
987.302	-1019
987.383	-1886
987.464	-721
987.544	-562
987.625	-298
987.705	-622
987.786	-775
987.866	-885
987.947	-1147
988.027	-1302
988.108	-1575
988.188	-577
988.268	-863
988.349	-1080
988.429	-757
988.509	-903
988.589	-1646
988.670	-1385
988.750	-225
988.830	-916
988.910	-595
988.990	-776
989.070	-77
989.151	-615
989.231	-1968
989.311	-958
989.391	-1244
989.471	-904
989.551	-1439
989.631	-1278
989.711	-761
989.791	-1474
989.870	-800
989.950	-691
990.030	-1161
990.110	-1742
990.190	-1898
990.269	-1141
990.349	-1284
990.429	-357
990.509	-924
990.588	-1747
990.668	-554
990.747	-450
990.827	-1437
990.907	-851
990.986	-1778
991.066	-1270
991.145	-1549
991.225	-1051
991.304	-407
991.383	-1337
991.463	-905
991.542	-1368
991.622	-1758
991.701	-1925
991.780	-1285
991.859	-2377
991.939	-2247
992.018	-887
992.097	-1152
992.176	-318
992.256	-1127
992.335	-1494
992.414	-1201
992.493	-1137
992.572	-1356
992.651	124
992.730	-1606
992.809	-800
992.888	-1956
992.967	-478
993.046	-1295
993.125	-2197
993.203	-878
993.282	-364
993.361	-1513
993.440	-683
993.519	-2033
993.597	-1214
993.676	-1692
993.755	-865
993.834	-633
993.912	-1618
993.991	-746
994.069	-1715
994.148	-1349
994.226	-1495
994.305	-1518
994.384	-1380
994.462	-1383
994.540	-1951
994.619	-1982
994.697	-151
994.776	-1907
994.854	-1152
994.932	-1388
995.011	-770
995.089	-1522
995.167	-976
995.245	-2069
995.324	-1682
995.402	-1547
995.480	-1785
995.558	-1849
995.636	-2279
995.714	-1065
995.792	-815
995.870	-1299
995.948	-1292
996.026	-1857
996.104	-2140
996.182	-1038
996.260	-1240
996.338	-1542
996.416	-1577
996.494	-1396
996.572	-559
996.649	-2717
996.727	-2344
996.805	-1816
996.883	-1799
996.960	-2489
997.038	-1045
997.116	-1519
997.193	-1977
997.271	-1229
997.348	-1043
997.426	-2116
997.504	-1803
997.581	-1182
997.658	-1382
997.736	-1374
997.813	-1068
997.891	-1682
997.968	-1472
998.046	-2196
998.123	-1756
998.200	-786
998.277	-1860
998.355	-1860
998.432	-1861
998.509	-1847
998.586	-985
998.663	-1271
998.741	-1716
998.818	-1166
998.895	-1735
998.972	-1484
999.049	-1561
999.126	-1343
999.203	-607
999.280	-1325
999.357	-1829
999.434	-1789
999.511	-933
999.587	-1678
999.664	-2691
999.741	-1438
999.818	-1421
999.895	-2062
999.971	-2041
1000.048	-1822
1000.125	-1964
1000.202	-2139
1000.278	-2288
1000.355	-2038
1000.431	-1354
1000.508	-2029
1000.584	-1195
1000.661	-1404
1000.738	-1720
1000.814	-1196
1000.890	-1470
1000.967	-1718
1001.043	-1479
1001.120	-2832
1001.196	-1635
1001.272	-1783
1001.349	-1983
1001.425	-1191
1001.501	-1688
1001.577	-1865
1001.654	-1654
1001.730	-1659
1001.806	-1279
1001.882	-1710
1001.958	-1629
1002.034	-880
1002.110	-2688
1002.186	-1779
1002.262	-1096
1002.338	-1828
1002.414	-926
1002.490	-1597
1002.566	-2109
1002.642	-1512
1002.718	-1470
1002.794	-1298
1002.870	-1718
1002.945	-1706
1003.021	-1054
1003.097	-1258
1003.173	-1520
1003.248	-2210
1003.324	-1092
1003.400	-1831
1003.475	-1645
1003.551	-1646
1003.626	-1919
1003.702	-1801
1003.777	-1025
1003.853	-1818
1003.928	-2349
1004.004	-1732
1004.079	-1188
1004.155	-1983
1004.230	-2390
1004.305	-860
1004.381	-1894
1004.456	-1853
1004.531	-2017
1004.607	-910
1004.682	-2017
1004.757	-1690
1004.832	-1491
1004.907	-1974
1004.982	-1349
1005.057	-1291
1005.133	-1530
1005.208	-1860
1005.283	-1381
1005.358	-1658
1005.433	-1986
1005.508	-1397
1005.583	-1587
1005.657	-2039
1005.732	-1411
1005.807	-2140
1005.882	-1515
1005.957	-1508
1006.032	-1826
1006.106	-1685
1006.181	-2824
1006.256	-844
1006.331	-2347
1006.405	-2533
1006.480	-1126
1006.554	-1809
1006.629	-1990
1006.704	-1614
1006.778	-1299
1006.853	-2063
1006.927	-1537
1007.002	-2262
1007.076	-1197
1007.150	-1492
1007.225	-1348
1007.299	-2133
1007.373	-2075
1007.448	-1953
1007.522	-1185
1007.596	-2013
1007.671	-1725
1007.745	-1536
1007.819	-2051
1007.893	-2478
1007.967	-1769
1008.041	-3217
1008.115	-1045
1008.190	-2574
1008.264	-1356
1008.338	-2200
1008.412	-1557
1008.486	-1973
1008.560	-1390
1008.633	-1865
1008.707	-1441
1008.781	-943
1008.855	-1617
1008.929	-1136
1009.003	-1744
1009.076	-2187
1009.150	-2089
1009.224	-1586
1009.298	-2105
1009.371	-2041
1009.445	-1535
1009.519	-2105
1009.592	-2682
1009.666	-2352
1009.739	-1910
1009.813	-2953
1009.886	-850
1009.960	-2987
1010.033	-2158
1010.107	-1845
1010.180	-2431
1010.253	-1252
1010.327	-2039
1010.400	-2733
1010.473	-1781
1010.547	-1061
1010.620	-1922
1010.693	-1716
1010.766	-1470
1010.840	-1860
1010.913	-1399
1010.986	-2296
1011.059	-2300
1011.132	-2038
1011.205	-1182
1011.278	-1857
1011.351	-1024
1011.424	-1935
1011.497	-2467
1011.570	-1977
1011.643	-2150
1011.716	-1653
1011.789	-1661
1011.862	-1732
1011.934	-1367
1012.007	-2316
1012.080	-2162
1012.153	-2558
1012.225	-1936
1012.298	-2053
1012.371	-2046
1012.443	-1398
1012.516	-1866
1012.588	-2190
1012.661	-1055
1012.733	-2381
1012.806	-1047
1012.879	-2303
1012.951	-1759
1013.023	-2307
1013.096	-1767
1013.168	-2353
1013.241	-1200
1013.313	-2208
1013.385	-2579
1013.458	-2188
1013.530	-1533
1013.602	-3211
1013.674	-1905
1013.746	-1993
1013.819	-1213
1013.891	-2197
1013.963	-1649
1014.035	-2314
1014.107	-1778
1014.179	-2144
1014.251	-2204
1014.323	-1445
1014.395	-1772
1014.467	-1590
1014.539	-1757
1014.611	-2502
1014.683	-1973
1014.754	-1592
1014.826	-1980
1014.898	-1769
1014.970	-2297
1015.042	-1098
1015.113	-1624
1015.185	-2144
1015.257	-2218
1015.328	-2006
1015.400	-1947
1015.471	-1758
1015.543	-2161
1015.615	-2277
1015.686	-1628
1015.757	-1713
1015.829	-1647
1015.901	-2657
1015.972	-2011
1016.043	-2392
1016.115	-1023
1016.186	-1984
1016.257	-2178
1016.328	-2191
1016.400	-1413
1016.471	-2064
1016.542	-2266
1016.613	-2822
1016.685	-1920
1016.756	-1929
1016.827	-1831
1016.898	-2716
1016.969	-1380
1017.040	-1436
1017.111	-2250
1017.182	-2320
1017.253	-2193
1017.324	-2132
1017.395	-1681
1017.466	-1893
1017.537	-1353
1017.608	-2697
1017.678	-1687
1017.749	-1929
1017.820	-2509
1017.891	-2412
1017.961	-3254
1018.032	-2308
1018.103	-1590
1018.173	-1477
1018.244	-3179
1018.315	-1919
1018.385	-1222
1018.456	-2100
1018.526	-2176
1018.597	-2081
1018.667	-2157
1018.738	-1818
1018.808	-2208
1018.878	-2300
1018.949	-2038
1019.019	-1380
1019.089	-1414
1019.160	-2256
1019.230	-2645
1019.300	-2124
1019.371	-3227
1019.441	-2021
1019.511	-1836
1019.581	-2243
1019.651	-1259
1019.721	-1875
1019.791	-1008
1019.861	-2071
1019.931	-1424
1020.001	-1631
1020.071	-1822
1020.141	-1619
1020.211	-2438
1020.281	-2490
1020.351	-3186
1020.421	-2369
1020.491	-1655
1020.560	-2494
1020.630	-1895
1020.700	-1952
1020.770	-2668
1020.839	-2370
1020.909	-1160
1020.979	-2438
1021.048	-1923
1021.118	-1714
1021.187	-1637
1021.257	-2269
1021.326	-1124
1021.396	-1498
1021.465	-1418
1021.535	-2081
1021.604	-2128
1021.674	-1639
1021.743	-772
1021.812	-1940
1021.882	-1790
1021.951	-2591
1022.020	-1890
1022.089	-1410
1022.159	-2787
1022.228	-2627
1022.297	-2583
1022.366	-1719
1022.435	-1699
1022.504	-1976
1022.573	-2064
1022.642	-2062
1022.711	-2866
1022.781	-1928
1022.849	-1763
1022.918	-2631
1022.987	-1016
1023.056	-2661
1023.125	-1389
1023.194	-1403
1023.263	-2352
1023.331	-2148
1023.400	-2280
1023.469	-2557
1023.538	-2031
1023.606	-2424
1023.675	-1159
1023.744	-1913
1023.812	-3024
1023.881	-1946
1023.949	-1993
1024.018	-1581
1024.086	-2016
1024.155	-2373
1024.223	-2955
1024.292	-2132
1024.360	-1302
1024.429	-2411
1024.497	-2897
1024.565	-2152
1024.634	-1433
1024.702	-2387
1024.770	-2312
1024.838	-1669
1024.907	-1798
1024.975	-2435
1025.043	-2032
1025.111	-2476
1025.179	-2287
1025.247	-1984
1025.315	-2309
1025.383	-2423
1025.451	-1749
1025.519	-2075
1025.587	-1995
1025.655	-3164
1025.723	-2427
1025.791	-2624
1025.859	-1496
1025.927	-1620
1025.995	-2014
1026.062	-2070
1026.130	-2007
1026.198	-2060
1026.266	-2283
1026.333	-1880
1026.401	-1428
1026.469	-2493
1026.536	-2506
1026.604	-2686
1026.671	-2615
1026.739	-2668
1026.806	-2254
1026.874	-2900
1026.941	-1946
1027.009	-2582
1027.076	-2337
1027.144	-1905
1027.211	-2429
1027.278	-3131
1027.345	-2497
1027.413	-1627
1027.480	-2733
1027.547	-2204
1027.614	-2522
1027.682	-2730
1027.749	-1920
1027.816	-2119
1027.883	-2019
1027.950	-1620
1028.017	-2795
1028.084	-1242
1028.151	-2635
1028.218	-2244
1028.285	-2175
1028.352	-2117
1028.419	-2871
1028.486	-2314
1028.553	-2524
1028.619	-2601
1028.686	-2388
1028.753	-2924
1028.820	-2853
1028.886	-3234
1028.953	-2123
1029.020	-2519
1029.086	-2400
1029.153	-2517
1029.220	-2421
1029.286	-2169
1029.353	-2374
1029.419	-2406
1029.486	-2911
1029.552	-2357
1029.619	-1750
1029.685	-2751
1029.751	-2326
1029.818	-1602
1029.884	-2712
1029.951	-1531
1030.017	-2440
1030.083	-2496
1030.149	-2393
1030.216	-2814
1030.282	-2407
1030.348	-3112
1030.414	-2944
1030.480	-2278
1030.546	-2557
1030.612	-2256
1030.678	-2841
1030.744	-2373
1030.810	-2048
1030.876	-2661
1030.942	-2323
1031.008	-1689
1031.074	-2751
1031.140	-3192
1031.206	-2558
1031.272	-2678
1031.337	-2058
1031.403	-1919
1031.469	-2327
1031.534	-3212
1031.600	-2445
1031.666	-3438
1031.731	-2676
1031.797	-2215
1031.863	-1663
1031.928	-2549
1031.994	-2626
1032.059	-3232
1032.125	-2048
1032.190	-2458
1032.256	-3125
1032.321	-2752
1032.386	-1947
1032.452	-2473
1032.517	-2151
1032.582	-2601
1032.647	-2262
1032.713	-2487
1032.778	-1565
1032.843	-2139
1032.908	-2044
1032.974	-2650
1033.039	-3139
1033.104	-1831
1033.169	-2621
1033.234	-2112
1033.299	-2342
1033.364	-2971
1033.429	-3038
1033.494	-2071
1033.559	-2512
1033.624	-2014
1033.688	-1810
1033.753	-2504
1033.818	-1498
1033.883	-2674
1033.948	-2438
1034.013	-2854
1034.077	-2054
1034.142	-2170
1034.207	-2397
1034.271	-2539
1034.336	-2140
1034.400	-2999
1034.465	-3235
1034.530	-2163
1034.594	-1740
1034.658	-2261
1034.723	-2598
1034.787	-2286
1034.852	-2315
1034.916	-3201
1034.981	-1938
1035.045	-1996
1035.109	-1758
1035.173	-1758
1035.238	-3063
1035.302	-2056
1035.366	-2737
1035.430	-2740
1035.495	-2161
1035.559	-1974
1035.623	-2044
1035.687	-3413
1035.751	-2313
1035.815	-2232
1035.879	-1671
1035.943	-2347
1036.007	-2390
1036.071	-1806
1036.135	-2088
1036.198	-2706
1036.262	-2419
1036.326	-2231
1036.390	-2471
1036.454	-2837
1036.517	-2660
1036.581	-2538
1036.645	-2360
1036.709	-3324
1036.772	-2834
1036.836	-2443
1036.900	-2850
1036.963	-2537
1037.026	-3507
1037.090	-3150
1037.154	-2494
1037.217	-2990
1037.280	-2311
1037.344	-2766
1037.407	-2243
1037.471	-2741
1037.534	-2352
1037.597	-1894
1037.661	-2438
1037.724	-2949
1037.787	-2242
1037.850	-3004
1037.913	-2792
1037.977	-2391
1038.040	-2978
1038.103	-2726
1038.166	-2331
1038.229	-2781
1038.292	-2251
1038.355	-2497
1038.418	-2381
1038.481	-2476
1038.544	-2268
1038.607	-2507
1038.670	-2522
1038.732	-2672
1038.795	-3390
1038.858	-3048
1038.921	-2419
1038.984	-2715
1039.046	-2720
1039.109	-3157
1039.172	-2079
1039.234	-2722
1039.297	-2202
1039.360	-2547
1039.422	-2485
1039.485	-2816
1039.547	-2237
1039.610	-2989
1039.672	-2480
1039.734	-2896
1039.797	-1935
1039.859	-2845
1039.922	-3422
1039.984	-2596
1040.046	-2931
1040.109	-3242
1040.171	-2444
1040.233	-2094
1040.295	-2240
1040.358	-2959
1040.420	-1913
1040.482	-3218
1040.544	-2261
1040.606	-3302
1040.668	-2972
1040.730	-2258
1040.792	-1684
1040.854	-3124
1040.916	-2261
1040.978	-3114
1041.040	-2291
1041.102	-2823
1041.164	-2343
1041.225	-2859
1041.287	-2245
1041.349	-2749
1041.411	-2765
1041.472	-2676
1041.534	-2861
1041.596	-3215
1041.657	-2521
1041.719	-2601
1041.781	-2750
1041.842	-2018
1041.904	-2541
1041.965	-2969
1042.027	-2855
1042.088	-2323
1042.150	-2723
1042.211	-2498
1042.272	-1992
1042.334	-3048
1042.395	-2730
1042.456	-2714
1042.518	-2128
1042.579	-2846
1042.640	-2749
1042.701	-2634
1042.763	-2739
1042.824	-3469
1042.885	-2461
1042.946	-2922
1043.007	-3058
1043.068	-3180
1043.129	-2276
1043.190	-2381
1043.251	-2461
1043.312	-2329
1043.373	-2580
1043.434	-3170
1043.495	-2995
1043.556	-2871
1043.616	-3146
1043.677	-2815
1043.738	-2665
1043.799	-2168
1043.859	-2877
1043.920	-3440
1043.981	-1968
1044.041	-1642
1044.102	-2780
1044.162	-2596
1044.223	-2684
1044.284	-3249
1044.344	-2410
1044.405	-2105
1044.465	-2681
1044.525	-3225
1044.586	-2016
1044.646	-2433
1044.707	-1932
1044.767	-3315
1044.827	-2627
1044.887	-2359
1044.948	-2117
1045.008	-3024
1045.068	-2479
1045.128	-3006
1045.188	-2745
1045.249	-2033
1045.309	-2285
1045.369	-2265
1045.429	-2827
1045.489	-2698
1045.549	-2101
1045.609	-2601
1045.669	-1975
1045.729	-1679
1045.789	-2065
1045.848	-2371
1045.908	-2142
1045.968	-2704
1046.028	-1992
1046.088	-2001
1046.147	-1751
1046.207	-2413
1046.267	-2157
1046.326	-2719
1046.386	-2245
1046.446	-2193
1046.505	-1934
1046.565	-1506
1046.624	-1842
1046.684	-1938
1046.743	-1169
1046.803	-1133
1046.862	-531
1046.922	0
