'Start Wavelength	183.907
'End Wavelength	1046.922
'Gate Delay	5.000
'Gate Width (ms)	1.050
'Laser Output Level	0.000
'X Position	0.000
'Y Position	0.000
'Z Position	0.000
'Grid Point Number	1.000
'Shot Number	100.000
183.907	851.000
183.977	254.000
184.047	436
184.116	688
184.186	-36
184.256	-166
184.325	-127
184.395	470
184.465	436
184.534	349
184.604	254
184.674	78
184.743	-376
184.813	33
184.883	356
184.952	273
185.022	-260
185.092	-509
185.161	668
185.231	321
185.301	606
185.370	431
185.440	-153
185.509	217
185.579	123
185.649	42
185.718	473
185.788	913
185.857	250
185.927	377
185.996	-765
186.066	273
186.136	141
186.205	139
186.275	164
186.344	-420
186.414	57
186.483	-4
186.553	438
186.622	748
186.692	-462
186.761	-138
186.831	-198
186.900	574
186.970	553
187.039	350
187.109	1229
187.178	490
187.248	229
187.317	701
187.387	577
187.456	815
187.526	749
187.595	46
187.664	155
187.734	781
187.803	548
187.873	1728
187.942	965
188.012	597
188.081	-23
188.150	300
188.220	1109
188.289	1343
188.358	367
188.428	831
188.497	790
188.567	303
188.636	480
188.705	36
188.775	1360
188.844	-145
188.913	320
188.983	539
189.052	721
189.121	162
189.191	815
189.260	509
189.329	993
189.399	856
189.468	327
189.537	-8
189.606	1026
189.676	350
189.745	1011
189.814	585
189.883	1312
189.953	285
190.022	962
190.091	1335
190.161	2072
190.230	797
190.299	514
190.368	234
190.437	931
190.507	678
190.576	289
190.645	431
190.714	349
190.783	-41
190.853	272
190.922	528
190.991	303
191.060	476
191.129	337
191.198	856
191.268	208
191.337	34
191.406	1321
191.475	553
191.544	636
191.613	634
191.682	266
191.752	606
191.821	154
191.890	467
191.959	1033
192.028	1359
192.097	1018
192.166	1021
192.235	612
192.304	475
192.373	824
192.442	230
192.511	237
192.580	623
192.650	830
192.719	172
192.788	751
192.857	1122
192.926	934
192.995	746
193.064	787
193.133	1946
193.202	2024
193.271	2083
193.340	1423
193.409	1838
193.478	1832
193.547	2288
193.615	3112
193.684	2449
193.753	1776
193.822	1238
193.891	882
193.960	1473
194.029	851
194.098	1240
194.167	883
194.236	1498
194.305	455
194.374	431
194.443	899
194.512	496
194.580	1282
194.649	975
194.718	1081
194.787	545
194.856	474
194.925	1523
194.994	1100
195.062	1006
195.131	635
195.200	1404
195.269	1799
195.338	555
195.407	952
195.475	190
195.544	1650
195.613	809
195.682	1283
195.751	1348
195.819	1346
195.888	1715
195.957	2218
196.026	1316
196.094	1846
196.163	2229
196.232	1200
196.301	958
196.369	1254
196.438	1455
196.507	1412
196.576	1397
196.644	937
196.713	901
196.782	1302
196.850	1021
196.919	939
196.988	1570
197.056	812
197.125	426
197.194	794
197.262	1051
197.331	436
197.400	663
197.468	1085
197.537	879
197.606	1286
197.674	1874
197.743	2123
197.812	1405
197.880	2608
197.949	1790
198.017	2265
198.086	1808
198.155	835
198.223	1162
198.292	1388
198.360	1253
198.429	1619
198.497	1783
198.566	1174
198.635	2598
198.703	2009
198.772	1562
198.840	3185
198.909	2410
198.977	1183
199.046	1646
199.114	1700
199.183	1122
199.251	1565
199.320	1652
199.388	1147
199.457	296
199.525	237
199.594	975
199.662	1118
199.731	1304
199.799	1283
199.867	1149
199.936	1372
200.004	1594
200.073	784
200.141	808
200.210	809
200.278	1371
200.346	1438
200.415	1468
200.483	2208
200.552	1694
200.620	1089
200.688	1138
200.757	1294
200.825	1745
200.893	1242
200.962	1484
201.030	1026
201.098	1721
201.167	1873
201.235	1156
201.303	1277
201.372	1344
201.440	615
201.508	2128
201.577	1548
201.645	987
201.713	1820
201.781	990
201.850	2219
201.918	1138
201.986	1396
202.055	1525
202.123	1060
202.191	1741
202.259	969
202.327	1305
202.396	1567
202.464	1277
202.532	2244
202.600	3788
202.669	1986
202.737	1659
202.805	1357
202.873	1472
202.941	1150
203.009	1490
203.078	1009
203.146	1493
203.214	1939
203.282	1241
203.350	1495
203.418	1617
203.487	1031
203.555	1289
203.623	1487
203.691	1732
203.759	851
203.827	1540
203.895	2255
203.963	1811
204.031	1720
204.099	1848
204.168	996
204.236	2008
204.304	1294
204.372	1545
204.440	1338
204.508	1646
204.576	1360
204.644	2260
204.712	1744
204.780	1323
204.848	1947
204.916	1589
204.984	1377
205.052	1199
205.120	1853
205.188	2912
205.256	1237
205.324	1930
205.392	1746
205.460	1925
205.528	2173
205.596	2076
205.664	1496
205.732	2037
205.799	4455
205.867	4200
205.935	1635
206.003	1563
206.071	2006
206.139	1165
206.207	2425
206.275	1598
206.343	2204
206.411	1764
206.478	1923
206.546	2623
206.614	2277
206.682	1876
206.750	1713
206.818	2402
206.885	2561
206.953	1373
207.021	1540
207.089	1681
207.157	1676
207.225	1421
207.292	1916
207.360	1417
207.428	1777
207.496	1533
207.563	1689
207.631	1649
207.699	1195
207.767	1547
207.834	2088
207.902	2226
207.970	1828
208.038	2152
208.105	1668
208.173	2464
208.241	2721
208.309	2960
208.376	3048
208.444	3801
208.512	2669
208.579	1783
208.647	3078
208.715	2358
208.782	2506
208.850	1840
208.918	2081
208.985	2100
209.053	2195
209.120	2507
209.188	2239
209.256	2459
209.323	2334
209.391	2756
209.459	2966
209.526	1293
209.594	2131
209.661	3015
209.729	2002
209.796	2203
209.864	2073
209.932	1661
209.999	3006
210.067	3158
210.134	2540
210.202	2760
210.269	3286
210.337	3391
210.404	2508
210.472	2685
210.539	2850
210.607	2957
210.674	2714
210.742	2757
210.809	2892
210.877	2902
210.944	3540
211.012	2418
211.079	3906
211.146	2326
211.214	2922
211.281	3533
211.349	3349
211.416	3094
211.484	3082
211.551	2356
211.618	3250
211.686	2585
211.753	1967
211.821	3100
211.888	3361
211.955	2792
212.023	3016
212.090	3418
212.157	2448
212.225	3144
212.292	4894
212.359	7339
212.427	12184
212.494	6203
212.561	4487
212.629	3665
212.696	3225
212.763	3370
212.831	3316
212.898	2965
212.965	2692
213.032	3404
213.100	2999
213.167	3448
213.234	3532
213.301	3637
213.369	2575
213.436	2802
213.503	3051
213.570	2732
213.638	3175
213.705	2237
213.772	2035
213.839	2658
213.906	3453
213.973	3548
214.041	2931
214.108	2882
214.175	2945
214.242	3016
214.309	3204
214.376	3677
214.444	3769
214.511	2845
214.578	3437
214.645	3861
214.712	4363
214.779	3235
214.846	3848
214.913	3879
214.980	4409
215.048	4078
215.115	4772
215.182	4281
215.249	2984
215.316	3238
215.383	3907
215.450	3464
215.517	3406
215.584	3162
215.651	2922
215.718	2974
215.785	4155
215.852	3035
215.919	3720
215.986	3912
216.053	2533
216.120	2677
216.187	3907
216.254	3635
216.321	3604
216.388	2929
216.455	3235
216.522	3895
216.589	4272
216.656	5351
216.722	5277
216.789	5093
216.856	4933
216.923	4289
216.990	4617
217.057	4344
217.124	5405
217.191	5117
217.258	5986
217.324	6086
217.391	7367
217.458	5192
217.525	5363
217.592	3508
217.659	3992
217.725	4339
217.792	4048
217.859	4505
217.926	3461
217.993	3246
218.059	3560
218.126	3643
218.193	3197
218.260	2720
218.327	3043
218.393	2789
218.460	2695
218.527	2444
218.594	2829
218.660	4695
218.727	4431
218.794	2306
218.860	3453
218.927	2529
218.994	2902
219.061	1924
219.127	2905
219.194	3927
219.261	3079
219.327	2568
219.394	2867
219.461	2113
219.527	2424
219.594	3963
219.661	2678
219.727	1839
219.794	3077
219.860	2423
219.927	2658
219.994	4524
220.060	5347
220.127	4785
220.193	4594
220.260	5028
220.326	7383
220.393	8953
220.460	10595
220.526	8058
220.593	6053
220.659	6396
220.726	6874
220.792	9760
220.859	11245
220.925	14225
220.992	16515
221.058	14721
221.125	12066
221.191	8626
221.258	5853
221.324	4580
221.391	4840
221.457	3872
221.524	3851
221.590	4988
221.657	9677
221.723	7884
221.789	6897
221.856	5918
221.922	4242
221.989	3530
222.055	3375
222.121	3214
222.188	5085
222.254	3852
222.321	3398
222.387	2828
222.453	2538
222.520	3007
222.586	2688
222.652	2642
222.719	2917
222.785	2855
222.851	2917
222.918	2670
222.984	3054
223.050	2215
223.116	3190
223.183	2896
223.249	2556
223.315	2264
223.382	2175
223.448	2562
223.514	2304
223.580	2559
223.647	2488
223.713	2604
223.779	1987
223.845	3222
223.911	3065
223.978	2296
224.044	3113
224.110	2331
224.176	2061
224.242	2008
224.309	2474
224.375	2894
224.441	2650
224.507	2023
224.573	2511
224.639	2541
224.705	2394
224.772	2325
224.838	1758
224.904	3021
224.970	2225
225.036	2731
225.102	2503
225.168	2029
225.234	2935
225.300	2815
225.366	3382
225.432	2022
225.499	2410
225.565	2657
225.631	3598
225.697	3732
225.763	3614
225.829	4250
225.895	4155
225.961	5664
226.027	5398
226.093	5374
226.159	6724
226.225	9151
226.291	17820
226.357	22190
226.423	13411
226.489	9638
226.554	6423
226.620	6611
226.686	7323
226.752	11187
226.818	17372
226.884	26542
226.950	22130
227.016	11884
227.082	7559
227.148	6869
227.214	6030
227.279	5379
227.345	4394
227.411	4451
227.477	5157
227.543	6968
227.609	6555
227.674	5232
227.740	3999
227.806	4191
227.872	4035
227.938	3869
228.003	5968
228.069	4011
228.135	3212
228.201	3481
228.267	3606
228.332	2922
228.398	4102
228.464	2971
228.530	2600
228.595	2942
228.661	2805
228.727	4631
228.792	3660
228.858	2418
228.924	3391
228.990	3745
229.055	4645
229.121	4444
229.187	2846
229.252	2673
229.318	2182
229.384	2915
229.449	3610
229.515	1383
229.581	1534
229.646	3006
229.712	3054
229.777	5341
229.843	5410
229.909	5494
229.974	5235
230.040	5353
230.105	4695
230.171	4480
230.236	6081
230.302	8110
230.368	5631
230.433	4828
230.499	4332
230.564	5430
230.630	4048
230.695	3533
230.761	3743
230.826	2526
230.892	5058
230.957	3458
231.023	3442
231.088	3667
231.154	4264
231.219	3384
231.284	5165
231.350	4125
231.415	3025
231.481	2878
231.546	2848
231.612	3404
231.677	2401
231.742	2364
231.808	3876
231.873	2680
231.939	2091
232.004	5594
232.069	4205
232.135	3000
232.200	2756
232.265	2937
232.331	2984
232.396	2036
232.461	2173
232.527	2686
232.592	2349
232.657	3319
232.723	4143
232.788	2570
232.853	2524
232.918	3304
232.984	2762
233.049	2264
233.114	4106
233.179	3075
233.245	5719
233.310	4146
233.375	2200
233.440	1669
233.506	2890
233.571	1918
233.636	2759
233.701	2337
233.766	3809
233.832	4401
233.897	3401
233.962	2841
234.027	4264
234.092	2907
234.157	3560
234.222	3220
234.288	4722
234.353	8980
234.418	7733
234.483	5941
234.548	5493
234.613	4142
234.678	5246
234.743	4577
234.808	10198
234.873	6621
234.938	4939
235.004	3819
235.069	4377
235.134	3782
235.199	4270
235.264	3705
235.329	3255
235.394	3607
235.459	4640
235.524	4743
235.589	4002
235.654	3791
235.719	2860
235.784	3779
235.849	4118
235.913	5802
235.978	6908
236.043	5848
236.108	4610
236.173	4131
236.238	4509
236.303	3678
236.368	4453
236.433	6116
236.498	7433
236.563	7848
236.627	16336
236.692	36643
236.757	28012
236.822	13644
236.887	10318
236.952	9265
237.017	8642
237.081	9086
237.146	12338
237.211	22530
237.276	36750
237.341	43699
237.405	24758
237.470	13153
237.535	9469
237.600	7480
237.664	6670
237.729	5177
237.794	8473
237.859	14060
237.923	8570
237.988	6096
238.053	6663
238.118	6205
238.182	12509
238.247	9179
238.312	6926
238.376	5366
238.441	4105
238.506	4871
238.570	2706
238.635	3435
238.700	2905
238.764	3500
238.829	7309
238.893	6572
238.958	5545
239.023	4615
239.087	3880
239.152	4161
239.216	3608
239.281	4055
239.346	3552
239.410	3224
239.475	4358
239.539	12294
239.604	7290
239.668	5375
239.733	3778
239.797	5754
239.862	10561
239.926	10708
239.991	4485
240.055	3965
240.120	4319
240.184	4243
240.249	3383
240.313	2772
240.378	3458
240.442	7721
240.507	9897
240.571	4477
240.635	6470
240.700	5840
240.764	3214
240.829	3941
240.893	2332
240.957	2969
241.022	7931
241.086	9968
241.151	4393
241.215	2499
241.279	4295
241.344	6365
241.408	5728
241.472	4359
241.537	5814
241.601	5477
241.665	4409
241.730	4722
241.794	5716
241.858	4717
241.922	4952
241.987	5160
242.051	4366
242.115	4354
242.179	5268
242.244	4378
242.308	4899
242.372	4860
242.436	5565
242.501	4525
242.565	4695
242.629	3847
242.693	5274
242.757	3491
242.822	3750
242.886	3983
242.950	4120
243.014	3878
243.078	5255
243.142	5209
243.206	4358
243.271	5063
243.335	5201
243.399	7015
243.463	25014
243.527	43067
243.591	13973
243.655	8325
243.719	5366
243.783	6363
243.847	9946
243.911	11059
243.975	12166
244.040	6639
244.104	5988
244.168	4485
244.232	7300
244.296	9800
244.360	9308
244.424	5381
244.488	4581
244.552	4124
244.615	3123
244.679	3413
244.743	4999
244.807	4652
244.871	3832
244.935	4299
244.999	3131
245.063	4608
245.127	4748
245.191	7861
245.255	6432
245.319	6212
245.383	3768
245.446	4646
245.510	2920
245.574	4012
245.638	4472
245.702	4845
245.766	9130
245.829	5864
245.893	4652
245.957	4303
246.021	5003
246.085	4987
246.149	5390
246.212	12104
246.276	14348
246.340	7741
246.404	5758
246.467	6531
246.531	7990
246.595	5871
246.659	5967
246.722	5567
246.786	7024
246.850	7365
246.913	8027
246.977	3869
247.041	4787
247.104	4706
247.168	5323
247.232	12437
247.295	19820
247.359	9392
247.423	6382
247.486	9780
247.550	6658
247.614	5840
247.677	7002
247.741	4876
247.804	4623
247.868	5104
247.932	11244
247.995	17866
248.059	7135
248.122	4986
248.186	7654
248.249	12399
248.313	31379
248.376	29664
248.440	19305
248.503	8210
248.567	8573
248.630	11259
248.694	15049
248.757	19796
248.821	32012
248.884	20397
248.948	21361
249.011	26547
249.075	37541
249.138	29181
249.202	14668
249.265	10227
249.328	11431
249.392	10148
249.455	8294
249.519	7155
249.582	9267
249.645	13151
249.709	10030
249.772	9783
249.835	8471
249.899	7288
249.962	7470
250.025	7233
250.089	15658
250.152	17266
250.215	10288
250.279	9207
250.342	8748
250.405	8278
250.468	7579
250.532	9599
250.595	17006
250.658	50767
250.721	60615
250.785	26249
250.848	15622
250.911	10487
250.974	9888
251.038	13568
251.101	20406
251.164	11961
251.227	13799
251.290	13151
251.354	21592
251.417	65535
251.480	54777
251.543	52337
251.606	101120
251.669	71576
251.732	35633
251.795	34975
251.859	37693
251.922	69702
251.985	36163
252.048	18697
252.111	14135
252.174	13014
252.237	24064
252.300	39225
252.363	51956
252.426	74975
252.489	34004
252.552	19108
252.615	14392
252.678	16058
252.741	33854
252.804	48447
252.867	83483
252.930	47684
252.993	27482
253.056	18294
253.119	13877
253.182	11530
253.245	19492
253.308	13540
253.371	11925
253.434	11291
253.497	11354
253.559	19082
253.622	13314
253.685	17467
253.748	16901
253.811	8936
253.874	10516
253.937	9493
254.000	9124
254.062	14839
254.125	19181
254.188	20434
254.251	14734
254.314	7763
254.376	15588
254.439	15856
254.502	13576
254.565	15447
254.628	22931
254.690	13760
254.753	8186
254.816	7466
254.878	7993
254.941	15764
255.004	12462
255.067	7108
255.129	6990
255.192	4703
255.255	4852
255.317	5303
255.380	4429
255.443	3336
255.505	4211
255.568	3243
255.631	4544
255.693	4805
255.756	2611
255.819	5243
255.881	3990
255.944	2664
256.006	3562
256.069	3919
256.132	3544
256.194	5688
256.257	9220
256.319	7577
256.382	7109
256.444	6496
256.507	5375
256.569	5542
256.632	6305
256.694	8940
256.757	29689
256.819	59457
256.882	24693
256.944	12497
257.007	10295
257.069	9207
257.132	7355
257.194	6780
257.257	6694
257.319	6448
257.381	8208
257.444	22612
257.506	73185
257.569	69451
257.631	36354
257.693	18682
257.756	10346
257.818	8327
257.880	6241
257.943	6064
258.005	5186
258.067	4122
258.130	5204
258.192	6183
258.254	10236
258.317	6201
258.379	7019
258.441	14443
258.503	10957
258.566	14242
258.628	14280
258.690	5298
258.753	6673
258.815	11809
258.877	7180
258.939	6386
259.001	5655
259.064	5798
259.126	6134
259.188	6420
259.250	7040
259.312	9129
259.375	18860
259.437	10478
259.499	6163
259.561	6718
259.623	7085
259.685	5324
259.747	5563
259.809	14850
259.872	18969
259.934	32928
259.996	27434
260.058	9600
260.120	5904
260.182	5170
260.244	4437
260.306	5000
260.368	4927
260.430	4389
260.492	10933
260.554	18514
260.616	12073
260.678	19954
260.740	18463
260.802	6181
260.864	6045
260.926	4549
260.988	5584
261.050	5400
261.112	15770
261.174	27556
261.236	15336
261.298	7530
261.359	10677
261.421	11884
261.483	4521
261.545	6021
261.607	3808
261.669	4441
261.731	7540
261.793	15365
261.854	7100
261.916	5980
261.978	6149
262.040	5806
262.102	5728
262.164	6493
262.225	4848
262.287	5587
262.349	12198
262.411	7002
262.472	4344
262.534	7603
262.596	10635
262.658	5427
262.719	3926
262.781	5879
262.843	11042
262.904	5825
262.966	5325
263.028	6809
263.090	35970
263.151	63828
263.213	21690
263.275	12645
263.336	6163
263.398	5043
263.459	4615
263.521	4935
263.583	10631
263.644	6978
263.706	3812
263.767	2401
263.829	2382
263.891	2792
263.952	2628
264.014	2500
264.075	8252
264.137	15351
264.198	6802
264.260	3020
264.321	4119
264.383	11786
264.444	21966
264.506	6978
264.567	5022
264.629	11920
264.690	19546
264.752	8022
264.813	5627
264.875	3491
264.936	5175
264.998	4212
265.059	4044
265.120	4171
265.182	9355
265.243	41963
265.305	30948
265.366	9087
265.427	6355
265.489	5458
265.550	4107
265.611	4999
265.673	4115
265.734	4379
265.795	4073
265.857	3148
265.918	4371
265.979	13091
266.040	60873
266.102	39811
266.163	13764
266.224	10522
266.286	6352
266.347	4224
266.408	4182
266.469	4449
266.530	3672
266.592	3698
266.653	8198
266.714	10499
266.775	4475
266.836	3517
266.898	3291
266.959	7043
267.020	4434
267.081	3881
267.142	3415
267.203	3696
267.264	3063
267.326	4623
267.387	2994
267.448	2005
267.509	4268
267.570	3752
267.631	2948
267.692	2057
267.753	3807
267.814	3152
267.875	9791
267.936	14385
267.997	10552
268.058	8864
268.119	5634
268.180	5026
268.241	3809
268.302	3661
268.363	2950
268.424	4669
268.485	4247
268.546	2169
268.607	2789
268.668	2425
268.729	2553
268.790	2479
268.851	4520
268.912	11063
268.972	10100
269.033	5782
269.094	3246
269.155	3517
269.216	3649
269.277	3151
269.338	3183
269.398	4120
269.459	4364
269.520	5573
269.581	7242
269.642	7388
269.702	6387
269.763	4627
269.824	4699
269.885	5708
269.945	7293
270.006	4393
270.067	3067
270.128	3629
270.188	2612
270.249	2455
270.310	2758
270.370	3073
270.431	2672
270.492	2300
270.553	3544
270.613	8468
270.674	14019
270.734	4936
270.795	4390
270.856	6811
270.916	4019
270.977	4045
271.038	4629
271.098	4762
271.159	8538
271.219	5562
271.280	3835
271.340	2939
271.401	3698
271.462	7225
271.522	4786
271.583	3515
271.643	3750
271.704	3564
271.764	5648
271.825	12813
271.885	35722
271.946	36059
272.006	13340
272.066	22869
272.127	29127
272.187	9453
272.248	6628
272.308	9032
272.369	21513
272.429	11280
272.489	12096
272.550	10142
272.610	11876
272.671	7410
272.731	8059
272.791	9241
272.852	6490
272.912	5912
272.972	4028
273.033	4425
273.093	5778
273.153	6466
273.214	4603
273.274	5428
273.334	21052
273.394	29386
273.455	12365
273.515	15196
273.575	27180
273.635	10508
273.696	17241
273.756	25955
273.816	10177
273.876	7226
273.936	14973
273.997	17501
274.057	6434
274.117	6036
274.177	11243
274.237	41834
274.297	25724
274.358	18184
274.418	23883
274.478	17113
274.538	7043
274.598	6851
274.658	17137
274.718	18124
274.778	7598
274.838	5081
274.898	11383
274.958	25082
275.018	28276
275.078	15756
275.138	7644
275.198	5054
275.258	4691
275.318	5583
275.378	10183
275.438	10312
275.498	6947
275.558	16135
275.618	27845
275.678	18152
275.738	15132
275.798	10828
275.858	7068
275.918	3961
275.978	6469
276.038	5224
276.098	4734
276.157	10769
276.217	22284
276.277	10559
276.337	8370
276.397	4520
276.457	5717
276.517	4183
276.576	3976
276.636	3170
276.696	6980
276.756	14908
276.815	9239
276.875	4613
276.935	5684
276.995	4840
277.055	3564
277.114	4110
277.174	7241
277.234	17860
277.293	7270
277.353	4795
277.413	4498
277.472	4645
277.532	4475
277.592	5708
277.651	17034
277.711	22469
277.771	9925
277.830	34864
277.890	21309
277.950	20456
278.009	44946
278.069	15561
278.128	20694
278.188	23328
278.248	12691
278.307	30436
278.367	13744
278.426	6857
278.486	5052
278.545	2829
278.605	4311
278.664	3559
278.724	5463
278.783	14618
278.843	26203
278.902	8037
278.962	6752
279.021	7113
279.081	7880
279.140	6701
279.199	7387
279.259	7242
279.318	7045
279.378	9995
279.437	19441
279.496	58725
279.556	121533
279.615	69375
279.675	22717
279.734	16711
279.793	29291
279.853	38946
279.912	15461
279.971	9992
280.031	9207
280.090	20388
280.149	28263
280.208	22631
280.268	90425
280.327	63085
280.386	17740
280.445	18070
280.505	14601
280.564	8427
280.623	6773
280.682	12293
280.742	14478
280.801	6031
280.860	4673
280.919	5141
280.978	4339
281.037	3449
281.097	3285
281.156	3876
281.215	3729
281.274	5314
281.333	21082
281.392	12522
281.451	4294
281.510	3991
281.569	3452
281.628	2673
281.688	2778
281.747	4444
281.806	4727
281.865	2954
281.924	2936
281.983	2677
282.042	2780
282.101	2949
282.160	3131
282.219	2652
282.278	4113
282.337	13683
282.396	7401
282.454	4378
282.513	5895
282.572	19396
282.631	9855
282.690	4132
282.749	3447
282.808	4806
282.867	4527
282.926	4018
282.985	2900
283.043	2539
283.102	3147
283.161	3239
283.220	11413
283.279	17489
283.338	6275
283.396	4368
283.455	4151
283.514	5203
283.573	7905
283.631	4413
283.690	4752
283.749	4958
283.808	9785
283.866	8866
283.925	4304
283.984	3770
284.043	6300
284.101	5078
284.160	3996
284.219	5556
284.277	5109
284.336	8557
284.395	25906
284.453	17320
284.512	7881
284.570	10595
284.629	8351
284.688	7952
284.746	8043
284.805	9803
284.863	12926
284.922	16057
284.981	18574
285.039	28798
285.098	51441
285.156	107931
285.215	137513
285.273	139034
285.332	99115
285.390	55789
285.449	36047
285.507	25965
285.566	18980
285.624	14144
285.683	11895
285.741	9512
285.799	8915
285.858	7790
285.916	7030
285.975	4760
286.033	5061
286.091	4565
286.150	3767
286.208	4389
286.267	5546
286.325	5491
286.383	8849
286.442	6126
286.500	3714
286.558	3744
286.616	3235
286.675	6799
286.733	4924
286.791	3827
286.850	6064
286.908	6442
286.966	9785
287.024	4245
287.083	3620
287.141	3104
287.199	4223
287.257	6036
287.315	4758
287.374	5732
287.432	13730
287.490	6279
287.548	4860
287.606	3949
287.664	5071
287.723	6365
287.781	6384
287.839	4526
287.897	6912
287.955	7542
288.013	13269
288.071	32489
288.129	110822
288.187	196899
288.245	88819
288.303	34676
288.361	21129
288.419	16350
288.477	11457
288.535	7247
288.593	5601
288.651	5404
288.709	3849
288.767	3860
288.825	4105
288.883	3272
288.941	2993
288.999	2554
289.057	2694
289.115	3214
289.173	3452
289.231	3859
289.289	2752
289.346	3054
289.404	4075
289.462	6247
289.520	6393
289.578	3061
289.636	2905
289.694	2464
289.751	2228
289.809	1839
289.867	3102
289.925	4394
289.983	4545
290.040	2284
290.098	2360
290.156	3712
290.214	4086
290.271	3166
290.329	2585
290.387	2306
290.444	1951
290.502	2344
290.560	3041
290.617	2859
290.675	2391
290.733	2808
290.790	3100
290.848	2161
290.906	2725
290.963	2278
291.021	3048
291.078	2841
291.136	3723
291.194	14201
291.251	21231
291.309	5661
291.366	3401
291.424	3268
291.481	3467
291.539	2583
291.596	2950
291.654	2085
291.711	2410
291.769	3028
291.826	5904
291.884	3565
291.941	2000
291.999	2558
292.056	3096
292.114	2915
292.171	2166
292.228	3267
292.286	4178
292.343	6807
292.401	8010
292.458	4374
292.515	3911
292.573	4635
292.630	3761
292.687	3524
292.745	2903
292.802	5811
292.859	16149
292.917	20625
292.974	9838
293.031	4871
293.089	2818
293.146	3100
293.203	3303
293.260	2951
293.318	4896
293.375	6932
293.432	4055
293.489	2592
293.546	2468
293.604	5202
293.661	15408
293.718	30843
293.775	14801
293.832	7496
293.889	6736
293.947	6892
294.004	4993
294.061	6417
294.118	13088
294.175	23957
294.232	29296
294.289	10909
294.346	7116
294.403	8029
294.460	5169
294.517	4592
294.574	3969
294.631	3438
294.688	5951
294.745	13285
294.802	41153
294.859	41114
294.916	16019
294.973	9620
295.030	7404
295.087	6035
295.144	4962
295.201	3460
295.258	4470
295.315	5648
295.372	16303
295.429	22885
295.486	9876
295.542	9034
295.599	24880
295.656	33210
295.713	23237
295.770	23173
295.827	8531
295.883	5668
295.940	6124
295.997	9037
296.054	8458
296.111	4600
296.167	4073
296.224	2758
296.281	3353
296.338	3445
296.394	3435
296.451	5113
296.508	14476
296.564	22409
296.621	16378
296.678	33928
296.734	38247
296.791	14328
296.848	9020
296.904	11741
296.961	22520
297.018	29610
297.074	19014
297.131	8012
297.187	6648
297.244	10615
297.301	32231
297.357	42175
297.414	15279
297.470	7541
297.527	5162
297.583	4709
297.640	5248
297.696	4361
297.753	4244
297.809	2473
297.866	2834
297.922	2431
297.979	3277
298.035	4537
298.092	7503
298.148	17873
298.204	14479
298.261	7891
298.317	17332
298.374	35573
298.430	17463
298.486	9164
298.543	7514
298.599	7284
298.656	9575
298.712	17275
298.768	36512
298.824	21845
298.881	8332
298.937	5412
298.993	5292
299.050	6306
299.106	5890
299.162	4780
299.218	4725
299.275	4332
299.331	5873
299.387	10461
299.443	32129
299.500	28251
299.556	11994
299.612	6757
299.668	6587
299.724	8659
299.780	7672
299.837	6292
299.893	10024
299.949	28108
300.005	27989
300.061	27397
300.117	40684
300.173	17955
300.229	9982
300.285	12585
300.341	13723
300.397	6221
300.453	4576
300.510	4507
300.566	5054
300.622	6531
300.678	18166
300.734	29291
300.790	24622
300.845	27991
300.901	18239
300.957	28056
301.013	18144
301.069	7856
301.125	7330
301.181	7085
301.237	5970
301.293	3376
301.349	3567
301.405	3741
301.461	4502
301.516	6072
301.572	6763
301.628	9642
301.684	7944
301.740	13961
301.796	18750
301.851	12916
301.907	23058
301.963	20968
302.019	37068
302.074	80462
302.130	71621
302.186	32811
302.242	15526
302.297	10160
302.353	11599
302.409	20170
302.464	16131
302.520	14499
302.576	32303
302.631	33004
302.687	18885
302.743	8210
302.798	6487
302.854	5887
302.910	6033
302.965	8515
303.021	12403
303.076	11305
303.132	14526
303.187	15253
303.243	8493
303.299	4597
303.354	4570
303.410	3948
303.465	4585
303.521	4264
303.576	4363
303.632	6221
303.687	11918
303.743	27211
303.798	20002
303.853	8680
303.909	6443
303.964	5088
304.020	9652
304.075	14031
304.130	11604
304.186	21499
304.241	19771
304.297	15889
304.352	8854
304.358	8562
304.407	6193
304.449	6837
304.463	7062
304.518	6564
304.539	6222
304.573	5668
304.629	5818
304.630	5893
304.684	9488
304.720	18213
304.739	22636
304.794	28325
304.811	23715
304.850	12778
304.902	6706
304.905	6317
304.960	5799
304.992	6143
305.015	6402
305.071	5526
305.083	5318
305.126	4549
305.173	3035
305.181	2793
305.236	3169
305.264	3849
305.292	4517
305.347	5408
305.354	5343
305.402	4992
305.445	5862
305.457	6075
305.512	7140
305.535	6872
305.567	6588
305.622	7913
305.626	8227
305.678	13956
305.716	24580
305.733	28784
305.788	29030
305.807	25272
305.843	18208
305.897	24876
305.898	24960
305.953	22674
305.988	15734
306.008	11707
306.063	8480
306.078	7719
306.118	6006
306.168	3699
306.173	3494
306.228	3231
306.259	3280
306.283	3328
306.338	2862
306.349	3053
306.393	3793
306.440	4967
306.448	5189
306.503	4509
306.530	5153
306.558	6301
306.613	13866
306.620	14677
306.668	19678
306.711	24742
306.723	25606
306.778	18635
306.801	14669
306.833	9635
306.888	5397
306.892	5243
306.943	4049
306.982	3838
306.997	3767
307.052	3698
307.072	3832
307.107	4163
307.162	4826
307.163	4857
307.217	7831
307.253	8754
307.272	8930
307.327	10614
307.343	9724
307.381	7540
307.434	7346
307.436	7456
307.491	13144
307.524	19465
307.546	22231
307.600	20440
307.614	18195
307.655	10813
307.704	6277
307.710	6039
307.765	7681
307.795	9699
307.819	11620
307.874	17759
307.885	17483
307.929	13837
307.975	11717
307.984	11837
308.038	17334
308.065	22926
308.093	34572
308.148	70089
308.156	77797
308.202	119598
308.246	134937
308.257	131386
308.312	76771
308.336	57015
308.366	43106
308.421	26158
308.426	24913
308.475	16246
308.517	12770
308.530	11938
308.585	9744
308.607	9100
308.639	8579
308.694	9017
308.697	9173
308.748	14103
308.787	20087
308.803	20882
308.857	16167
308.877	14402
308.912	12008
308.967	11628
308.967	11666
309.021	15177
309.058	19781
309.076	24087
309.130	42339
309.148	50818
309.185	84797
309.238	142522
309.239	142894
309.293	156303
309.328	146757
309.348	128261
309.402	66530
309.418	51595
309.457	35997
309.508	22873
309.511	22293
309.566	18326
309.598	17056
309.620	17446
309.674	20285
309.688	21192
309.729	20443
309.778	17217
309.783	16783
309.837	12300
309.868	10714
309.892	11950
309.946	16992
309.959	19132
310.001	25798
310.049	29742
310.055	28946
310.109	17702
310.139	11745
310.163	8875
310.218	5370
310.229	4877
310.272	4487
310.319	4271
310.326	4148
310.381	3577
310.409	3347
310.435	3328
310.489	3431
310.499	3483
310.543	3274
310.589	2902
310.598	2875
310.652	3112
310.679	3107
310.706	2953
310.760	2549
310.769	2526
310.814	2443
310.859	2292
310.868	2188
310.923	1762
310.948	1591
310.977	1772
311.031	2111
311.038	2178
311.085	2232
311.128	2176
311.139	2107
311.193	1773
311.218	1626
311.247	1612
311.301	1689
311.308	1713
311.356	1956
311.398	2208
311.410	2191
311.464	2042
311.488	1983
311.518	2042
311.572	2171
311.578	2210
311.626	2547
311.668	2805
311.680	2867
311.734	3085
311.758	3222
311.788	3130
311.842	3014
311.847	3006
311.896	3753
311.937	4553
311.950	4447
312.004	3988
312.027	3772
312.058	3344
312.112	2658
312.117	2600
312.165	2313
312.207	2089
312.297	2808
312.386	2306
312.476	2845
312.566	3647
312.656	2176
312.745	1394
312.835	2294
312.925	1759
313.015	2481
313.104	2734
313.194	2921
313.284	1957
313.374	2498
313.463	2837
313.553	2542
313.643	2147
313.732	2266
313.822	2128
313.912	1980
314.001	2048
314.091	2723
314.180	3462
314.270	3044
314.360	3176
314.449	2941
314.539	1208
314.628	1353
314.718	2626
314.808	3044
314.897	2070
314.987	1786
315.076	2219
315.166	2575
315.255	2789
315.345	2943
315.434	3391
315.524	2204
315.613	2600
315.703	2896
315.792	5023
315.881	7226
315.971	3411
316.060	4662
316.150	7677
316.239	8187
316.328	3500
316.418	2528
316.507	1747
316.597	3218
316.686	2098
316.775	3625
316.865	8382
316.954	3365
317.043	1354
317.133	1648
317.222	1582
317.311	1673
317.400	1029
317.490	3026
317.579	2234
317.668	1834
317.757	3336
317.847	5717
317.936	11510
318.025	7448
318.114	3692
318.203	3909
318.293	5139
318.382	8856
318.471	6927
318.560	11237
318.649	22865
318.738	6499
318.828	2827
318.917	3886
319.006	4726
319.095	11273
319.184	28930
319.273	16554
319.362	6520
319.451	2241
319.540	3262
319.629	5438
319.718	7823
319.807	5246
319.896	10211
319.985	35485
320.074	13588
320.163	3084
320.252	5836
320.341	4555
320.430	4343
320.519	3619
320.608	2806
320.697	2829
320.786	2841
320.875	2942
320.964	3494
321.053	5617
321.142	7669
321.230	8851
321.319	5880
321.408	12980
321.497	6737
321.586	6013
321.675	7959
321.764	8263
321.852	5092
321.941	7325
322.030	5815
322.119	7060
322.207	14108
322.296	13630
322.385	5728
322.474	7002
322.562	15256
322.651	10157
322.740	6825
322.829	10647
322.917	11630
323.006	6641
323.095	4726
323.183	4800
323.272	6238
323.361	12594
323.449	36463
323.538	14500
323.626	23458
323.715	17539
323.804	7242
323.892	21805
323.981	12813
324.069	5165
324.158	11734
324.246	13132
324.335	3659
324.424	5109
324.512	2347
324.601	3370
324.689	4566
324.778	7786
324.866	8396
324.954	3605
325.043	2268
325.131	4659
325.220	10290
325.308	11275
325.397	7402
325.485	5105
325.574	2121
325.662	1981
325.750	1997
325.839	2052
325.927	1535
326.015	2770
326.104	3134
326.192	4840
326.280	1295
326.369	1684
326.457	2650
326.545	3986
326.634	2150
326.722	1916
326.810	1089
326.898	1734
326.987	1893
327.075	3580
327.163	4934
327.251	3262
327.340	3486
327.428	4318
327.516	1805
327.604	1254
327.692	1853
327.781	2250
327.869	3135
327.957	3002
328.045	1867
328.133	1438
328.221	1606
328.309	2295
328.397	1611
328.485	2182
328.574	3503
328.662	8513
328.750	5208
328.838	2785
328.926	2214
329.014	1182
329.102	3007
329.190	6040
329.278	3889
329.366	2271
329.454	1484
329.542	1733
329.630	1886
329.718	2172
329.806	2488
329.893	2752
329.981	3262
330.069	7064
330.157	26991
330.245	64543
330.333	34492
330.421	6737
330.509	5005
330.597	11389
330.684	7165
330.772	3589
330.860	3982
330.948	5555
331.036	2519
331.123	1361
331.211	1754
331.299	2689
331.387	4633
331.475	8673
331.562	3076
331.650	1955
331.738	1858
331.825	3507
331.913	1683
332.001	1943
332.089	2778
332.176	5252
332.264	11343
332.352	9667
332.439	2745
332.527	1666
332.614	1567
332.702	2333
332.790	2104
332.877	4917
332.965	10879
333.052	3774
333.140	2646
333.228	5849
333.315	2221
333.403	2500
333.490	6326
333.578	6665
333.665	4270
333.753	3900
333.840	2359
333.928	3252
334.015	7064
334.103	13626
334.190	37747
334.278	12350
334.365	4258
334.452	3146
334.540	1835
334.627	2333
334.715	3619
334.802	9619
334.889	41455
334.977	45879
335.064	6242
335.151	3045
335.239	3156
335.326	5031
335.413	19802
335.501	27647
335.588	3941
335.675	2899
335.762	3731
335.850	5653
335.937	4049
336.024	12482
336.111	44840
336.199	21201
336.286	4027
336.373	2516
336.460	1990
336.547	1740
336.635	2174
336.722	2069
336.809	2355
336.896	3831
336.983	12100
337.070	27907
337.157	42460
337.245	30242
337.332	23468
337.419	2924
337.506	1787
337.593	3442
337.680	10211
337.767	26053
337.854	8239
337.941	7920
338.028	9110
338.115	3707
338.202	4446
338.289	8465
338.376	28054
338.463	11084
338.550	16243
338.637	17080
338.724	5886
338.811	9006
338.898	1572
338.984	1671
339.071	1706
339.158	3143
339.245	6446
339.332	4445
339.419	5910
339.506	6729
339.593	1280
339.679	1261
339.766	1080
339.853	2726
339.940	4244
340.027	1617
340.113	1519
340.200	2154
340.287	1794
340.374	2329
340.460	3269
340.547	1691
340.634	3465
340.720	10378
340.807	5909
340.894	1864
340.980	1857
341.067	2288
341.154	1672
341.240	2348
341.327	4878
341.414	1776
341.500	2122
341.587	1842
341.674	1376
341.760	3927
341.847	3198
341.933	1590
342.020	792
342.106	1709
342.193	510
342.279	2789
342.366	2448
342.452	3486
342.539	2601
342.625	5404
342.712	11399
342.798	5608
342.885	1620
342.971	944
343.058	979
343.144	1650
343.230	1319
343.317	1847
343.403	1189
343.490	1079
343.576	611
343.662	1962
343.749	2099
343.835	3721
343.921	5192
344.008	28340
344.094	60329
344.180	15622
344.267	4890
344.353	16975
344.439	17281
344.525	6233
344.612	3716
344.698	3584
344.784	2141
344.870	966
344.957	858
345.043	2341
345.129	1576
345.215	3487
345.301	1796
345.387	1809
345.474	1287
345.560	716
345.646	1605
345.732	955
345.818	819
345.904	1752
345.990	899
346.076	1633
346.162	3815
346.249	1633
346.335	1918
346.421	2086
346.507	7606
346.593	23634
346.679	6225
346.765	1593
346.851	1363
346.937	1479
347.023	1155
347.108	2324
347.194	1408
347.280	1686
347.366	1751
347.452	8127
347.538	27761
347.624	22819
347.710	15262
347.796	3134
347.882	2033
347.967	1761
348.053	2196
348.139	1323
348.225	1656
348.311	1074
348.397	722
348.482	1465
348.568	1014
348.654	766
348.740	1702
348.825	1647
348.911	3051
348.997	13562
349.083	26476
349.168	4930
349.254	1572
349.340	1822
349.425	1146
349.511	2023
349.597	2272
349.682	5254
349.768	15513
349.854	7362
349.939	1877
350.025	1533
350.110	618
350.196	1285
350.282	1036
350.367	1356
350.453	1931
350.538	2795
350.624	1882
350.709	1568
350.795	450
350.880	1683
350.966	1822
351.051	2808
351.137	1797
351.222	1459
351.308	4855
351.393	11850
351.479	3271
351.564	811
351.649	1029
351.735	1305
351.820	1284
351.906	1537
351.991	3021
352.076	8701
352.162	11388
352.247	2583
352.332	1785
352.418	3192
352.503	4361
352.588	16786
352.673	12770
352.759	2872
352.844	1323
352.929	1651
353.014	2545
353.100	2866
353.185	3408
353.270	4316
353.355	3315
353.441	1439
353.526	1324
353.611	3495
353.696	3970
353.781	2819
353.866	1151
353.952	1420
354.037	3040
354.122	7919
354.207	6155
354.292	2847
354.377	789
354.462	1422
354.547	2059
354.632	2070
354.717	3184
354.802	4680
354.887	1806
354.972	1600
355.057	354
355.142	1734
355.227	1572
355.312	2454
355.397	4763
355.482	12013
355.567	6324
355.652	4386
355.737	5587
355.822	17815
355.907	14228
355.991	2329
356.076	594
356.161	1222
356.246	1585
356.331	2290
356.416	5945
356.501	32052
356.585	33569
356.670	5562
356.755	3511
356.840	5119
356.924	22681
357.009	73477
357.094	29085
357.179	5415
357.263	4420
357.348	4094
357.433	3511
357.517	3340
357.602	2777
357.687	3214
357.771	4775
357.856	11755
357.941	7284
358.025	17505
358.110	70975
358.195	34165
358.279	4216
358.364	3784
358.448	11762
358.533	31684
358.617	23490
358.702	22527
358.787	8902
358.871	4407
358.956	2955
359.040	1433
359.125	608
359.209	2324
359.294	5359
359.378	9427
359.462	3690
359.547	2420
359.631	1782
359.716	913
359.800	1765
359.885	2569
359.969	1583
360.053	1970
360.138	2506
360.222	2992
360.306	4038
360.391	3631
360.475	6809
360.559	13906
360.644	11689
360.728	8854
360.812	18069
360.896	49488
360.981	19560
361.065	9034
361.149	1903
361.233	2304
361.318	2237
361.402	2432
361.486	2108
361.570	1522
361.654	2168
361.739	6346
361.823	30231
361.907	49860
361.991	8612
362.075	4202
362.159	6931
362.243	4848
362.327	5296
362.411	6749
362.495	3431
362.580	2762
362.664	1086
362.748	1710
362.832	1689
362.916	3742
363.000	11978
363.084	36121
363.168	55542
363.252	13820
363.336	4465
363.420	7114
363.503	28371
363.587	34463
363.671	5732
363.755	3133
363.839	3687
363.923	2438
364.007	4428
364.091	5211
364.175	11387
364.258	45727
364.342	28496
364.426	20873
364.510	10838
364.594	6458
364.677	9954
364.761	42135
364.845	30627
364.929	7531
365.013	5143
365.096	4811
365.180	5787
365.264	12697
365.347	48266
365.431	21271
365.515	4491
365.598	2027
365.682	2151
365.766	4079
365.849	4960
365.933	2851
366.017	3500
366.100	2598
366.184	1038
366.267	2041
366.351	1320
366.435	1153
366.518	676
366.602	996
366.685	1092
366.769	1820
366.852	3551
366.936	5891
367.019	2885
367.103	2671
367.186	5878
367.270	2313
367.353	-493
367.436	1514
367.520	783
367.603	1621
367.687	2708
367.770	4029
367.853	3550
367.937	12323
368.020	19640
368.104	4330
368.187	3705
368.270	5030
368.353	4638
368.437	7941
368.520	18348
368.603	11061
368.687	13496
368.770	24512
368.853	5422
368.936	5563
369.020	5180
369.103	2221
369.186	1419
369.269	1803
369.352	2701
369.436	4719
369.519	2989
369.602	1073
369.685	1064
369.768	1636
369.851	1460
369.934	1121
370.018	1353
370.101	3525
370.184	3099
370.267	3287
370.350	4149
370.433	7270
370.516	21758
370.599	25649
370.682	6026
370.765	12156
370.848	16665
370.931	31404
371.014	12873
371.097	2452
371.180	1567
371.263	1311
371.346	607
371.429	1449
371.511	658
371.594	3040
371.677	5002
371.760	6278
371.843	5214
371.926	27298
372.009	59235
372.091	19239
372.174	12433
372.257	32106
372.340	12226
372.423	8127
372.505	9543
372.588	4513
372.671	9465
372.754	30073
372.836	15230
372.919	13096
373.002	26520
373.085	6871
373.167	4202
373.250	13617
373.332	30292
373.415	41318
373.498	83452
373.580	31035
373.663	37279
373.746	50005
373.828	10624
373.911	4722
373.993	5746
374.076	25936
374.159	23554
374.241	9481
374.324	24994
374.406	16778
374.489	24683
374.571	71601
374.654	29592
374.736	14520
374.819	43846
374.901	61520
374.983	63667
375.066	12208
375.148	5152
375.231	21993
375.313	41524
375.395	14296
375.478	3478
375.560	2180
375.643	2874
375.725	12692
375.807	55338
375.890	44703
375.972	18453
376.054	8872
376.136	14471
376.219	7675
376.301	15279
376.383	47596
376.465	17807
376.548	7346
376.630	12218
376.712	38491
376.794	18126
376.877	2459
376.959	1395
377.041	1805
377.123	4831
377.205	6113
377.287	810
377.369	1587
377.452	1833
377.534	1283
377.616	1111
377.698	1332
377.780	398
377.862	1519
377.944	1235
378.026	621
378.108	792
378.190	820
378.272	1059
378.354	950
378.436	659
378.518	3421
378.600	8669
378.682	8156
378.764	16233
378.846	13870
378.928	4613
379.010	4185
379.091	2840
379.173	1011
379.255	1203
379.337	1806
379.419	9017
379.501	25100
379.583	9974
379.664	2725
379.746	5170
379.828	16676
379.910	22860
379.991	20204
380.073	4011
380.155	2239
380.237	1198
380.318	783
380.400	550
380.482	2996
380.564	4499
380.645	5206
380.727	4138
380.809	2613
380.890	1409
380.972	931
381.053	1029
381.135	2299
381.217	5317
381.298	17266
381.380	8183
381.461	8119
381.543	37011
381.624	46073
381.706	8488
381.787	3837
381.869	4458
381.951	17250
382.032	66637
382.113	40533
382.195	6674
382.276	6423
382.358	11949
382.439	34433
382.521	39159
382.602	64433
382.684	27450
382.765	43962
382.846	40449
382.928	44167
383.009	23929
383.090	17118
383.172	67873
383.253	101617
383.334	39078
383.416	52501
383.497	26468
383.578	9553
383.659	16232
383.741	60141
383.822	158923
383.903	81280
383.984	31657
384.066	59869
384.147	35303
384.228	7124
384.309	4689
384.390	3365
384.471	2614
384.553	2628
384.634	3155
384.715	4974
384.796	1720
384.877	4010
384.958	15325
385.039	17987
385.120	5919
385.201	3115
385.282	3568
385.363	4272
385.444	3092
385.525	7130
385.606	27945
385.687	23601
385.768	5255
385.849	5963
385.930	30192
386.011	53654
386.092	13187
386.173	3011
386.254	1601
386.335	3070
386.416	3681
386.496	10579
386.577	15987
386.658	7042
386.739	3574
386.820	3536
386.901	2696
386.981	2965
387.062	1820
387.143	4830
387.224	15688
387.304	16363
387.385	4166
387.466	3662
387.547	4252
387.627	2633
387.708	6822
387.789	32072
387.869	39867
387.950	11338
388.031	1394
388.111	840
388.192	5731
388.273	9341
388.353	4826
388.434	2036
388.514	6954
388.595	33732
388.676	40669
388.756	17852
388.837	14505
388.917	9327
388.998	1976
389.078	2724
389.159	2047
389.239	1297
389.320	2676
389.400	2478
389.480	7149
389.561	19389
389.641	9329
389.722	2703
389.802	4255
389.883	8944
389.963	24222
390.043	15034
390.124	4835
390.204	6074
390.284	17458
390.365	11851
390.445	17478
390.525	44759
390.605	37692
390.686	10965
390.766	4095
390.846	2532
390.927	1015
391.007	928
391.087	1871
391.167	1932
391.247	1237
391.328	3152
391.408	4724
391.488	3533
391.568	721
391.648	1728
391.728	3058
391.808	3804
391.888	3544
391.969	10847
392.049	16921
392.129	8335
392.209	9023
392.289	23526
392.369	12664
392.449	10924
392.529	5399
392.609	4577
392.689	5909
392.769	22402
392.849	18512
392.929	14698
393.009	31172
393.089	21542
393.169	14157
393.248	48981
393.328	203898
393.408	225139
393.488	49960
393.568	11866
393.648	6057
393.728	4134
393.807	3770
393.887	4146
393.967	2995
394.047	4634
394.127	5834
394.206	11442
394.286	45100
394.366	190712
394.446	206994
394.525	47086
394.605	10954
394.685	7998
394.764	15835
394.844	27833
394.924	18764
395.003	6086
395.083	3517
395.163	4683
395.242	2128
395.322	4575
395.402	1673
395.481	4553
395.561	11091
395.640	30576
395.720	22356
395.799	36271
395.879	29969
395.958	18836
396.038	66163
396.117	249449
396.197	278641
396.276	78785
396.356	23353
396.435	15485
396.515	9812
396.594	8236
396.673	14119
396.753	57864
396.832	195007
396.912	142044
396.991	29645
397.070	7981
397.150	3967
397.229	3268
397.308	4631
397.388	7054
397.467	3598
397.546	2465
397.625	194
397.705	3217
397.784	3349
397.863	1475
397.942	1394
398.022	2179
398.101	9583
398.180	30777
398.259	14592
398.338	4122
398.417	1875
398.497	1351
398.576	1744
398.655	626
398.734	1566
398.813	2759
398.892	9694
398.971	34370
399.050	16549
399.129	1636
399.208	769
399.287	1813
399.366	-159
399.445	832
399.524	81
399.603	748
399.682	2030
399.761	9109
399.840	35651
399.919	28566
399.998	3196
400.077	500
400.156	595
400.235	2124
400.313	743
400.392	1372
400.471	8700
400.550	12574
400.629	3023
400.708	1475
400.786	1217
400.865	5863
400.944	5444
401.023	2991
401.102	-24
401.180	618
401.259	531
401.338	956
401.416	1293
401.495	1075
401.574	1178
401.652	821
401.731	1268
401.810	1582
401.888	552
401.967	887
402.046	1226
402.124	1782
402.203	1303
402.281	1640
402.360	3002
402.438	8850
402.517	5062
402.596	2103
402.674	754
402.753	1231
402.831	1194
402.910	2353
402.988	10203
403.066	32857
403.145	15858
403.223	10637
403.302	26649
403.380	20003
403.459	19286
403.537	7141
403.615	1686
403.694	240
403.772	1245
403.850	-221
403.929	-407
404.007	715
404.085	3191
404.164	3158
404.242	929
404.320	7110
404.398	24001
404.477	22334
404.555	51990
404.633	48786
404.711	19553
404.789	9042
404.868	1854
404.946	905
405.024	357
405.102	356
405.180	-322
405.258	-557
405.336	1080
405.415	591
405.493	3055
405.571	2870
405.649	-304
405.727	-91
405.805	2375
405.883	2202
405.961	1245
406.039	2118
406.117	-754
406.195	2226
406.273	9473
406.351	40868
406.429	25124
406.507	4061
406.585	443
406.663	923
406.740	1494
406.818	1077
406.896	540
406.974	823
407.052	2539
407.130	23562
407.208	33271
407.285	7903
407.363	728
407.441	623
407.519	8
407.596	863
407.674	4229
407.752	16406
407.830	15075
407.907	5090
407.985	498
408.063	1709
408.141	941
408.218	2393
408.296	1310
408.373	540
408.451	578
408.529	541
408.606	-778
408.684	546
408.762	-293
408.839	-135
408.917	-543
408.994	-275
409.072	-787
409.149	87
409.227	556
409.304	894
409.382	235
409.459	395
409.537	1343
409.614	954
409.692	615
409.769	967
409.846	1412
409.924	2266
410.001	-192
410.079	280
410.156	926
410.233	996
410.311	497
410.388	139
410.465	-275
410.543	-466
410.620	-56
410.697	1117
410.775	35
410.852	-633
410.929	742
411.006	1516
411.083	-179
411.161	1478
411.238	1698
411.315	1690
411.392	235
411.469	1043
411.547	491
411.624	-20
411.701	-972
411.778	851
411.855	1739
411.932	1005
412.009	-708
412.086	508
412.163	-158
412.240	506
412.317	1300
412.394	-211
412.471	360
412.548	440
412.625	-896
412.702	482
412.779	2033
412.856	1617
412.933	171
413.010	264
413.087	1432
413.164	6978
413.241	10164
413.318	1804
413.395	1448
413.471	847
413.548	322
413.625	434
413.702	-426
413.779	-134
413.855	-524
413.932	7
414.009	-1185
414.086	-408
414.162	-519
414.239	1515
414.316	6936
414.393	18017
414.469	4822
414.546	218
414.623	-248
414.699	-132
414.776	-80
414.853	154
414.929	263
415.006	717
415.082	-5
415.159	-324
415.236	841
415.312	397
415.389	1124
415.465	865
415.542	175
415.618	264
415.695	1152
415.771	229
415.848	-373
415.924	21
416.000	-59
416.077	449
416.153	-1292
416.230	-595
416.306	-1158
416.383	-179
416.459	25
416.535	-183
416.612	-14
416.688	-150
416.764	-528
416.841	-418
416.917	-1085
416.993	233
417.069	305
417.146	503
417.222	1367
417.298	489
417.374	-978
417.451	41
417.527	-200
417.603	556
417.679	-49
417.755	39
417.831	-930
417.908	-243
417.984	-1118
418.060	-580
418.136	807
418.212	1126
418.288	-280
418.364	-318
418.440	-470
418.516	841
418.592	890
418.668	2162
418.744	3612
418.820	3427
418.896	393
418.972	-1317
419.048	-702
419.124	1859
419.200	42
419.276	-605
419.352	-549
419.428	480
419.504	-413
419.579	843
419.655	-140
419.731	-159
419.807	2499
419.883	4905
419.959	2927
420.034	1298
420.110	1879
420.186	11244
420.262	8245
420.337	1599
420.413	-614
420.489	514
420.565	494
420.640	-712
420.716	-426
420.792	-555
420.867	454
420.943	442
421.019	1259
421.094	-435
421.170	545
421.245	-221
421.321	73
421.397	-569
421.472	1985
421.548	8680
421.623	5087
421.699	1606
421.774	9
421.850	-132
421.925	1314
422.001	1455
422.076	1687
422.152	1054
422.227	3036
422.302	3865
422.378	5625
422.453	12028
422.529	32333
422.604	110541
422.679	199565
422.755	118194
422.830	33664
422.905	11461
422.981	5491
423.056	3977
423.131	1979
423.207	2148
423.282	685
423.357	3004
423.432	1762
423.508	2330
423.583	3941
423.658	3655
423.733	1348
423.808	593
423.883	1182
423.959	1117
424.034	278
424.109	1441
424.184	-109
424.259	359
424.334	112
424.409	-628
424.484	-424
424.559	-431
424.634	-862
424.709	588
424.784	547
424.859	330
424.934	645
425.009	5826
425.084	11523
425.159	3720
425.234	606
425.309	-834
425.384	1721
425.459	3477
425.534	1032
425.609	284
425.683	-670
425.758	-194
425.833	-355
425.908	642
425.983	2504
426.058	11760
426.132	4978
426.207	556
426.282	1695
426.357	1143
426.431	-455
426.506	275
426.581	-56
426.655	352
426.730	-108
426.805	-934
426.879	-1289
426.954	208
427.029	864
427.103	11750
427.178	35095
427.253	16760
427.327	1838
427.402	1939
427.476	5836
427.551	2671
427.625	113
427.700	774
427.774	-721
427.849	1103
427.923	-900
427.998	-310
428.072	-574
428.147	2137
428.221	9344
428.296	28478
428.370	13676
428.444	1211
428.519	1558
428.593	5015
428.667	4755
428.742	6102
428.816	4758
428.890	20399
428.965	30229
429.039	10275
429.113	6965
429.188	1718
429.262	-443
429.336	973
429.410	4779
429.485	3903
429.559	4359
429.633	3978
429.707	144
429.781	2914
429.855	21223
429.930	31881
430.004	17542
430.078	29428
430.152	27145
430.226	44284
430.300	42001
430.374	6609
430.448	1220
430.522	8669
430.596	28968
430.670	19820
430.744	33715
430.818	51858
430.892	11745
430.966	829
431.040	130
431.114	61
431.188	-1507
431.262	-646
431.336	-850
431.410	2606
431.484	6492
431.557	4062
431.631	-429
431.705	142
431.779	4087
431.853	24877
431.927	16406
432.000	2037
432.074	-611
432.148	265
432.222	-576
432.295	-689
432.369	-695
432.443	533
432.516	11438
432.590	36279
432.664	15017
432.737	693
432.811	-369
432.885	-955
432.958	-220
433.032	-156
433.106	-1065
433.179	-273
433.253	-1430
433.326	-785
433.400	-1314
433.473	-603
433.547	-899
433.620	-105
433.694	-1051
433.767	362
433.841	-958
433.914	-887
433.988	-1047
434.061	-828
434.134	-1004
434.208	-1019
434.281	-1217
434.355	-1120
434.428	-665
434.501	-871
434.575	-1172
434.648	-604
434.721	-1167
434.795	-982
434.868	-975
434.941	-851
435.014	-1764
435.088	-1190
435.161	-289
435.234	436
435.307	-387
435.381	114
435.454	-718
435.527	293
435.600	-346
435.673	-391
435.746	-1058
435.819	-855
435.892	-822
435.966	-887
436.039	-1275
436.112	-383
436.185	-1153
436.258	-1264
436.331	-919
436.404	-537
436.477	-734
436.550	-1851
436.623	-947
436.696	-38
436.769	-1179
436.842	-921
436.915	-854
436.987	-602
437.060	-1113
437.133	-597
437.206	-1073
437.279	-496
437.352	-770
437.425	-1026
437.498	-1050
437.570	12
437.643	1109
437.716	-236
437.789	-739
437.861	-170
437.934	2437
438.007	1055
438.080	-1157
438.152	-221
438.225	915
438.298	15511
438.370	54937
438.443	27139
438.516	3465
438.588	86
438.661	-1567
438.734	-842
438.806	-598
438.879	450
438.951	-480
439.024	626
439.096	-699
439.169	-413
439.241	-776
439.314	-1457
439.386	20
439.459	1214
439.531	1176
439.604	85
439.676	-444
439.749	-1031
439.821	-1067
439.893	-1115
439.966	-527
440.038	-949
440.110	-497
440.183	-586
440.255	-1609
440.327	324
440.400	4631
440.472	29472
440.544	23065
440.617	3641
440.689	558
440.761	1086
440.833	1205
440.905	1429
440.978	-538
441.050	-927
441.122	-404
441.194	-1070
441.266	-789
441.338	-796
441.411	159
441.483	6712
441.555	11225
441.627	3127
441.699	849
441.771	598
441.843	-529
441.915	-344
441.987	-542
442.059	-434
442.131	-680
442.203	651
442.275	47
442.347	868
442.419	351
442.491	8532
442.563	25183
442.635	11749
442.706	6742
442.778	5661
442.850	87
442.922	-505
442.994	-442
443.066	688
443.137	-64
443.209	-277
443.281	400
443.353	1934
443.425	11091
443.496	48396
443.568	48601
443.640	16884
443.711	2507
443.783	534
443.855	-1192
443.926	-429
443.998	-525
444.070	40
444.141	-466
444.213	241
444.285	693
444.356	475
444.428	-211
444.499	-976
444.571	-852
444.642	-586
444.714	-1888
444.785	-1090
444.857	761
444.928	4115
445.000	3271
445.071	2355
445.143	3218
445.214	1864
445.285	2698
445.357	10748
445.428	32885
445.500	82289
445.571	53944
445.642	24669
445.714	9410
445.785	8877
445.856	2478
445.928	518
445.999	77
446.070	526
446.141	58
446.213	1330
446.284	-375
446.355	-97
446.426	-584
446.497	-1200
446.569	166
446.640	1169
446.711	320
446.782	-402
446.853	-502
446.924	325
446.995	-770
447.066	-442
447.138	425
447.209	521
447.280	-1122
447.351	-308
447.422	-1402
447.493	-701
447.564	-309
447.635	85
447.706	-889
447.777	-1392
447.847	-1380
447.918	-1486
447.989	-363
448.060	246
448.131	1822
448.202	2626
448.273	837
448.344	3
448.414	-848
448.485	-1182
448.556	-1117
448.627	-1593
448.698	-1179
448.768	-1850
448.839	-1147
448.910	310
448.981	440
449.051	-378
449.122	-620
449.193	-1214
449.263	-1103
449.334	-616
449.405	-242
449.475	1358
449.546	852
449.616	2013
449.687	1203
449.758	-190
449.828	-132
449.899	-106
449.969	-889
450.040	-792
450.110	-479
450.181	28
450.251	-716
450.322	-208
450.392	-723
450.463	-986
450.533	-795
450.604	-476
450.674	-935
450.744	-1027
450.815	-898
450.885	-107
450.955	-813
451.026	-1060
451.096	-1601
451.166	-588
451.237	498
451.307	5255
451.377	2260
451.447	-550
451.518	-1092
451.588	-1141
451.658	-1100
451.728	312
451.799	4739
451.869	7450
451.939	1466
452.009	69
452.079	-1912
452.149	44
452.219	-584
452.289	5939
452.360	6217
452.430	1037
452.500	-845
452.570	-519
452.640	-181
452.710	4030
452.780	7167
452.850	4775
452.920	3523
452.990	1205
453.060	-950
453.129	1078
453.199	667
453.269	6219
453.339	21184
453.409	36201
453.479	28853
453.549	43345
453.619	47613
453.688	26171
453.758	4788
453.828	214
453.898	-512
453.968	-1082
454.037	-211
454.087	-470
454.107	-598
454.168	-1084
454.177	-1182
454.247	-164
454.249	-163
454.316	-752
454.330	-592
454.386	-7
454.411	941
454.456	2060
454.492	4305
454.525	6175
454.574	3302
454.595	2083
454.655	590
454.665	369
454.734	-100
454.736	-22
454.804	1495
454.817	2675
454.873	6318
454.898	7523
454.943	8962
454.979	6090
455.013	3754
455.060	1661
455.082	1015
455.141	1726
455.152	1818
455.221	5805
455.222	6009
455.291	12594
455.303	12975
455.360	13973
455.384	18658
455.430	24759
455.465	20715
455.499	16814
455.546	11055
455.569	8113
455.627	6328
455.638	6124
455.707	1406
455.708	1423
455.777	642
455.789	647
455.846	579
455.869	648
455.916	733
455.950	431
455.985	-24
456.031	-116
456.054	-85
456.112	-230
456.124	-298
456.193	171
456.193	151
456.262	558
456.274	713
456.332	1418
456.355	1566
456.401	1335
456.436	1133
456.470	981
456.516	501
456.540	242
456.597	17
456.609	0
456.678	-307
456.678	-325
456.747	9
456.759	-4
456.817	-119
456.840	103
456.886	497
456.920	630
456.955	754
457.001	609
457.024	581
457.082	875
457.093	926
457.162	1775
457.163	1802
457.232	2373
457.243	2228
457.301	990
457.324	716
457.370	613
457.405	801
457.439	864
457.485	444
457.508	360
457.566	1202
457.577	1310
457.646	1233
457.647	1253
457.715	2059
457.727	2333
457.784	4339
457.808	5401
457.853	6865
457.889	7962
457.922	7178
457.969	5146
457.991	5445
458.050	6538
458.060	6893
458.129	10516
458.130	10672
458.198	10869
458.211	10343
458.267	5727
458.292	3766
458.336	2865
458.372	2697
458.405	3549
458.453	4723
458.474	6293
458.533	11866
458.543	12495
458.611	19546
458.614	19803
458.680	12381
458.694	9969
458.749	4845
458.775	3354
458.818	2405
458.855	1809
458.887	1676
458.936	1669
458.955	1670
459.016	1710
459.024	1685
459.093	2491
459.097	2475
459.162	1975
459.177	2048
459.230	2523
459.257	2569
459.299	2530
459.338	2786
459.368	3008
459.418	3267
459.437	3012
459.499	2432
459.505	2468
459.574	2274
459.579	2339
459.643	2480
459.659	2293
459.711	2264
459.740	2527
459.780	2681
459.820	2699
459.849	2775
459.900	2885
459.917	2886
459.981	3195
459.986	3197
460.054	3506
460.061	3505
460.123	3155
460.141	3158
460.191	4236
460.222	4549
460.260	4566
460.302	5405
460.328	5234
460.382	4078
460.397	4086
460.462	4353
460.465	4416
460.534	5865
460.543	6142
460.602	18681
460.623	23237
460.671	40424
460.703	55097
460.739	53819
460.783	49918
460.808	40282
460.864	9912
460.876	8589
460.944	3683
460.945	3626
461.013	3559
461.024	3469
461.081	3303
461.104	3425
461.150	3463
461.184	3441
461.218	3541
461.264	3529
461.286	3560
461.345	3571
461.355	3521
461.423	3532
461.425	3531
461.491	4260
461.505	4452
461.559	6500
461.585	7433
461.628	13866
461.665	19794
461.696	22891
461.745	28584
461.764	24038
461.825	8147
461.832	8022
461.901	4806
461.905	4701
461.969	4283
461.985	4207
462.037	3960
462.065	3867
462.105	4012
462.145	4242
462.173	6541
462.225	10963
462.241	12381
462.305	18319
462.310	17882
462.378	10931
462.385	10041
462.446	5953
462.465	4612
462.514	4302
462.545	4426
462.582	4492
462.625	4566
462.650	4509
462.705	4164
462.718	4161
462.785	4690
462.786	4739
462.854	7000
462.865	7413
462.922	9496
462.945	10378
462.990	7787
463.025	5683
463.058	5260
463.104	4260
463.126	4077
463.184	3924
463.194	3999
463.262	4494
463.264	4516
463.330	4599
463.344	4544
463.398	5338
463.424	5817
463.466	5710
463.504	5499
463.533	5424
463.583	5287
463.601	5455
463.663	5913
463.669	6037
463.737	7527
463.743	7675
463.805	11660
463.823	12763
463.873	19992
463.903	24466
463.940	27728
463.982	31723
464.008	25510
464.062	11447
464.076	10498
464.142	5428
464.144	5422
464.211	5027
464.221	5070
464.279	5478
464.301	5561
464.347	5937
464.381	6287
464.414	7020
464.461	8003
464.482	8533
464.540	10071
464.550	9766
464.617	7182
464.620	7076
464.685	7896
464.699	8115
464.753	9649
464.779	10407
464.820	11862
464.859	13321
464.888	13320
464.938	13059
464.956	13040
465.018	12903
465.023	12743
465.091	10275
465.098	10004
465.158	10162
465.177	10222
465.226	10137
465.257	9994
465.293	10321
465.336	10804
465.361	11334
465.416	12367
465.428	12961
465.495	16167
465.496	16267
465.563	27570
465.575	29512
465.631	39073
465.654	43133
465.698	28734
465.734	16524
465.765	14379
465.813	10795
465.833	10625
465.893	10398
465.900	10431
465.968	10609
465.972	10601
466.035	10716
466.052	10748
466.102	11207
466.131	11384
466.170	11487
466.210	11554
466.237	12047
466.290	13026
466.304	13104
466.369	13214
466.372	13258
466.439	13800
466.449	13847
466.506	15800
466.528	16514
466.573	19261
466.607	21271
466.641	30223
466.687	42583
466.708	48420
466.766	64318
466.775	60117
466.842	27687
466.845	26087
466.909	19106
466.925	17413
466.977	17199
467.004	17071
467.044	17420
467.083	17714
467.111	18642
467.163	20287
467.178	21076
467.242	24151
467.245	24075
467.312	21462
467.321	21073
467.379	20256
467.400	19896
467.446	20579
467.480	21002
467.559	19871
467.638	16736
467.717	16655
467.796	17556
467.875	18064
467.955	18443
468.034	22834
468.113	47043
468.192	75967
468.271	29085
468.350	15112
468.429	16612
468.508	15805
468.588	14335
468.667	15055
468.746	16276
468.825	16822
468.904	13106
468.983	14787
469.062	19831
469.141	26325
469.220	14251
469.299	12998
469.378	13922
469.456	16950
469.535	16223
469.614	15509
469.693	14766
469.772	18577
469.851	24123
469.930	20489
470.009	13213
470.088	13532
470.166	13631
470.245	15047
470.324	17019
470.403	14818
470.482	13725
470.560	12900
470.639	12641
470.718	14584
470.797	13525
470.875	14508
470.954	19554
471.033	23532
471.111	12059
471.190	11326
471.269	9999
471.347	11162
471.426	11406
471.505	13631
471.583	14666
471.662	13894
471.740	11374
471.819	13242
471.898	11224
471.976	10999
472.055	11629
472.133	12364
472.212	16624
472.290	17996
472.369	14349
472.447	11576
472.526	10055
472.604	11034
472.683	11246
472.761	12794
472.839	11597
472.918	10703
472.996	11379
473.075	12762
473.153	12918
473.231	10857
473.310	12664
473.388	12801
473.466	11067
473.545	12615
473.623	15218
473.701	15160
473.780	12187
473.858	12523
473.936	13885
474.014	12848
474.093	11949
474.171	16645
474.249	22501
474.327	18620
474.405	10916
474.484	9600
474.562	9967
474.640	10914
474.718	10779
474.796	11750
474.874	11363
474.952	10687
475.030	11324
475.108	11166
475.187	14326
475.265	14418
475.343	18545
475.421	21844
475.499	13340
475.577	12296
475.655	13127
475.733	23462
475.811	42430
475.889	42531
475.966	32947
476.044	11054
476.122	12375
476.200	17758
476.278	16117
476.356	10137
476.434	10053
476.512	12540
476.590	15887
476.667	16849
476.745	9490
476.823	10434
476.901	9405
476.979	10531
477.056	9365
477.134	10157
477.212	11902
477.290	11422
477.367	8705
477.445	9473
477.523	9450
477.601	9907
477.678	8341
477.756	10891
477.834	12886
477.911	9614
477.989	8843
478.066	8995
478.144	10589
478.222	12410
478.299	18684
478.377	21987
478.454	10334
478.532	9166
478.609	7832
478.687	9606
478.764	8875
478.842	9519
478.919	9903
478.997	9236
479.074	8114
479.152	10766
479.229	11990
479.307	9667
479.384	7406
479.461	7240
479.539	7939
479.616	11332
479.694	8930
479.771	9384
479.848	9713
479.926	12194
480.003	15367
480.080	9193
480.157	8124
480.235	7171
480.312	7223
480.389	8123
480.467	13273
480.544	20372
480.621	11853
480.698	9842
480.775	9641
480.853	11794
480.930	9276
481.007	8628
481.084	10332
481.161	13025
481.238	12698
481.315	8503
481.392	8006
481.470	8160
481.547	9605
481.624	8493
481.701	7909
481.778	8321
481.855	9770
481.932	13181
482.009	24252
482.086	21418
482.163	8962
482.240	12706
482.317	22624
482.393	22434
482.470	10195
482.547	8948
482.624	8600
482.701	8112
482.778	8172
482.855	7146
482.932	6754
483.009	6688
483.085	7983
483.162	10593
483.239	10264
483.316	7332
483.393	7115
483.469	7721
483.546	8391
483.623	11145
483.699	7831
483.776	8755
483.853	9785
483.930	12645
484.006	32452
484.083	68139
484.160	40071
484.236	52451
484.313	45968
484.389	32498
484.466	28036
484.543	26101
484.619	26296
484.696	27705
484.772	27589
484.849	30394
484.925	24500
485.002	25482
485.078	25764
485.155	27382
485.231	23395
485.308	23263
485.384	24460
485.461	27161
485.537	40104
485.614	53467
485.690	25397
485.766	22611
485.843	22526
485.919	27216
485.995	28725
486.072	21424
486.148	19989
486.224	21172
486.301	19848
486.377	23762
486.453	24944
486.530	23603
486.606	30281
486.682	36698
486.758	38318
486.835	46727
486.911	35141
486.987	50452
487.063	51710
487.139	52521
487.215	44637
487.292	29120
487.368	23488
487.444	25730
487.520	28495
487.596	29386
487.672	31644
487.748	57517
487.824	96823
487.900	53108
487.976	26336
488.052	24344
488.128	27176
488.204	25564
488.280	22451
488.356	23487
488.432	40449
488.508	74997
488.584	32473
488.660	19075
488.736	19529
488.812	19455
488.888	24109
488.964	26579
489.039	42297
489.115	68938
489.191	53965
489.267	21913
489.343	19996
489.418	18363
489.494	16987
489.570	16695
489.646	17941
489.722	17276
489.797	18338
489.873	23969
489.949	49067
490.024	53796
490.100	18151
490.176	16059
490.251	17410
490.327	22423
490.403	16196
490.478	15979
490.554	14012
490.629	14545
490.705	13720
490.781	15118
490.856	13936
490.932	16695
491.007	16598
491.083	16993
491.158	15014
491.234	17870
491.309	36276
491.385	47864
491.460	17567
491.536	15551
491.611	14341
491.686	14913
491.762	18826
491.837	27217
491.913	48614
491.988	60903
492.063	87469
492.139	38462
492.214	24127
492.289	13178
492.365	10781
492.440	14483
492.515	14065
492.590	15758
492.666	11738
492.741	14954
492.816	24449
492.891	16381
492.967	13239
493.042	10729
493.117	13131
493.192	14254
493.267	19309
493.342	61933
493.418	119675
493.493	31057
493.568	9977
493.643	10798
493.718	12540
493.793	18403
493.868	20552
493.943	13064
494.018	11269
494.093	10883
494.168	10527
494.243	9700
494.318	8983
494.393	10282
494.468	9405
494.543	8780
494.618	10599
494.693	10271
494.768	9354
494.842	11436
494.917	8778
494.992	10203
495.067	8739
495.142	8965
495.217	9182
495.292	9948
495.366	10883
495.441	13703
495.516	16926
495.591	19445
495.665	42872
495.740	127278
495.815	81067
495.890	18678
495.964	13670
496.039	14448
496.114	12877
496.188	15150
496.263	15773
496.338	13479
496.412	14206
496.487	17450
496.561	15709
496.636	18428
496.710	15235
496.785	16810
496.860	20091
496.934	16734
497.009	15326
497.083	16646
497.158	16900
497.232	20123
497.307	24421
497.381	22239
497.455	24124
497.530	33321
497.604	27682
497.679	27402
497.753	37899
497.827	53525
497.902	52635
497.976	57081
498.050	81194
498.125	277620
498.199	413340
498.273	89517
498.348	60021
498.422	50398
498.496	44663
498.570	41574
498.645	34016
498.719	33404
498.793	34014
498.867	43060
498.941	53151
499.016	98348
499.090	341867
499.164	193171
499.238	24693
499.312	18279
499.386	19910
499.460	19828
499.534	17515
499.609	20245
499.683	30757
499.757	31126
499.831	42803
499.905	192416
499.979	279709
500.053	45159
500.127	34010
500.201	23162
500.275	15320
500.349	16246
500.422	18360
500.496	23105
500.570	39121
500.644	96019
500.718	257559
500.792	87565
500.866	16379
500.940	19627
501.013	18809
501.087	16656
501.161	25538
501.235	34504
501.309	61603
501.382	190502
501.456	237104
501.530	44268
501.603	71639
501.677	38943
501.751	13062
501.825	14960
501.898	22381
501.972	78479
502.046	73130
502.119	17164
502.193	28551
502.266	88276
502.340	62398
502.413	31887
502.487	80520
502.561	55525
502.634	18670
502.708	11626
502.781	9569
502.855	8636
502.928	7443
503.002	8615
503.075	7552
503.149	9662
503.222	9289
503.295	10668
503.369	13324
503.442	18334
503.516	45440
503.589	151358
503.662	130434
503.736	34144
503.809	65588
503.882	68665
503.956	74524
504.029	96915
504.102	37922
504.175	50368
504.249	25935
504.322	14575
504.395	13684
504.468	9291
504.542	10531
504.615	8241
504.688	7156
504.761	6026
504.834	8672
504.907	9627
504.980	16186
505.053	9570
505.127	8542
505.200	13965
505.273	13392
505.346	9983
505.419	6546
505.492	6150
505.565	5822
505.638	6376
505.711	6001
505.784	6157
505.857	5864
505.930	7010
506.003	6354
506.076	9031
506.149	9794
506.221	14284
506.294	12003
506.367	24646
506.440	103995
506.513	85512
506.586	15298
506.659	9367
506.731	6869
506.804	7250
506.877	11184
506.950	9504
507.022	6081
507.095	7533
507.168	11435
507.241	7673
507.313	5517
507.386	6116
507.459	8180
507.531	6724
507.604	5353
507.677	6384
507.749	4340
507.822	7285
507.894	13782
507.967	23143
508.040	14719
508.112	12310
508.185	10080
508.257	8717
508.330	13551
508.402	11461
508.475	9535
508.547	11638
508.620	10323
508.692	17118
508.765	12489
508.837	7761
508.909	7894
508.982	9008
509.054	8503
509.127	8004
509.199	8265
509.271	8305
509.344	6658
509.416	7709
509.488	7532
509.560	8534
509.633	7816
509.705	9183
509.777	8991
509.849	12073
509.922	10179
509.994	9572
510.066	10090
510.138	9738
510.210	19464
510.283	19840
510.355	15771
510.427	13645
510.499	12622
510.571	11550
510.643	11464
510.715	14469
510.787	15055
510.859	12241
510.931	13346
511.003	14929
511.076	16059
511.148	10391
511.219	11091
511.291	15986
511.363	22795
511.435	12314
511.507	10642
511.579	10320
511.651	9419
511.723	9718
511.795	9458
511.867	9685
511.939	10553
512.010	20040
512.082	21680
512.154	9952
512.226	10511
512.298	12856
512.369	22807
512.441	18298
512.513	16009
512.585	13625
512.656	13502
512.728	14024
512.800	12198
512.871	10934
512.943	11272
513.015	9068
513.086	10008
513.158	11474
513.230	10811
513.301	13631
513.373	15112
513.444	11729
513.516	9949
513.588	10155
513.659	9803
513.731	12010
513.802	10959
513.874	16065
513.945	30029
514.016	17300
514.088	10605
514.159	10645
514.231	12338
514.302	19658
514.374	16099
514.445	14913
514.516	25328
514.588	24249
514.659	13786
514.730	23895
514.802	22725
514.873	17390
514.944	21278
515.016	16363
515.087	15486
515.158	18174
515.229	28156
515.301	19394
515.372	29364
515.443	22873
515.514	15425
515.585	13056
515.656	11656
515.728	10333
515.799	9758
515.870	11336
515.941	10500
516.012	10902
516.083	14042
516.154	15463
516.225	16267
516.296	16254
516.367	14300
516.438	14921
516.509	18097
516.580	22819
516.651	43064
516.722	179359
516.793	143701
516.864	29237
516.935	26428
517.006	27344
517.077	33871
517.148	57561
517.219	156321
517.289	391913
517.360	173770
517.431	74141
517.502	17929
517.573	15707
517.643	14010
517.714	17146
517.785	16295
517.856	16177
517.926	19883
517.997	20989
518.068	25893
518.138	33942
518.209	40651
518.280	98715
518.350	463474
518.421	330434
518.492	40395
518.562	21546
518.633	19878
518.703	18930
518.774	24755
518.845	47715
518.915	62979
518.986	29465
519.056	21308
519.127	27408
519.197	41305
519.268	106684
519.338	107990
519.408	23126
519.479	20045
519.549	16691
519.620	12668
519.690	10764
519.760	10914
519.831	10139
519.901	10994
519.971	9370
520.042	11164
520.112	11587
520.182	12260
520.253	14138
520.323	11243
520.393	12472
520.463	20309
520.534	13331
520.604	26963
520.674	18216
520.744	14278
520.814	27919
520.885	32164
520.955	29908
521.025	131985
521.095	89320
521.165	13770
521.235	12260
521.305	10357
521.375	9442
521.445	9522
521.515	11033
521.585	10821
521.655	13308
521.725	11514
521.795	10933
521.865	8250
521.935	13149
522.005	14813
522.075	9333
522.145	9339
522.215	10094
522.285	14347
522.355	17913
522.424	34232
522.494	37501
522.564	17944
522.634	19543
522.704	57964
522.774	38330
522.843	10871
522.913	8795
522.983	10158
523.053	9613
523.122	9187
523.192	10019
523.262	25243
523.331	40165
523.401	12196
523.471	7136
523.540	7488
523.610	6116
523.680	5960
523.749	6764
523.819	8804
523.888	9949
523.958	6422
524.027	7731
524.097	7323
524.166	6640
524.236	6769
524.305	8777
524.375	6366
524.444	6808
524.514	8182
524.583	7311
524.653	10622
524.722	11522
524.791	7946
524.861	8877
524.930	6435
524.999	6778
525.069	9877
525.138	9335
525.207	10626
525.277	9071
525.346	7224
525.415	7800
525.484	7822
525.554	9808
525.623	9896
525.692	9635
525.761	8734
525.830	9203
525.900	10070
525.969	15134
526.038	21417
526.107	29148
526.176	92600
526.245	106357
526.314	37755
526.383	48506
526.452	79647
526.522	100083
526.591	163270
526.660	53491
526.729	28912
526.797	27161
526.867	39277
526.935	157475
527.004	299543
527.073	238583
527.142	30718
527.211	13044
527.280	10668
527.349	10102
527.418	6513
527.487	7253
527.555	6708
527.624	5313
527.693	4594
527.762	6293
527.831	5275
527.899	5305
527.968	6108
528.037	5041
528.106	7216
528.174	11823
528.243	11871
528.312	12818
528.380	20392
528.449	8916
528.518	7114
528.586	3993
528.655	5217
528.723	4774
528.792	4775
528.861	4795
528.929	4281
528.998	6286
529.066	4648
529.135	5615
529.203	4535
529.272	4280
529.340	6440
529.409	7246
529.477	5561
529.545	7283
529.614	9927
529.682	9380
529.751	12188
529.819	11297
529.887	9405
529.956	6666
530.024	6978
530.092	5816
530.161	6327
530.229	9291
530.297	8086
530.365	6833
530.434	5431
530.502	6312
530.570	5471
530.638	4763
530.707	5399
530.775	8033
530.843	6269
530.911	6990
530.979	5589
531.047	6302
531.115	6671
531.183	6132
531.252	5573
531.320	5517
531.388	5581
531.456	6573
531.524	5389
531.592	6654
531.660	7451
531.728	6260
531.796	4926
531.864	5881
531.932	6772
532.000	6643
532.067	6540
532.135	7779
532.203	8177
532.271	9295
532.339	11404
532.407	25246
532.475	23310
532.542	11792
532.610	11765
532.678	13650
532.746	33549
532.814	128345
532.881	53043
532.949	11635
533.017	7930
533.084	7092
533.152	7602
533.220	6334
533.287	7108
533.355	6653
533.423	7230
533.490	6622
533.558	6127
533.625	6714
533.693	8540
533.761	8372
533.828	7893
533.896	7060
533.963	11425
534.031	16739
534.098	19619
534.166	15285
534.233	8197
534.300	8333
534.368	9259
534.435	8589
534.503	8337
534.570	9380
534.637	8173
534.705	9171
534.772	9536
534.840	12336
534.907	35756
534.974	74997
535.041	16848
535.109	10249
535.176	6996
535.243	6124
535.310	6281
535.378	6465
535.445	5937
535.512	6473
535.579	6805
535.646	5435
535.714	6462
535.781	8045
535.848	9206
535.915	9231
535.982	10058
536.049	9638
536.116	8952
536.183	8211
536.250	6566
536.317	7842
536.384	7877
536.451	10800
536.518	11276
536.585	8540
536.652	9985
536.719	12497
536.786	11560
536.853	9482
536.920	12035
536.987	18279
537.053	16270
537.120	47403
537.187	72029
537.254	11271
537.321	7229
537.388	7638
537.454	5393
537.521	7079
537.588	5699
537.654	7732
537.721	8752
537.788	9901
537.855	6500
537.921	7225
537.988	7380
538.055	6696
538.121	7447
538.188	7348
538.254	8510
538.321	14842
538.388	13740
538.454	8670
538.521	6922
538.587	6533
538.654	5756
538.720	7316
538.787	6380
538.853	6536
538.920	7582
538.986	8495
539.053	7541
539.119	7714
539.185	7287
539.252	8273
539.318	10546
539.385	10194
539.451	10463
539.517	11097
539.583	10124
539.650	14549
539.716	47254
539.782	23742
539.849	7898
539.915	8021
539.981	7468
540.047	8318
540.114	8136
540.180	9309
540.246	7733
540.312	8889
540.378	15094
540.444	20074
540.510	15877
540.576	49077
540.643	28672
540.709	7995
540.775	7538
540.841	7420
540.907	8988
540.973	15206
541.039	12944
541.105	12687
541.171	8549
541.237	7523
541.303	8457
541.369	9150
541.435	9226
541.500	13909
541.566	11475
541.632	6466
541.698	6515
541.764	7220
541.830	6579
541.896	6392
541.961	7318
542.027	6954
542.093	7656
542.159	8195
542.224	7943
542.290	12209
542.356	14321
542.421	18267
542.487	11960
542.553	8534
542.618	9473
542.684	9178
542.750	7894
542.815	8212
542.881	11997
542.947	36041
543.012	46309
543.078	10207
543.143	6782
543.209	8784
543.274	7953
543.340	9222
543.405	13552
543.471	30728
543.536	12036
543.602	8840
543.667	7141
543.732	8756
543.798	5876
543.863	8693
543.928	5921
543.994	6490
544.059	6686
544.124	6705
544.190	6528
544.255	7398
544.320	7629
544.386	8124
544.451	10289
544.516	12215
544.581	10411
544.646	22144
544.712	50114
544.777	17255
544.842	10340
544.907	10174
544.972	8826
545.037	9363
545.102	9837
545.168	9705
545.233	10874
545.298	10953
545.363	12095
545.428	12757
545.493	15851
545.558	34541
545.623	25018
545.688	10483
545.753	10352
545.818	10179
545.883	9893
545.947	9961
546.012	10961
546.077	10826
546.142	11727
546.207	10215
546.272	12026
546.337	12939
546.401	11179
546.466	11636
546.531	9619
546.596	11080
546.661	11473
546.725	11703
546.790	10180
546.855	11136
546.919	9798
546.984	11835
547.049	11847
547.113	14689
547.178	13757
547.243	15436
547.307	16148
547.372	18462
547.436	20612
547.501	18040
547.565	18784
547.630	17853
547.695	18282
547.759	21997
547.823	20196
547.888	17859
547.952	16824
548.017	18242
548.081	20613
548.146	23313
548.210	23976
548.274	19798
548.339	18201
548.403	18128
548.468	15895
548.532	15852
548.596	16570
548.660	16484
548.725	17617
548.789	20482
548.853	23182
548.917	18487
548.982	21530
549.046	24654
549.110	16082
549.174	16324
549.238	15887
549.303	17676
549.367	19479
549.431	18133
549.495	16850
549.559	16360
549.623	18616
549.687	20788
549.751	24346
549.815	24345
549.879	24689
549.943	21782
550.007	22734
550.071	25004
550.135	23539
550.199	22481
550.263	21950
550.327	22109
550.391	23400
550.455	24143
550.519	21987
550.582	24771
550.646	27327
550.710	30809
550.774	26303
550.838	25755
550.901	26284
550.965	28144
551.029	29149
551.093	32733
551.156	36940
551.220	50620
551.284	66143
551.347	41247
551.411	48377
551.475	68394
551.538	32303
551.602	26714
551.666	24456
551.729	22785
551.793	22767
551.856	22428
551.920	22494
551.983	23170
552.047	21578
552.110	21715
552.174	20988
552.237	20927
552.301	21039
552.364	20334
552.428	19966
552.491	20212
552.554	20436
552.618	20330
552.681	22124
552.745	21036
552.808	24593
552.871	30794
552.934	27780
552.998	21846
553.061	21958
553.124	22053
553.187	21283
553.251	22909
553.314	24617
553.377	25026
553.440	30856
553.503	60058
553.567	144338
553.630	51458
553.693	22304
553.756	21675
553.819	20839
553.882	19482
553.945	19146
554.008	19443
554.071	18546
554.134	20129
554.197	18385
554.260	17397
554.323	18834
554.386	19428
554.449	18932
554.512	19432
554.575	17715
554.638	19016
554.701	17826
554.764	17602
554.827	17011
554.889	17768
554.952	15982
555.015	15475
555.078	16426
555.141	17594
555.203	15513
555.266	16413
555.329	15731
555.391	16347
555.454	15172
555.517	15340
555.580	15884
555.642	14330
555.705	13319
555.768	14982
555.830	14761
555.893	14205
555.955	12877
556.018	12639
556.080	13208
556.143	13984
556.206	12661
556.268	14839
556.330	14146
556.393	14221
556.455	13400
556.518	16055
556.580	18692
556.643	12922
556.705	11907
556.767	11257
556.830	12685
556.892	13062
556.955	15319
557.017	15427
557.079	11669
557.142	11013
557.204	11891
557.266	17561
557.328	18315
557.391	11271
557.453	10187
557.515	10864
557.577	11058
557.639	12942
557.701	10248
557.764	10171
557.826	10401
557.888	12598
557.950	12357
558.012	12885
558.074	14180
558.136	23278
558.198	67761
558.260	45984
558.322	14106
558.384	14577
558.446	16609
558.508	18155
558.570	22428
558.632	29027
558.694	43332
558.756	44391
558.818	93800
558.880	346088
558.942	190495
559.003	76364
559.065	58876
559.127	22000
559.189	19979
559.251	21663
559.312	25182
559.374	47799
559.436	182752
559.498	174998
559.559	28422
559.621	21695
559.683	21004
559.744	29227
559.806	72205
559.868	174802
559.929	56335
559.991	21909
560.052	24259
560.114	58790
560.176	63921
560.237	32797
560.299	71010
560.360	30135
560.422	11230
560.483	10926
560.545	9483
560.606	9508
560.667	8784
560.729	9019
560.790	8935
560.852	9629
560.913	8771
560.974	8578
561.036	8208
561.097	9224
561.158	9350
561.220	9363
561.281	8644
561.342	9143
561.403	10429
561.465	11076
561.526	17196
561.587	31115
561.648	13654
561.709	9925
561.771	8661
561.832	8203
561.893	9314
561.954	9161
562.015	7890
562.076	8275
562.137	8229
562.198	8630
562.259	8274
562.320	8298
562.381	9915
562.442	11666
562.503	11978
562.564	8424
562.625	8652
562.686	8796
562.747	8724
562.808	9043
562.869	8531
562.930	11153
562.991	11452
563.051	10378
563.112	9126
563.173	9216
563.234	8239
563.294	8293
563.355	8369
563.416	8970
563.477	8504
563.537	9793
563.598	9627
563.659	8976
563.720	9421
563.780	10273
563.841	9636
563.901	10782
563.962	8890
564.023	9291
564.083	9242
564.144	9272
564.204	9225
564.265	10068
564.325	10717
564.386	16102
564.446	20743
564.507	9933
564.567	9037
564.628	8120
564.688	9381
564.749	9438
564.809	9637
564.869	12069
564.930	10677
564.990	10605
565.050	8474
565.111	9649
565.171	8068
565.231	9574
565.292	9757
565.352	8262
565.412	9718
565.472	9843
565.532	9984
565.593	9499
565.653	9735
565.713	8784
565.773	10349
565.833	11099
565.893	13685
565.953	11344
566.013	10478
566.074	10800
566.134	13209
566.194	17613
566.254	21483
566.314	15839
566.374	12221
566.434	13279
566.494	11931
566.554	14049
566.614	14188
566.673	13699
566.733	14928
566.793	15379
566.853	16890
566.913	17200
566.973	17302
567.033	18433
567.092	18080
567.152	17919
567.212	17569
567.272	17102
567.331	18801
567.391	20260
567.451	21319
567.511	24360
567.570	26675
567.630	21011
567.690	18552
567.749	19019
567.809	20326
567.868	22061
567.928	25547
567.988	31063
568.047	35001
568.107	42532
568.166	56459
568.226	80981
568.285	122487
568.345	126546
568.404	104248
568.464	86996
568.523	77432
568.582	75847
568.642	80544
568.701	94382
568.761	128155
568.820	197510
568.879	233177
568.939	190883
568.998	142088
569.057	105785
569.116	82709
569.176	65702
569.235	53056
569.294	45350
569.353	38132
569.413	33068
569.472	30792
569.531	25885
569.590	23555
569.649	21730
569.708	19329
569.767	19644
569.827	17684
569.886	18522
569.945	15256
570.004	15295
570.063	14940
570.122	13933
570.181	13735
570.240	14561
570.299	14344
570.358	14085
570.417	12024
570.475	11405
570.534	10895
570.593	11816
570.652	10366
570.711	10793
570.770	10166
570.829	11674
570.887	10845
570.946	11441
571.005	10288
571.064	10436
571.122	9900
571.181	10894
571.240	9564
571.299	9262
571.357	9916
571.416	9846
571.475	9900
571.533	11146
571.592	9277
571.650	9231
571.709	9063
571.768	9188
571.826	8092
571.885	8987
571.943	8693
572.002	7785
572.060	9090
572.119	7741
572.177	8020
572.236	7406
572.294	7608
572.352	8236
572.411	7791
572.469	7747
572.528	7558
572.586	7561
572.644	8064
572.703	10035
572.761	8354
572.819	7647
572.877	6599
572.936	7110
572.994	7389
573.052	7120
573.110	6917
573.169	8165
573.227	6875
573.285	7084
573.343	7061
573.401	7287
573.459	7879
573.517	7187
573.576	6933
573.634	7911
573.692	7151
573.750	6112
573.808	7324
573.866	7953
573.924	8601
573.982	10534
574.040	7781
574.098	7102
574.155	7834
574.213	6671
574.271	6006
574.329	7254
574.387	6719
574.445	6643
574.503	6189
574.560	6638
574.618	6128
574.676	5877
574.734	5367
574.792	7205
574.849	5766
574.907	5489
574.965	6460
575.022	5302
575.080	5711
575.138	5397
575.195	6045
575.253	5965
575.311	6428
575.368	6782
575.426	6216
575.483	6591
575.541	6058
575.598	5939
575.656	5976
575.713	6742
575.771	6177
575.828	7446
575.886	6327
575.943	6631
576.001	6659
576.058	7100
576.115	7477
576.173	6575
576.230	9011
576.287	8743
576.345	7802
576.402	7336
576.459	6301
576.517	7261
576.574	7025
576.631	8678
576.688	7285
576.746	6878
576.803	7310
576.860	6762
576.917	6547
576.974	7075
577.031	6926
577.089	6511
577.146	7929
577.203	7041
577.260	7469
577.317	8254
577.374	8722
577.431	8211
577.488	7539
577.545	7931
577.602	7261
577.659	6840
577.716	6822
577.773	8788
577.830	8169
577.886	7326
577.943	6464
578.000	7840
578.057	8088
578.114	8770
578.171	8281
578.227	10182
578.284	10742
578.341	9469
578.398	8696
578.454	9200
578.511	8584
578.568	8886
578.625	8687
578.681	7693
578.738	6769
578.794	7616
578.851	7812
578.908	7590
578.964	6899
579.021	7914
579.077	7557
579.134	8049
579.190	7638
579.247	7386
579.303	6512
579.360	6573
579.416	7247
579.473	7729
579.529	7164
579.586	6807
579.642	7092
579.698	7065
579.755	7967
579.811	8509
579.867	8481
579.924	7816
579.980	8257
580.036	8814
580.093	10725
580.149	12588
580.205	17043
580.261	14615
580.317	11751
580.374	10491
580.430	10376
580.486	10258
580.542	8931
580.598	9462
580.619	9378
580.654	9245
580.692	8770
580.710	8556
580.765	8040
580.767	8034
580.823	8893
580.838	8760
580.879	8452
580.911	8099
580.935	7852
580.984	8138
580.991	8197
581.047	8494
581.057	8642
581.103	9283
581.130	9624
581.159	10030
581.203	9893
581.215	9867
581.270	10467
581.276	10289
581.326	8742
581.349	8959
581.382	9263
581.422	9080
581.438	9032
581.494	8657
581.494	8653
581.550	8964
581.567	9035
581.606	9284
581.640	8194
581.661	7534
581.713	8862
581.717	8974
581.773	8141
581.786	8207
581.829	8468
581.859	8760
581.885	8993
581.932	8879
581.940	8867
581.996	9480
582.004	9511
582.052	9740
582.077	9271
582.107	8771
582.150	8808
582.163	8798
582.219	8691
582.223	8735
582.274	9377
582.296	8925
582.330	8243
582.368	9035
582.386	9413
582.441	9467
582.441	9471
582.497	9804
582.514	9680
582.552	9375
582.587	10383
582.608	11036
582.659	9767
582.663	9668
582.719	9921
582.732	9812
582.774	9488
582.805	9564
582.830	9610
582.877	9483
582.885	9471
582.941	9483
582.950	9546
582.996	9890
583.023	10171
583.052	10509
583.095	11079
583.107	11226
583.162	12451
583.168	12517
583.218	13095
583.240	12660
583.273	12127
583.313	11359
583.328	10995
583.384	10694
583.385	10694
583.439	10739
583.458	10633
583.494	10507
583.531	10305
583.549	10129
583.603	9876
583.605	9877
583.660	9780
583.676	9939
583.715	10095
583.748	10009
583.770	10090
583.820	10388
583.825	10398
583.881	10351
583.893	10424
583.936	10708
583.965	10790
583.991	10735
584.038	10192
584.046	10123
584.101	10381
584.110	10360
584.156	10305
584.183	10427
584.211	10582
584.255	10341
584.266	10200
584.321	9829
584.328	9917
584.376	10797
584.400	10831
584.431	10885
584.472	10863
584.486	10822
584.541	10631
584.545	10669
584.596	11107
584.617	10823
584.651	10648
584.689	11648
584.706	11897
584.761	11562
584.762	11572
584.816	12024
584.834	11987
584.871	11822
584.906	12090
584.926	12276
584.978	12387
584.980	12379
585.035	13379
585.051	13349
585.090	13403
585.123	14249
585.145	14556
585.195	13275
585.200	13192
585.254	14454
585.267	14706
585.309	15456
585.340	16469
585.364	17261
585.412	17689
585.419	17679
585.473	17975
585.484	18011
585.528	18186
585.556	19426
585.583	20704
585.628	25219
585.637	26400
585.692	40756
585.700	45753
585.747	72209
585.772	66401
585.801	56459
585.845	30278
585.856	24125
585.910	18406
585.917	18120
585.965	17091
585.989	17119
586.019	17139
586.061	17099
586.074	16968
586.128	16596
586.133	16627
586.183	16976
586.205	17392
586.237	17907
586.277	18006
586.292	18015
586.346	18008
586.349	18068
586.401	18793
586.421	19189
586.455	19413
586.493	19442
586.509	19681
586.564	21198
586.565	21349
586.618	26569
586.637	27637
586.672	28802
586.709	25213
586.727	23166
586.781	22537
586.781	22496
586.835	22580
586.853	22868
586.889	22784
586.925	22610
586.944	22791
586.996	24244
586.998	24220
587.052	24514
587.068	24754
587.106	25574
587.140	26655
587.161	27052
587.212	27666
587.215	27659
587.269	29278
587.284	29814
587.323	30452
587.356	30818
587.377	31271
587.427	33072
587.431	33068
587.485	33508
587.499	34011
587.539	36014
587.571	37515
587.593	38222
587.643	39942
587.648	40029
587.702	43280
587.715	44124
587.755	45659
587.786	47143
587.810	48566
587.858	52330
587.864	52615
587.917	57179
587.930	58485
587.971	62284
588.001	66076
588.025	68801
588.073	74423
588.079	75062
588.133	84283
588.145	86786
588.187	93641
588.217	99378
588.241	104635
588.288	118285
588.295	119725
588.348	136290
588.360	140804
588.402	157512
588.431	170973
588.456	181382
588.503	207610
588.510	211127
588.564	248870
588.575	258883
588.617	296519
588.646	329274
588.671	359891
588.718	431893
588.725	443822
588.778	557610
588.789	584092
588.832	711949
588.861	785903
588.886	847719
588.932	901725
588.939	891924
588.993	776133
589.004	784780
589.047	835446
589.075	881255
589.100	857597
589.147	727094
589.154	709640
589.207	559616
589.218	534309
589.261	474986
589.290	449645
589.314	440712
589.361	448100
589.368	452392
589.421	525349
589.433	545849
589.475	663539
589.504	737445
589.528	784295
589.576	806219
589.582	793071
589.635	758326
589.647	758356
589.689	678616
589.718	572886
589.742	497647
589.790	348928
589.795	336305
589.849	252261
589.861	236959
589.902	197137
589.932	173874
589.955	158573
590.004	132362
590.009	129431
590.062	109672
590.075	106015
590.115	94966
590.146	88037
590.168	82680
590.218	73460
590.222	72461
590.275	65761
590.289	64561
590.328	60142
590.360	57198
590.381	54831
590.431	50483
590.435	49909
590.488	45288
590.503	44390
590.541	41775
590.574	39918
590.594	38850
590.645	37188
590.647	36883
590.700	34184
590.716	33639
590.753	31825
590.787	30653
590.806	30262
590.859	29879
590.859	29689
590.912	27915
590.930	27552
590.965	26734
591.001	26093
591.018	25338
591.071	23763
591.072	23888
591.124	23245
591.143	23195
591.177	22018
591.214	20983
591.230	20762
591.283	20690
591.285	20803
591.336	20021
591.356	19954
591.389	19781
591.427	19701
591.442	19039
591.495	17052
591.498	17024
591.547	16820
591.569	16914
591.600	16559
591.640	16193
591.653	16155
591.706	16632
591.711	16777
591.759	15972
591.782	15704
591.811	15538
591.853	15536
591.864	15252
591.917	14294
591.924	14240
591.969	14211
591.995	14376
592.022	13973
592.066	13535
592.075	13568
592.127	14358
592.137	14590
592.180	13782
592.208	13421
592.233	13197
592.279	12909
592.285	12722
592.338	11983
592.350	11903
592.390	11853
592.421	11974
592.443	11585
592.491	11004
592.495	10939
592.548	11205
592.562	11362
592.600	10907
592.633	10673
592.653	10319
592.704	9576
592.705	9639
592.775	10208
592.846	9721
592.916	9611
592.987	10340
593.058	9825
593.128	10527
593.199	10172
593.270	9417
593.341	9295
593.411	9105
593.482	8558
593.553	9532
593.623	8411
593.694	9460
593.764	8817
593.835	8421
593.906	8479
593.976	8616
594.047	8645
594.117	8693
594.188	8823
594.258	8037
594.329	7929
594.399	7967
594.470	8099
594.540	8137
594.611	6932
594.681	7949
594.751	8204
594.822	8997
594.892	7716
594.963	8810
595.033	8151
595.103	7586
595.174	7896
595.244	8813
595.314	10875
595.384	8615
595.455	6995
595.525	8660
595.595	7552
595.665	8217
595.736	7347
595.806	7705
595.876	7094
595.946	8267
596.016	7674
596.087	7323
596.157	7671
596.227	7775
596.297	7845
596.367	7930
596.437	8345
596.507	9915
596.577	10684
596.647	9673
596.717	8112
596.787	7951
596.857	8387
596.927	8480
596.997	8146
597.067	8138
597.137	8015
597.207	8881
597.277	7735
597.347	8566
597.417	8315
597.487	8637
597.557	8923
597.626	7764
597.696	9174
597.766	9958
597.836	9992
597.906	8768
597.975	8580
598.045	7507
598.115	7242
598.185	7721
598.254	8813
598.324	9362
598.394	7908
598.464	9527
598.533	8507
598.603	8420
598.672	7729
598.742	8962
598.812	8237
598.881	8758
598.951	8342
599.020	8001
599.090	7961
599.159	8998
599.229	8599
599.299	7930
599.368	7794
599.437	8259
599.507	8362
599.576	8152
599.646	7782
599.715	8496
599.785	7468
599.854	7431
599.924	7541
599.993	7409
600.062	8005
600.132	7109
600.201	6770
600.270	8070
600.340	7719
600.409	8938
600.478	8546
600.547	8613
600.617	7805
600.686	8039
600.755	7350
600.824	7512
600.894	6592
600.963	6941
601.032	7820
601.101	7229
601.170	6383
601.239	7019
601.308	6958
601.378	7632
601.447	6789
601.516	6916
601.585	6594
601.654	7913
601.723	7087
601.792	6832
601.861	6854
601.930	7721
601.999	8030
602.068	7657
602.137	6963
602.206	7992
602.275	7183
602.343	7526
602.412	8323
602.481	6880
602.550	7096
602.619	7622
602.688	8076
602.756	7806
602.825	7191
602.894	7428
602.963	7484
603.032	7383
603.100	7628
603.169	7547
603.238	7385
603.307	7827
603.375	7487
603.444	8485
603.513	7754
603.581	7540
603.650	7926
603.719	7467
603.787	6526
603.856	7276
603.924	7469
603.993	8132
604.061	7368
604.130	8040
604.198	7846
604.267	8559
604.335	7759
604.404	8029
604.472	7670
604.541	7917
604.609	7838
604.678	8484
604.746	7712
604.815	8922
604.883	8774
604.951	9109
605.020	9473
605.088	9002
605.156	8859
605.225	9044
605.293	8636
605.361	9093
605.429	9134
605.498	8637
605.566	9070
605.634	10274
605.702	9282
605.771	9332
605.839	8799
605.907	9522
605.975	8975
606.043	9205
606.111	8843
606.180	9217
606.248	8385
606.316	10519
606.384	9034
606.452	9696
606.520	8381
606.588	8471
606.656	7862
606.724	8186
606.792	7386
606.860	7099
606.928	6356
606.996	7038
607.064	6149
607.132	6895
607.200	7271
607.267	7115
607.335	7085
607.403	8103
607.471	7539
607.539	6735
607.607	6841
607.674	6541
607.742	6196
607.810	6865
607.878	5745
607.946	6356
608.013	7270
608.081	6094
608.149	6578
608.216	5916
608.284	7545
608.352	7148
608.419	6312
608.487	8407
608.555	6982
608.622	7142
608.690	7229
608.757	7881
608.825	8548
608.893	7745
608.960	7838
609.028	7337
609.095	7988
609.163	7731
609.230	6667
609.298	6287
609.365	4982
609.432	7329
609.500	6781
609.567	8064
609.635	8556
609.702	8993
609.769	8931
609.837	8003
609.904	6678
609.971	6685
610.039	7898
610.106	8827
610.173	12546
610.241	28178
610.308	33814
610.375	22851
610.442	10173
610.509	6850
610.577	6787
610.644	6632
610.711	7042
610.778	7690
610.845	6139
610.912	8073
610.980	7852
611.047	9293
611.114	7589
611.181	7389
611.248	7147
611.315	7928
611.382	7139
611.449	8119
611.516	8409
611.583	7632
611.650	8163
611.717	8131
611.784	8051
611.851	9166
611.918	8699
611.984	10217
612.051	13474
612.118	21652
612.185	51458
612.252	58976
612.319	15627
612.386	11196
612.452	9174
612.519	9015
612.586	8836
612.653	9556
612.719	9664
612.786	8544
612.853	8504
612.919	7809
612.986	8691
613.053	7752
613.120	7230
613.186	6915
613.253	7487
613.319	7310
613.386	6394
613.453	6703
613.519	6986
613.586	7722
613.652	9219
613.719	9085
613.785	7825
613.852	7837
613.918	6744
613.985	8821
614.051	8324
614.118	13447
614.184	15599
614.250	8963
614.317	7104
614.383	6584
614.449	6815
614.516	7185
614.582	7173
614.648	7163
614.715	6635
614.781	8371
614.847	7417
614.914	7543
614.980	7090
615.046	7267
615.112	6998
615.179	7842
615.245	8071
615.311	9735
615.377	13349
615.443	19661
615.509	11587
615.575	10338
615.642	8606
615.708	8562
615.774	8351
615.840	10980
615.906	12046
615.972	17360
616.038	30793
616.104	49595
616.170	71778
616.236	96403
616.302	26372
616.368	14279
616.434	10059
616.500	9877
616.565	9287
616.631	10841
616.697	9286
616.763	9054
616.829	11555
616.895	16329
616.961	20318
617.026	12774
617.092	7503
617.158	7958
617.224	8275
617.289	7567
617.355	6822
617.421	7270
617.487	7747
617.552	7310
617.618	6634
617.684	5769
617.749	7557
617.815	6552
617.880	6746
617.946	6898
618.012	6700
618.077	6553
618.143	6005
618.208	5890
618.274	6778
618.339	7272
618.405	6506
618.470	6520
618.536	5752
618.601	6043
618.667	6399
618.732	6139
618.798	6040
618.863	6946
618.928	5348
618.994	6341
619.059	5966
619.124	7497
619.190	6873
619.255	6325
619.320	5715
619.386	6600
619.451	5686
619.516	5890
619.581	5117
619.647	5479
619.712	5307
619.777	5582
619.842	4530
619.907	5109
619.972	5044
620.038	5882
620.103	5219
620.168	5330
620.233	5115
620.298	5916
620.363	5295
620.428	6058
620.493	5736
620.558	6210
620.623	5816
620.688	6132
620.753	5220
620.818	5522
620.883	6147
620.948	6324
621.013	5247
621.078	6016
621.143	5097
621.207	6738
621.272	5415
621.337	6437
621.402	5720
621.467	6635
621.532	7830
621.596	6723
621.661	6527
621.726	6926
621.791	5957
621.855	5684
621.920	5466
621.985	6604
622.049	6906
622.114	6927
622.179	6222
622.243	6771
622.308	5989
622.373	8159
622.437	7303
622.502	7104
622.566	6807
622.631	6304
622.695	6371
622.760	7057
622.824	6668
622.889	7133
622.953	6481
623.018	7678
623.082	8302
623.147	7197
623.211	6262
623.276	6694
623.340	6140
623.404	6712
623.469	5916
623.533	6192
623.597	5254
623.662	5788
623.726	5372
623.790	5998
623.854	5372
623.919	6314
623.983	5886
624.047	5354
624.111	4899
624.176	6141
624.240	5158
624.304	6847
624.368	5320
624.432	6479
624.496	5651
624.560	5999
624.625	5346
624.689	5247
624.753	5401
624.817	6153
624.881	5380
624.945	5849
625.009	5034
625.073	6379
625.137	4168
625.201	6177
625.265	5804
625.329	5319
625.393	5252
625.456	5749
625.520	4763
625.584	6786
625.648	5998
625.712	7509
625.776	12215
625.839	16594
625.903	9926
625.967	5418
626.031	7127
626.095	10403
626.158	6878
626.222	4516
626.286	4973
626.349	4235
626.413	3155
626.477	4200
626.540	4279
626.604	4082
626.668	3847
626.731	4074
626.795	3637
626.858	4194
626.922	3114
626.986	4283
627.049	3719
627.113	3507
627.176	4503
627.240	3435
627.303	4151
627.366	3350
627.430	3399
627.493	4044
627.557	3024
627.620	5400
627.684	3258
627.747	3338
627.810	3069
627.874	3164
627.937	2214
628.000	4226
628.064	3205
628.127	3428
628.190	1913
628.253	3346
628.317	3468
628.380	3283
628.443	2647
628.506	4138
628.569	1854
628.632	2987
628.696	2230
628.759	2528
628.822	2032
628.885	2524
628.948	3166
629.011	3060
629.074	1946
629.137	2811
629.200	1755
629.263	3281
629.326	1774
629.389	2434
629.452	1919
629.515	3191
629.578	2381
629.641	2252
629.704	1718
629.767	3061
629.830	1535
629.892	2773
629.955	1909
630.018	4051
630.081	1806
630.144	3569
630.207	1697
630.269	3227
630.332	2320
630.395	2375
630.458	2522
630.520	1372
630.583	2655
630.646	2280
630.708	2139
630.771	2550
630.834	2538
630.896	1748
630.959	1723
631.021	2022
631.084	2499
631.146	2811
631.209	1971
631.272	2242
631.334	2736
631.397	2299
631.459	1733
631.522	2385
631.584	1184
631.646	2548
631.709	1945
631.771	2437
631.834	2001
631.896	2453
631.958	1588
632.021	3011
632.083	1233
632.145	1752
632.208	1910
632.270	1764
632.332	1467
632.395	1437
632.457	1337
632.519	1405
632.581	2159
632.643	1438
632.706	1165
632.768	2461
632.830	1191
632.892	2258
632.954	1849
633.016	978
633.078	1288
633.141	1686
633.203	1013
633.265	1837
633.327	1403
633.389	1259
633.451	1586
633.513	2335
633.575	2187
633.637	1786
633.698	1025
633.760	3012
633.822	1129
633.884	1997
633.946	1328
634.008	1874
634.070	1590
634.132	2317
634.193	1423
634.255	1964
634.317	688
634.379	2300
634.441	1078
634.502	1828
634.564	1431
634.626	2344
634.687	967
634.749	2281
634.811	1941
634.873	1829
634.934	1978
634.996	1445
635.057	948
635.119	1834
635.181	1411
635.242	1921
635.304	798
635.365	2742
635.427	825
635.488	1960
635.550	453
635.611	1427
635.673	1445
635.734	2088
635.796	822
635.857	1847
635.918	1065
635.980	1689
636.041	1279
636.102	2215
636.164	1893
636.225	2089
636.286	915
636.348	2057
636.409	1401
636.470	1159
636.531	820
636.593	1200
636.654	1622
636.715	1654
636.776	1044
636.838	1611
636.899	745
636.960	753
637.021	689
637.082	964
637.143	1147
637.204	973
637.265	391
637.326	1678
637.387	188
637.448	983
637.509	1338
637.570	1871
637.631	1060
637.692	1157
637.753	346
637.814	1467
637.875	417
637.936	1682
637.997	333
638.058	1343
638.119	1002
638.179	802
638.240	533
638.301	1156
638.362	732
638.423	956
638.483	1306
638.544	1031
638.605	725
638.666	446
638.726	1501
638.787	841
638.848	440
638.908	1738
638.969	603
639.030	2016
639.090	133
639.151	528
639.211	1262
639.272	897
639.332	1788
639.393	1173
639.453	6
639.514	672
639.574	814
639.635	907
639.695	638
639.756	760
639.816	1096
639.877	1166
639.937	1979
639.997	2347
640.058	736
640.118	397
640.178	902
640.239	1198
640.299	340
640.359	-161
640.420	801
640.480	590
640.540	314
640.600	1287
640.661	458
640.721	564
640.781	1463
640.841	465
640.901	1205
640.961	1060
641.021	138
641.082	549
641.142	801
641.202	1535
641.262	-1081
641.322	1634
641.382	290
641.442	915
641.502	127
641.562	1287
641.622	-57
641.682	326
641.742	149
641.802	1243
641.861	1347
641.921	1331
641.981	992
642.041	367
642.101	-78
642.161	120
642.221	-649
642.280	1436
642.340	137
642.400	783
642.460	897
642.519	1086
642.579	-504
642.639	1318
642.698	-1091
642.758	1665
642.818	-121
642.877	338
642.937	246
642.997	800
643.056	488
643.116	283
643.175	635
643.235	639
643.294	587
643.354	1003
643.414	247
643.473	675
643.532	446
643.592	1019
643.651	2305
643.711	4821
643.770	7071
643.830	14682
643.889	44293
643.948	29288
644.008	3129
644.067	950
644.126	-89
644.186	972
644.245	853
644.304	66
644.363	608
644.423	560
644.482	-471
644.541	682
644.600	-206
644.659	1651
644.719	286
644.778	959
644.837	807
644.896	2951
644.955	6624
645.014	6424
645.073	828
645.132	82
645.191	954
645.250	480
645.309	1007
645.368	420
645.427	439
645.486	354
645.545	1425
645.604	610
645.663	50
645.722	928
645.781	203
645.840	709
645.898	222
645.957	2473
646.016	336
646.075	4504
646.134	4888
646.192	13478
646.251	33675
646.310	13252
646.369	1563
646.427	1405
646.486	-942
646.545	487
646.603	369
646.662	489
646.721	117
646.779	-260
646.838	-1717
646.896	678
646.955	362
647.014	1596
647.072	971
647.131	4012
647.189	3978
647.248	309
647.306	291
647.365	407
647.423	-521
647.481	1447
647.540	-1119
647.598	395
647.657	-77
647.715	829
647.773	-134
647.832	683
647.890	-1154
647.948	-64
648.007	76
648.065	502
648.123	-672
648.181	1630
648.240	-280
648.298	190
648.356	383
648.414	763
648.472	40
648.531	933
648.589	-23
648.647	250
648.705	-20
648.763	321
648.821	-122
648.879	595
648.937	-70
648.995	695
649.053	-71
649.111	991
649.169	739
649.227	2901
649.285	3659
649.343	12591
649.401	15182
649.459	4095
649.516	2308
649.574	-37
649.632	2327
649.690	4672
649.748	1818
649.806	305
649.863	2652
649.921	3987
649.979	3369
650.037	945
650.094	-1082
650.152	92
650.210	-833
650.268	968
650.325	-204
650.383	-128
650.440	-728
650.498	387
650.556	-386
650.613	315
650.671	-945
650.728	329
650.786	-103
650.843	-406
650.901	-1018
650.958	-79
651.016	-245
651.073	-19
651.131	-134
651.188	-858
651.246	126
651.303	-1030
651.360	-465
651.418	-370
651.475	-210
651.532	-431
651.590	134
651.647	-712
651.704	-258
651.762	550
651.819	-272
651.876	-884
651.933	-208
651.990	16
652.048	-1800
652.105	-340
652.162	19
652.219	-279
652.276	-937
652.333	712
652.390	-1387
652.448	246
652.505	-1415
652.562	-297
652.619	-85
652.676	299
652.733	650
652.790	-173
652.847	-810
652.904	-73
652.961	-1209
653.017	-1431
653.074	180
653.131	-263
653.188	-1086
653.245	-157
653.302	-326
653.359	-43
653.415	-39
653.472	-360
653.529	-961
653.586	-612
653.642	-986
653.699	706
653.756	-1531
653.813	-633
653.869	-363
653.926	-281
653.983	-691
654.039	43
654.096	-455
654.152	64
654.209	-1238
654.266	36
654.322	-909
654.379	257
654.435	271
654.492	-400
654.548	-85
654.605	-246
654.661	246
654.717	167
654.774	-750
654.830	-336
654.887	72
654.943	-242
655.000	-793
655.056	-864
655.112	-811
655.168	-723
655.225	-558
655.281	-625
655.337	-634
655.394	484
655.450	-211
655.506	206
655.562	-1189
655.618	1630
655.675	-851
655.731	38
655.787	-974
655.843	-260
655.899	-1396
655.955	671
656.011	-438
656.067	-831
656.123	487
656.179	159
656.235	-471
656.291	-791
656.347	57
656.403	-527
656.459	-292
656.515	-605
656.571	-749
656.627	-185
656.683	-1346
656.739	343
656.795	-707
656.850	-60
656.906	-215
656.962	230
657.018	-1464
657.074	-916
657.129	-288
657.185	-318
657.241	-802
657.297	-1038
657.352	-528
657.408	-700
657.464	-496
657.519	-723
657.575	-1602
657.630	-315
657.686	-337
657.742	-1201
657.797	-778
657.853	-278
657.908	295
657.964	-915
658.019	-586
658.075	-655
658.130	-434
658.186	-734
658.241	-960
658.297	-910
658.352	-1222
658.407	-171
658.463	-1380
658.518	-29
658.573	-398
658.629	-1223
658.684	-1450
658.739	92
658.795	-1782
658.850	-272
658.905	-718
658.960	-394
659.016	-1659
659.071	74
659.126	-942
659.181	-970
659.236	376
659.291	911
659.346	-491
659.401	-591
659.457	-3
659.512	-903
659.567	10
659.622	436
659.677	-982
659.732	-354
659.787	-991
659.842	-374
659.897	-665
659.952	597
660.007	-1069
660.061	-181
660.116	-1624
660.171	-1357
660.226	-723
660.281	421
660.336	-1758
660.391	-524
660.445	-1244
660.500	-478
660.555	-817
660.610	-528
660.664	-458
660.719	3
660.774	-269
660.828	-402
660.883	-181
660.938	-671
660.992	-1929
661.047	-573
661.101	-1589
661.156	-609
661.211	-1067
661.265	-765
661.320	-673
661.374	-551
661.429	-1298
661.483	56
661.538	-317
661.592	-1582
661.647	-1327
661.701	-393
661.755	-565
661.810	1
661.864	-1276
661.919	-1097
661.973	-375
662.027	-587
662.081	-1832
662.136	-653
662.190	-407
662.244	219
662.299	-1002
662.353	-47
662.407	-700
662.461	-125
662.515	248
662.569	-135
662.624	113
662.678	-986
662.732	-1120
662.786	-1273
662.840	-913
662.894	-89
662.948	-985
663.002	19
663.056	-427
663.110	-1069
663.164	-888
663.218	-146
663.272	-1361
663.326	-313
663.380	-670
663.434	-490
663.488	-1639
663.542	-997
663.595	-1295
663.649	-714
663.703	-359
663.757	-294
663.811	-1630
663.864	-1237
663.918	-507
663.972	-775
664.026	-319
664.079	-280
664.133	-1104
664.187	87
664.240	-1600
664.294	-565
664.348	-893
664.401	-1416
664.455	-864
664.508	-856
664.562	-1356
664.615	-140
664.669	-1536
664.722	-80
664.776	-701
664.829	-588
664.883	-496
664.936	-458
664.990	-556
665.043	-25
665.097	-965
665.150	-16
665.203	-990
665.257	-742
665.310	-769
665.363	-467
665.417	-232
665.470	-588
665.523	-1282
665.576	-13
665.630	-927
665.683	-82
665.736	-944
665.789	-367
665.842	-1038
665.895	-975
665.949	-565
666.002	-719
666.055	-944
666.108	-8
666.161	-1322
666.214	-356
666.267	-395
666.320	-15
666.373	-851
666.426	-760
666.479	-1463
666.532	-900
666.585	-674
666.638	386
666.691	-1017
666.744	456
666.796	-1467
666.849	-429
666.902	219
666.955	-575
667.008	-1232
667.060	-230
667.113	-1830
667.166	-512
667.219	-1009
667.271	54
667.324	-177
667.377	-339
667.430	-719
667.482	-1114
667.535	-855
667.587	-562
667.640	-54
667.693	-754
667.745	-180
667.798	406
667.850	-487
667.903	-635
667.955	-893
668.008	-529
668.060	-207
668.113	-475
668.165	-11
668.218	-584
668.270	-249
668.322	-525
668.375	-877
668.427	349
668.479	-1655
668.532	-5
668.584	-221
668.636	-622
668.689	-406
668.741	-768
668.793	-422
668.845	2
668.898	-930
668.950	-409
669.002	-105
669.054	-26
669.106	-961
669.158	-85
669.211	-742
669.263	-719
669.315	-258
669.367	32
669.419	-566
669.471	367
669.523	-547
669.575	213
669.627	-508
669.679	-249
669.731	-204
669.783	-156
669.835	-207
669.886	398
669.938	-570
669.990	231
670.042	-1078
670.094	-692
670.146	421
670.197	823
670.249	172
670.301	1021
670.353	1616
670.404	3497
670.456	3963
670.508	8289
670.560	13271
670.611	22424
670.663	39835
670.715	79120
670.766	199417
670.818	153697
670.869	25871
670.921	7107
670.972	3208
671.024	2295
671.075	1122
671.127	1617
671.178	-608
671.230	803
671.281	126
671.333	642
671.384	-638
671.436	541
671.487	1009
671.538	744
671.590	-192
671.641	852
671.692	394
671.744	2046
671.795	3662
671.846	1772
671.897	-459
671.949	-231
672.000	-87
672.051	549
672.102	-503
672.153	-319
672.204	-203
672.256	-652
672.307	-1113
672.358	34
672.409	-591
672.460	409
672.511	-1063
672.562	-634
672.613	-889
672.664	-471
672.715	-1231
672.766	254
672.817	-1022
672.868	-507
672.919	-1010
672.970	149
673.021	-1379
673.071	-678
673.122	-97
673.173	-63
673.224	-630
673.275	-39
673.326	-1200
673.376	-514
673.427	-1484
673.478	-134
673.528	-385
673.579	-351
673.630	-993
673.680	158
673.731	-1194
673.782	433
673.832	-341
673.883	-858
673.934	-1599
673.984	17
674.035	-1418
674.085	-846
674.136	-604
674.186	-1389
674.237	-914
674.287	147
674.338	-206
674.388	311
674.438	-887
674.489	-475
674.539	-759
674.589	-553
674.640	-39
674.690	-320
674.740	-1453
674.791	-1056
674.841	-531
674.891	533
674.942	-655
674.992	-779
675.042	-1282
675.092	-599
675.142	-1270
675.193	-74
675.243	-985
675.293	-622
675.343	-1322
675.393	-856
675.443	-345
675.493	-118
675.543	-970
675.593	-220
675.643	-242
675.693	-1287
675.743	-358
675.793	-430
675.843	-1090
675.893	-192
675.943	-293
675.993	-895
676.043	-839
676.093	381
676.142	-1113
676.192	-103
676.242	-879
676.292	-57
676.341	-1084
676.391	7
676.441	-1654
676.491	-702
676.540	-543
676.590	-755
676.640	-1068
676.689	-724
676.739	-1714
676.789	-472
676.838	-1558
676.888	-53
676.937	-995
676.987	-495
677.037	-825
677.086	-334
677.136	-1747
677.185	-289
677.235	-566
677.284	-947
677.333	-964
677.383	-651
677.432	-815
677.482	-223
677.531	-215
677.580	-1271
677.630	-480
677.679	-1070
677.728	-364
677.778	-228
677.827	-1051
677.876	-1049
677.925	-1202
677.975	-558
678.024	-603
678.073	-866
678.122	-1698
678.171	-762
678.220	-1456
678.269	-841
678.319	-1050
678.368	-421
678.417	-75
678.466	-1120
678.515	-820
678.564	-770
678.613	-666
678.662	-733
678.711	-897
678.760	-302
678.809	-585
678.857	-679
678.906	-1271
678.955	270
679.004	-960
679.053	-134
679.102	-528
679.151	-955
679.199	-1056
679.248	-824
679.297	-1058
679.346	-616
679.394	-994
679.443	-542
679.492	-1274
679.540	-987
679.589	-665
679.638	-770
679.686	-1470
679.735	-474
679.784	-917
679.832	-899
679.881	-1922
679.929	-177
679.978	-1193
680.026	388
680.075	-319
680.123	-642
680.172	-1180
680.220	-168
680.268	-664
680.317	-627
680.365	-907
680.414	-981
680.462	-290
680.510	-187
680.559	-1136
680.607	-1064
680.655	-919
680.703	-175
680.752	-1331
680.800	-208
680.848	-1491
680.896	-762
680.945	-754
680.993	-437
681.041	-1152
681.089	-397
681.137	-542
681.185	-1034
681.233	-1330
681.258	-1081
681.281	-862
681.329	-1190
681.377	-281
681.380	-303
681.425	-1021
681.473	-286
681.502	-619
681.521	-877
681.569	-227
681.617	-540
681.624	-433
681.665	134
681.713	-1398
681.745	-447
681.761	-23
681.809	-591
681.857	-342
681.867	-567
681.904	-1413
681.952	335
681.989	-284
682.000	-486
682.048	-284
682.096	-1007
682.111	-847
682.143	-581
682.191	137
682.233	-450
682.239	-552
682.286	-519
682.334	82
682.354	-51
682.382	-263
682.430	308
682.476	-252
682.477	-280
682.525	-21
682.572	-876
682.598	-472
682.620	-152
682.667	109
682.715	1015
682.720	957
682.763	336
682.810	-90
682.841	-307
682.857	-472
682.905	563
682.952	-807
682.963	-426
683.000	885
683.047	363
683.085	882
683.095	1001
683.142	19
683.190	837
683.206	446
683.237	-253
683.284	561
683.328	556
683.332	538
683.379	583
683.426	728
683.449	471
683.473	178
683.521	526
683.568	797
683.571	791
683.615	607
683.662	1117
683.693	465
683.709	90
683.757	609
683.804	345
683.814	575
683.851	1301
683.898	613
683.936	590
683.945	568
683.992	699
684.039	824
684.057	713
684.086	591
684.133	1223
684.179	760
684.180	731
684.227	1332
684.274	1435
684.300	1598
684.321	1712
684.368	558
684.415	1087
684.422	1118
684.462	1290
684.509	1362
684.543	1383
684.556	1370
684.603	1176
684.649	1372
684.665	1347
684.696	1323
684.743	1782
684.786	1616
684.790	1584
684.837	1561
684.883	1720
684.908	1702
684.930	1711
684.977	1687
685.023	1279
685.029	1365
685.070	1865
685.117	1190
685.150	1725
685.164	1929
685.210	1747
685.257	2513
685.272	2355
685.303	2004
685.350	2444
685.393	1748
685.396	1696
685.443	2476
685.490	2085
685.514	2530
685.536	2827
685.583	2511
685.629	2748
685.636	2604
685.675	1812
685.722	2554
685.757	2507
685.768	2458
685.815	2554
685.861	1794
685.878	2079
685.908	2625
685.954	2482
686.000	3002
686.000	3004
686.047	2086
686.093	3177
686.121	2614
686.139	2288
686.185	2626
686.232	2933
686.242	2975
686.278	2991
686.324	3186
686.363	2703
686.370	2609
686.416	2372
686.463	2313
686.484	2329
686.509	2437
686.555	2881
686.601	2257
686.606	2375
686.647	3299
686.693	2173
686.727	2827
686.739	3090
686.785	2790
686.831	2989
686.848	2823
686.877	2535
686.923	3766
686.969	2962
686.969	2956
687.015	2982
687.061	2697
687.090	2907
687.107	3053
687.153	3115
687.199	3177
687.211	3119
687.245	2917
687.291	3294
687.332	3120
687.336	3106
687.382	3725
687.428	3436
687.453	3665
687.474	3806
687.520	3197
687.565	3304
687.574	3213
687.611	2916
687.657	2984
687.695	3242
687.702	3320
687.748	3123
687.794	3125
687.816	3417
687.839	3586
687.885	3255
687.931	3466
687.937	3467
687.976	3519
688.022	3639
688.058	3367
688.067	3321
688.113	3297
688.158	3370
688.179	3567
688.204	3767
688.249	3287
688.295	4305
688.300	4190
688.340	3490
688.386	4425
688.421	3983
688.431	3810
688.477	3889
688.522	3884
688.542	3764
688.567	3789
688.613	3652
688.658	4495
688.663	4444
688.703	3879
688.749	4067
688.784	4017
688.794	4035
688.839	4191
688.884	3843
688.905	4108
688.930	4351
688.975	3878
689.020	4296
689.026	4271
689.065	4238
689.110	4226
689.146	4146
689.155	4136
689.201	4604
689.246	4607
689.267	4466
689.291	4321
689.336	4067
689.381	4255
689.388	4199
689.426	3897
689.471	4597
689.509	4561
689.516	4583
689.561	4272
689.606	4102
689.630	4449
689.651	4665
689.696	4274
689.741	4072
689.750	4099
689.785	4398
689.830	4761
689.871	4680
689.875	4658
689.920	4104
689.965	4068
689.992	4184
690.010	4390
690.054	4399
690.099	4651
690.112	4615
690.144	4382
690.189	4362
690.233	3860
690.233	3867
690.278	4715
690.323	4651
690.354	4743
690.367	4784
690.412	4519
690.457	5026
690.474	4983
690.501	4946
690.546	5246
690.590	5438
690.595	5429
690.635	5409
690.680	5233
690.716	5228
690.724	5331
690.769	5970
690.813	6855
690.836	6753
690.857	6847
690.902	8416
690.946	9026
690.957	9269
690.991	12487
691.035	16337
691.077	21315
691.080	21570
691.124	24597
691.168	26450
691.198	28481
691.213	26540
691.257	20513
691.301	14045
691.318	11686
691.346	10587
691.390	8583
691.434	6224
691.439	6043
691.478	6346
691.522	6217
691.559	5860
691.567	5791
691.611	5686
691.655	5270
691.680	5280
691.699	5478
691.743	5545
691.787	5648
691.800	5573
691.831	5306
691.875	5734
691.919	5554
691.921	5550
691.964	6052
692.008	5755
692.041	6154
692.052	6238
692.096	5977
692.139	6260
692.162	5934
692.183	5646
692.227	5855
692.271	5695
692.282	5736
692.315	6059
692.359	5923
692.402	6104
692.403	6119
692.447	5855
692.490	6067
692.523	5855
692.534	5838
692.578	6112
692.622	5984
692.643	6152
692.666	6283
692.709	5808
692.753	5748
692.763	5705
692.797	5756
692.840	6076
692.884	5922
692.884	5937
692.928	6379
692.971	6068
693.004	6257
693.015	6323
693.059	6401
693.102	6356
693.124	6308
693.146	6308
693.189	6380
693.233	6303
693.245	6359
693.276	6786
693.320	7173
693.363	7413
693.365	7405
693.407	7716
693.450	8138
693.485	8340
693.493	8549
693.537	9828
693.580	10700
693.605	11226
693.624	12460
693.667	15448
693.710	18607
693.725	19583
693.753	25790
693.797	35914
693.840	45964
693.845	47106
693.883	53499
693.926	59812
693.966	65777
693.970	64374
694.013	48306
694.056	32471
694.086	21305
694.099	20144
694.142	16628
694.185	12893
694.206	11043
694.229	10532
694.272	9601
694.315	8845
694.326	8595
694.358	8473
694.401	8202
694.444	7992
694.446	7965
694.487	7718
694.530	7205
694.566	7018
694.573	7061
694.616	6867
694.659	6915
694.686	6714
694.702	6641
694.745	6984
694.787	6729
694.806	6731
694.830	6738
694.873	6507
694.916	6548
694.926	6513
694.959	6563
695.002	6622
695.044	6341
695.046	6332
695.087	6782
695.130	6730
695.166	7045
695.172	7091
695.215	6799
695.258	6977
695.286	6849
695.301	6856
695.343	7089
695.386	7384
695.406	7235
695.428	6933
695.471	6739
695.514	6433
695.526	6289
695.556	6313
695.599	6650
695.641	6623
695.646	6653
695.684	6871
695.726	6698
695.766	6404
695.769	6417
695.811	6526
695.854	6752
695.886	6857
695.896	6869
695.938	6584
695.981	6548
696.005	6428
696.023	6534
696.065	6732
696.108	7131
696.125	7197
696.150	7326
696.192	7603
696.235	7624
696.245	7712
696.277	7876
696.319	7873
696.361	7882
696.365	7841
696.404	7800
696.446	7945
696.485	8041
696.488	8046
696.530	7882
696.572	7430
696.604	7254
696.614	7346
696.656	7528
696.698	7796
696.724	7834
696.740	7740
696.783	7605
696.825	7442
696.844	7336
696.867	7350
696.909	7385
696.951	7217
696.964	7189
696.992	7114
697.034	6967
697.076	6705
697.083	6672
697.118	7119
697.160	7428
697.202	7848
697.203	7837
697.244	8010
697.286	8040
697.323	7977
697.327	7955
697.369	7700
697.411	7283
697.442	7048
697.453	7100
697.494	7096
697.536	7202
697.562	7220
697.578	7212
697.620	7141
697.661	7036
697.682	6991
697.703	7172
697.744	7351
697.786	7672
697.801	7727
697.828	7730
697.869	7754
697.911	7750
697.921	7744
697.952	7717
697.994	7574
698.035	7454
698.040	7413
698.077	7323
698.118	7202
698.160	7079
698.160	7055
698.201	7322
698.243	7506
698.279	7670
698.284	7717
698.325	7919
698.367	8189
698.399	8302
698.408	8256
698.449	7938
698.491	7659
698.518	7437
698.532	7501
698.573	7620
698.614	7745
698.638	7786
698.656	7849
698.697	7948
698.738	8050
698.757	8064
698.779	7984
698.820	7794
698.862	7614
698.877	7517
698.903	7715
698.944	8012
698.985	8298
698.996	8354
699.026	8028
699.067	7542
699.116	6942
699.235	7602
699.354	7919
699.474	7051
699.593	8209
699.713	7638
699.832	8350
699.951	7432
700.070	8503
700.190	7461
700.309	7146
700.428	8092
700.547	7709
700.667	8040
700.786	7420
700.905	7956
701.024	7175
701.143	6987
701.262	7091
701.381	6810
701.500	7391
701.619	7543
701.738	6571
701.857	6756
701.976	6615
702.095	7213
702.214	7566
702.333	7013
702.452	6668
702.571	8051
702.690	6926
702.809	7165
702.928	6653
703.047	7163
703.165	7063
703.284	7928
703.403	6703
703.522	6459
703.640	7254
703.759	6789
703.878	7688
703.997	7355
704.115	5781
704.234	6254
704.353	6346
704.471	5731
704.590	5791
704.708	5128
704.827	5487
704.946	5838
705.064	6422
705.183	6465
705.301	6530
705.420	9495
705.538	9785
705.656	8579
705.775	8137
705.893	11255
706.012	19173
706.130	9842
706.249	8109
706.367	8248
706.485	9212
706.604	8289
706.722	8105
706.840	8414
706.958	9184
707.077	8798
707.195	8146
707.313	7172
707.431	7397
707.549	7271
707.668	7193
707.786	7240
707.904	7773
708.022	7115
708.140	6869
708.258	6229
708.376	6727
708.494	7192
708.612	7377
708.730	8993
708.848	10667
708.966	8273
709.084	8085
709.202	7382
709.320	8494
709.438	8142
709.556	8692
709.674	8619
709.791	9503
709.909	8162
710.027	8076
710.145	7665
710.263	8480
710.380	8063
710.498	7513
710.616	8002
710.733	7742
710.851	7344
710.969	7375
711.086	7877
711.204	7927
711.322	8006
711.439	7514
711.557	7372
711.674	7089
711.792	6947
711.909	7072
712.027	8427
712.144	7351
712.262	7757
712.379	7986
712.497	9384
712.614	11198
712.732	9450
712.849	8231
712.966	8913
713.084	9939
713.201	9546
713.318	9462
713.436	8575
713.553	8836
713.670	8797
713.787	9364
713.905	9891
714.022	7982
714.139	9089
714.256	9090
714.373	9187
714.490	10719
714.608	14146
714.725	33669
714.842	81041
714.959	16518
715.076	8267
715.193	7798
715.310	7196
715.427	7706
715.544	8331
715.661	7572
715.778	7509
715.895	8364
716.011	8492
716.128	8237
716.245	7645
716.362	7908
716.479	8383
716.596	7412
716.713	6875
716.829	7022
716.946	8521
717.063	6909
717.180	7576
717.296	7417
717.413	6842
717.530	6915
717.646	7134
717.763	6966
717.880	7108
717.996	6838
718.113	6809
718.229	6079
718.346	6057
718.462	6070
718.579	6492
718.695	6809
718.812	8237
718.928	6815
719.045	6952
719.161	5936
719.277	6179
719.394	6880
719.510	6913
719.626	6853
719.743	6974
719.859	7375
719.975	7373
720.092	12364
720.208	32473
720.324	15629
720.440	7593
720.557	7501
720.673	7173
720.789	8614
720.905	13259
721.021	12102
721.137	7065
721.253	6035
721.369	5101
721.486	6380
721.602	6781
721.718	6942
721.834	5940
721.950	5737
722.066	5607
722.181	6071
722.297	5738
722.413	5285
722.529	5702
722.645	6059
722.761	5806
722.877	5051
722.993	4791
723.108	5763
723.224	4990
723.340	4520
723.456	5214
723.571	5920
723.687	4583
723.803	5557
723.918	5325
724.034	5006
724.150	5394
724.265	5242
724.381	6806
724.497	10175
724.612	5711
724.728	4776
724.843	4603
724.959	5147
725.074	6599
725.190	9660
725.305	5009
725.421	4884
725.536	4606
725.651	5072
725.767	4789
725.882	4854
725.997	5137
726.113	4683
726.228	5083
726.343	4496
726.459	4043
726.574	4184
726.689	4173
726.804	4320
726.920	4820
727.035	4968
727.150	5003
727.265	4467
727.380	4978
727.495	4953
727.610	3965
727.725	4438
727.841	4796
727.956	6096
728.071	9412
728.186	4260
728.301	4345
728.416	4675
728.531	4689
728.645	4079
728.760	4283
728.875	4348
728.990	3678
729.105	3650
729.220	3899
729.335	4376
729.449	4340
729.564	3924
729.679	4231
729.794	4186
729.908	3780
730.023	4339
730.138	3430
730.253	3653
730.367	3617
730.482	3834
730.596	3224
730.711	4023
730.826	4223
730.940	4616
731.055	3951
731.169	3587
731.284	3616
731.398	3972
731.513	3813
731.627	4020
731.742	4053
731.856	4963
731.970	3780
732.085	3874
732.199	4345
732.313	3749
732.428	5258
732.542	12617
732.656	15226
732.771	5770
732.885	3328
732.999	3683
733.113	4315
733.227	4487
733.342	4025
733.456	4057
733.570	3916
733.684	3577
733.798	3834
733.912	3662
734.026	4066
734.140	3565
734.254	3347
734.368	4069
734.482	6172
734.596	3568
734.710	3458
734.824	3884
734.938	3514
735.052	2647
735.166	3227
735.280	3825
735.393	2741
735.507	2972
735.621	4177
735.735	5204
735.849	4096
735.962	3381
736.076	3373
736.190	3311
736.303	3423
736.417	4383
736.531	3405
736.644	3116
736.758	3477
736.872	3562
736.985	3161
737.099	3392
737.212	3283
737.326	3445
737.439	2528
737.553	3156
737.666	2721
737.780	3132
737.893	2584
738.007	3060
738.120	2680
738.233	2594
738.347	2582
738.460	3595
738.573	3011
738.687	3234
738.800	3616
738.913	3045
739.026	3692
739.140	3038
739.253	3220
739.366	2966
739.479	2373
739.592	2460
739.705	2905
739.818	2783
739.932	3546
740.045	3670
740.158	3002
740.271	2789
740.384	2668
740.497	2276
740.610	3602
740.723	3313
740.836	3592
740.949	3218
741.062	2791
741.174	2871
741.287	2607
741.400	2871
741.513	2934
741.626	3155
741.739	3417
741.851	2755
741.964	2147
742.077	2783
742.189	2859
742.302	4049
742.415	2868
742.527	2868
742.640	2703
742.753	2584
742.865	3486
742.978	2799
743.090	3555
743.203	2884
743.316	2592
743.428	3203
743.541	2390
743.653	2804
743.766	2795
743.878	2607
743.990	2179
744.103	3205
744.215	3390
744.327	2884
744.440	2594
744.552	2521
744.664	2412
744.777	2963
744.889	3271
745.001	2050
745.113	3254
745.226	2145
745.338	3460
745.450	2713
745.562	3487
745.674	3319
745.786	2689
745.898	3125
746.010	2848
746.122	2325
746.234	3230
746.347	2122
746.459	3465
746.570	2849
746.682	3323
746.794	3602
746.906	2075
747.018	2688
747.130	2172
747.242	2874
747.354	2530
747.466	2827
747.577	2713
747.689	3199
747.801	2562
747.913	2894
748.024	1912
748.136	1988
748.248	2628
748.359	2955
748.471	2597
748.583	2209
748.694	2271
748.806	3533
748.918	3138
749.029	2786
749.141	3125
749.252	3314
749.364	2538
749.475	3632
749.587	3112
749.698	2882
749.809	3048
749.921	2812
750.032	2171
750.144	1736
750.255	2937
750.366	2622
750.478	2677
750.589	2961
750.700	2560
750.811	3198
750.923	3383
751.034	2918
751.145	4042
751.256	2465
751.367	2411
751.479	2006
751.590	2688
751.701	2489
751.812	2094
751.923	2610
752.034	2436
752.145	2683
752.256	2682
752.367	2499
752.478	2867
752.589	2539
752.700	2527
752.811	2578
752.922	2757
753.032	2279
753.143	2540
753.254	2208
753.365	3186
753.476	2821
753.586	2604
753.697	3457
753.808	3209
753.919	2353
754.029	3063
754.140	2363
754.251	2538
754.361	2571
754.472	2319
754.582	2436
754.693	2908
754.804	2716
754.914	1700
755.025	2666
755.135	2696
755.246	3028
755.356	2814
755.466	2885
755.577	2682
755.687	2838
755.798	2477
755.908	2632
756.018	2554
756.129	2784
756.239	2320
756.349	3102
756.460	2966
756.570	2541
756.680	2255
756.790	2383
756.900	2284
757.011	2739
757.121	3331
757.231	2836
757.341	2930
757.451	2435
757.561	3286
757.671	3049
757.781	2756
757.891	4022
758.001	2990
758.111	2865
758.221	3266
758.331	2891
758.441	3228
758.551	3792
758.661	3586
758.771	3035
758.880	3358
758.990	3362
759.100	3371
759.210	2852
759.320	3317
759.429	4091
759.539	3414
759.649	3477
759.758	3837
759.868	3587
759.978	2460
760.087	3830
760.197	3081
760.307	3269
760.416	3007
760.526	3338
760.635	3662
760.745	3942
760.854	4133
760.964	4321
761.073	4113
761.182	4062
761.292	3934
761.401	3915
761.511	4430
761.620	4669
761.729	5065
761.839	4205
761.948	4884
762.057	4435
762.166	5084
762.276	4988
762.385	5743
762.494	5966
762.603	5736
762.712	5302
762.822	6041
762.931	5824
763.040	5769
763.149	5494
763.258	5789
763.367	6122
763.476	7103
763.585	6678
763.694	7817
763.803	7319
763.912	8588
764.021	8078
764.130	7688
764.238	9282
764.347	9139
764.456	10867
764.565	11551
764.674	12619
764.783	13226
764.891	13611
765.000	15474
765.109	17932
765.217	20087
765.326	23897
765.435	26629
765.543	33348
765.652	39541
765.761	51596
765.869	69683
765.978	99354
766.086	148129
766.195	239043
766.303	394216
766.412	535628
766.520	430243
766.629	485485
766.737	331069
766.846	198086
766.954	127281
767.062	88977
767.171	67153
767.279	51585
767.387	39989
767.496	32333
767.604	28460
767.712	25048
767.820	22219
767.928	19752
768.037	18590
768.145	17508
768.253	17345
768.361	15658
768.469	15685
768.577	15951
768.685	17132
768.793	17682
768.901	18602
769.009	20506
769.117	24747
769.225	31914
769.333	40752
769.441	61195
769.549	97173
769.657	176089
769.765	337952
769.873	463291
769.981	408635
770.088	282318
770.196	143048
770.304	83919
770.412	56826
770.519	40824
770.627	32293
770.735	26061
770.842	21819
770.950	18705
771.058	15740
771.165	14654
771.273	14081
771.380	12651
771.488	11239
771.595	10129
771.703	9274
771.810	9379
771.918	8527
772.025	7848
772.133	7127
772.240	7179
772.348	7076
772.455	6649
772.562	6269
772.670	6717
772.777	6088
772.884	4511
772.991	5398
773.099	5548
773.206	6025
773.313	4499
773.420	5019
773.528	4094
773.635	5360
773.742	5328
773.849	4813
773.956	3829
774.063	3869
774.170	3879
774.277	4462
774.384	3391
774.491	3306
774.598	4869
774.705	3412
774.812	3229
774.919	4404
775.026	4408
775.133	3793
775.239	3231
775.346	3889
775.453	3845
775.560	3560
775.667	3466
775.773	3401
775.880	3958
775.987	3457
776.093	3648
776.200	3225
776.307	3770
776.413	3841
776.520	2603
776.627	3535
776.733	2391
776.840	2765
776.946	3716
777.053	3283
777.159	3962
777.266	3111
777.372	3349
777.478	2764
777.585	3272
777.691	3327
777.798	3227
777.904	2491
778.010	3160
778.117	3306
778.223	3153
778.329	2297
778.435	3240
778.542	3013
778.648	2524
778.754	3093
778.860	1953
778.966	2541
779.072	2417
779.178	2712
779.284	1828
779.391	2722
779.497	1954
779.603	2957
779.708	3991
779.815	8110
779.920	22610
780.026	88252
780.132	40330
780.238	5395
780.344	3312
780.450	4033
780.556	2491
780.661	1949
780.767	2901
780.873	2332
780.979	2660
781.085	1891
781.190	2275
781.296	2213
781.402	1573
781.507	1929
781.613	2594
781.719	1833
781.824	2065
781.930	2469
782.035	2156
782.141	1396
782.246	2346
782.352	1749
782.457	1787
782.563	1563
782.668	2117
782.773	1585
782.879	1639
782.984	1565
783.090	2201
783.195	1651
783.300	2128
783.405	1956
783.511	1544
783.616	2209
783.721	2209
783.826	1798
783.932	2174
784.037	1696
784.142	2833
784.247	2159
784.352	1740
784.457	1495
784.562	2654
784.667	1979
784.772	1848
784.877	1185
784.982	2447
785.087	1874
785.192	2041
785.297	2104
785.402	1273
785.507	2258
785.611	1896
785.716	1031
785.821	1728
785.926	1579
786.031	1310
786.135	1932
786.240	1132
786.345	981
786.450	1634
786.554	2021
786.659	1867
786.763	1092
786.868	2566
786.973	1545
787.077	1428
787.182	1605
787.286	1781
787.391	1488
787.495	1167
787.600	1019
787.704	1164
787.809	1195
787.913	823
788.017	1674
788.122	1379
788.226	1831
788.330	912
788.435	1522
788.539	1394
788.643	973
788.747	1791
788.852	1407
788.956	903
789.060	1214
789.164	1842
789.268	1072
789.372	1185
789.476	1569
789.580	1525
789.684	956
789.788	1739
789.892	1540
789.996	1465
790.100	798
790.204	1041
790.308	810
790.412	1879
790.516	1238
790.620	1745
790.724	1591
790.828	1866
790.931	1549
791.035	1630
791.139	1451
791.242	1429
791.346	1169
791.450	1444
791.554	1199
791.657	744
791.761	1833
791.864	1170
791.968	1699
792.072	1197
792.175	1531
792.279	750
792.382	1483
792.486	1810
792.589	1259
792.693	2024
792.796	615
792.899	1502
793.003	1388
793.106	321
793.209	1560
793.313	2008
793.416	1051
793.519	1503
793.623	1921
793.726	1712
793.829	1180
793.932	1440
794.035	1333
794.138	1876
794.242	1357
794.345	1911
794.448	2535
794.551	4304
794.654	13542
794.757	48194
794.860	27401
794.963	3154
795.066	1693
795.169	1686
795.272	1962
795.375	1609
795.477	1056
795.580	1649
795.683	270
795.786	494
795.889	245
795.991	1858
796.094	969
796.197	298
796.300	1531
796.402	639
796.505	731
796.608	1149
796.710	1459
796.813	1242
796.915	861
797.018	652
797.120	771
797.223	273
797.326	1491
797.428	1354
797.530	456
797.633	1335
797.735	1990
797.838	278
797.940	1107
798.042	1247
798.145	710
798.247	1109
798.349	1267
798.452	130
798.554	1343
798.656	435
798.758	1743
798.860	1433
798.962	1188
799.065	718
799.167	524
799.269	1724
799.371	1259
799.473	1039
799.575	1319
799.677	504
799.779	837
799.881	281
799.983	1542
800.085	693
800.187	454
800.289	-102
800.390	1082
800.492	1181
800.594	1934
800.696	815
800.798	940
800.899	623
801.001	299
801.103	111
801.205	585
801.306	194
801.408	781
801.509	907
801.611	1121
801.713	914
801.814	373
801.916	934
802.017	-18
802.119	97
802.220	800
802.322	169
802.423	719
802.525	667
802.626	685
802.727	762
802.829	918
802.930	-776
803.031	1209
803.133	1274
803.234	452
803.335	536
803.436	606
803.538	308
803.639	360
803.740	1147
803.841	1137
803.942	792
804.043	1240
804.144	960
804.245	676
804.346	501
804.447	548
804.548	710
804.649	556
804.750	742
804.851	428
804.952	932
805.053	879
805.154	214
805.255	1731
805.355	843
805.456	982
805.557	122
805.658	322
805.758	1067
805.859	436
805.960	610
806.061	841
806.161	1249
806.262	585
806.362	536
806.463	728
806.564	664
806.664	754
806.765	1317
806.865	1053
806.966	919
807.066	602
807.166	1821
807.267	1147
807.367	781
807.468	707
807.568	391
807.668	794
807.769	872
807.869	279
807.969	456
808.069	1084
808.170	253
808.270	546
808.370	1310
808.470	999
808.570	290
808.670	655
808.770	1304
808.870	466
808.970	610
809.070	461
809.170	404
809.271	1095
809.370	287
809.470	186
809.570	548
809.670	-114
809.770	359
809.870	805
809.970	702
810.070	696
810.169	899
810.269	-800
810.369	1491
810.469	646
810.568	429
810.668	416
810.768	355
810.867	613
810.967	-164
811.066	638
811.166	596
811.265	635
811.365	343
811.464	407
811.564	1193
811.663	900
811.763	404
811.862	901
811.962	1066
812.061	457
812.160	581
812.260	275
812.359	1085
812.458	490
812.557	670
812.657	2245
812.756	1758
812.855	603
812.954	1064
813.053	1044
813.153	617
813.252	1367
813.351	588
813.450	303
813.549	738
813.648	1129
813.747	959
813.846	369
813.945	64
814.044	660
814.143	117
814.242	787
814.341	659
814.439	367
814.538	761
814.637	485
814.736	1022
814.835	1060
814.933	503
815.032	663
815.131	992
815.229	326
815.328	1065
815.427	1091
815.525	1481
815.624	1258
815.722	596
815.821	1621
815.919	1201
816.018	1331
816.116	992
816.215	1247
816.313	1589
816.412	1371
816.510	1574
816.609	1674
816.707	2299
816.805	1780
816.904	1504
817.002	2337
817.100	2203
817.198	2631
817.296	2593
817.395	3441
817.493	3935
817.591	4985
817.689	5444
817.787	7503
817.885	11390
817.983	20594
818.081	38912
818.179	86609
818.277	208756
818.375	306968
818.473	129649
818.571	42725
818.669	23162
818.767	18091
818.865	17029
818.963	19270
819.061	24693
819.158	38884
819.256	73502
819.354	154707
819.452	329657
819.549	364230
819.647	154101
819.745	59780
819.842	32570
819.940	20772
820.038	14004
820.135	11626
820.233	9248
820.330	7427
820.428	6043
820.525	4992
820.623	4501
820.720	3711
820.818	3641
820.915	2898
821.012	3221
821.110	1878
821.207	2823
821.304	2171
821.402	2055
821.499	2436
821.596	1954
821.693	2308
821.791	1705
821.888	1529
821.985	2005
822.082	2009
822.179	1479
822.276	1708
822.373	1423
822.470	849
822.567	966
822.664	166
822.761	1207
822.858	674
822.955	1252
823.052	1433
823.149	871
823.246	1249
823.343	910
823.440	1258
823.536	758
823.633	1393
823.730	262
823.827	997
823.923	206
824.020	1247
824.117	160
824.213	958
824.310	1083
824.407	761
824.503	1113
824.600	508
824.696	371
824.793	1065
824.889	485
824.986	386
825.082	-227
825.179	490
825.275	792
825.371	319
825.468	704
825.564	-211
825.660	342
825.757	101
825.853	1137
825.949	-27
826.045	400
826.142	327
826.238	70
826.334	518
826.430	193
826.526	1197
826.622	950
826.718	757
826.814	-223
826.910	792
827.006	320
827.102	691
827.198	211
827.294	327
827.390	465
827.486	672
827.582	-75
827.678	109
827.774	906
827.869	-937
827.965	997
828.061	-313
828.157	-156
828.252	214
828.348	20
828.444	406
828.539	-139
828.635	419
828.731	447
828.826	-510
828.922	339
829.017	-372
829.113	172
829.208	650
829.304	-266
829.399	895
829.495	-109
829.590	231
829.685	-407
829.781	-166
829.876	471
829.971	192
830.066	147
830.162	285
830.257	-248
830.352	351
830.447	1082
830.543	690
830.638	-1380
830.733	509
830.828	34
830.923	287
831.018	-421
831.113	135
831.208	-287
831.303	373
831.398	561
831.493	-323
831.588	178
831.683	-71
831.778	411
831.873	651
831.967	945
832.062	-35
832.157	-402
832.252	998
832.346	-61
832.441	448
832.536	384
832.631	850
832.725	516
832.820	-433
832.914	943
833.009	61
833.104	207
833.198	517
833.293	519
833.387	-570
833.482	487
833.576	-846
833.670	292
833.765	120
833.859	-165
833.954	223
834.048	511
834.142	506
834.237	122
834.331	-255
834.425	249
834.519	-294
834.613	167
834.708	-7
834.802	373
834.896	67
834.990	46
835.084	243
835.178	51
835.272	280
835.366	-101
835.460	227
835.554	-493
835.648	-319
835.742	119
835.836	283
835.930	-518
836.024	385
836.117	98
836.211	-373
836.305	254
836.399	368
836.493	-376
836.586	594
836.680	97
836.774	78
836.867	620
836.961	-182
837.055	-706
837.148	-158
837.242	-557
837.335	-150
837.429	-627
837.522	-634
837.616	664
837.709	114
837.803	317
837.896	-318
837.989	498
838.083	584
838.176	842
838.269	671
838.363	1052
838.456	-662
838.549	540
838.642	66
838.735	1180
838.829	856
838.922	-239
839.015	-689
839.108	183
839.201	334
839.294	-240
839.387	336
839.480	348
839.573	505
839.666	3
839.759	481
839.852	-370
839.945	78
840.038	-467
840.131	57
840.223	-917
840.316	387
840.409	7
840.502	-776
840.594	632
840.687	654
840.780	-361
840.873	-106
840.965	100
841.058	255
841.150	348
841.243	727
841.336	442
841.428	755
841.521	69
841.613	-169
841.706	-312
841.798	591
841.890	532
841.983	-373
842.075	253
842.167	-597
842.260	146
842.352	826
842.444	29
842.537	771
842.629	1416
842.721	673
842.813	272
842.905	-804
842.997	947
843.090	-352
843.182	35
843.274	255
843.366	1978
843.458	3927
843.550	4617
843.642	825
843.734	-492
843.826	336
843.918	996
844.009	493
844.101	-341
844.193	-537
844.285	-956
844.377	-99
844.469	737
844.560	-429
844.652	219
844.744	276
844.835	-1098
844.927	-708
845.019	-501
845.110	96
845.202	376
845.293	16
845.385	-479
845.476	-46
845.568	307
845.659	267
845.751	8
845.842	-785
845.934	-1002
846.025	-463
846.116	-500
846.208	155
846.299	256
846.390	876
846.482	-159
846.573	-293
846.664	601
846.755	17
846.846	518
846.937	-165
847.029	274
847.120	-364
847.211	-317
847.302	193
847.393	-234
847.484	230
847.575	-808
847.666	-324
847.757	69
847.847	-172
847.938	114
848.029	-679
848.120	-244
848.211	-533
848.302	-462
848.392	320
848.483	-187
848.574	-257
848.664	-372
848.755	60
848.846	224
848.936	-642
849.027	-628
849.118	-132
849.208	13
849.299	-95
849.389	285
849.480	111
849.570	406
849.661	1270
849.751	2096
849.841	1894
849.932	361
850.022	-730
850.112	-41
850.203	-727
850.293	-384
850.383	126
850.474	-463
850.564	-219
850.654	-67
850.744	-125
850.834	-26
850.924	-788
851.014	-109
851.104	302
851.194	-472
851.284	-393
851.374	-10
851.464	210
851.554	770
851.644	-241
851.734	586
851.824	-36
851.914	888
852.004	1044
852.094	3212
852.183	1784
852.273	-29
852.363	-827
852.452	-369
852.542	183
852.632	-890
852.721	-120
852.811	-208
852.901	343
852.990	-549
853.080	-724
853.169	-637
853.259	92
853.348	-153
853.438	222
853.527	-216
853.617	-441
853.706	587
853.795	808
853.885	3028
853.974	4864
854.063	8521
854.152	16650
854.242	11952
854.331	2133
854.420	212
854.509	-296
854.598	-1182
854.687	-749
854.777	178
854.866	-553
854.955	1020
855.044	-660
855.133	-391
855.222	-3
855.311	-314
855.400	479
855.488	95
855.577	-402
855.666	52
855.755	102
855.844	-336
855.933	479
856.021	628
856.110	-290
856.199	-901
856.288	224
856.376	-1095
856.465	-530
856.554	-246
856.642	-827
856.731	-461
856.819	-377
856.908	-528
856.996	-356
857.085	-513
857.173	-1403
857.262	-125
857.350	-342
857.438	-299
857.527	-524
857.615	-166
857.703	205
857.792	-507
857.880	-939
857.968	-447
858.056	-230
858.145	-295
858.233	-734
858.321	-1138
858.409	105
858.497	-215
858.585	-710
858.673	-308
858.761	-747
858.849	-678
858.937	-69
859.025	-591
859.113	-213
859.201	-658
859.289	333
859.377	73
859.465	-449
859.552	-559
859.640	176
859.728	242
859.816	-431
859.903	-149
859.991	-1019
860.079	191
860.166	-51
860.254	-51
860.342	12
860.429	-306
860.517	-416
860.604	-684
860.692	144
860.779	243
860.867	599
860.954	-611
861.042	-147
861.129	-380
861.216	-872
861.304	-307
861.391	-683
861.478	-579
861.565	-173
861.653	182
861.740	-616
861.827	-318
861.914	-43
862.001	-693
862.089	-556
862.176	-331
862.263	-841
862.350	-86
862.437	-251
862.524	-683
862.611	30
862.698	-950
862.785	-211
862.871	-776
862.958	-722
863.045	-62
863.132	-425
863.219	-655
863.306	-839
863.392	-178
863.479	-24
863.566	-688
863.652	-333
863.739	-78
863.826	165
863.912	-546
863.999	-812
864.086	443
864.172	-384
864.259	-215
864.345	-122
864.432	-619
864.518	-86
864.604	110
864.691	-650
864.777	19
864.863	-362
864.950	246
865.036	-721
865.122	-622
865.209	-421
865.295	-444
865.381	-49
865.467	-1040
865.553	185
865.639	-413
865.726	225
865.812	698
865.898	2442
865.984	2661
866.070	6460
866.156	10868
866.242	4089
866.328	492
866.414	-337
866.499	-445
866.585	153
866.671	-860
866.757	-250
866.843	-185
866.928	-104
867.014	-311
867.100	215
867.186	-2
867.271	-111
867.357	-896
867.442	-121
867.528	789
867.614	-147
867.699	-948
867.785	-301
867.870	-847
867.956	-206
868.041	257
868.127	106
868.212	-33
868.297	615
868.383	-829
868.468	249
868.553	-406
868.639	367
868.724	429
868.809	1956
868.894	-572
868.979	-306
869.065	689
869.150	-392
869.235	-536
869.320	-539
869.405	111
869.490	-327
869.575	-370
869.660	88
869.745	217
869.830	-778
869.915	-679
870.000	-277
870.085	-668
870.169	-276
870.254	-220
870.339	-156
870.424	-696
870.509	-850
870.593	-95
870.678	-468
870.763	-138
870.847	199
870.932	-536
871.016	-454
871.101	-221
871.186	172
871.270	-460
871.355	-569
871.439	-578
871.523	-441
871.608	-199
871.692	-366
871.777	98
871.861	-796
871.945	-837
872.030	-383
872.114	-812
872.198	-176
872.282	-395
872.367	-110
872.451	-594
872.535	-366
872.619	-485
872.703	-800
872.787	-531
872.871	-118
872.955	-641
873.039	-810
873.123	-827
873.207	74
873.291	13
873.375	-1115
873.459	-743
873.543	-572
873.627	-812
873.711	-261
873.794	288
873.878	-273
873.962	-585
874.045	-311
874.129	-681
874.137	-722
874.213	-1138
874.245	-882
874.296	-460
874.352	-961
874.380	-1209
874.460	-332
874.464	-298
874.547	51
874.568	122
874.631	332
874.676	-495
874.714	-1165
874.784	-438
874.798	-304
874.881	-83
874.892	-129
874.965	-452
874.999	-366
875.048	-235
875.107	-715
875.131	-905
875.215	-205
875.215	-205
875.298	-944
875.323	-506
875.381	589
875.430	55
875.465	-353
875.538	201
875.548	269
875.631	-1280
875.646	-1136
875.714	-393
875.753	-407
875.798	-397
875.861	-250
875.881	-222
875.964	10
875.968	16
876.047	175
876.076	144
876.130	46
876.183	-24
876.213	-41
876.291	-271
876.296	-288
876.379	80
876.398	44
876.462	-79
876.506	-186
876.545	-249
876.613	244
876.628	325
876.711	110
876.721	71
876.794	-142
876.828	-141
876.877	-110
876.935	122
876.960	231
877.043	304
877.043	301
877.125	-266
877.150	-14
877.208	532
877.258	385
877.291	333
877.365	145
877.374	112
877.456	433
877.472	345
877.539	73
877.579	290
877.622	434
877.687	400
877.704	437
877.787	267
877.794	299
877.869	375
877.901	242
877.952	213
878.008	128
878.034	25
878.115	203
878.117	211
878.199	279
878.222	222
878.282	147
878.329	420
878.364	501
878.437	363
878.447	341
878.529	-44
878.544	-84
878.611	-96
878.651	136
878.694	459
878.758	424
878.776	374
878.858	177
878.865	176
878.941	-1
878.972	-58
879.023	56
879.078	67
879.105	100
879.185	171
879.187	173
879.269	524
879.292	456
879.351	141
879.399	32
879.433	175
879.506	269
879.516	208
879.598	562
879.613	455
879.680	381
879.720	204
879.762	-88
879.827	-142
879.844	-96
879.926	545
879.933	547
880.007	520
880.040	571
880.089	485
880.147	648
880.171	833
880.253	696
880.254	692
880.335	315
880.360	547
880.417	1515
880.467	1942
880.499	2820
880.574	5600
880.580	5511
880.662	2880
880.680	2321
880.744	1187
880.787	666
880.825	781
880.893	1143
880.907	1136
880.989	537
881.000	459
881.070	316
881.106	295
881.152	225
881.213	138
881.233	75
881.315	-63
881.319	-64
881.396	576
881.426	576
881.478	314
881.532	516
881.559	628
881.639	316
881.641	311
881.722	550
881.745	630
881.803	775
881.852	469
881.885	543
881.958	873
881.966	844
882.047	766
882.064	761
882.129	895
882.171	608
882.210	776
882.277	1696
882.291	1720
882.372	1763
882.383	1681
882.454	934
882.489	704
882.535	562
882.596	464
882.616	601
882.697	1122
882.702	1133
882.778	681
882.808	652
882.859	733
882.914	532
882.940	531
883.020	571
883.021	580
883.102	1293
883.127	1431
883.183	955
883.233	814
883.264	963
883.339	942
883.345	920
883.426	343
883.445	305
883.507	406
883.551	347
883.587	368
883.657	979
883.668	1107
883.749	1333
883.763	1365
883.830	1082
883.869	1004
883.910	1111
883.975	795
883.991	610
884.072	487
884.081	455
884.152	804
884.187	764
884.233	709
884.292	891
884.314	994
884.394	1075
884.398	1094
884.475	892
884.504	677
884.555	812
884.610	1048
884.636	1063
884.716	991
884.716	998
884.797	1181
884.821	1267
884.877	1271
884.927	856
884.958	750
885.033	918
885.038	915
885.118	864
885.139	782
885.199	823
885.244	978
885.279	1043
885.350	881
885.359	854
885.439	939
885.456	885
885.520	941
885.561	1118
885.600	1316
885.667	1276
885.680	1186
885.760	978
885.773	920
885.840	911
885.878	892
885.920	1069
885.984	1426
886.000	1548
886.080	1949
886.089	1981
886.160	1304
886.195	982
886.240	963
886.300	1040
886.320	1167
886.400	1502
886.406	1526
886.480	1476
886.511	1353
886.560	1273
886.616	1356
886.640	1537
886.720	1892
886.722	1892
886.800	1358
886.827	1207
886.879	1273
886.932	1279
886.959	1404
887.038	1724
887.039	1728
887.119	1369
887.143	1306
887.198	1545
887.248	1634
887.278	1573
887.354	1460
887.358	1485
887.437	1620
887.459	1746
887.517	1601
887.564	1418
887.596	1316
887.669	1013
887.676	1051
887.755	1503
887.774	1606
887.835	1531
887.880	1500
887.914	1538
887.985	1477
887.994	1503
888.073	1661
888.090	1717
888.153	1682
888.195	1630
888.232	1712
888.300	1738
888.311	1764
888.391	1987
888.405	2013
888.470	1691
888.510	1497
888.549	1510
888.615	1515
888.628	1546
888.708	1628
888.720	1648
888.787	1902
888.825	2013
888.866	1834
888.930	1557
888.945	1610
889.024	1864
889.035	1887
889.103	2332
889.140	2564
889.182	2395
889.245	2127
889.261	2032
889.340	1546
889.349	1484
889.419	1123
889.454	935
889.498	1411
889.559	2046
889.577	2087
889.656	2260
889.664	2271
889.735	1957
889.768	1804
889.814	1956
889.873	2143
889.978	1294
890.083	2530
890.187	1777
890.292	2098
890.397	1501
890.501	2207
890.606	1151
890.710	1900
890.815	1751
890.919	2110
891.024	2334
891.128	1982
891.233	2175
891.337	1941
891.442	2381
891.546	2074
891.650	1547
891.755	1296
891.859	2930
891.963	2000
892.068	2024
892.172	2061
892.276	2126
892.380	1904
892.484	1870
892.589	2354
892.693	2569
892.797	1842
892.901	1979
893.005	1315
893.109	1582
893.213	2039
893.317	1766
893.421	2109
893.525	1443
893.629	1105
893.733	1841
893.837	1547
893.941	2206
894.045	1435
894.148	2064
894.252	5217
894.356	5174
894.460	2495
894.564	878
894.667	2164
894.771	1395
894.875	1952
894.978	831
895.082	2020
895.186	1979
895.289	1582
895.393	1900
895.496	1872
895.600	1517
895.703	845
895.807	776
895.910	1805
896.014	1016
896.117	1960
896.221	1771
896.324	2042
896.427	989
896.531	1945
896.634	875
896.737	2285
896.840	1373
896.944	1924
897.047	872
897.150	960
897.253	107
897.356	1663
897.460	1781
897.563	1537
897.666	2144
897.769	1545
897.872	1725
897.975	1089
898.078	952
898.181	1724
898.284	1071
898.387	2588
898.490	1556
898.593	1520
898.695	1053
898.798	2024
898.901	2065
899.004	1552
899.107	1106
899.209	1229
899.312	1151
899.415	1863
899.518	1587
899.620	795
899.723	1251
899.826	1840
899.928	2585
900.031	1452
900.133	2008
900.236	1879
900.338	1089
900.441	627
900.543	1410
900.646	1082
900.748	1196
900.851	1153
900.953	1463
901.055	2280
901.158	1809
901.260	1875
901.362	1290
901.465	1388
901.567	1065
901.669	1183
901.771	1274
901.873	1680
901.976	588
902.078	1511
902.180	1066
902.282	1095
902.384	1032
902.486	2250
902.588	1669
902.690	2523
902.792	1633
902.894	1917
902.996	1239
903.098	1739
903.200	1393
903.302	1204
903.404	1270
903.505	1714
903.607	1402
903.709	2111
903.811	1444
903.913	2309
904.014	1148
904.116	1473
904.218	1419
904.319	1447
904.421	1436
904.523	1431
904.624	517
904.726	1356
904.827	912
904.929	1613
905.030	1283
905.132	1956
905.233	1454
905.335	1522
905.436	1570
905.537	983
905.639	1437
905.740	1285
905.841	1884
905.943	1537
906.044	1274
906.145	1669
906.247	1753
906.348	1343
906.449	872
906.550	1151
906.651	1231
906.752	916
906.854	1124
906.955	1450
907.056	1729
907.157	1568
907.258	1097
907.359	260
907.460	767
907.561	1351
907.662	1216
907.762	1747
907.863	1357
907.964	2009
908.065	1651
908.166	866
908.267	1461
908.367	1261
908.468	1264
908.569	1067
908.670	921
908.770	1548
908.871	2242
908.971	1762
909.072	2345
909.173	1759
909.273	1865
909.374	1270
909.474	1997
909.575	1169
909.675	873
909.776	2270
909.876	1592
909.977	2128
910.077	1270
910.177	1213
910.278	2050
910.378	1377
910.478	1190
910.579	1448
910.679	1422
910.779	1982
910.879	1610
910.980	1194
911.080	1189
911.180	1423
911.280	1453
911.380	1659
911.480	1185
911.580	721
911.680	1334
911.780	1032
911.880	1349
911.980	1573
912.080	1621
912.180	1491
912.280	1516
912.380	1299
912.480	952
912.580	1237
912.679	1443
912.779	1470
912.879	887
912.979	1430
913.078	1178
913.178	1794
913.278	1173
913.377	1781
913.477	1117
913.577	758
913.676	2374
913.776	1292
913.875	1145
913.975	1973
914.074	1456
914.174	545
914.273	825
914.373	1042
914.472	1701
914.572	1666
914.671	1095
914.770	1429
914.870	976
914.969	1486
915.068	516
915.167	1361
915.267	1252
915.366	1155
915.465	767
915.564	1495
915.663	1223
915.763	669
915.862	1413
915.961	1641
916.060	1371
916.159	1163
916.258	884
916.357	1072
916.456	1532
916.555	1146
916.654	2432
916.752	1909
916.851	929
916.950	1286
917.049	1298
917.148	1363
917.247	779
917.345	573
917.444	1286
917.543	2009
917.642	1432
917.740	1819
917.839	1886
917.937	1806
918.036	1920
918.135	1550
918.233	912
918.332	1364
918.430	1539
918.529	1289
918.627	1045
918.726	1918
918.824	1828
918.923	1613
919.021	1013
919.119	744
919.218	1451
919.316	864
919.414	1461
919.512	1307
919.611	1431
919.709	932
919.807	1481
919.905	1717
920.003	1503
920.102	1148
920.200	1035
920.298	1550
920.396	1656
920.494	1212
920.592	1321
920.690	1271
920.788	877
920.886	1167
920.984	1097
921.082	1160
921.180	1235
921.277	1274
921.375	-116
921.473	2303
921.571	1373
921.669	1776
921.766	855
921.864	1319
921.962	1754
922.060	1150
922.157	2529
922.255	1747
922.352	1036
922.450	1759
922.548	1208
922.645	1155
922.743	1505
922.840	2419
922.938	2657
923.035	2726
923.133	3078
923.230	2571
923.327	2976
923.425	2717
923.522	3378
923.619	2280
923.717	2001
923.814	2320
923.911	2562
924.008	3378
924.106	2134
924.203	2969
924.300	2736
924.397	2991
924.494	2816
924.591	2532
924.688	2217
924.786	1805
924.883	2316
924.979	2289
925.077	2220
925.173	2515
925.270	2303
925.367	2286
925.464	2486
925.561	3087
925.658	3355
925.755	2462
925.852	2660
925.948	2890
926.045	2656
926.142	2169
926.239	2672
926.335	2437
926.432	2522
926.529	2079
926.625	2121
926.722	2676
926.818	2600
926.915	2669
927.011	2454
927.108	2252
927.204	2383
927.301	2653
927.397	2066
927.494	2346
927.590	2273
927.687	2074
927.783	2443
927.879	2182
927.976	2561
928.072	2497
928.168	2566
928.264	2417
928.361	2056
928.457	1981
928.553	2051
928.649	1893
928.745	2872
928.841	2036
928.937	2217
929.033	2170
929.129	2002
929.225	1720
929.321	2340
929.417	3215
929.513	1712
929.609	2621
929.705	1316
929.801	2086
929.897	1947
929.993	1595
930.089	1591
930.184	1844
930.280	2278
930.376	2284
930.471	2907
930.567	2369
930.663	1758
930.758	1885
930.854	1507
930.950	1941
931.045	1444
931.141	1884
931.236	2242
931.332	1543
931.427	1996
931.523	2277
931.618	2250
931.714	1809
931.809	1913
931.905	1492
932.000	1488
932.095	1951
932.191	2023
932.286	1653
932.381	1799
932.476	1659
932.572	1885
932.667	2223
932.762	846
932.857	1630
932.952	1772
933.047	1487
933.142	1083
933.237	1623
933.332	1783
933.427	1969
933.522	1884
933.617	2145
933.712	1375
933.807	1953
933.902	1916
933.997	1812
934.092	795
934.187	1858
934.282	2177
934.376	1917
934.471	1236
934.566	1704
934.661	2504
934.755	1840
934.850	1637
934.945	2347
935.039	2225
935.134	1687
935.228	1765
935.323	2501
935.417	1088
935.512	1030
935.606	959
935.701	1960
935.795	1002
935.890	1651
935.984	1099
936.079	1371
936.173	1192
936.267	1438
936.362	2057
936.456	1728
936.550	2082
936.644	2191
936.738	597
936.833	1510
936.927	2091
937.021	1403
937.115	1445
937.209	1620
937.303	1434
937.397	1734
937.491	843
937.585	2457
937.679	874
937.773	1216
937.867	1226
937.961	1282
938.055	953
938.149	2421
938.243	1373
938.337	935
938.430	766
938.524	1960
938.618	1548
938.712	1016
938.805	1045
938.899	1930
938.993	1380
939.086	1744
939.180	1077
939.274	979
939.367	1693
939.461	1457
939.554	1023
939.648	1485
939.741	1306
939.835	1905
939.928	1225
940.022	1372
940.115	1433
940.208	1449
940.302	1225
940.395	2456
940.488	621
940.582	2307
940.675	1747
940.768	1048
940.861	1385
940.954	1754
941.048	1580
941.141	1451
941.234	793
941.327	1417
941.420	2897
941.513	2356
941.606	1776
941.699	1712
941.792	1631
941.885	1396
941.978	1556
942.071	976
942.164	1298
942.257	1418
942.349	615
942.442	1365
942.535	1176
942.628	1670
942.721	1871
942.813	917
942.906	1634
942.999	579
943.091	1606
943.184	1188
943.277	1561
943.369	1717
943.462	528
943.554	1209
943.647	771
943.739	1003
943.832	1447
943.924	1282
944.017	1182
944.109	511
944.201	1124
944.294	1614
944.386	867
944.478	213
944.571	1050
944.663	1535
944.755	1256
944.847	2201
944.940	1444
945.032	1226
945.124	1215
945.216	1858
945.308	828
945.400	1513
945.492	764
945.584	1396
945.676	850
945.768	1511
945.860	1182
945.952	1661
946.044	799
946.136	1740
946.228	824
946.320	1678
946.412	1228
946.503	943
946.595	1036
946.687	828
946.779	1035
946.870	735
946.962	1635
947.054	1136
947.145	1954
947.237	2074
947.329	664
947.420	1674
947.512	1908
947.603	1864
947.695	1085
947.786	1273
947.878	1046
947.969	745
948.061	764
948.152	1026
948.243	699
948.335	1607
948.426	1456
948.517	1665
948.609	2510
948.700	1020
948.791	768
948.882	429
948.973	1199
949.065	1185
949.156	1651
949.247	847
949.338	1620
949.429	950
949.520	900
949.611	730
949.702	1805
949.793	603
949.884	650
949.975	1120
950.066	433
950.157	798
950.247	748
950.338	1305
950.429	890
950.520	1146
950.611	1309
950.701	1796
950.792	1131
950.883	2049
950.973	1511
951.064	1615
951.155	1894
951.245	1598
951.336	1453
951.427	1239
951.517	731
951.608	2198
951.698	889
951.788	437
951.879	554
951.969	791
952.060	688
952.150	424
952.240	356
952.331	940
952.421	1710
952.511	596
952.602	1140
952.692	936
952.782	391
952.872	960
952.962	1557
953.052	1002
953.143	1297
953.233	1973
953.323	674
953.413	985
953.503	1095
953.593	1781
953.683	1528
953.773	662
953.863	976
953.953	758
954.042	1789
954.132	1414
954.222	733
954.312	1340
954.402	1554
954.492	1406
954.581	2422
954.671	2450
954.761	591
954.850	1542
954.940	1065
955.030	1097
955.119	1837
955.209	1390
955.298	634
955.388	1642
955.477	1232
955.567	985
955.656	923
955.746	1315
955.835	1225
955.925	702
956.014	1183
956.103	1356
956.193	1435
956.282	611
956.371	968
956.461	1335
956.550	962
956.639	1384
956.728	879
956.817	1780
956.906	1537
956.995	668
957.085	1253
957.174	559
957.263	1001
957.352	2063
957.441	1254
957.530	1205
957.619	1527
957.708	1551
957.796	1198
957.885	1871
957.974	984
958.063	1005
958.152	1127
958.241	1870
958.329	1428
958.418	1466
958.507	859
958.596	2500
958.684	1494
958.773	1850
958.861	1707
958.950	1379
959.039	1293
959.127	2936
959.216	2331
959.304	1168
959.393	1667
959.481	2158
959.570	2004
959.658	1033
959.746	1851
959.835	2304
959.923	3431
960.011	3247
960.100	1666
960.188	2126
960.276	1557
960.365	1357
960.453	1617
960.541	564
960.629	1700
960.717	541
960.805	911
960.893	1211
960.981	959
961.069	2177
961.158	1572
961.245	1949
961.333	1297
961.421	901
961.509	1448
961.597	836
961.685	1243
961.773	722
961.861	224
961.949	1052
962.036	288
962.124	1193
962.212	1498
962.299	937
962.387	141
962.475	653
962.562	753
962.650	1160
962.738	433
962.825	779
962.913	946
963.000	1040
963.088	1251
963.175	810
963.263	1160
963.350	379
963.438	1181
963.525	1453
963.612	2990
963.700	5078
963.787	11460
963.874	11275
963.962	1920
964.049	1299
964.136	1068
964.223	645
964.310	-562
964.398	851
964.485	912
964.572	1501
964.659	1560
964.746	3206
964.833	1522
964.920	127
965.007	260
965.094	368
965.181	374
965.268	1576
965.355	-191
965.441	489
965.528	-13
965.615	1095
965.702	-261
965.789	127
965.875	-82
965.962	1043
966.049	-187
966.136	1133
966.222	291
966.309	1571
966.395	907
966.482	807
966.569	767
966.655	36
966.742	169
966.828	933
966.915	454
967.001	844
967.087	1183
967.174	782
967.260	557
967.347	1017
967.433	2063
967.519	8188
967.605	5988
967.692	1712
967.778	-139
967.864	890
967.950	570
968.036	637
968.123	272
968.209	314
968.295	-138
968.381	574
968.467	516
968.553	693
968.639	918
968.725	688
968.811	1524
968.897	1871
968.983	12
969.069	-32
969.154	355
969.240	428
969.326	-157
969.412	155
969.497	465
969.583	355
969.669	995
969.755	454
969.840	850
969.926	728
970.012	192
970.097	1874
970.183	1143
970.268	998
970.354	2044
970.439	1749
970.525	4684
970.610	3004
970.696	647
970.781	473
970.866	-350
970.952	182
971.037	634
971.122	226
971.208	5
971.293	842
971.378	311
971.463	348
971.549	218
971.634	443
971.719	697
971.804	1277
971.889	1510
971.974	446
972.059	-373
972.144	884
972.229	-42
972.314	362
972.399	494
972.484	636
972.569	1150
972.654	1427
972.739	2180
972.824	3219
972.908	1447
972.993	362
973.078	-165
973.163	268
973.247	549
973.332	-299
973.417	1200
973.501	110
973.586	425
973.671	905
973.755	585
973.840	585
973.924	900
974.009	636
974.093	1114
974.178	1709
974.262	1508
974.346	2384
974.431	1424
974.515	167
974.600	200
974.684	373
974.768	-202
974.852	278
974.937	-98
975.021	683
975.105	-177
975.189	304
975.273	-162
975.358	-91
975.442	-760
975.526	633
975.610	-145
975.694	844
975.778	403
975.862	-29
975.946	-685
976.030	1487
976.114	-488
976.198	356
976.281	377
976.365	769
976.449	40
976.533	411
976.617	-983
976.700	-484
976.784	889
976.868	327
976.951	1279
977.035	1384
977.119	957
977.202	624
977.286	-276
977.369	405
977.453	832
977.536	2
977.620	-82
977.703	352
977.787	41
977.870	646
977.953	1011
978.037	-407
978.120	566
978.203	901
978.287	2354
978.370	2312
978.453	420
978.536	376
978.620	210
978.703	1780
978.786	1225
978.869	283
978.952	-712
979.035	809
979.118	392
979.201	2
979.284	-184
979.367	-428
979.450	-299
979.533	564
979.616	355
979.699	-180
979.782	127
979.865	310
979.948	-234
980.030	162
980.113	-543
980.196	-64
980.279	945
980.361	-72
980.444	396
980.526	-150
980.609	-331
980.692	193
980.774	348
980.857	-636
980.939	673
981.022	-510
981.104	533
981.187	176
981.269	729
981.352	36
981.434	-515
981.516	249
981.599	899
981.681	837
981.763	-360
981.846	149
981.928	-9
982.010	-106
982.092	-291
982.174	881
982.256	610
982.339	271
982.421	-217
982.503	79
982.585	186
982.667	169
982.749	240
982.831	738
982.913	99
982.995	715
983.077	5
983.158	1325
983.240	-479
983.322	1150
983.404	545
983.486	312
983.568	-113
983.649	-360
983.731	354
983.813	-794
983.894	-242
983.976	-260
984.058	-808
984.139	160
984.221	-350
984.302	923
984.384	537
984.465	-418
984.547	89
984.628	-580
984.710	334
984.791	-319
984.872	575
984.954	366
985.035	278
985.116	275
985.198	292
985.279	891
985.360	-67
985.441	351
985.522	350
985.604	467
985.685	-918
985.766	1164
985.847	780
985.928	748
986.009	614
986.090	-101
986.171	693
986.252	-512
986.333	126
986.414	111
986.495	642
986.576	196
986.656	85
986.737	350
986.818	-361
986.899	-248
986.980	-166
987.060	823
987.141	236
987.222	399
987.302	427
987.383	812
987.464	-305
987.544	382
987.625	279
987.705	1142
987.786	612
987.866	37
987.947	419
988.027	648
988.108	-379
988.188	-466
988.268	412
988.349	4
988.429	-22
988.509	590
988.589	819
988.670	-1033
988.750	318
988.830	418
988.910	314
988.990	309
989.070	476
989.151	-264
989.231	778
989.311	409
989.391	-281
989.471	59
989.551	100
989.631	-228
989.711	301
989.791	130
989.870	274
989.950	343
990.030	500
990.110	737
990.190	48
990.269	150
990.349	123
990.429	153
990.509	728
990.588	105
990.668	-55
990.747	-353
990.827	-120
990.907	238
990.986	267
991.066	297
991.145	-77
991.225	897
991.304	-663
991.383	973
991.463	-168
991.542	-306
991.622	-650
991.701	-190
991.780	-94
991.859	243
991.939	-469
992.018	-200
992.097	136
992.176	105
992.256	-558
992.335	298
992.414	690
992.493	267
992.572	-239
992.651	309
992.730	506
992.809	527
992.888	-665
992.967	-236
993.046	360
993.125	36
993.203	-43
993.282	-481
993.361	21
993.440	380
993.519	178
993.597	57
993.676	1
993.755	582
993.834	-335
993.912	-10
993.991	-310
994.069	-408
994.148	13
994.226	-549
994.305	225
994.384	-517
994.462	467
994.540	-468
994.619	-1114
994.697	478
994.776	-731
994.854	113
994.932	135
995.011	325
995.089	141
995.167	-257
995.245	179
995.324	-568
995.402	21
995.480	-116
995.558	-670
995.636	-633
995.714	-790
995.792	883
995.870	-325
995.948	-523
996.026	-421
996.104	-1256
996.182	422
996.260	-273
996.338	-127
996.416	-685
996.494	-321
996.572	67
996.649	-1121
996.727	-892
996.805	32
996.883	224
996.960	-700
997.038	-49
997.116	-674
997.193	-549
997.271	244
997.348	394
997.426	-510
997.504	-1057
997.581	-148
997.658	-261
997.736	-124
997.813	-617
997.891	-483
997.968	-864
998.046	-477
998.123	-567
998.200	714
998.277	-722
998.355	110
998.432	-893
998.509	-1031
998.586	355
998.663	-552
998.741	-827
998.818	-948
998.895	-249
998.972	-583
999.049	-1036
999.126	-257
999.203	-451
999.280	-798
999.357	-721
999.434	-905
999.511	25
999.587	-376
999.664	-1274
999.741	-288
999.818	-38
999.895	530
999.971	-811
1000.048	-1435
1000.125	159
1000.202	-1005
1000.278	-411
1000.355	-283
1000.431	-554
1000.508	-753
1000.584	-591
1000.661	-1118
1000.738	-700
1000.814	-202
1000.890	-506
1000.967	-956
1001.043	-568
1001.120	-1024
1001.196	-181
1001.272	-1149
1001.349	-453
1001.425	199
1001.501	-722
1001.577	-342
1001.654	-813
1001.730	-705
1001.806	-235
1001.882	-812
1001.958	-414
1002.034	-112
1002.110	-121
1002.186	-202
1002.262	-866
1002.338	-1160
1002.414	-637
1002.490	-87
1002.566	-418
1002.642	-1546
1002.718	-302
1002.794	-130
1002.870	-833
1002.945	-283
1003.021	-873
1003.097	-1530
1003.173	-887
1003.248	-361
1003.324	-520
1003.400	-851
1003.475	-811
1003.551	-1181
1003.626	-921
1003.702	-1177
1003.777	-577
1003.853	-574
1003.928	-1764
1004.004	-1139
1004.079	-705
1004.155	-375
1004.230	-1244
1004.305	-739
1004.381	-927
1004.456	-592
1004.531	-281
1004.607	-1035
1004.682	-821
1004.757	-429
1004.832	-826
1004.907	-536
1004.982	-522
1005.057	-996
1005.133	-732
1005.208	-743
1005.283	-1016
1005.358	-836
1005.433	-1558
1005.508	-1103
1005.583	-1513
1005.657	-1524
1005.732	-515
1005.807	-861
1005.882	-541
1005.957	-1158
1006.032	-832
1006.106	-872
1006.181	-1216
1006.256	-990
1006.331	-1399
1006.405	-1360
1006.480	-713
1006.554	-873
1006.629	-687
1006.704	-570
1006.778	-950
1006.853	-903
1006.927	-1414
1007.002	-1362
1007.076	-477
1007.150	-985
1007.225	-1253
1007.299	-2018
1007.373	-1570
1007.448	-1826
1007.522	-193
1007.596	-573
1007.671	-1163
1007.745	-553
1007.819	-1732
1007.893	-840
1007.967	-485
1008.041	-2022
1008.115	-725
1008.190	-1556
1008.264	-1449
1008.338	-2035
1008.412	-471
1008.486	-916
1008.560	-836
1008.633	-1016
1008.707	-892
1008.781	-999
1008.855	-1057
1008.929	-577
1009.003	-1121
1009.076	-1829
1009.150	-1165
1009.224	-1215
1009.298	-581
1009.371	-1588
1009.445	-253
1009.519	-1023
1009.592	-1552
1009.666	-1878
1009.739	3
1009.813	-1151
1009.886	-685
1009.960	-1292
1010.033	-9
1010.107	-349
1010.180	-887
1010.253	-625
1010.327	-1012
1010.400	-1701
1010.473	-1129
1010.547	-155
1010.620	-276
1010.693	-1278
1010.766	-1034
1010.840	-732
1010.913	-514
1010.986	-1065
1011.059	-940
1011.132	-1330
1011.205	-202
1011.278	-729
1011.351	-1242
1011.424	-1387
1011.497	-867
1011.570	-1901
1011.643	-1048
1011.716	-920
1011.789	-495
1011.862	-1162
1011.934	-601
1012.007	-1296
1012.080	-806
1012.153	-857
1012.225	-361
1012.298	-1115
1012.371	-1145
1012.443	-838
1012.516	-1164
1012.588	-585
1012.661	-746
1012.733	-1372
1012.806	-517
1012.879	-977
1012.951	-1430
1013.023	-789
1013.096	-542
1013.168	-1585
1013.241	-1051
1013.313	-1593
1013.385	-1280
1013.458	-636
1013.530	-183
1013.602	-1495
1013.674	-1388
1013.746	-676
1013.819	-1879
1013.891	-469
1013.963	-652
1014.035	-1977
1014.107	-751
1014.179	-370
1014.251	-1006
1014.323	-196
1014.395	-1288
1014.467	-1641
1014.539	-632
1014.611	-1478
1014.683	-859
1014.754	263
1014.826	-512
1014.898	-1421
1014.970	-1169
1015.042	-737
1015.113	-684
1015.185	-1387
1015.257	-1388
1015.328	-655
1015.400	-1302
1015.471	-953
1015.543	-896
1015.615	-970
1015.686	-976
1015.757	-1452
1015.829	-685
1015.901	-1069
1015.972	-1306
1016.043	-1543
1016.115	-1196
1016.186	-1058
1016.257	-1116
1016.328	-469
1016.400	118
1016.471	-1458
1016.542	-1008
1016.613	-1053
1016.685	-1209
1016.756	-280
1016.827	-1103
1016.898	-1569
1016.969	-323
1017.040	-1071
1017.111	-1077
1017.182	-1770
1017.253	-727
1017.324	-900
1017.395	-993
1017.466	-1093
1017.537	-1782
1017.608	-1164
1017.678	-289
1017.749	-1044
1017.820	-945
1017.891	-1375
1017.961	-1426
1018.032	-1274
1018.103	-1413
1018.173	-1193
1018.244	-1361
1018.315	-888
1018.385	-1700
1018.456	-608
1018.526	-1101
1018.597	-982
1018.667	-1106
1018.738	-1079
1018.808	-1772
1018.878	-1255
1018.949	-937
1019.019	-1628
1019.089	-1348
1019.160	-391
1019.230	-960
1019.300	-710
1019.371	-2595
1019.441	-410
1019.511	-1400
1019.581	-363
1019.651	-882
1019.721	-1267
1019.791	-823
1019.861	-985
1019.931	-633
1020.001	-1175
1020.071	-903
1020.141	-490
1020.211	-940
1020.281	-656
1020.351	-1138
1020.421	-1205
1020.491	-180
1020.560	-1298
1020.630	-549
1020.700	-946
1020.770	-568
1020.839	-1236
1020.909	-1224
1020.979	-482
1021.048	-1562
1021.118	-902
1021.187	-1202
1021.257	-959
1021.326	-1000
1021.396	-893
1021.465	-202
1021.535	-742
1021.604	-1568
1021.674	-969
1021.743	-655
1021.812	-1297
1021.882	-820
1021.951	-1911
1022.020	-1382
1022.089	-774
1022.159	-672
1022.228	-1304
1022.297	-662
1022.366	-989
1022.435	-1424
1022.504	-1560
1022.573	-1652
1022.642	-1366
1022.711	-1934
1022.781	-763
1022.849	-894
1022.918	-1579
1022.987	-543
1023.056	-1512
1023.125	-1141
1023.194	-1811
1023.263	-1621
1023.331	-1633
1023.400	-1707
1023.469	-1586
1023.538	-163
1023.606	-1418
1023.675	-603
1023.744	-1178
1023.812	-990
1023.881	-1597
1023.949	-1242
1024.018	-752
1024.086	-1209
1024.155	-1740
1024.223	-1100
1024.292	-617
1024.360	-928
1024.429	-623
1024.497	-1584
1024.565	-1062
1024.634	-1882
1024.702	-936
1024.770	-1127
1024.838	-2124
1024.907	-1714
1024.975	-1283
1025.043	-428
1025.111	-2007
1025.179	-987
1025.247	-1555
1025.315	-1336
1025.383	-774
1025.451	-858
1025.519	-1402
1025.587	-1196
1025.655	-1188
1025.723	-1966
1025.791	-1044
1025.859	-1420
1025.927	-1081
1025.995	-1221
1026.062	-1220
1026.130	-1307
1026.198	-1022
1026.266	-1057
1026.333	-2092
1026.401	-1740
1026.469	-946
1026.536	-1050
1026.604	-1025
1026.671	-1962
1026.739	-1425
1026.806	-1745
1026.874	-1303
1026.941	-1003
1027.009	-1082
1027.076	-1094
1027.144	-866
1027.211	-2458
1027.278	-1224
1027.345	-736
1027.413	-1795
1027.480	-1823
1027.547	-1582
1027.614	-2350
1027.682	-499
1027.749	-987
1027.816	-1659
1027.883	-1136
1027.950	-931
1028.017	-1848
1028.084	-1333
1028.151	-1656
1028.218	-1335
1028.285	-746
1028.352	-1187
1028.419	-1136
1028.486	-1965
1028.553	-1273
1028.619	-1293
1028.686	-1166
1028.753	-1928
1028.820	-1772
1028.886	-1331
1028.953	-1791
1029.020	-1270
1029.086	-1371
1029.153	-2240
1029.220	-1611
1029.286	-1645
1029.353	-881
1029.419	-1666
1029.486	-967
1029.552	-1969
1029.619	-1057
1029.685	-1683
1029.751	-2031
1029.818	-1795
1029.884	-2023
1029.951	-1047
1030.017	-2212
1030.083	-1385
1030.149	-1879
1030.216	-1083
1030.282	-1319
1030.348	-255
1030.414	-1517
1030.480	-860
1030.546	-1194
1030.612	-1359
1030.678	-2039
1030.744	-1938
1030.810	-847
1030.876	-1521
1030.942	-2388
1031.008	-1472
1031.074	-1037
1031.140	-1696
1031.206	-1294
1031.272	-1606
1031.337	-1380
1031.403	-1236
1031.469	-1937
1031.534	-1254
1031.600	-1438
1031.666	-2243
1031.731	-1984
1031.797	-1370
1031.863	-830
1031.928	-1955
1031.994	-2129
1032.059	-2164
1032.125	-1869
1032.190	-1878
1032.256	-1958
1032.321	-1702
1032.386	-2048
1032.452	-2003
1032.517	-1596
1032.582	-1504
1032.647	-1302
1032.713	-1949
1032.778	-1380
1032.843	-2550
1032.908	-2081
1032.974	-1874
1033.039	-1818
1033.104	-1188
1033.169	-1624
1033.234	-2170
1033.299	-667
1033.364	-1311
1033.429	-1849
1033.494	-1648
1033.559	-1716
1033.624	-1143
1033.688	-1660
1033.753	-2815
1033.818	-1892
1033.883	-2473
1033.948	-1656
1034.013	-1384
1034.077	-1015
1034.142	-1043
1034.207	-1312
1034.271	-656
1034.336	-816
1034.400	-698
1034.465	-824
1034.530	-933
1034.594	-396
1034.658	-2140
1034.723	-1561
1034.787	-1623
1034.852	-1363
1034.916	-1851
1034.981	-1825
1035.045	-1008
1035.109	-1396
1035.173	-1809
1035.238	-1781
1035.302	-1995
1035.366	-1723
1035.430	-1158
1035.495	-1404
1035.559	-1167
1035.623	-1602
1035.687	-1995
1035.751	-1279
1035.815	-2498
1035.879	-1870
1035.943	-1865
1036.007	-2670
1036.071	-1696
1036.135	-1916
1036.198	-1965
1036.262	-1961
1036.326	-1576
1036.390	-1740
1036.454	-1783
1036.517	-1377
1036.581	-1776
1036.645	-1211
1036.709	-1307
1036.772	-1368
1036.836	-1603
1036.900	-1173
1036.963	-1880
1037.026	-1506
1037.090	-2055
1037.154	-2106
1037.217	-2770
1037.280	-1835
1037.344	-1300
1037.407	-1390
1037.471	-1832
1037.534	-1425
1037.597	-2423
1037.661	-2353
1037.724	-1798
1037.787	-2277
1037.850	-1902
1037.913	-1949
1037.977	-1852
1038.040	-2400
1038.103	-1964
1038.166	-1584
1038.229	-1744
1038.292	-2570
1038.355	-2004
1038.418	-1903
1038.481	-1584
1038.544	-1698
1038.607	-2044
1038.670	-2766
1038.732	-1460
1038.795	-2112
1038.858	-1939
1038.921	-1761
1038.984	-2631
1039.046	-1367
1039.109	-2533
1039.172	-1898
1039.234	-1735
1039.297	-2259
1039.360	-2015
1039.422	-2112
1039.485	-1811
1039.547	-2066
1039.610	-2172
1039.672	-1690
1039.734	-1210
1039.797	-1527
1039.859	-2492
1039.922	-860
1039.984	-2295
1040.046	-2242
1040.109	-2312
1040.171	-2276
1040.233	-2117
1040.295	-1857
1040.358	-1765
1040.420	-1634
1040.482	-2044
1040.544	-2485
1040.606	-1802
1040.668	-1892
1040.730	-2329
1040.792	-1393
1040.854	-2656
1040.916	-1889
1040.978	-2072
1041.040	-1095
1041.102	-1820
1041.164	-2081
1041.225	-3320
1041.287	-1378
1041.349	-2422
1041.411	-1082
1041.472	-1760
1041.534	-1543
1041.596	-1397
1041.657	-1475
1041.719	-1887
1041.781	-1397
1041.842	-2269
1041.904	-2482
1041.965	-1880
1042.027	-1498
1042.088	-1658
1042.150	-1739
1042.211	-1814
1042.272	-1280
1042.334	-2141
1042.395	-1953
1042.456	-1893
1042.518	-1431
1042.579	-2327
1042.640	-2206
1042.701	-3125
1042.763	-1664
1042.824	-2464
1042.885	-1999
1042.946	-2357
1043.007	-2041
1043.068	-1712
1043.129	-1096
1043.190	-1930
1043.251	-1459
1043.312	-1771
1043.373	-1141
1043.434	-2038
1043.495	-2159
1043.556	-2116
1043.616	-1904
1043.677	-2716
1043.738	-1275
1043.799	-2637
1043.859	-2156
1043.920	-1618
1043.981	-2171
1044.041	-1782
1044.102	-1551
1044.162	-2348
1044.223	-1374
1044.284	-1779
1044.344	-2025
1044.405	-2495
1044.465	-1737
1044.525	-1655
1044.586	-1727
1044.646	-1481
1044.707	-1437
1044.767	-1441
1044.827	-1770
1044.887	-1965
1044.948	-1672
1045.008	-1745
1045.068	-1775
1045.128	-1733
1045.188	-1804
1045.249	-1427
1045.309	-1402
1045.369	-1712
1045.429	-1023
1045.489	-2051
1045.549	-1796
1045.609	-2200
1045.669	-2059
1045.729	-1795
1045.789	-2536
1045.848	-1612
1045.908	-1732
1045.968	-1518
1046.028	-1772
1046.088	-1622
1046.147	-1059
1046.207	-2198
1046.267	-1831
1046.326	-1119
1046.386	-1434
1046.446	-747
1046.505	-1223
1046.565	-704
1046.624	-1743
1046.684	-344
1046.743	-816
1046.803	-661
1046.862	314
1046.922	0
