'Start Wavelength	183.907
'End Wavelength	1046.922
'Gate Delay	5.000
'Gate Width (ms)	1.050
'Laser Output Level	0.000
'X Position	0.000
'Y Position	0.000
'Z Position	0.000
'Grid Point Number	1.000
'Shot Number	100.000
183.907	394.000
183.977	82.000
184.047	-183
184.116	-319
184.186	13
184.256	93
184.325	-68
184.395	23
184.465	300
184.534	301
184.604	-61
184.674	61
184.743	-394
184.813	403
184.883	392
184.952	46
185.022	-183
185.092	298
185.161	265
185.231	149
185.301	450
185.370	434
185.440	174
185.509	-416
185.579	34
185.649	202
185.718	229
185.788	293
185.857	-551
185.927	-769
185.996	-411
186.066	-238
186.136	512
186.205	140
186.275	377
186.344	-65
186.414	-35
186.483	39
186.553	680
186.622	-675
186.692	-171
186.761	243
186.831	396
186.900	-422
186.970	479
187.039	129
187.109	-22
187.178	211
187.248	681
187.317	258
187.387	-609
187.456	-475
187.526	68
187.595	300
187.664	141
187.734	-246
187.803	517
187.873	-554
187.942	511
188.012	-15
188.081	-283
188.150	33
188.220	-70
188.289	336
188.358	275
188.428	588
188.497	242
188.567	-260
188.636	-332
188.705	-157
188.775	-284
188.844	-653
188.913	24
188.983	271
189.052	-392
189.121	-100
189.191	-40
189.260	519
189.329	-669
189.399	916
189.468	-45
189.537	-233
189.606	81
189.676	485
189.745	447
189.814	1310
189.883	240
189.953	561
190.022	1276
190.091	1190
190.161	1734
190.230	710
190.299	594
190.368	954
190.437	111
190.507	82
190.576	-45
190.645	249
190.714	561
190.783	380
190.853	-243
190.922	747
190.991	-296
191.060	365
191.129	-225
191.198	371
191.268	38
191.337	1100
191.406	1113
191.475	99
191.544	158
191.613	-137
191.682	-653
191.752	537
191.821	22
191.890	437
191.959	347
192.028	111
192.097	-39
192.166	345
192.235	-585
192.304	432
192.373	122
192.442	-151
192.511	312
192.580	943
192.650	188
192.719	220
192.788	539
192.857	516
192.926	-122
192.995	944
193.064	978
193.133	949
193.202	1202
193.271	768
193.340	389
193.409	573
193.478	1004
193.547	1556
193.615	1642
193.684	2373
193.753	1202
193.822	292
193.891	-743
193.960	815
194.029	822
194.098	342
194.167	43
194.236	509
194.305	258
194.374	685
194.443	202
194.512	534
194.580	6
194.649	368
194.718	906
194.787	487
194.856	-194
194.925	86
194.994	-590
195.062	722
195.131	625
195.200	-380
195.269	-266
195.338	155
195.407	-128
195.475	-106
195.544	490
195.613	250
195.682	-582
195.751	672
195.819	-454
195.888	121
195.957	1287
196.026	1245
196.094	561
196.163	797
196.232	1274
196.301	568
196.369	40
196.438	709
196.507	485
196.576	-201
196.644	563
196.713	323
196.782	-164
196.850	1691
196.919	510
196.988	-219
197.056	-427
197.125	723
197.194	970
197.262	269
197.331	806
197.400	-232
197.468	35
197.537	564
197.606	322
197.674	523
197.743	1329
197.812	62
197.880	1435
197.949	1266
198.017	1779
198.086	930
198.155	728
198.223	707
198.292	2225
198.360	345
198.429	511
198.497	650
198.566	1534
198.635	1802
198.703	39
198.772	1041
198.840	2837
198.909	2219
198.977	932
199.046	483
199.114	434
199.183	1005
199.251	397
199.320	159
199.388	-280
199.457	738
199.525	237
199.594	122
199.662	176
199.731	-387
199.799	781
199.867	-48
199.936	-362
200.004	656
200.073	685
200.141	66
200.210	-675
200.278	736
200.346	-249
200.415	351
200.483	67
200.552	511
200.620	277
200.688	768
200.757	568
200.825	496
200.893	711
200.962	612
201.030	324
201.098	259
201.167	312
201.235	941
201.303	941
201.372	891
201.440	759
201.508	612
201.577	-135
201.645	849
201.713	229
201.781	854
201.850	559
201.918	1009
201.986	773
202.055	351
202.123	354
202.191	1066
202.259	593
202.327	966
202.396	513
202.464	919
202.532	568
202.600	1995
202.669	984
202.737	-10
202.805	588
202.873	348
202.941	1348
203.009	930
203.078	328
203.146	419
203.214	439
203.282	-250
203.350	374
203.418	-165
203.487	237
203.555	687
203.623	681
203.691	584
203.759	478
203.827	-125
203.895	467
203.963	819
204.031	160
204.099	363
204.168	123
204.236	529
204.304	937
204.372	1259
204.440	842
204.508	87
204.576	872
204.644	1010
204.712	1037
204.780	1197
204.848	1117
204.916	-15
204.984	749
205.052	554
205.120	722
205.188	614
205.256	525
205.324	905
205.392	739
205.460	442
205.528	597
205.596	171
205.664	768
205.732	182
205.799	3096
205.867	3947
205.935	1505
206.003	941
206.071	827
206.139	157
206.207	106
206.275	934
206.343	411
206.411	1013
206.478	1770
206.546	980
206.614	1345
206.682	934
206.750	767
206.818	1238
206.885	1481
206.953	964
207.021	1172
207.089	1325
207.157	738
207.225	894
207.292	535
207.360	298
207.428	707
207.496	1332
207.563	886
207.631	1535
207.699	511
207.767	954
207.834	558
207.902	1520
207.970	1066
208.038	818
208.105	828
208.173	1477
208.241	1729
208.309	2060
208.376	945
208.444	1898
208.512	1890
208.579	69
208.647	642
208.715	2057
208.782	978
208.850	691
208.918	1683
208.985	662
209.053	892
209.120	1123
209.188	905
209.256	957
209.323	1419
209.391	1142
209.459	1850
209.526	1437
209.594	1228
209.661	956
209.729	1145
209.796	1431
209.864	888
209.932	348
209.999	1560
210.067	1175
210.134	1080
210.202	1144
210.269	1687
210.337	1378
210.404	1038
210.472	1685
210.539	1583
210.607	917
210.674	1495
210.742	1218
210.809	1364
210.877	954
210.944	1637
211.012	1045
211.079	2122
211.146	1319
211.214	1148
211.281	1434
211.349	1638
211.416	2012
211.484	1527
211.551	1130
211.618	2414
211.686	1345
211.753	1378
211.821	1787
211.888	1650
211.955	917
212.023	2167
212.090	1972
212.157	1444
212.225	1206
212.292	3423
212.359	6036
212.427	10461
212.494	4594
212.561	2518
212.629	2203
212.696	1373
212.763	2103
212.831	1153
212.898	1907
212.965	1383
213.032	2109
213.100	1940
213.167	1205
213.234	2224
213.301	1440
213.369	1031
213.436	2342
213.503	1764
213.570	1609
213.638	1675
213.705	1838
213.772	1163
213.839	1661
213.906	1171
213.973	1844
214.041	704
214.108	1159
214.175	2017
214.242	1626
214.309	1750
214.376	2233
214.444	1528
214.511	1979
214.578	1933
214.645	2217
214.712	1867
214.779	2259
214.846	1714
214.913	2155
214.980	2344
215.048	2095
215.115	2235
215.182	2215
215.249	2182
215.316	1609
215.383	1887
215.450	1898
215.517	1953
215.584	1725
215.651	925
215.718	1683
215.785	1977
215.852	1175
215.919	1794
215.986	1688
216.053	990
216.120	808
216.187	2236
216.254	1941
216.321	1287
216.388	1999
216.455	1673
216.522	1434
216.589	2168
216.656	3638
216.722	2701
216.789	2713
216.856	2668
216.923	3147
216.990	2006
217.057	2093
217.124	2305
217.191	2809
217.258	3656
217.324	4635
217.391	4329
217.458	3468
217.525	2223
217.592	2365
217.659	1474
217.725	2158
217.792	2765
217.859	1800
217.926	1760
217.993	1886
218.059	1625
218.126	1820
218.193	1665
218.260	1038
218.327	1330
218.393	1407
218.460	1315
218.527	1090
218.594	1144
218.660	2870
218.727	2849
218.794	1241
218.860	1480
218.927	713
218.994	1110
219.061	1103
219.127	1272
219.194	2260
219.261	2036
219.327	411
219.394	868
219.461	752
219.527	469
219.594	2083
219.661	1031
219.727	1372
219.794	1582
219.860	1057
219.927	947
219.994	2103
220.060	2843
220.127	2420
220.193	2089
220.260	2624
220.326	3890
220.393	6411
220.460	6419
220.526	4808
220.593	3605
220.659	3727
220.726	3205
220.792	7028
220.859	6890
220.925	9311
220.992	10538
221.058	10430
221.125	9069
221.191	6958
221.258	3355
221.324	1923
221.391	2585
221.457	2236
221.524	2116
221.590	3480
221.657	7058
221.723	4994
221.789	5428
221.856	4713
221.922	2773
221.989	2001
222.055	1980
222.121	1713
222.188	1543
222.254	1478
222.321	1485
222.387	1383
222.453	958
222.520	1613
222.586	1092
222.652	2043
222.719	1397
222.785	1777
222.851	857
222.918	1546
222.984	1067
223.050	808
223.116	1226
223.183	1349
223.249	864
223.315	698
223.382	1135
223.448	910
223.514	859
223.580	939
223.647	1406
223.713	1085
223.779	788
223.845	959
223.911	1196
223.978	1333
224.044	1645
224.110	-174
224.176	1934
224.242	902
224.309	176
224.375	1032
224.441	1186
224.507	544
224.573	1248
224.639	1223
224.705	1138
224.772	167
224.838	1096
224.904	1237
224.970	9
225.036	1021
225.102	644
225.168	1147
225.234	453
225.300	422
225.366	679
225.432	776
225.499	1078
225.565	1143
225.631	1279
225.697	1850
225.763	1806
225.829	2603
225.895	2388
225.961	3501
226.027	2354
226.093	2944
226.159	3566
226.225	6244
226.291	12861
226.357	15926
226.423	8472
226.489	5176
226.554	3783
226.620	3983
226.686	4314
226.752	6677
226.818	12230
226.884	22028
226.950	17206
227.016	8277
227.082	4725
227.148	3535
227.214	3333
227.279	2551
227.345	2232
227.411	1712
227.477	1641
227.543	2237
227.609	2721
227.674	1979
227.740	1701
227.806	1879
227.872	1438
227.938	2100
228.003	2333
228.069	1768
228.135	1184
228.201	1639
228.267	1269
228.332	1547
228.398	1547
228.464	1866
228.530	437
228.595	968
228.661	1426
228.727	1893
228.792	1875
228.858	1082
228.924	644
228.990	2416
229.055	1311
229.121	1929
229.187	894
229.252	1699
229.318	1351
229.384	1326
229.449	1812
229.515	351
229.581	-360
229.646	2003
229.712	1553
229.777	3712
229.843	2542
229.909	2164
229.974	2508
230.040	2672
230.105	2128
230.171	2641
230.236	2577
230.302	4405
230.368	3201
230.433	2164
230.499	2093
230.564	2284
230.630	1810
230.695	1933
230.761	1654
230.826	1529
230.892	2879
230.957	1787
231.023	1792
231.088	1316
231.154	658
231.219	1387
231.284	1787
231.350	2538
231.415	934
231.481	1551
231.546	1406
231.612	1378
231.677	651
231.742	688
231.808	1780
231.873	1150
231.939	264
232.004	2294
232.069	1946
232.135	2179
232.200	1666
232.265	1278
232.331	1010
232.396	1052
232.461	715
232.527	1286
232.592	965
232.657	440
232.723	1005
232.788	1699
232.853	441
232.918	711
232.984	404
233.049	1401
233.114	732
233.179	1239
233.245	2150
233.310	2672
233.375	878
233.440	1425
233.506	662
233.571	608
233.636	850
233.701	1321
233.766	1329
233.832	2097
233.897	1445
233.962	451
234.027	1351
234.092	822
234.157	499
234.222	1309
234.288	2405
234.353	4975
234.418	3673
234.483	3653
234.548	2215
234.613	1958
234.678	1743
234.743	1379
234.808	5975
234.873	3284
234.938	2504
235.004	2435
235.069	1967
235.134	2162
235.199	1261
235.264	1884
235.329	1340
235.394	2243
235.459	1086
235.524	2454
235.589	1086
235.654	1349
235.719	837
235.784	1495
235.849	2116
235.913	2399
235.978	2610
236.043	2962
236.108	1736
236.173	1667
236.238	2155
236.303	2400
236.368	1423
236.433	3229
236.498	3867
236.563	3889
236.627	9870
236.692	27424
236.757	20362
236.822	8511
236.887	5774
236.952	5087
237.017	4053
237.081	4782
237.146	6407
237.211	14450
237.276	28537
237.341	36657
237.405	18171
237.470	8013
237.535	5549
237.600	4632
237.664	3157
237.729	2603
237.794	4362
237.859	9143
237.923	3465
237.988	2771
238.053	3375
238.118	3214
238.182	8613
238.247	6870
238.312	2958
238.376	2152
238.441	1440
238.506	2131
238.570	1298
238.635	2426
238.700	1297
238.764	1217
238.829	3957
238.893	2725
238.958	2806
239.023	2098
239.087	1474
239.152	1583
239.216	1252
239.281	1889
239.346	1878
239.410	1450
239.475	1272
239.539	7746
239.604	4018
239.668	2162
239.733	1976
239.797	2048
239.862	2898
239.926	4810
239.991	1734
240.055	1029
240.120	924
240.184	996
240.249	847
240.313	1117
240.378	1169
240.442	4142
240.507	5699
240.571	1542
240.635	3550
240.700	3510
240.764	1579
240.829	1257
240.893	675
240.957	1553
241.022	3930
241.086	5097
241.151	2542
241.215	949
241.279	2258
241.344	2735
241.408	2080
241.472	1538
241.537	2780
241.601	2627
241.665	1776
241.730	2220
241.794	2833
241.858	1336
241.922	2212
241.987	1736
242.051	2394
242.115	2114
242.179	1623
242.244	558
242.308	2285
242.372	1917
242.436	2367
242.501	1693
242.565	1665
242.629	1538
242.693	2405
242.757	1454
242.822	1659
242.886	2073
242.950	1643
243.014	1528
243.078	1916
243.142	3057
243.206	1900
243.271	2461
243.335	2980
243.399	4258
243.463	18192
243.527	34471
243.591	9549
243.655	4669
243.719	2929
243.783	2937
243.847	5699
243.911	6119
243.975	6174
244.040	2522
244.104	3220
244.168	2046
244.232	2725
244.296	5151
244.360	5593
244.424	2308
244.488	1685
244.552	2233
244.615	1580
244.679	1516
244.743	2539
244.807	1903
244.871	1269
244.935	928
244.999	259
245.063	1420
245.127	2212
245.191	4411
245.255	3780
245.319	2781
245.383	1797
245.446	2620
245.510	843
245.574	2003
245.638	1247
245.702	2346
245.766	4633
245.829	2824
245.893	1674
245.957	1689
246.021	1760
246.085	2190
246.149	2334
246.212	6870
246.276	8627
246.340	3134
246.404	2084
246.467	3454
246.531	4192
246.595	3485
246.659	2116
246.722	1994
246.786	2568
246.850	3427
246.913	3704
246.977	1209
247.041	2003
247.104	2184
247.168	2522
247.232	6724
247.295	12072
247.359	4153
247.423	3448
247.486	5293
247.550	3371
247.614	1959
247.677	3095
247.741	2173
247.804	1608
247.868	3404
247.932	5002
247.995	11024
248.059	2974
248.122	1887
248.186	2993
248.249	5996
248.313	21312
248.376	18306
248.440	10526
248.503	3421
248.567	4363
248.630	6238
248.694	6890
248.757	10414
248.821	20598
248.884	10940
248.948	11588
249.011	16132
249.075	23702
249.138	17869
249.202	7955
249.265	4228
249.328	5259
249.392	3943
249.455	3908
249.519	3472
249.582	4917
249.645	7117
249.709	5051
249.772	4804
249.835	3700
249.899	4056
249.962	3559
250.025	3163
250.089	9753
250.152	10270
250.215	4850
250.279	3989
250.342	4652
250.405	4213
250.468	3600
250.532	6170
250.595	10793
250.658	40141
250.721	50066
250.785	18125
250.848	10628
250.911	5854
250.974	6322
251.038	7622
251.101	13095
251.164	6074
251.227	6997
251.290	7034
251.354	14901
251.417	52800
251.480	43223
251.543	39332
251.606	87355
251.669	56811
251.732	24292
251.795	24000
251.859	26385
251.922	55221
251.985	27696
252.048	11862
252.111	8334
252.174	7783
252.237	14159
252.300	26391
252.363	35967
252.426	62793
252.489	23635
252.552	11433
252.615	7985
252.678	10562
252.741	21481
252.804	36180
252.867	67321
252.930	34468
252.993	16989
253.056	11601
253.119	7776
253.182	7004
253.245	12430
253.308	8758
253.371	5616
253.434	5620
253.497	6187
253.559	11484
253.622	6785
253.685	8200
253.748	7186
253.811	3915
253.874	5082
253.937	4499
254.000	4460
254.062	8222
254.125	10590
254.188	11292
254.251	7339
254.314	3642
254.376	7315
254.439	7309
254.502	6024
254.565	7962
254.628	12271
254.690	6449
254.753	3202
254.816	3365
254.878	3937
254.941	9025
255.004	7429
255.067	3236
255.129	3604
255.192	2125
255.255	1020
255.317	2894
255.380	1147
255.443	1163
255.505	827
255.568	1121
255.631	1025
255.693	2297
255.756	571
255.819	1583
255.881	1390
255.944	826
256.006	1244
256.069	1154
256.132	648
256.194	2569
256.257	5054
256.319	3264
256.382	2886
256.444	3666
256.507	2581
256.569	2091
256.632	2498
256.694	5291
256.757	18954
256.819	42646
256.882	15979
256.944	6573
257.007	5162
257.069	4501
257.132	3408
257.194	3265
257.257	2223
257.319	1784
257.381	4003
257.444	14175
257.506	53722
257.569	46498
257.631	15794
257.693	10209
257.756	4967
257.818	4143
257.880	2757
257.943	3354
258.005	1672
258.067	2033
258.130	1583
258.192	3327
258.254	3694
258.317	2392
258.379	2894
258.441	7891
258.503	5813
258.566	8100
258.628	8222
258.690	1993
258.753	2718
258.815	4815
258.877	2332
258.939	2072
259.001	2353
259.064	2222
259.126	2631
259.188	2398
259.250	2468
259.312	2388
259.375	3775
259.437	2961
259.499	2539
259.561	2024
259.623	1337
259.685	1718
259.747	2219
259.809	7854
259.872	11305
259.934	22329
259.996	15653
260.058	4631
260.120	1960
260.182	2714
260.244	1763
260.306	1381
260.368	1902
260.430	1497
260.492	4051
260.554	5444
260.616	2396
260.678	10454
260.740	10713
260.802	2712
260.864	2113
260.926	1652
260.988	2570
261.050	1888
261.112	7665
261.174	15780
261.236	8387
261.298	3179
261.359	5125
261.421	7149
261.483	1445
261.545	2440
261.607	660
261.669	1516
261.731	3596
261.793	7413
261.854	2586
261.916	2131
261.978	2031
262.040	2044
262.102	1361
262.164	2777
262.225	1219
262.287	1486
262.349	5130
262.411	3348
262.472	1631
262.534	3543
262.596	5039
262.658	2211
262.719	663
262.781	2599
262.843	5616
262.904	2664
262.966	2673
263.028	3112
263.090	24550
263.151	48184
263.213	13056
263.275	6784
263.336	3330
263.398	3413
263.459	932
263.521	2205
263.583	5525
263.644	3058
263.706	351
263.767	300
263.829	1339
263.891	408
263.952	611
264.014	1269
264.075	3024
264.137	6979
264.198	2361
264.260	1214
264.321	1386
264.383	5141
264.444	11676
264.506	2330
264.567	2178
264.629	5229
264.690	8952
264.752	2558
264.813	2762
264.875	492
264.936	1820
264.998	1253
265.059	692
265.120	1726
265.182	5279
265.243	27520
265.305	21229
265.366	4729
265.427	3404
265.489	2613
265.550	1202
265.611	1891
265.673	809
265.734	1489
265.795	1970
265.857	999
265.918	1699
265.979	8344
266.040	43382
266.102	26723
266.163	7725
266.224	5187
266.286	2984
266.347	1722
266.408	1768
266.469	1433
266.530	906
266.592	1355
266.653	3387
266.714	4059
266.775	1824
266.836	859
266.898	1171
266.959	2222
267.020	1258
267.081	1170
267.142	1565
267.203	877
267.264	844
267.326	1795
267.387	1189
267.448	209
267.509	1023
267.570	1138
267.631	823
267.692	260
267.753	1709
267.814	1270
267.875	3920
267.936	6418
267.997	4928
268.058	3906
268.119	1983
268.180	1177
268.241	1068
268.302	885
268.363	521
268.424	782
268.485	1291
268.546	224
268.607	718
268.668	229
268.729	1182
268.790	1400
268.851	1846
268.912	4916
268.972	4528
269.033	1590
269.094	485
269.155	1298
269.216	474
269.277	1086
269.338	1010
269.398	1661
269.459	911
269.520	2186
269.581	2186
269.642	2831
269.702	1548
269.763	2243
269.824	1238
269.885	2306
269.945	3016
270.006	2259
270.067	340
270.128	1103
270.188	59
270.249	527
270.310	658
270.370	1485
270.431	553
270.492	317
270.553	1774
270.613	3390
270.674	6322
270.734	1844
270.795	981
270.856	2081
270.916	907
270.977	885
271.038	1756
271.098	1614
271.159	3605
271.219	2567
271.280	2207
271.340	710
271.401	1004
271.462	2524
271.522	1376
271.583	1258
271.643	1373
271.704	1261
271.764	1476
271.825	5554
271.885	20127
271.946	20174
272.006	6339
272.066	12723
272.127	17233
272.187	4360
272.248	3001
272.308	3541
272.369	14003
272.429	5480
272.489	4788
272.550	3664
272.610	5187
272.671	3004
272.731	3063
272.791	4898
272.852	2214
272.912	1827
272.972	1075
273.033	1376
273.093	2216
273.153	2348
273.214	1864
273.274	1753
273.334	11763
273.394	16841
273.455	5781
273.515	8870
273.575	14768
273.635	5145
273.696	8471
273.756	15002
273.816	5411
273.876	3268
273.936	6613
273.997	10427
274.057	2487
274.117	3086
274.177	4812
274.237	23999
274.297	16373
274.358	8929
274.418	14263
274.478	8566
274.538	2588
274.598	2772
274.658	9303
274.718	9708
274.778	3588
274.838	2016
274.898	5445
274.958	14915
275.018	17639
275.078	8473
275.138	3076
275.198	1864
275.258	2133
275.318	2347
275.378	3897
275.438	4496
275.498	3075
275.558	8933
275.618	15499
275.678	10752
275.738	6862
275.798	4792
275.858	2023
275.918	894
275.978	2171
276.038	1753
276.098	1738
276.157	4320
276.217	10225
276.277	3390
276.337	1637
276.397	1907
276.457	2765
276.517	1014
276.576	942
276.636	1292
276.696	1919
276.756	6708
276.815	3274
276.875	1733
276.935	2715
276.995	1256
277.055	849
277.114	1682
277.174	2935
277.234	9613
277.293	3385
277.353	1557
277.413	1272
277.472	874
277.532	1236
277.592	2963
277.651	7373
277.711	9809
277.771	3875
277.830	16226
277.890	9689
277.950	10648
278.009	26441
278.069	8099
278.128	9976
278.188	10257
278.248	4469
278.307	12435
278.367	6246
278.426	1818
278.486	1961
278.545	1061
278.605	1061
278.664	1637
278.724	1763
278.783	8936
278.843	17911
278.902	3582
278.962	2675
279.021	2220
279.081	3018
279.140	3318
279.199	3294
279.259	2658
279.318	2021
279.378	3917
279.437	6840
279.496	26631
279.556	81904
279.615	44720
279.675	11819
279.734	7614
279.793	10678
279.853	14722
279.912	5637
279.971	3263
280.031	2774
280.090	6486
280.149	8726
280.208	10362
280.268	57555
280.327	41186
280.386	8986
280.445	9034
280.505	7994
280.564	3769
280.623	2919
280.682	5836
280.742	7198
280.801	2487
280.860	1275
280.919	1347
280.978	1024
281.037	873
281.097	406
281.156	1870
281.215	303
281.274	2786
281.333	12930
281.392	6372
281.451	2247
281.510	2105
281.569	1607
281.628	997
281.688	1510
281.747	1764
281.806	994
281.865	488
281.924	547
281.983	1091
282.042	119
282.101	1285
282.160	809
282.219	548
282.278	1881
282.337	6801
282.396	3013
282.454	1145
282.513	2260
282.572	9189
282.631	3648
282.690	1576
282.749	479
282.808	1778
282.867	1235
282.926	1279
282.985	793
283.043	912
283.102	889
283.161	1337
283.220	5963
283.279	10584
283.338	2043
283.396	1587
283.455	1162
283.514	2020
283.573	1874
283.631	1173
283.690	1225
283.749	2087
283.808	3803
283.866	3475
283.925	903
283.984	1917
284.043	1794
284.101	2603
284.160	1121
284.219	2289
284.277	2279
284.336	3224
284.395	13034
284.453	8835
284.512	2965
284.570	3864
284.629	3058
284.688	2127
284.746	2142
284.805	3980
284.863	4177
284.922	3934
284.981	5473
285.039	9772
285.098	18766
285.156	51897
285.215	118324
285.273	102977
285.332	48873
285.390	24131
285.449	14000
285.507	10170
285.566	7430
285.624	4968
285.683	3799
285.741	2961
285.799	2419
285.858	2609
285.916	1423
285.975	2411
286.033	1104
286.091	1689
286.150	506
286.208	2215
286.267	1401
286.325	2064
286.383	3256
286.442	2853
286.500	1098
286.558	490
286.616	1200
286.675	2448
286.733	1253
286.791	1002
286.850	1373
286.908	3121
286.966	4059
287.024	1744
287.083	985
287.141	1419
287.199	1908
287.257	2609
287.315	1295
287.374	2273
287.432	5443
287.490	3406
287.548	1954
287.606	1727
287.664	2005
287.723	3017
287.781	2552
287.839	2269
287.897	2953
287.955	4501
288.013	9263
288.071	22995
288.129	88263
288.187	172221
288.245	72981
288.303	26674
288.361	15490
288.419	12059
288.477	7628
288.535	5999
288.593	4100
288.651	2448
288.709	1970
288.767	2186
288.825	1749
288.883	1295
288.941	1013
288.999	728
289.057	739
289.115	937
289.173	962
289.231	1068
289.289	242
289.346	893
289.404	1502
289.462	2169
289.520	2012
289.578	1110
289.636	419
289.694	725
289.751	722
289.809	1150
289.867	847
289.925	1447
289.983	1037
290.040	1111
290.098	1371
290.156	704
290.214	1357
290.271	1082
290.329	972
290.387	1335
290.444	432
290.502	242
290.560	783
290.617	412
290.675	822
290.733	698
290.790	659
290.848	769
290.906	922
290.963	606
291.021	718
291.078	1088
291.136	1606
291.194	6902
291.251	11135
291.309	2937
291.366	1424
291.424	2402
291.481	1062
291.539	640
291.596	788
291.654	153
291.711	554
291.769	1539
291.826	2898
291.884	1601
291.941	114
291.999	654
292.056	1021
292.114	496
292.171	488
292.228	592
292.286	805
292.343	3079
292.401	2932
292.458	2261
292.515	505
292.573	1248
292.630	1150
292.687	1854
292.745	773
292.802	2747
292.859	7072
292.917	12446
292.974	5790
293.031	2538
293.089	875
293.146	894
293.203	741
293.260	923
293.318	664
293.375	2003
293.432	896
293.489	766
293.546	253
293.604	2530
293.661	8572
293.718	20893
293.775	8180
293.832	3315
293.889	969
293.947	2510
294.004	1089
294.061	2442
294.118	6086
294.175	12662
294.232	15047
294.289	5421
294.346	2475
294.403	2729
294.460	1959
294.517	557
294.574	1680
294.631	747
294.688	1925
294.745	7279
294.802	25962
294.859	25093
294.916	6742
294.973	4141
295.030	3758
295.087	2492
295.144	2198
295.201	1941
295.258	1218
295.315	2948
295.372	10318
295.429	16880
295.486	6095
295.542	4326
295.599	13907
295.656	19573
295.713	13456
295.770	15243
295.827	6169
295.883	3027
295.940	1702
295.997	4410
296.054	3377
296.111	2005
296.167	1453
296.224	980
296.281	1723
296.338	953
296.394	1001
296.451	1830
296.508	8150
296.564	12313
296.621	8959
296.678	20715
296.734	24687
296.791	8361
296.848	4935
296.904	5469
296.961	11282
297.018	18965
297.074	12874
297.131	4188
297.187	3827
297.244	6328
297.301	22120
297.357	31974
297.414	10287
297.470	3862
297.527	3022
297.583	1177
297.640	2011
297.696	2126
297.753	1589
297.809	829
297.866	565
297.922	1118
297.979	1204
298.035	1587
298.092	2986
298.148	11525
298.204	9135
298.261	4213
298.317	10251
298.374	23647
298.430	11302
298.486	4713
298.543	3322
298.599	4148
298.656	4967
298.712	9231
298.768	24922
298.824	15811
298.881	5595
298.937	3453
298.993	3030
299.050	2983
299.106	2743
299.162	2228
299.218	2129
299.275	1157
299.331	2688
299.387	6210
299.443	20910
299.500	17616
299.556	5858
299.612	3611
299.668	2547
299.724	1887
299.780	1731
299.837	1457
299.893	4656
299.949	17214
300.005	17044
300.061	16837
300.117	26892
300.173	11212
300.229	5453
300.285	6685
300.341	5864
300.397	3649
300.453	1520
300.510	1283
300.566	1510
300.622	1874
300.678	4693
300.734	11799
300.790	15412
300.845	18582
300.901	10403
300.957	14292
301.013	9810
301.069	4077
301.125	2733
301.181	3632
301.237	2295
301.293	788
301.349	1150
301.405	1191
301.461	1774
301.516	2500
301.572	2466
301.628	3227
301.684	3237
301.740	7216
301.796	11159
301.851	6663
301.907	12030
301.963	12406
302.019	24062
302.074	59776
302.130	51294
302.186	22847
302.242	8914
302.297	6163
302.353	7015
302.409	12311
302.464	9378
302.520	8938
302.576	21404
302.631	21943
302.687	9922
302.743	5937
302.798	3115
302.854	3218
302.910	3375
302.965	4847
303.021	6288
303.076	5227
303.132	6942
303.187	6946
303.243	3375
303.299	2769
303.354	1222
303.410	2322
303.465	2820
303.521	928
303.576	2070
303.632	2900
303.687	7073
303.743	18958
303.798	14095
303.853	5498
303.909	3412
303.964	3386
304.020	5140
304.075	4827
304.130	5122
304.186	9275
304.241	9440
304.297	7453
304.352	3639
304.358	3516
304.407	2512
304.449	2518
304.463	2523
304.518	2458
304.539	2552
304.573	2704
304.629	2704
304.630	2758
304.684	5324
304.720	11444
304.739	14554
304.794	19330
304.811	16598
304.850	9914
304.902	4077
304.905	3706
304.960	2351
304.992	2641
305.015	2869
305.071	3422
305.083	3056
305.126	1709
305.173	1546
305.181	1534
305.236	1280
305.264	1248
305.292	1207
305.347	1977
305.354	2063
305.402	2635
305.445	3343
305.457	3509
305.512	3541
305.535	3510
305.567	3562
305.622	4359
305.626	4551
305.678	8511
305.716	17523
305.733	21040
305.788	21363
305.807	18693
305.843	13603
305.897	18003
305.898	18056
305.953	18254
305.988	12216
306.008	8698
306.063	5068
306.078	4430
306.118	3113
306.168	2216
306.173	2152
306.228	1432
306.259	1525
306.283	1673
306.338	1853
306.349	1951
306.393	2166
306.440	2355
306.448	2409
306.503	3065
306.530	3408
306.558	4146
306.613	8193
306.620	8732
306.668	12576
306.711	16556
306.723	17063
306.778	12974
306.801	10301
306.833	6857
306.888	2941
306.892	2820
306.943	2419
306.982	2235
306.997	2124
307.052	1994
307.072	1928
307.107	2037
307.162	3370
307.163	3386
307.217	5009
307.253	5464
307.272	5485
307.327	5763
307.343	5559
307.381	5144
307.434	4831
307.436	4920
307.491	9465
307.524	13351
307.546	14879
307.600	14900
307.614	13634
307.655	8412
307.704	4676
307.710	4563
307.765	5510
307.795	6691
307.819	8022
307.874	12696
307.885	12641
307.929	10197
307.975	8710
307.984	8935
308.038	13766
308.065	18531
308.093	29984
308.148	62330
308.156	69809
308.202	118441
308.246	144341
308.257	139820
308.312	77087
308.336	54225
308.366	40258
308.421	23791
308.426	22520
308.475	14770
308.517	10678
308.530	9882
308.585	8057
308.607	7454
308.639	7030
308.694	6634
308.697	6725
308.748	10950
308.787	15329
308.803	15785
308.857	12658
308.877	11620
308.912	9965
308.967	9330
308.967	9337
309.021	12897
309.058	16546
309.076	20276
309.130	36440
309.148	43640
309.185	80652
309.238	146242
309.239	146938
309.293	170409
309.328	165106
309.348	142391
309.402	69818
309.418	52138
309.457	35650
309.508	20253
309.511	19770
309.566	15573
309.598	13803
309.620	13885
309.674	14708
309.688	15151
309.729	14547
309.778	12515
309.783	12194
309.837	9516
309.868	8017
309.892	9099
309.946	13179
309.959	14638
310.001	20969
310.049	26006
310.055	25226
310.109	15784
310.139	10540
310.163	8238
310.218	4841
310.229	4230
310.272	3642
310.319	3175
310.326	3060
310.381	2641
310.409	2371
310.435	2232
310.489	1916
310.499	1891
310.543	2356
310.589	2862
310.598	2844
310.652	2951
310.679	2819
310.706	2487
310.760	1709
310.769	1609
310.814	1273
310.859	1137
310.868	1175
310.923	1305
310.948	1353
310.977	1749
311.031	2514
311.038	2631
311.085	2243
311.128	1742
311.139	1792
311.193	2053
311.218	2221
311.247	2136
311.301	1953
311.308	1918
311.356	1529
311.398	1260
311.410	1296
311.464	1414
311.488	1506
311.518	1553
311.572	1509
311.578	1523
311.626	2078
311.668	2522
311.680	2591
311.734	2870
311.758	2971
311.788	2890
311.842	2824
311.847	2812
311.896	3604
311.937	4352
311.950	4363
312.004	4365
312.027	4350
312.058	3647
312.112	2413
312.117	2292
312.165	1924
312.207	1619
312.297	2922
312.386	3269
312.476	2259
312.566	4638
312.656	2953
312.745	1233
312.835	2257
312.925	1841
313.015	2680
313.104	1655
313.194	1959
313.284	2466
313.374	2056
313.463	2393
313.553	1806
313.643	1517
313.732	1941
313.822	1195
313.912	2488
314.001	1685
314.091	2720
314.180	2643
314.270	2728
314.360	2245
314.449	2459
314.539	1630
314.628	1633
314.718	1682
314.808	2316
314.897	1382
314.987	2192
315.076	2094
315.166	3083
315.255	3310
315.345	2368
315.434	1450
315.524	2727
315.613	2115
315.703	2141
315.792	2765
315.881	3354
315.971	2072
316.060	4652
316.150	6705
316.239	7692
316.328	3315
316.418	2251
316.507	1936
316.597	2189
316.686	1803
316.775	2793
316.865	7633
316.954	2761
317.043	1144
317.133	1946
317.222	1800
317.311	1715
317.400	259
317.490	2086
317.579	2203
317.668	1762
317.757	2150
317.847	3688
317.936	5129
318.025	6334
318.114	3003
318.203	2865
318.293	4533
318.382	9083
318.471	7232
318.560	10561
318.649	24704
318.738	6748
318.828	2912
318.917	3945
319.006	4429
319.095	9676
319.184	27533
319.273	17638
319.362	7105
319.451	2627
319.540	2592
319.629	4134
319.718	8460
319.807	5534
319.896	7049
319.985	36347
320.074	15873
320.163	3043
320.252	4571
320.341	4779
320.430	3603
320.519	3381
320.608	3227
320.697	2209
320.786	2229
320.875	3022
320.964	2805
321.053	5065
321.142	6240
321.230	7980
321.319	4937
321.408	13785
321.497	6682
321.586	5714
321.675	6483
321.764	7725
321.852	4497
321.941	6654
322.030	5403
322.119	4723
322.207	13560
322.296	11763
322.385	5408
322.474	5073
322.562	14674
322.651	10149
322.740	5024
322.829	9012
322.917	9312
323.006	5709
323.095	3828
323.183	4074
323.272	5220
323.361	9826
323.449	33024
323.538	13686
323.626	19654
323.715	17388
323.804	5109
323.892	17924
323.981	12784
324.069	4279
324.158	8876
324.246	12331
324.335	3265
324.424	5086
324.512	2751
324.601	3086
324.689	5167
324.778	12271
324.866	6873
324.954	3270
325.043	2126
325.131	3829
325.220	7241
325.308	9237
325.397	6134
325.485	5367
325.574	676
325.662	1411
325.750	1271
325.839	1353
325.927	1040
326.015	2273
326.104	2650
326.192	5348
326.280	1672
326.369	889
326.457	1500
326.545	4082
326.634	1731
326.722	1031
326.810	1397
326.898	1156
326.987	1453
327.075	3587
327.163	3995
327.251	2524
327.340	3935
327.428	6251
327.516	1399
327.604	1236
327.692	1046
327.781	1774
327.869	3247
327.957	2973
328.045	1721
328.133	2045
328.221	1249
328.309	1036
328.397	962
328.485	1871
328.574	1764
328.662	8088
328.750	4779
328.838	2200
328.926	2068
329.014	1841
329.102	2123
329.190	6062
329.278	4146
329.366	2489
329.454	1011
329.542	1682
329.630	961
329.718	2204
329.806	2191
329.893	2310
329.981	4203
330.069	7873
330.157	26438
330.245	84206
330.333	55329
330.421	10215
330.509	4470
330.597	10565
330.684	8500
330.772	3065
330.860	3772
330.948	5557
331.036	2583
331.123	639
331.211	1655
331.299	2099
331.387	3681
331.475	9115
331.562	2564
331.650	1518
331.738	703
331.825	2790
331.913	1493
332.001	1789
332.089	1630
332.176	3812
332.264	8114
332.352	9010
332.439	2674
332.527	2049
332.614	1807
332.702	2560
332.790	903
332.877	4062
332.965	9260
333.052	2520
333.140	1666
333.228	5303
333.315	1610
333.403	1331
333.490	4673
333.578	4824
333.665	3604
333.753	2879
333.840	1009
333.928	1523
334.015	5150
334.103	10162
334.190	37167
334.278	12645
334.365	2836
334.452	2238
334.540	549
334.627	2263
334.715	2710
334.802	6486
334.889	31544
334.977	44682
335.064	5044
335.151	2084
335.239	3002
335.326	3920
335.413	15060
335.501	30869
335.588	2961
335.675	1185
335.762	2149
335.850	4582
335.937	3275
336.024	7494
336.111	37110
336.199	19842
336.286	2852
336.373	1706
336.460	646
336.547	1198
336.635	2006
336.722	1832
336.809	1089
336.896	3811
336.983	8460
337.070	24701
337.157	43332
337.245	26037
337.332	22442
337.419	2514
337.506	1837
337.593	1936
337.680	6294
337.767	26416
337.854	7962
337.941	7210
338.028	7382
338.115	3484
338.202	3156
338.289	5989
338.376	23586
338.463	10515
338.550	11546
338.637	19381
338.724	4371
338.811	8178
338.898	2020
338.984	1233
339.071	1043
339.158	2508
339.245	4767
339.332	4403
339.419	4190
339.506	5725
339.593	728
339.679	1120
339.766	1186
339.853	1923
339.940	3298
340.027	1595
340.113	1214
340.200	1752
340.287	1044
340.374	1730
340.460	3385
340.547	1082
340.634	2202
340.720	9127
340.807	7525
340.894	1075
340.980	1219
341.067	907
341.154	1438
341.240	1637
341.327	4946
341.414	1989
341.500	1419
341.587	651
341.674	751
341.760	3120
341.847	3156
341.933	1602
342.020	415
342.106	537
342.193	757
342.279	2695
342.366	1171
342.452	3337
342.539	2004
342.625	3865
342.712	10645
342.798	4958
342.885	1730
342.971	395
343.058	55
343.144	837
343.230	567
343.317	1170
343.403	754
343.490	326
343.576	-210
343.662	694
343.749	1459
343.835	2222
343.921	4477
344.008	24118
344.094	71181
344.180	19171
344.267	4338
344.353	14383
344.439	19271
344.525	6415
344.612	3082
344.698	2189
344.784	1327
344.870	1167
344.957	263
345.043	2178
345.129	1574
345.215	3362
345.301	2195
345.387	402
345.474	270
345.560	277
345.646	649
345.732	1239
345.818	995
345.904	1132
345.990	897
346.076	1361
346.162	2580
346.249	1567
346.335	1650
346.421	1714
346.507	4939
346.593	25231
346.679	7402
346.765	1880
346.851	176
346.937	932
347.023	477
347.108	804
347.194	1149
347.280	753
347.366	1270
347.452	6009
347.538	28529
347.624	22374
347.710	17200
347.796	3526
347.882	1264
347.967	879
348.053	1930
348.139	1195
348.225	167
348.311	665
348.397	518
348.482	828
348.568	1376
348.654	862
348.740	223
348.825	373
348.911	1687
348.997	10585
349.083	29857
349.168	5901
349.254	1638
349.340	1031
349.425	800
349.511	1695
349.597	2311
349.682	3504
349.768	12880
349.854	8372
349.939	1422
350.025	778
350.110	1118
350.196	604
350.282	113
350.367	840
350.453	853
350.538	2087
350.624	1225
350.709	1260
350.795	-135
350.880	789
350.966	1134
351.051	1517
351.137	1259
351.222	1167
351.308	2451
351.393	12500
351.479	3282
351.564	685
351.649	713
351.735	240
351.820	482
351.906	1421
351.991	1954
352.076	5999
352.162	12481
352.247	2747
352.332	375
352.418	2409
352.503	3269
352.588	13424
352.673	13714
352.759	2711
352.844	1108
352.929	1369
353.014	1220
353.100	1152
353.185	1088
353.270	3282
353.355	3551
353.441	1309
353.526	823
353.611	2603
353.696	3689
353.781	2395
353.866	818
353.952	1396
354.037	2184
354.122	6984
354.207	6062
354.292	2863
354.377	982
354.462	1180
354.547	815
354.632	719
354.717	2196
354.802	1322
354.887	591
354.972	771
355.057	87
355.142	261
355.227	1285
355.312	1154
355.397	3261
355.482	10671
355.567	6460
355.652	3483
355.737	5363
355.822	14912
355.907	17439
355.991	2825
356.076	670
356.161	1082
356.246	434
356.331	1467
356.416	3262
356.501	27232
356.585	41104
356.670	5294
356.755	2848
356.840	3298
356.924	14061
357.009	74665
357.094	35836
357.179	5206
357.263	3214
357.348	3171
357.433	3234
357.517	2439
357.602	2110
357.687	1617
357.771	2714
357.856	10751
357.941	9010
358.025	13010
358.110	76827
358.195	44986
358.279	4646
358.364	2449
358.448	7791
358.533	28523
358.617	22266
358.702	22143
358.787	8701
358.871	3742
358.956	2710
359.040	1074
359.125	765
359.209	1114
359.294	4636
359.378	9652
359.462	3173
359.547	1808
359.631	213
359.716	1150
359.800	695
359.885	1753
359.969	1120
360.053	1733
360.138	1264
360.222	1843
360.306	3083
360.391	3498
360.475	4067
360.559	13741
360.644	9644
360.728	8147
360.812	12179
360.896	51810
360.981	21215
361.065	8221
361.149	1662
361.233	2004
361.318	569
361.402	1475
361.486	1327
361.570	950
361.654	805
361.739	4153
361.823	25020
361.907	57193
361.991	9897
362.075	3178
362.159	6140
362.243	5453
362.327	2380
362.411	3111
362.495	2546
362.580	1351
362.664	-594
362.748	21
362.832	624
362.916	977
363.000	4390
363.084	22216
363.168	60490
363.252	15956
363.336	2917
363.420	5044
363.503	21572
363.587	36799
363.671	5160
363.755	1665
363.839	3606
363.923	981
364.007	2687
364.091	4131
364.175	5144
364.258	40992
364.342	24565
364.426	8000
364.510	3981
364.594	4528
364.677	6391
364.761	38118
364.845	37733
364.929	6593
365.013	5461
365.096	4153
365.180	5937
365.264	7563
365.347	44128
365.431	23673
365.515	4306
365.598	1326
365.682	1367
365.766	1662
365.849	4520
365.933	1548
366.017	2273
366.100	2108
366.184	-244
366.267	1061
366.351	1095
366.435	736
366.518	159
366.602	264
366.685	941
366.769	1091
366.852	1755
366.936	4875
367.019	2072
367.103	1495
367.186	5103
367.270	1211
367.353	-679
367.436	1509
367.520	-318
367.603	325
367.687	994
367.770	2738
367.853	1751
367.937	8663
368.020	21908
368.104	4739
368.187	1937
368.270	4773
368.353	3690
368.437	4572
368.520	14637
368.603	9619
368.687	8879
368.770	25341
368.853	6057
368.936	4231
369.020	4986
369.103	1634
369.186	252
369.269	657
369.352	2203
369.436	3785
369.519	2111
369.602	861
369.685	1462
369.768	1118
369.851	1102
369.934	495
370.018	608
370.101	2256
370.184	3283
370.267	2062
370.350	3284
370.433	5388
370.516	17089
370.599	27605
370.682	4388
370.765	9721
370.848	13575
370.931	31460
371.014	13647
371.097	1654
371.180	797
371.263	764
371.346	100
371.429	945
371.511	163
371.594	2974
371.677	3235
371.760	5692
371.843	4052
371.926	18797
372.009	65242
372.091	22601
372.174	8406
372.257	31372
372.340	13349
372.423	6056
372.505	8382
372.588	3559
372.671	5146
372.754	28043
372.836	18042
372.919	8872
373.002	23685
373.085	7544
373.167	3530
373.250	9185
373.332	27791
373.415	34523
373.498	90306
373.580	36706
373.663	29632
373.746	57193
373.828	13114
373.911	3668
373.993	4021
374.076	19797
374.159	24754
374.241	7127
374.324	21626
374.406	17863
374.489	17580
374.571	73694
374.654	35105
374.736	11159
374.819	40312
374.901	59807
374.983	74660
375.066	13361
375.148	3447
375.231	14150
375.313	40035
375.395	14806
375.478	2151
375.560	1810
375.643	2234
375.725	7887
375.807	51710
375.890	49756
375.972	15770
376.054	6181
376.136	11327
376.219	6658
376.301	10229
376.383	47333
376.465	19930
376.548	7038
376.630	8224
376.712	37203
376.794	21113
376.877	2400
376.959	538
377.041	1307
377.123	2774
377.205	5264
377.287	855
377.369	434
377.452	888
377.534	499
377.616	314
377.698	919
377.780	-207
377.862	598
377.944	511
378.026	363
378.108	-24
378.190	357
378.272	200
378.354	-50
378.436	-193
378.518	1324
378.600	6969
378.682	6853
378.764	13153
378.846	13915
378.928	2420
379.010	3393
379.091	2006
379.173	977
379.255	216
379.337	801
379.419	4152
379.501	22698
379.583	11732
379.664	1527
379.746	2924
379.828	12513
379.910	19732
379.991	20733
380.073	3161
380.155	1315
380.237	370
380.318	189
380.400	753
380.482	1579
380.564	4013
380.645	3073
380.727	2565
380.809	2489
380.890	1211
380.972	1172
381.053	765
381.135	924
381.217	2721
381.298	15703
381.380	8251
381.461	5162
381.543	30060
381.624	50880
381.706	9785
381.787	3284
381.869	3054
381.951	10896
382.032	62893
382.113	50079
382.195	6436
382.276	4114
382.358	7010
382.439	31707
382.521	35342
382.602	67355
382.684	28072
382.765	37286
382.846	39614
382.928	36308
383.009	22575
383.090	11577
383.172	42729
383.253	91102
383.334	36031
383.416	49088
383.497	29473
383.578	7745
383.659	9950
383.741	34586
383.822	131865
383.903	82654
383.984	25088
384.066	56408
384.147	39883
384.228	7712
384.309	3280
384.390	2784
384.471	1013
384.553	1725
384.634	2591
384.715	2989
384.796	817
384.877	2518
384.958	10659
385.039	18666
385.120	5378
385.201	2904
385.282	2143
385.363	3237
385.444	1134
385.525	3688
385.606	22574
385.687	28305
385.768	4756
385.849	4474
385.930	21493
386.011	57555
386.092	17504
386.173	2438
386.254	1209
386.335	1830
386.416	2169
386.496	6475
386.577	16388
386.658	6502
386.739	1806
386.820	2520
386.901	964
386.981	1764
387.062	287
387.143	2504
387.224	11694
387.304	16468
387.385	4115
387.466	1846
387.547	3110
387.627	1525
387.708	3490
387.789	23626
387.869	40232
387.950	13622
388.031	1724
388.111	467
388.192	4897
388.273	7583
388.353	4074
388.434	2306
388.514	2741
388.595	26603
388.676	42642
388.756	17787
388.837	12287
388.917	9075
388.998	732
389.078	2404
389.159	2303
389.239	-53
389.320	1876
389.400	1117
389.480	4012
389.561	16431
389.641	10249
389.722	1661
389.802	2520
389.883	5260
389.963	20897
390.043	16328
390.124	3479
390.204	3434
390.284	15042
390.365	11908
390.445	13016
390.525	48621
390.605	51958
390.686	11650
390.766	3155
390.846	1270
390.927	304
391.007	950
391.087	1084
391.167	1131
391.247	-169
391.328	2106
391.408	4278
391.488	3280
391.568	-285
391.648	952
391.728	1616
391.808	1947
391.888	1869
391.969	6910
392.049	14654
392.129	7592
392.209	4996
392.289	19476
392.369	11606
392.449	8113
392.529	4290
392.609	2487
392.689	3012
392.769	16826
392.849	18648
392.929	8792
393.009	24751
393.089	21117
393.169	5517
393.248	16964
393.328	120479
393.408	171729
393.488	33072
393.568	5873
393.648	3157
393.728	1951
393.807	1307
393.887	2826
393.967	2070
394.047	2987
394.127	4832
394.206	9734
394.286	32856
394.366	174994
394.446	245999
394.525	66299
394.605	13341
394.685	7273
394.764	12065
394.844	22060
394.924	18047
395.003	4992
395.083	3068
395.163	1935
395.242	1112
395.322	2937
395.402	116
395.481	3918
395.561	6366
395.640	24826
395.720	18205
395.799	28723
395.879	29722
395.958	17479
396.038	51823
396.117	234345
396.197	321539
396.276	103826
396.356	27273
396.435	14317
396.515	8730
396.594	5812
396.673	8248
396.753	24532
396.832	125350
396.912	112087
396.991	24582
397.070	5602
397.150	2113
397.229	2161
397.308	875
397.388	1947
397.467	901
397.546	784
397.625	-480
397.705	1873
397.784	1002
397.863	552
397.942	440
398.022	902
398.101	4082
398.180	24943
398.259	15604
398.338	3142
398.417	1051
398.497	639
398.576	846
398.655	-632
398.734	42
398.813	137
398.892	4806
398.971	27566
399.050	17539
399.129	-29
399.208	-566
399.287	1038
399.366	-185
399.445	-283
399.524	12
399.603	-1183
399.682	843
399.761	4365
399.840	26950
399.919	29004
399.998	3232
400.077	-535
400.156	-658
400.235	1696
400.313	-398
400.392	286
400.471	4473
400.550	12266
400.629	2556
400.708	715
400.786	200
400.865	3810
400.944	4464
401.023	2956
401.102	-80
401.180	-554
401.259	-378
401.338	-475
401.416	38
401.495	76
401.574	867
401.652	316
401.731	-49
401.810	12
401.888	-338
401.967	-1069
402.046	1
402.124	577
402.203	399
402.281	1171
402.360	-130
402.438	5621
402.517	3590
402.596	887
402.674	275
402.753	-53
402.831	-488
402.910	-437
402.988	540
403.066	7366
403.145	4672
403.223	2337
403.302	4522
403.380	4621
403.459	3759
403.537	1494
403.615	46
403.694	-1073
403.772	-35
403.850	-460
403.929	-722
404.007	-765
404.085	303
404.164	409
404.242	123
404.320	2882
404.398	13934
404.477	18130
404.555	43073
404.633	51121
404.711	15343
404.789	8343
404.868	523
404.946	-358
405.024	78
405.102	-618
405.180	-304
405.258	-1689
405.336	-91
405.415	-301
405.493	497
405.571	1525
405.649	-841
405.727	-1331
405.805	633
405.883	616
405.961	-374
406.039	1062
406.117	-275
406.195	1582
406.273	3889
406.351	34764
406.429	27583
406.507	3981
406.585	138
406.663	224
406.740	-571
406.818	-160
406.896	-414
406.974	2
407.052	-317
407.130	15314
407.208	32688
407.285	7561
407.363	-90
407.441	-191
407.519	-888
407.596	190
407.674	1531
407.752	8034
407.830	10283
407.907	4173
407.985	-113
408.063	412
408.141	-363
408.218	675
408.296	-1212
408.373	-496
408.451	-240
408.529	141
408.606	-1474
408.684	-852
408.762	-1249
408.839	-1079
408.917	-1188
408.994	-473
409.072	-1440
409.149	-340
409.227	-879
409.304	-267
409.382	-430
409.459	-927
409.537	-5
409.614	-391
409.692	-1109
409.769	-768
409.846	-774
409.924	1181
410.001	-1000
410.079	-340
410.156	-161
410.233	-440
410.311	-966
410.388	-403
410.465	-710
410.543	-160
410.620	-484
410.697	-647
410.775	-815
410.852	-1785
410.929	-830
411.006	694
411.083	-784
411.161	391
411.238	1222
411.315	572
411.392	-924
411.469	-76
411.547	133
411.624	-779
411.701	-772
411.778	-619
411.855	470
411.932	-365
412.009	-222
412.086	-1163
412.163	-658
412.240	33
412.317	83
412.394	344
412.471	-1223
412.548	-1172
412.625	-1039
412.702	22
412.779	681
412.856	1000
412.933	-982
413.010	87
413.087	91
413.164	4367
413.241	10299
413.318	1070
413.395	496
413.471	391
413.548	-49
413.625	98
413.702	-1385
413.779	382
413.855	-1153
413.932	-1138
414.009	-2236
414.086	-231
414.162	-716
414.239	358
414.316	3661
414.393	14664
414.469	5697
414.546	-98
414.623	-1096
414.699	-1169
414.776	-805
414.853	-860
414.929	-16
415.006	-200
415.082	-109
415.159	-539
415.236	-191
415.312	115
415.389	-688
415.465	560
415.542	-827
415.618	-1288
415.695	430
415.771	-957
415.848	-1018
415.924	-47
416.000	-912
416.077	-545
416.153	-1893
416.230	-1862
416.306	-1528
416.383	-1465
416.459	-273
416.535	-1197
416.612	-1283
416.688	-864
416.764	-1223
416.841	-1410
416.917	-1511
416.993	-1003
417.069	163
417.146	-484
417.222	846
417.298	177
417.374	-1130
417.451	645
417.527	-16
417.603	-330
417.679	-425
417.755	-74
417.831	-1678
417.908	-765
417.984	-1681
418.060	-1393
418.136	-757
418.212	752
418.288	-578
418.364	202
418.440	-1666
418.516	358
418.592	-119
418.668	1667
418.744	2277
418.820	2744
418.896	-43
418.972	-1089
419.048	-976
419.124	542
419.200	-125
419.276	-1139
419.352	-2260
419.428	-543
419.504	-1750
419.579	-577
419.655	-939
419.731	-286
419.807	884
419.883	3222
419.959	1873
420.034	14
420.110	570
420.186	6921
420.262	8217
420.337	432
420.413	-863
420.489	-554
420.565	-320
420.640	-989
420.716	-374
420.792	-1632
420.867	-84
420.943	-1384
421.019	-1364
421.094	-369
421.170	-671
421.245	-806
421.321	-164
421.397	-1113
421.472	1107
421.548	3180
421.623	3679
421.699	1021
421.774	-776
421.850	-1741
421.925	-69
422.001	151
422.076	-994
422.152	-356
422.227	-78
422.302	1063
422.378	716
422.453	1835
422.529	6431
422.604	32483
422.679	109294
422.755	68586
422.830	13997
422.905	2901
422.981	635
423.056	515
423.131	539
423.207	-5
423.282	-796
423.357	1443
423.432	480
423.508	83
423.583	1348
423.658	2246
423.733	-269
423.808	-112
423.883	411
423.959	90
424.034	-762
424.109	-634
424.184	-454
424.259	-786
424.334	-959
424.409	-1682
424.484	-1068
424.559	82
424.634	-1287
424.709	-545
424.784	-340
424.859	-523
424.934	-857
425.009	4019
425.084	9547
425.159	3858
425.234	-229
425.309	-573
425.384	384
425.459	3385
425.534	1337
425.609	-538
425.683	-1392
425.758	-528
425.833	-986
425.908	341
425.983	579
426.058	9285
426.132	4670
426.207	2
426.282	791
426.357	398
426.431	-794
426.506	-655
426.581	-824
426.655	38
426.730	-1478
426.805	-408
426.879	-698
426.954	-93
427.029	-64
427.103	7011
427.178	28734
427.253	19705
427.327	465
427.402	564
427.476	3828
427.551	3256
427.625	-375
427.700	32
427.774	-1363
427.849	246
427.923	-1558
427.998	-499
428.072	-1238
428.147	1205
428.221	2992
428.296	9181
428.370	5259
428.444	1121
428.519	352
428.593	3466
428.667	3166
428.742	3244
428.816	3275
428.890	5928
428.965	12922
429.039	6387
429.113	4657
429.188	1674
429.262	-1213
429.336	389
429.410	2799
429.485	2976
429.559	2242
429.633	2285
429.707	-682
429.781	-10
429.855	7639
429.930	16294
430.004	11092
430.078	20872
430.152	20499
430.226	14258
430.300	18907
430.374	3125
430.448	927
430.522	3955
430.596	22702
430.670	16995
430.744	14301
430.818	37509
430.892	11822
430.966	703
431.040	-155
431.114	-1138
431.188	-1403
431.262	-755
431.336	-934
431.410	861
431.484	3302
431.557	3719
431.631	-48
431.705	-934
431.779	-323
431.853	6013
431.927	6521
432.000	97
432.074	-939
432.148	-205
432.222	-855
432.295	143
432.369	-1304
432.443	-1076
432.516	7241
432.590	30625
432.664	16956
432.737	1351
432.811	-928
432.885	-1165
432.958	-620
433.032	-941
433.106	-947
433.179	-888
433.253	-1141
433.326	-1011
433.400	-728
433.473	-884
433.547	-1351
433.620	-847
433.694	-908
433.767	609
433.841	-986
433.914	-639
433.988	-825
434.061	-1206
434.134	-1460
434.208	-886
434.281	-1130
434.355	-885
434.428	-1037
434.501	-432
434.575	-1267
434.648	-1678
434.721	-814
434.795	-1143
434.868	-1314
434.941	-1313
435.014	-1988
435.088	-1922
435.161	-1076
435.234	-856
435.307	-656
435.381	-307
435.454	-665
435.527	-1092
435.600	-924
435.673	-1083
435.746	-1493
435.819	-624
435.892	-972
435.966	-626
436.039	-1877
436.112	-645
436.185	-1428
436.258	-1590
436.331	-1230
436.404	-1077
436.477	-1288
436.550	-1444
436.623	-1411
436.696	-919
436.769	-1111
436.842	-805
436.915	-982
436.987	-670
437.060	-857
437.133	-1091
437.206	-957
437.279	-99
437.352	-1301
437.425	-1403
437.498	-779
437.570	-146
437.643	731
437.716	-286
437.789	-1460
437.861	-428
437.934	1881
438.007	1622
438.080	-924
438.152	-877
438.225	816
438.298	9626
438.370	50875
438.443	31453
438.516	5591
438.588	68
438.661	-812
438.734	-808
438.806	-767
438.879	-425
438.951	-638
439.024	1235
439.096	-4
439.169	-364
439.241	-1254
439.314	-1224
439.386	-616
439.459	150
439.531	1003
439.604	535
439.676	-200
439.749	-627
439.821	-1252
439.893	-797
439.966	-718
440.038	-800
440.110	-541
440.183	-900
440.255	-1169
440.327	228
440.400	2609
440.472	23342
440.544	26830
440.617	3085
440.689	157
440.761	649
440.833	1943
440.905	2125
440.978	-494
441.050	-219
441.122	-901
441.194	-1636
441.266	-1248
441.338	-903
441.411	-133
441.483	4886
441.555	12201
441.627	4825
441.699	-136
441.771	635
441.843	-723
441.915	-1026
441.987	-809
442.059	-1046
442.131	-1210
442.203	413
442.275	-389
442.347	654
442.419	-178
442.491	687
442.563	5433
442.635	5509
442.706	3558
442.778	5717
442.850	9
442.922	-215
442.994	-945
443.066	235
443.137	-124
443.209	-1303
443.281	-478
443.353	215
443.425	2064
443.496	12249
443.568	15946
443.640	6600
443.711	940
443.783	-357
443.855	-545
443.926	-759
443.998	-989
444.070	-279
444.141	-837
444.213	194
444.285	783
444.356	-211
444.428	-224
444.499	-1016
444.571	-938
444.642	-493
444.714	-963
444.785	111
444.857	637
444.928	2604
445.000	2349
445.071	1598
445.143	2631
445.214	743
445.285	591
445.357	5328
445.428	10413
445.500	26976
445.571	24836
445.642	10507
445.714	4250
445.785	7802
445.856	2718
445.928	987
445.999	-60
446.070	642
446.141	-227
446.213	800
446.284	-313
446.355	144
446.426	-424
446.497	-488
446.569	-296
446.640	1300
446.711	245
446.782	-979
446.853	95
446.924	-104
446.995	-912
447.066	678
447.138	612
447.209	589
447.280	-1028
447.351	-1209
447.422	-1679
447.493	-278
447.564	-660
447.635	1
447.706	12
447.777	-275
447.847	-287
447.918	-814
447.989	142
448.060	-346
448.131	2096
448.202	2251
448.273	429
448.344	1136
448.414	-483
448.485	-918
448.556	-631
448.627	-188
448.698	-104
448.768	-956
448.839	-914
448.910	160
448.981	1054
449.051	637
449.122	-885
449.193	-765
449.263	-874
449.334	-288
449.405	-232
449.475	1445
449.546	957
449.616	1722
449.687	2212
449.758	848
449.828	-453
449.899	-503
449.969	-1240
450.040	-452
450.110	225
450.181	236
450.251	-534
450.322	412
450.392	-68
450.463	-155
450.533	-232
450.604	118
450.674	-949
450.744	-158
450.815	-1005
450.885	358
450.955	135
451.026	-814
451.096	-461
451.166	171
451.237	-103
451.307	4952
451.377	3105
451.447	-176
451.518	-1054
451.588	454
451.658	-868
451.728	109
451.799	3482
451.869	7946
451.939	1770
452.009	396
452.079	-330
452.149	-131
452.219	-378
452.289	4755
452.360	6487
452.430	1716
452.500	-837
452.570	160
452.640	339
452.710	1893
452.780	5593
452.850	4708
452.920	3174
452.990	1644
453.060	224
453.129	504
453.199	540
453.269	4774
453.339	21299
453.409	37871
453.479	25303
453.549	40785
453.619	46378
453.688	27900
453.758	5410
453.828	954
453.898	-252
453.968	-655
454.037	-394
454.087	337
454.107	627
454.168	-886
454.177	-1118
454.247	-59
454.249	-58
454.316	-303
454.330	-288
454.386	-268
454.411	496
454.456	1621
454.492	3774
454.525	5646
454.574	3568
454.595	2676
454.655	1150
454.665	911
454.734	289
454.736	322
454.804	1065
454.817	1709
454.873	4062
454.898	5790
454.943	8669
454.979	5989
455.013	3684
455.060	1972
455.082	1251
455.141	554
455.152	446
455.221	3745
455.222	3854
455.291	9889
455.303	10315
455.360	11596
455.384	16018
455.430	22308
455.465	19923
455.499	17755
455.546	10360
455.569	7004
455.627	5157
455.638	4847
455.707	1432
455.708	1438
455.777	645
455.789	640
455.846	458
455.869	330
455.916	117
455.950	-15
455.985	-124
456.031	244
456.054	345
456.112	228
456.124	227
456.193	536
456.193	531
456.262	-60
456.274	163
456.332	1087
456.355	820
456.401	90
456.436	17
456.470	-13
456.516	-359
456.540	-586
456.597	-685
456.609	-693
456.678	125
456.678	119
456.747	-366
456.759	-335
456.817	-268
456.840	-138
456.886	70
456.920	-72
456.955	-113
457.001	135
457.024	165
457.082	347
457.093	426
457.162	560
457.163	573
457.232	1006
457.243	1009
457.301	1002
457.324	740
457.370	236
457.405	312
457.439	536
457.485	543
457.508	416
457.566	143
457.577	125
457.646	949
457.647	956
457.715	283
457.727	316
457.784	1005
457.808	1155
457.853	1075
457.889	1182
457.922	1171
457.969	1318
457.991	1522
458.050	1457
458.060	1438
458.129	2067
458.130	2084
458.198	2065
458.211	1987
458.267	1400
458.292	1194
458.336	989
458.372	607
458.405	528
458.453	571
458.474	609
458.533	2097
458.543	2316
458.611	3006
458.614	3060
458.680	3148
458.694	2802
458.749	1488
458.775	1282
458.818	1177
458.855	868
458.887	690
458.936	668
458.955	644
459.016	787
459.024	841
459.093	1428
459.097	1428
459.162	924
459.177	927
459.230	970
459.257	970
459.299	1095
459.338	1450
459.368	1730
459.418	1711
459.437	1565
459.499	2007
459.505	2035
459.574	708
459.579	737
459.643	1194
459.659	882
459.711	607
459.740	1096
459.780	1156
459.820	992
459.849	1177
459.900	1707
459.917	1716
459.981	1212
459.986	1195
460.054	1859
460.061	1822
460.123	1592
460.141	1803
460.191	2343
460.222	2303
460.260	2235
460.302	2418
460.328	2365
460.382	2168
460.397	2099
460.462	2212
460.465	2241
460.534	2250
460.543	2300
460.602	7346
460.623	9301
460.671	15914
460.703	22191
460.739	22591
460.783	23845
460.808	21672
460.864	8050
460.876	7093
460.944	2006
460.945	1951
461.013	1923
461.024	1992
461.081	1855
461.104	1742
461.150	1692
461.184	1566
461.218	1418
461.264	1397
461.286	1430
461.345	1205
461.355	1232
461.423	2468
461.425	2467
461.491	1797
461.505	1851
461.559	2706
461.585	2895
461.628	4863
461.665	6956
461.696	8128
461.745	11127
461.764	10037
461.825	4887
461.832	4868
461.901	2475
461.905	2447
461.969	1951
461.985	1740
462.037	1744
462.065	1861
462.105	1789
462.145	2000
462.173	2833
462.225	4188
462.241	4616
462.305	6767
462.310	6656
462.378	5185
462.385	4877
462.446	3236
462.465	2687
462.514	2312
462.545	2269
462.582	2228
462.625	2269
462.650	2124
462.705	1707
462.718	1813
462.785	2650
462.786	2661
462.854	2921
462.865	3012
462.922	4122
462.945	4604
462.990	3657
463.025	2677
463.058	2491
463.104	2014
463.126	1805
463.184	1816
463.194	1917
463.262	2317
463.264	2342
463.330	3329
463.344	3425
463.398	3691
463.424	3934
463.466	3162
463.504	2454
463.533	2658
463.583	3076
463.601	3087
463.663	2666
463.669	2673
463.737	3370
463.743	3387
463.805	4560
463.823	4981
463.873	7867
463.903	9593
463.940	10597
463.982	12326
464.008	10496
464.062	5771
464.076	5457
464.142	2801
464.144	2767
464.211	2214
464.221	2187
464.279	2564
464.301	2691
464.347	3278
464.381	3716
464.414	3657
464.461	3612
464.482	3956
464.540	4786
464.550	4568
464.617	2942
464.620	2886
464.685	3343
464.699	3441
464.753	4798
464.779	5425
464.820	6498
464.859	7570
464.888	7236
464.938	6600
464.956	6696
465.018	6960
465.023	6902
465.091	5990
465.098	5897
465.158	5572
465.177	5419
465.226	5691
465.257	5888
465.293	5832
465.336	5774
465.361	5989
465.416	6399
465.428	6637
465.495	7940
465.496	7974
465.563	11528
465.575	12137
465.631	15749
465.654	17407
465.698	12872
465.734	8784
465.765	7804
465.813	5907
465.833	5856
465.893	6263
465.900	6265
465.968	6062
465.972	6052
466.035	6031
466.052	6001
466.102	6509
466.131	6778
466.170	6936
466.210	7082
466.237	7234
466.290	7482
466.304	7594
466.369	8011
466.372	8034
466.439	8416
466.449	8447
466.506	9163
466.528	9446
466.573	10947
466.607	12000
466.641	14827
466.687	18778
466.708	21028
466.766	27195
466.775	25784
466.842	14967
466.845	14425
466.909	11593
466.925	10904
466.977	10366
467.004	10123
467.044	10467
467.083	10810
467.111	10945
467.163	11133
467.178	11697
467.242	13974
467.245	13955
467.312	13110
467.321	12977
467.379	10916
467.400	10140
467.446	10663
467.480	11014
467.559	10940
467.638	8548
467.717	8469
467.796	8697
467.875	9115
467.955	8721
468.034	10667
468.113	20115
468.192	29394
468.271	12421
468.350	8060
468.429	7945
468.508	8025
468.588	7250
468.667	9085
468.746	12764
468.825	12062
468.904	6702
468.983	6765
469.062	8934
469.141	11778
469.220	7504
469.299	6184
469.378	6741
469.456	9517
469.535	9201
469.614	8107
469.693	7884
469.772	9222
469.851	9966
469.930	9769
470.009	7108
470.088	6789
470.166	6407
470.245	7096
470.324	7778
470.403	7312
470.482	6687
470.560	7154
470.639	6703
470.718	7159
470.797	7166
470.875	7078
470.954	11121
471.033	12716
471.111	6575
471.190	5493
471.269	5367
471.347	5764
471.426	6257
471.505	7049
471.583	7925
471.662	7467
471.740	6482
471.819	6353
471.898	5846
471.976	5950
472.055	5803
472.133	6901
472.212	7889
472.290	7554
472.369	7363
472.447	6350
472.526	4984
472.604	6793
472.683	5486
472.761	5828
472.839	5493
472.918	5254
472.996	6015
473.075	7109
473.153	6616
473.231	6048
473.310	5999
473.388	5734
473.466	5243
473.545	6902
473.623	7965
473.701	6756
473.780	6612
473.858	6803
473.936	9697
474.014	6809
474.093	6518
474.171	7835
474.249	9310
474.327	7800
474.405	4964
474.484	5166
474.562	4986
474.640	5350
474.718	6189
474.796	6914
474.874	6098
474.952	5655
475.030	5168
475.108	6450
475.187	8349
475.265	7689
475.343	6219
475.421	6601
475.499	5810
475.577	5696
475.655	6205
475.733	9353
475.811	16229
475.889	15218
475.966	13229
476.044	4356
476.122	4799
476.200	5630
476.278	5422
476.356	4398
476.434	5303
476.512	4578
476.590	5008
476.667	5792
476.745	4986
476.823	5398
476.901	3618
476.979	5453
477.056	4631
477.134	5966
477.212	7273
477.290	6049
477.367	4708
477.445	4881
477.523	3983
477.601	4373
477.678	4620
477.756	4251
477.834	5293
477.911	4289
477.989	4642
478.066	3889
478.144	5315
478.222	5500
478.299	3462
478.377	4995
478.454	4896
478.532	4622
478.609	4346
478.687	3967
478.764	4033
478.842	5138
478.919	4404
478.997	4412
479.074	4036
479.152	4414
479.229	5020
479.307	4453
479.384	3037
479.461	3548
479.539	4214
479.616	4387
479.694	3983
479.771	4552
479.848	3580
479.926	5396
480.003	5823
480.080	3728
480.157	3740
480.235	3378
480.312	3391
480.389	4157
480.467	5413
480.544	7464
480.621	6515
480.698	4279
480.775	4374
480.853	4658
480.930	3968
481.007	4491
481.084	4255
481.161	5602
481.238	5555
481.315	3496
481.392	3619
481.470	5498
481.547	5905
481.624	4563
481.701	3439
481.778	2726
481.855	4336
481.932	4843
482.009	9731
482.086	8069
482.163	3351
482.240	3967
482.317	3782
482.393	4698
482.470	3984
482.547	3519
482.624	2937
482.701	3683
482.778	4317
482.855	3084
482.932	2606
483.009	2765
483.085	3045
483.162	3435
483.239	3735
483.316	3330
483.393	2885
483.469	2533
483.546	4297
483.623	3606
483.699	3465
483.776	3945
483.853	3860
483.930	6378
484.006	11845
484.083	25201
484.160	20449
484.236	32187
484.313	28605
484.389	19267
484.466	15482
484.543	15377
484.619	15261
484.696	14594
484.772	15373
484.849	15775
484.925	13968
485.002	14201
485.078	14934
485.155	14938
485.231	13835
485.308	12393
485.384	13736
485.461	14966
485.537	18666
485.614	23381
485.690	14064
485.766	11985
485.843	12215
485.919	14262
485.995	15376
486.072	10986
486.148	11547
486.224	10886
486.301	10830
486.377	11986
486.453	13194
486.530	12984
486.606	17476
486.682	20688
486.758	19817
486.835	21446
486.911	16880
486.987	22507
487.063	24324
487.139	23571
487.215	19755
487.292	14915
487.368	13166
487.444	12255
487.520	13790
487.596	13412
487.672	13333
487.748	15787
487.824	20111
487.900	14828
487.976	11532
488.052	12409
488.128	14412
488.204	12576
488.280	12148
488.356	12574
488.432	18049
488.508	29206
488.584	15072
488.660	10142
488.736	10588
488.812	11131
488.888	12876
488.964	13373
489.039	17813
489.115	27368
489.191	22045
489.267	11628
489.343	10112
489.418	9639
489.494	8623
489.570	9843
489.646	10863
489.722	9404
489.797	9642
489.873	10556
489.949	19981
490.024	21928
490.100	9177
490.176	9196
490.251	9224
490.327	10933
490.403	9000
490.478	8443
490.554	7482
490.629	8549
490.705	7056
490.781	7858
490.856	7198
490.932	8537
491.007	8176
491.083	8482
491.158	8075
491.234	8799
491.309	14970
491.385	17605
491.460	8343
491.536	7189
491.611	7497
491.686	7156
491.762	8459
491.837	11849
491.913	19626
491.988	23098
492.063	33152
492.139	15547
492.214	10419
492.289	6353
492.365	5301
492.440	7308
492.515	6745
492.590	6523
492.666	6208
492.741	6524
492.816	10096
492.891	6675
492.967	6854
493.042	6108
493.117	8120
493.192	8319
493.267	11200
493.342	39221
493.418	75498
493.493	18610
493.568	5472
493.643	5215
493.718	6037
493.793	7987
493.868	9425
493.943	6121
494.018	5466
494.093	5023
494.168	4806
494.243	4546
494.318	5114
494.393	4909
494.468	3917
494.543	4533
494.618	4618
494.693	3990
494.768	4405
494.842	5425
494.917	4144
494.992	5207
495.067	5189
495.142	3948
495.217	4757
495.292	4615
495.366	4715
495.441	5845
495.516	7084
495.591	8694
495.665	16553
495.740	45074
495.815	29731
495.890	7346
495.964	5217
496.039	7609
496.114	6469
496.188	6063
496.263	7423
496.338	5457
496.412	6196
496.487	7477
496.561	7700
496.636	8008
496.710	7134
496.785	8026
496.860	8666
496.934	7426
497.009	7057
497.083	8168
497.158	8497
497.232	10197
497.307	10838
497.381	11072
497.455	12533
497.530	16361
497.604	14349
497.679	14660
497.753	19223
497.827	27430
497.902	30602
497.976	31628
498.050	41419
498.125	129304
498.199	196753
498.273	49164
498.348	34993
498.422	29470
498.496	25830
498.570	22570
498.645	18329
498.719	16222
498.793	16599
498.867	18956
498.941	23900
499.016	43493
499.090	149514
499.164	88075
499.238	11243
499.312	8413
499.386	8938
499.460	9575
499.534	7484
499.609	8393
499.683	12899
499.757	12854
499.831	18509
499.905	81063
499.979	117195
500.053	18655
500.127	12814
500.201	9599
500.275	7243
500.349	6350
500.422	7067
500.496	9355
500.570	15204
500.644	37714
500.718	100578
500.792	37491
500.866	7272
500.940	8131
501.013	7641
501.087	6252
501.161	9773
501.235	12771
501.309	22734
501.382	71020
501.456	92356
501.530	18064
501.603	25481
501.677	15650
501.751	4611
501.825	6570
501.898	7656
501.972	28750
502.046	27368
502.119	6370
502.193	11134
502.266	31129
502.340	23241
502.413	11403
502.487	29206
502.561	19341
502.634	6714
502.708	5006
502.781	3454
502.855	4340
502.928	3344
503.002	3331
503.075	2991
503.149	3696
503.222	4131
503.295	4494
503.369	6037
503.442	7071
503.516	15940
503.589	53403
503.662	46720
503.736	12580
503.809	21856
503.882	24865
503.956	27055
504.029	34731
504.102	9787
504.175	8606
504.249	5141
504.322	4400
504.395	5233
504.468	3134
504.542	3202
504.615	3315
504.688	3033
504.761	2586
504.834	4068
504.907	3053
504.980	5855
505.053	3966
505.127	2838
505.200	6002
505.273	4639
505.346	3234
505.419	3457
505.492	3265
505.565	2717
505.638	2147
505.711	3174
505.784	2713
505.857	1786
505.930	3189
506.003	1385
506.076	4189
506.149	4092
506.221	4044
506.294	4765
506.367	8774
506.440	38919
506.513	34222
506.586	5665
506.659	3930
506.731	2903
506.804	2979
506.877	3459
506.950	3908
507.022	2801
507.095	2972
507.168	4649
507.241	3208
507.313	2331
507.386	1346
507.459	3811
507.531	1947
507.604	2250
507.677	2847
507.749	1593
507.822	3997
507.894	6920
507.967	12358
508.040	8021
508.112	6177
508.185	5209
508.257	4833
508.330	6093
508.402	5236
508.475	4927
508.547	4939
508.620	4938
508.692	6005
508.765	5483
508.837	3383
508.909	4563
508.982	4083
509.054	4867
509.127	4292
509.199	3298
509.271	3726
509.344	3680
509.416	4109
509.488	3939
509.560	4349
509.633	4110
509.705	4065
509.777	4345
509.849	5460
509.922	4730
509.994	4397
510.066	4520
510.138	5136
510.210	11034
510.283	11024
510.355	8262
510.427	7579
510.499	6794
510.571	5610
510.643	5880
510.715	7333
510.787	6083
510.859	5731
510.931	6248
511.003	7779
511.076	8131
511.148	5905
511.219	4783
511.291	7776
511.363	8636
511.435	5652
511.507	4229
511.579	5766
511.651	5828
511.723	4488
511.795	4949
511.867	5112
511.939	5902
512.010	8445
512.082	8374
512.154	5626
512.226	4817
512.298	7335
512.369	12439
512.441	9655
512.513	8391
512.585	6260
512.656	6718
512.728	7121
512.800	5988
512.871	5835
512.943	4633
513.015	4579
513.086	5237
513.158	5802
513.230	6178
513.301	6771
513.373	8805
513.444	6036
513.516	5084
513.588	4970
513.659	5220
513.731	5506
513.802	4820
513.874	7355
513.945	10993
514.016	6986
514.088	4888
514.159	4957
514.231	6001
514.302	10016
514.374	8972
514.445	6201
514.516	11396
514.588	10761
514.659	7492
514.730	10323
514.802	11869
514.873	10400
514.944	13839
515.016	8358
515.087	7735
515.158	8703
515.229	13302
515.301	11826
515.372	17670
515.443	12663
515.514	8255
515.585	6252
515.656	6233
515.728	5188
515.799	5171
515.870	5106
515.941	4999
516.012	4828
516.083	6974
516.154	7655
516.225	7691
516.296	8223
516.367	6594
516.438	6324
516.509	6910
516.580	8307
516.651	15123
516.722	56570
516.793	49594
516.864	11011
516.935	10919
517.006	10443
517.077	11867
517.148	20202
517.219	49434
517.289	120039
517.360	60277
517.431	29755
517.502	7791
517.573	6887
517.643	6092
517.714	7428
517.785	8325
517.856	7233
517.926	8145
517.997	8731
518.068	9715
518.138	12409
518.209	14159
518.280	31596
518.350	148991
518.421	105638
518.492	14333
518.562	8063
518.633	6928
518.703	4783
518.774	8227
518.845	8516
518.915	11359
518.986	7225
519.056	7486
519.127	10988
519.197	15951
519.268	39427
519.338	44058
519.408	9117
519.479	8091
519.549	6616
519.620	5832
519.690	4936
519.760	4374
519.831	4469
519.901	5682
519.971	5267
520.042	4807
520.112	5184
520.182	5636
520.253	6298
520.323	4400
520.393	5212
520.463	9596
520.534	4980
520.604	13104
520.674	9273
520.744	5460
520.814	11705
520.885	14622
520.955	12420
521.025	52188
521.095	36086
521.165	6123
521.235	4325
521.305	3618
521.375	3867
521.445	4326
521.515	4229
521.585	5460
521.655	5670
521.725	4923
521.795	4859
521.865	2672
521.935	5768
522.005	5824
522.075	3930
522.145	4556
522.215	3801
522.285	5260
522.355	7041
522.424	12773
522.494	13336
522.564	7289
522.634	7362
522.704	22405
522.774	15189
522.843	4268
522.913	3516
522.983	3847
523.053	3237
523.122	3639
523.192	3596
523.262	8768
523.331	14073
523.401	5304
523.471	3219
523.540	3859
523.610	1902
523.680	3078
523.749	3881
523.819	3730
523.888	3635
523.958	3594
524.027	2020
524.097	3142
524.166	2195
524.236	2439
524.305	4184
524.375	2710
524.444	1751
524.514	3332
524.583	2383
524.653	3401
524.722	4187
524.791	2715
524.861	3686
524.930	2110
524.999	2539
525.069	3830
525.138	2640
525.207	3827
525.277	2978
525.346	2606
525.415	3353
525.484	3607
525.554	2800
525.623	3513
525.692	2897
525.761	3147
525.830	2292
525.900	2227
525.969	3422
526.038	4504
526.107	4397
526.176	10958
526.245	11553
526.314	6382
526.383	7941
526.452	9381
526.522	13590
526.591	22440
526.660	12258
526.729	8040
526.797	8024
526.867	10672
526.935	55066
527.004	72999
527.073	37076
527.142	5782
527.211	4116
527.280	2915
527.349	4009
527.418	986
527.487	3311
527.555	2008
527.624	982
527.693	1394
527.762	3125
527.831	599
527.899	1903
527.968	2448
528.037	1074
528.106	3385
528.174	3893
528.243	3180
528.312	4300
528.380	7068
528.449	3308
528.518	2103
528.586	988
528.655	2766
528.723	1701
528.792	1147
528.861	1749
528.929	632
528.998	2648
529.066	1125
529.135	1682
529.203	1803
529.272	193
529.340	1813
529.409	3057
529.477	1375
529.545	2099
529.614	4012
529.682	2487
529.751	3642
529.819	3953
529.887	2815
529.956	2346
530.024	2569
530.092	230
530.161	2318
530.229	3058
530.297	2313
530.365	2595
530.434	1483
530.502	1049
530.570	1796
530.638	232
530.707	1055
530.775	2746
530.843	717
530.911	1258
530.979	918
531.047	1838
531.115	2253
531.183	2024
531.252	1431
531.320	651
531.388	1958
531.456	1808
531.524	652
531.592	1905
531.660	2484
531.728	1697
531.796	545
531.864	1015
531.932	2199
532.000	1786
532.067	1437
532.135	2331
532.203	3364
532.271	2300
532.339	3073
532.407	8015
532.475	7912
532.542	4487
532.610	3771
532.678	3308
532.746	12625
532.814	50156
532.881	19914
532.949	3821
533.017	2737
533.084	2057
533.152	1500
533.220	1359
533.287	1572
533.355	2195
533.423	1222
533.490	1065
533.558	1618
533.625	2534
533.693	2246
533.761	1643
533.828	2360
533.896	1993
533.963	5062
534.031	7146
534.098	7824
534.166	4336
534.233	1834
534.300	3231
534.368	3432
534.435	1944
534.503	2447
534.570	2421
534.637	1401
534.705	1928
534.772	1803
534.840	907
534.907	5065
534.974	8529
535.041	2263
535.109	2072
535.176	1515
535.243	2259
535.310	1856
535.378	661
535.445	1187
535.512	1996
535.579	1857
535.646	1140
535.714	2144
535.781	4207
535.848	4110
535.915	3550
535.982	4022
536.049	4177
536.116	3635
536.183	2725
536.250	2754
536.317	2708
536.384	2965
536.451	3134
536.518	3750
536.585	1977
536.652	3882
536.719	4020
536.786	3512
536.853	3364
536.920	3766
536.987	6416
537.053	4304
537.120	18203
537.187	28580
537.254	3426
537.321	1988
537.388	3880
537.454	1833
537.521	1527
537.588	1669
537.654	3573
537.721	3765
537.788	3481
537.855	2090
537.921	2388
537.988	2930
538.055	1390
538.121	2570
538.188	2756
538.254	3231
538.321	5572
538.388	4864
538.454	3678
538.521	2876
538.587	2217
538.654	2160
538.720	3068
538.787	1593
538.853	2624
538.920	2795
538.986	2937
539.053	2289
539.119	2620
539.185	2444
539.252	3310
539.318	4037
539.385	3927
539.451	3545
539.517	4748
539.583	3826
539.650	5678
539.716	18685
539.782	9492
539.849	2102
539.915	3675
539.981	2590
540.047	2877
540.114	3174
540.180	2550
540.246	2400
540.312	2270
540.378	5151
540.444	7736
540.510	5653
540.576	18623
540.643	9929
540.709	2099
540.775	3181
540.841	1961
540.907	3781
540.973	6069
541.039	4647
541.105	5039
541.171	3527
541.237	2436
541.303	2536
541.369	3634
541.435	3128
541.500	5007
541.566	3511
541.632	2800
541.698	1465
541.764	2974
541.830	1797
541.896	1492
541.961	2943
542.027	2738
542.093	1865
542.159	2096
542.224	2696
542.290	4290
542.356	4480
542.421	7264
542.487	5118
542.553	2934
542.618	3120
542.684	3193
542.750	2409
542.815	3353
542.881	3988
542.947	13121
543.012	18471
543.078	3140
543.143	2632
543.209	3337
543.274	2729
543.340	3261
543.405	4741
543.471	11683
543.536	5565
543.602	3019
543.667	1498
543.732	3643
543.798	1934
543.863	3154
543.928	2696
543.994	2224
544.059	2372
544.124	2715
544.190	2585
544.255	2167
544.320	2461
544.386	2380
544.451	3486
544.516	3880
544.581	2927
544.646	8342
544.712	19531
544.777	6993
544.842	3330
544.907	3714
544.972	3038
545.037	3204
545.102	3065
545.168	2968
545.233	3719
545.298	3862
545.363	4527
545.428	4922
545.493	6730
545.558	12119
545.623	9173
545.688	3341
545.753	3706
545.818	3247
545.883	4427
545.947	3519
546.012	4027
546.077	3724
546.142	4381
546.207	1968
546.272	4546
546.337	3599
546.401	4741
546.466	3932
546.531	2619
546.596	3388
546.661	3945
546.725	3529
546.790	2649
546.855	3419
546.919	2314
546.984	3438
547.049	3897
547.113	4023
547.178	3481
547.243	4164
547.307	5028
547.372	3755
547.436	5696
547.501	3503
547.565	4348
547.630	4335
547.695	4408
547.759	5660
547.823	4503
547.888	4388
547.952	3634
548.017	4269
548.081	4605
548.146	6606
548.210	5839
548.274	3514
548.339	3251
548.403	3957
548.468	3584
548.532	3821
548.596	3799
548.660	3951
548.725	3785
548.789	3874
548.853	6194
548.917	4119
548.982	4445
549.046	6571
549.110	3241
549.174	4154
549.238	2780
549.303	3128
549.367	4254
549.431	3396
549.495	3395
549.559	3092
549.623	4404
549.687	3445
549.751	6071
549.815	4754
549.879	5694
549.943	2914
550.007	5224
550.071	4287
550.135	5104
550.199	4915
550.263	5235
550.327	4846
550.391	6037
550.455	4601
550.519	4816
550.582	4731
550.646	5621
550.710	6655
550.774	5132
550.838	4476
550.901	4941
550.965	5492
551.029	4302
551.093	5358
551.156	6583
551.220	11226
551.284	15669
551.347	8381
551.411	11928
551.475	20331
551.538	7816
551.602	4053
551.666	4488
551.729	4064
551.793	4980
551.856	3962
551.920	4272
551.983	4706
552.047	3852
552.110	4957
552.174	3409
552.237	3413
552.301	3462
552.364	4516
552.428	3964
552.491	3087
552.554	4587
552.618	4328
552.681	4561
552.745	3670
552.808	5686
552.871	6590
552.934	6107
552.998	4487
553.061	4951
553.124	4594
553.187	5077
553.251	6030
553.314	6640
553.377	7116
553.440	9450
553.503	28665
553.567	79373
553.630	22245
553.693	5485
553.756	4913
553.819	4315
553.882	3629
553.945	4273
554.008	4056
554.071	3122
554.134	3049
554.197	3206
554.260	3163
554.323	4399
554.386	3861
554.449	3691
554.512	4381
554.575	3634
554.638	3995
554.701	3448
554.764	3589
554.827	3882
554.889	2739
554.952	3113
555.015	2663
555.078	2692
555.141	3016
555.203	3266
555.266	3014
555.329	3942
555.391	2815
555.454	3083
555.517	3578
555.580	3024
555.642	2587
555.705	2568
555.768	3449
555.830	3918
555.893	2442
555.955	3257
556.018	3314
556.080	2979
556.143	3307
556.206	2745
556.268	3285
556.330	3706
556.393	3477
556.455	3453
556.518	4363
556.580	5497
556.643	4226
556.705	3506
556.767	1665
556.830	3301
556.892	2792
556.955	4275
557.017	4632
557.079	3260
557.142	3087
557.204	2397
557.266	5426
557.328	6034
557.391	2580
557.453	2543
557.515	1554
557.577	2239
557.639	3688
557.701	2605
557.764	1930
557.826	2354
557.888	3469
557.950	1796
558.012	2219
558.074	3431
558.136	4528
558.198	8021
558.260	6306
558.322	3526
558.384	3285
558.446	3918
558.508	4404
558.570	4733
558.632	5958
558.694	10897
558.756	9515
558.818	12491
558.880	48950
558.942	25139
559.003	9535
559.065	8447
559.127	3545
559.189	3556
559.251	4024
559.312	4378
559.374	7023
559.436	23650
559.498	22894
559.559	3566
559.621	4565
559.683	3478
559.744	5428
559.806	11296
559.868	23164
559.929	8306
559.991	4372
560.052	4367
560.114	8744
560.176	7983
560.237	5859
560.299	10576
560.360	4928
560.422	3501
560.483	3620
560.545	1829
560.606	3147
560.667	3071
560.729	2167
560.790	2152
560.852	3052
560.913	2871
560.974	3671
561.036	3012
561.097	3024
561.158	2923
561.220	3394
561.281	2908
561.342	2662
561.403	3995
561.465	4232
561.526	7411
561.587	12184
561.648	4716
561.709	3307
561.771	3182
561.832	2800
561.893	2733
561.954	3078
562.015	2929
562.076	3202
562.137	2447
562.198	2785
562.259	3192
562.320	2275
562.381	3338
562.442	3377
562.503	4854
562.564	3352
562.625	2920
562.686	2777
562.747	3013
562.808	4086
562.869	2957
562.930	4759
562.991	3824
563.051	4202
563.112	3466
563.173	3382
563.234	2514
563.294	2522
563.355	2741
563.416	3801
563.477	4267
563.537	3300
563.598	3912
563.659	3886
563.720	2517
563.780	4199
563.841	3361
563.901	3534
563.962	3063
564.023	3503
564.083	3415
564.144	3428
564.204	4074
564.265	2964
564.325	4730
564.386	6321
564.446	7687
564.507	3804
564.567	3224
564.628	3662
564.688	2881
564.749	2703
564.809	3811
564.869	5295
564.930	3991
564.990	4141
565.050	3175
565.111	4563
565.171	3737
565.231	3657
565.292	5048
565.352	3110
565.412	4515
565.472	4075
565.532	4071
565.593	3761
565.653	3448
565.713	3519
565.773	4907
565.833	4418
565.893	6097
565.953	5115
566.013	4853
566.074	5291
566.134	6095
566.194	8270
566.254	9076
566.314	7514
566.374	5566
566.434	6904
566.494	6638
566.554	6404
566.614	6071
566.673	6753
566.733	7308
566.793	8503
566.853	9441
566.913	9296
566.973	9707
567.033	9980
567.092	9222
567.152	9020
567.212	9092
567.272	8924
567.331	10475
567.391	10934
567.451	11944
567.511	12993
567.570	14061
567.630	11561
567.690	11022
567.749	11590
567.809	13034
567.868	15092
567.928	16143
567.988	19491
568.047	23242
568.107	29276
568.166	39944
568.226	62056
568.285	95388
568.345	92911
568.404	72960
568.464	60191
568.523	53392
568.582	51480
568.642	55069
568.701	69240
568.761	95024
568.820	154746
568.879	178937
568.939	135123
568.998	96097
569.057	71653
569.116	54837
569.176	42658
569.235	34111
569.294	28747
569.353	24176
569.413	21269
569.472	18661
569.531	15380
569.590	14534
569.649	12901
569.708	11364
569.767	11165
569.827	10775
569.886	9500
569.945	8610
570.004	8346
570.063	8110
570.122	7625
570.181	7697
570.240	6835
570.299	7969
570.358	6910
570.417	6294
570.475	6137
570.534	5336
570.593	6444
570.652	5332
570.711	5728
570.770	5208
570.829	5232
570.887	4323
570.946	5340
571.005	4266
571.064	4031
571.122	4014
571.181	4788
571.240	4775
571.299	4485
571.357	4750
571.416	4383
571.475	5123
571.533	5183
571.592	3760
571.650	4531
571.709	3299
571.768	3554
571.826	4064
571.885	4260
571.943	4053
572.002	2650
572.060	4818
572.119	3244
572.177	3669
572.236	3580
572.294	4062
572.352	3314
572.411	3262
572.469	3606
572.528	3462
572.586	3479
572.644	3366
572.703	5154
572.761	4320
572.819	3439
572.877	3295
572.936	3160
572.994	2498
573.052	3612
573.110	3143
573.169	3435
573.227	3339
573.285	2696
573.343	2526
573.401	3857
573.459	3233
573.517	2180
573.576	3558
573.634	3603
573.692	2900
573.750	2962
573.808	1920
573.866	3287
573.924	3928
573.982	3834
574.040	2889
574.098	2907
574.155	2909
574.213	3328
574.271	2913
574.329	3095
574.387	2743
574.445	2493
574.503	2645
574.560	2645
574.618	2561
574.676	2732
574.734	1939
574.792	2826
574.849	1891
574.907	2430
574.965	2632
575.022	1950
575.080	2011
575.138	2853
575.195	2502
575.253	2430
575.311	2566
575.368	2691
575.426	2615
575.483	3283
575.541	3204
575.598	2604
575.656	3113
575.713	2572
575.771	3488
575.828	3512
575.886	3306
575.943	3429
576.001	2690
576.058	3421
576.115	3063
576.173	4273
576.230	3706
576.287	4545
576.345	3463
576.402	2925
576.459	3894
576.517	2877
576.574	2999
576.631	3615
576.688	3797
576.746	2859
576.803	2997
576.860	2885
576.917	2728
576.974	3314
577.031	2968
577.089	3781
577.146	3092
577.203	2971
577.260	4268
577.317	3057
577.374	3716
577.431	4419
577.488	3889
577.545	2506
577.602	4086
577.659	3091
577.716	3425
577.773	5110
577.830	4394
577.886	4179
577.943	3284
578.000	3532
578.057	4404
578.114	4800
578.171	4405
578.227	6065
578.284	6823
578.341	6199
578.398	4790
578.454	3733
578.511	4305
578.568	5151
578.625	3843
578.681	3967
578.738	3572
578.794	3708
578.851	3507
578.908	4106
578.964	3901
579.021	4338
579.077	3895
579.134	4034
579.190	3892
579.247	3480
579.303	3177
579.360	3310
579.416	4639
579.473	3717
579.529	3281
579.586	4062
579.642	3565
579.698	3942
579.755	5192
579.811	4555
579.867	3924
579.924	3948
579.980	5163
580.036	5493
580.093	5976
580.149	9080
580.205	10565
580.261	9673
580.317	6469
580.374	6041
580.430	5792
580.486	5853
580.542	4251
580.598	5024
580.619	4921
580.654	4747
580.692	4477
580.710	4347
580.765	4968
580.767	4993
580.823	4954
580.838	4873
580.879	4672
580.911	4237
580.935	3917
580.984	3942
580.991	3953
581.047	5045
581.057	5137
581.103	5565
581.130	5406
581.159	5262
581.203	5117
581.215	5077
581.270	6167
581.276	6079
581.326	5327
581.349	4930
581.382	4262
581.422	4716
581.438	4948
581.494	4461
581.494	4459
581.550	4455
581.567	4377
581.606	4254
581.640	4516
581.661	4629
581.713	4920
581.717	4955
581.773	4714
581.786	4789
581.829	4948
581.859	4760
581.885	4655
581.932	4601
581.940	4581
581.996	5134
582.004	5105
582.052	5057
582.077	5093
582.107	5075
582.150	5003
582.163	5015
582.219	4865
582.223	4893
582.274	5144
582.296	5011
582.330	4865
582.368	5120
582.386	5216
582.441	5477
582.441	5479
582.497	6208
582.514	6019
582.552	5502
582.587	5464
582.608	5526
582.659	6381
582.663	6428
582.719	5290
582.732	5372
582.774	5868
582.805	5674
582.830	5427
582.877	5559
582.885	5597
582.941	6481
582.950	6428
582.996	5963
583.023	6107
583.052	6474
583.095	6854
583.107	6931
583.162	7527
583.168	7718
583.218	9571
583.240	9090
583.273	8114
583.313	7211
583.328	6928
583.384	6770
583.385	6762
583.439	6449
583.458	6328
583.494	6283
583.531	6331
583.549	6250
583.603	6186
583.605	6191
583.660	5850
583.676	6017
583.715	6391
583.748	6597
583.770	6770
583.820	6742
583.825	6718
583.881	6429
583.893	6409
583.936	6707
583.965	6900
583.991	6811
584.038	6441
584.046	6409
584.101	6563
584.110	6604
584.156	6842
584.183	6991
584.211	7177
584.255	7300
584.266	7291
584.321	7236
584.328	7255
584.376	7694
584.400	7933
584.431	8013
584.472	7782
584.486	7753
584.541	6794
584.545	6879
584.596	8273
584.617	8199
584.651	8266
584.689	8732
584.706	8789
584.761	8497
584.762	8498
584.816	8877
584.834	8913
584.871	8728
584.906	9098
584.926	9349
584.978	9514
584.980	9514
585.035	9886
585.051	9751
585.090	9603
585.123	9946
585.145	10143
585.195	10382
585.200	10429
585.254	11213
585.267	11507
585.309	12245
585.340	12652
585.364	13077
585.412	13076
585.419	12965
585.473	12186
585.484	12011
585.528	11795
585.556	12552
585.583	13413
585.628	14103
585.637	14556
585.692	19564
585.700	20505
585.747	25534
585.772	25769
585.801	22776
585.845	16278
585.856	15209
585.910	13951
585.917	13819
585.965	13876
585.989	13838
586.019	13709
586.061	13956
586.074	14105
586.128	14548
586.133	14619
586.183	15331
586.205	15543
586.237	15974
586.277	16256
586.292	16313
586.346	17014
586.349	17024
586.401	16729
586.421	16691
586.455	16844
586.493	17716
586.509	18586
586.564	20840
586.565	20925
586.618	25135
586.637	26508
586.672	26944
586.709	24163
586.727	22493
586.781	21133
586.781	21133
586.835	21682
586.853	22181
586.889	22795
586.925	22851
586.944	23033
586.996	24343
586.998	24366
587.052	25003
587.068	25171
587.106	26013
587.140	27037
587.161	27451
587.212	28435
587.215	28538
587.269	30786
587.284	31299
587.323	31697
587.356	32322
587.377	33094
587.427	35217
587.431	35349
587.485	37304
587.499	37724
587.539	39698
587.571	41432
587.593	42358
587.643	44768
587.648	45106
587.702	48813
587.715	49800
587.755	52342
587.786	54428
587.810	56430
587.858	61226
587.864	61717
587.917	66707
587.930	68020
587.971	73992
588.001	78441
588.025	81997
588.073	89606
588.079	90735
588.133	101518
588.145	104278
588.187	114597
588.217	122237
588.241	129585
588.288	145983
588.295	148406
588.348	170087
588.360	175203
588.402	197106
588.431	213510
588.456	229461
588.503	263861
588.510	269476
588.564	317710
588.575	329259
588.617	383623
588.646	423913
588.671	469471
588.718	566045
588.725	586401
588.778	757560
588.789	794277
588.832	979399
588.861	1101370
588.886	1167324
588.932	1242821
588.939	1228664
588.993	1041622
589.004	1029849
589.047	1161833
589.075	1240258
589.100	1198463
589.147	1034000
589.154	1005471
589.207	781952
589.218	740381
589.261	658534
589.290	613235
589.314	610636
589.361	621416
589.368	633288
589.421	750208
589.433	778347
589.475	946029
589.504	1060728
589.528	1104571
589.576	1124620
589.582	1117796
589.635	1090119
589.647	1082291
589.689	971388
589.718	854172
589.742	734798
589.790	507368
589.795	491930
589.849	364324
589.861	337068
589.902	284018
589.932	247479
589.955	227595
590.004	188211
590.009	185355
590.062	158528
590.075	152164
590.115	136579
590.146	125138
590.168	119082
590.218	106610
590.222	105741
590.275	95040
590.289	92403
590.328	86973
590.360	82900
590.381	80045
590.431	73317
590.435	72892
590.488	65561
590.503	63711
590.541	61151
590.574	58934
590.594	57192
590.645	52942
590.647	52854
590.700	50451
590.716	49804
590.753	47361
590.787	45149
590.806	44182
590.859	41488
590.859	41457
590.912	39371
590.930	38764
590.965	37846
591.001	36905
591.018	36449
591.071	35155
591.072	35132
591.124	33629
591.143	33133
591.177	31685
591.214	30050
591.230	30077
591.283	30237
591.285	30233
591.336	29249
591.356	28813
591.389	28352
591.427	27809
591.442	27468
591.495	26241
591.498	26128
591.547	24889
591.569	24422
591.600	23810
591.640	22860
591.653	23046
591.706	23878
591.711	23953
591.759	23208
591.782	22848
591.811	22846
591.853	22741
591.864	22517
591.917	21386
591.924	21189
591.969	20584
591.995	20342
592.022	20172
592.066	19712
592.075	19737
592.127	19926
592.137	19954
592.180	20365
592.208	20589
592.233	20079
592.279	19089
592.285	18886
592.338	17055
592.350	16645
592.390	16963
592.421	17191
592.443	16886
592.491	16220
592.495	16280
592.548	17065
592.562	17281
592.600	16389
592.633	15607
592.653	15434
592.704	14902
592.705	14979
592.775	14574
592.846	15962
592.916	14082
592.987	14912
593.058	13692
593.128	13606
593.199	13319
593.270	12382
593.341	12343
593.411	12719
593.482	11736
593.553	12735
593.623	12118
593.694	12114
593.764	12635
593.835	12459
593.906	11490
593.976	11236
594.047	11013
594.117	12797
594.188	11927
594.258	10878
594.329	10163
594.399	10524
594.470	10089
594.540	10084
594.611	9480
594.681	9386
594.751	9687
594.822	10264
594.892	10247
594.963	10152
595.033	9980
595.103	10222
595.174	10095
595.244	12450
595.314	16098
595.384	11099
595.455	8732
595.525	9781
595.595	9122
595.665	10007
595.736	8711
595.806	9943
595.876	8090
595.946	8493
596.016	9041
596.087	9375
596.157	8050
596.227	8681
596.297	8811
596.367	9146
596.437	8977
596.507	10985
596.577	13886
596.647	11021
596.717	7653
596.787	8638
596.857	7636
596.927	8690
596.997	7818
597.067	8715
597.137	8417
597.207	10549
597.277	8122
597.347	8929
597.417	7577
597.487	9402
597.557	8248
597.626	8361
597.696	8359
597.766	9620
597.836	11578
597.906	10454
597.975	7022
598.045	8164
598.115	6784
598.185	7840
598.254	7846
598.324	8268
598.394	8387
598.464	8411
598.533	6880
598.603	8713
598.672	7107
598.742	7691
598.812	7895
598.881	7526
598.951	7220
599.020	7322
599.090	7011
599.159	7378
599.229	6321
599.299	6408
599.368	5747
599.437	7641
599.507	6454
599.576	8428
599.646	8038
599.715	8488
599.785	7278
599.854	7410
599.924	7421
599.993	7461
600.062	6046
600.132	7498
600.201	7634
600.270	7565
600.340	7624
600.409	7381
600.478	6733
600.547	7191
600.617	7619
600.686	6772
600.755	6789
600.824	6399
600.894	6101
600.963	7108
601.032	5920
601.101	7495
601.170	6023
601.239	6160
601.308	5378
601.378	6610
601.447	5849
601.516	6079
601.585	6272
601.654	6983
601.723	6353
601.792	6107
601.861	7040
601.930	8321
601.999	7602
602.068	5967
602.137	6474
602.206	7455
602.275	6072
602.343	7258
602.412	7403
602.481	7415
602.550	5329
602.619	6312
602.688	6997
602.756	6302
602.825	6923
602.894	6139
602.963	6415
603.032	6219
603.100	5392
603.169	5882
603.238	5272
603.307	6403
603.375	5507
603.444	6142
603.513	6013
603.581	6271
603.650	6147
603.719	5927
603.787	4789
603.856	7238
603.924	4912
603.993	6907
604.061	5827
604.130	5747
604.198	6426
604.267	6261
604.335	6437
604.404	5882
604.472	5265
604.541	6266
604.609	5097
604.678	6785
604.746	5863
604.815	6813
604.883	6299
604.951	5668
605.020	6010
605.088	6592
605.156	5431
605.225	5694
605.293	5592
605.361	7107
605.429	6679
605.498	6016
605.566	6393
605.634	7275
605.702	6175
605.771	7204
605.839	6622
605.907	6556
605.975	6202
606.043	7425
606.111	6605
606.180	6604
606.248	7063
606.316	9888
606.384	6758
606.452	7709
606.520	7293
606.588	7291
606.656	5355
606.724	6696
606.792	5608
606.860	5592
606.928	4883
606.996	5874
607.064	4418
607.132	5642
607.200	4723
607.267	5829
607.335	5173
607.403	6325
607.471	4450
607.539	5589
607.607	4717
607.674	4540
607.742	4294
607.810	5511
607.878	5108
607.946	5206
608.013	4573
608.081	5505
608.149	5354
608.216	4995
608.284	5079
608.352	5213
608.419	5085
608.487	7832
608.555	6092
608.622	5753
608.690	4547
608.757	6309
608.825	5147
608.893	5620
608.960	5775
609.028	6990
609.095	7442
609.163	6486
609.230	4625
609.298	5594
609.365	4402
609.432	4588
609.500	5104
609.567	5811
609.635	5720
609.702	5814
609.769	6088
609.837	6369
609.904	5812
609.971	5883
610.039	6053
610.106	8120
610.173	13501
610.241	31225
610.308	46586
610.375	35415
610.442	10726
610.509	6233
610.577	5904
610.644	5745
610.711	4723
610.778	5704
610.845	5406
610.912	5901
610.980	6374
611.047	9755
611.114	8756
611.181	5462
611.248	5489
611.315	6029
611.382	5066
611.449	5395
611.516	5242
611.583	5870
611.650	4872
611.717	5864
611.784	5214
611.851	6170
611.918	6123
611.984	7313
612.051	9871
612.118	20565
612.185	50490
612.252	59008
612.319	12029
612.386	7414
612.452	7264
612.519	6737
612.586	7429
612.653	8672
612.719	5814
612.786	6223
612.853	4820
612.919	5046
612.986	5613
613.053	5158
613.120	4143
613.186	4772
613.253	6160
613.319	5002
613.386	4133
613.453	5297
613.519	5999
613.586	6664
613.652	7985
613.719	8291
613.785	6998
613.852	6504
613.918	5380
613.985	6426
614.051	8303
614.118	20802
614.184	33203
614.250	8814
614.317	5622
614.383	4688
614.449	4266
614.516	5346
614.582	5339
614.648	5547
614.715	4594
614.781	5211
614.847	5075
614.914	6129
614.980	5329
615.046	5451
615.112	5344
615.179	6576
615.245	7414
615.311	12155
615.377	24063
615.443	37338
615.509	20419
615.575	10302
615.642	7973
615.708	8035
615.774	8696
615.840	10489
615.906	14414
615.972	25244
616.038	54113
616.104	87647
616.170	90544
616.236	109228
616.302	27310
616.368	12021
616.434	8648
616.500	8764
616.565	7283
616.631	8831
616.697	8113
616.763	7205
616.829	8845
616.895	15812
616.961	18794
617.026	10663
617.092	5775
617.158	6038
617.224	4774
617.289	5722
617.355	5241
617.421	5976
617.487	5482
617.552	5339
617.618	4624
617.684	3905
617.749	5539
617.815	5599
617.880	4548
617.946	4576
618.012	4638
618.077	5071
618.143	4247
618.208	4468
618.274	4714
618.339	6281
618.405	4533
618.470	4678
618.536	4137
618.601	5556
618.667	4507
618.732	5257
618.798	4717
618.863	5290
618.928	4498
618.994	5562
619.059	5522
619.124	7217
619.190	6420
619.255	4895
619.320	4111
619.386	4213
619.451	3897
619.516	5093
619.581	4457
619.647	4746
619.712	4647
619.777	4500
619.842	4235
619.907	4412
619.972	4822
620.038	5289
620.103	4087
620.168	4558
620.233	3665
620.298	4271
620.363	3425
620.428	4661
620.493	3122
620.558	4661
620.623	4500
620.688	5057
620.753	4386
620.818	4399
620.883	3982
620.948	4682
621.013	3392
621.078	4763
621.143	3542
621.207	6211
621.272	3857
621.337	5909
621.402	4476
621.467	6808
621.532	7367
621.596	6238
621.661	5236
621.726	5414
621.791	3495
621.855	5326
621.920	4949
621.985	6104
622.049	6769
622.114	6879
622.179	5443
622.243	6207
622.308	5357
622.373	6744
622.437	5105
622.502	5727
622.566	4860
622.631	4489
622.695	5870
622.760	5493
622.824	4597
622.889	5095
622.953	5998
623.018	7294
623.082	8608
623.147	5293
623.211	4951
623.276	5564
623.340	4611
623.404	4913
623.469	4213
623.533	5732
623.597	4759
623.662	4936
623.726	4278
623.790	5661
623.854	4016
623.919	5576
623.983	4344
624.047	5576
624.111	4247
624.176	4763
624.240	3960
624.304	6131
624.368	4105
624.432	4981
624.496	4283
624.560	5215
624.625	4795
624.689	5298
624.753	4318
624.817	4588
624.881	4259
624.945	4081
625.009	4240
625.073	5237
625.137	4728
625.201	5724
625.265	5908
625.329	4588
625.393	5085
625.456	4890
625.520	4485
625.584	5141
625.648	6438
625.712	9076
625.776	20818
625.839	31509
625.903	18118
625.967	5412
626.031	9004
626.095	16671
626.158	8841
626.222	5241
626.286	3145
626.349	3917
626.413	3088
626.477	3984
626.540	3033
626.604	3840
626.668	4135
626.731	3252
626.795	3457
626.858	4296
626.922	2933
626.986	3774
627.049	2854
627.113	3617
627.176	3229
627.240	3481
627.303	2530
627.366	2974
627.430	3569
627.493	3127
627.557	2637
627.620	3751
627.684	2416
627.747	3284
627.810	2811
627.874	4437
627.937	1836
628.000	3394
628.064	3877
628.127	3079
628.190	2483
628.253	3549
628.317	2391
628.380	3377
628.443	1786
628.506	3164
628.569	2835
628.632	1899
628.696	2345
628.759	2513
628.822	2096
628.885	2167
628.948	2121
629.011	2974
629.074	2521
629.137	2409
629.200	2446
629.263	3777
629.326	2410
629.389	2343
629.452	2412
629.515	2913
629.578	1609
629.641	2472
629.704	2218
629.767	3406
629.830	2993
629.892	2747
629.955	1386
630.018	3875
630.081	1583
630.144	3262
630.207	2097
630.269	3478
630.332	2502
630.395	3660
630.458	2474
630.520	2094
630.583	2334
630.646	2238
630.708	2299
630.771	2201
630.834	2339
630.896	2869
630.959	1254
631.021	1766
631.084	1947
631.146	3729
631.209	2677
631.272	2739
631.334	2154
631.397	1540
631.459	2774
631.522	2448
631.584	2158
631.646	1361
631.709	1904
631.771	3469
631.834	2878
631.896	1508
631.958	1068
632.021	2302
632.083	1295
632.145	2737
632.208	1895
632.270	2464
632.332	1401
632.395	1667
632.457	2118
632.519	2007
632.581	2397
632.643	1842
632.706	855
632.768	1797
632.830	1813
632.892	1672
632.954	1210
633.016	2369
633.078	1562
633.141	1949
633.203	953
633.265	2186
633.327	1695
633.389	890
633.451	2175
633.513	2779
633.575	2099
633.637	2405
633.698	1928
633.760	2904
633.822	1070
633.884	2326
633.946	1184
634.008	2032
634.070	2272
634.132	3312
634.193	3073
634.255	2863
634.317	1141
634.379	2770
634.441	1494
634.502	2025
634.564	1574
634.626	1882
634.687	1996
634.749	1769
634.811	1455
634.873	1760
634.934	1649
634.996	1906
635.057	919
635.119	1581
635.181	751
635.242	1722
635.304	274
635.365	3160
635.427	396
635.488	2004
635.550	803
635.611	2105
635.673	-125
635.734	2553
635.796	1321
635.857	2838
635.918	1376
635.980	1838
636.041	1403
636.102	1807
636.164	1335
636.225	1880
636.286	364
636.348	1697
636.409	1045
636.470	608
636.531	883
636.593	2381
636.654	1291
636.715	1543
636.776	1080
636.838	968
636.899	1661
636.960	613
637.021	153
637.082	1716
637.143	1284
637.204	1567
637.265	111
637.326	1167
637.387	975
637.448	1061
637.509	1351
637.570	1591
637.631	1253
637.692	1210
637.753	-175
637.814	1206
637.875	338
637.936	1792
637.997	889
638.058	1118
638.119	1089
638.179	1211
638.240	1024
638.301	2077
638.362	155
638.423	777
638.483	1019
638.544	770
638.605	1089
638.666	-661
638.726	952
638.787	1800
638.848	978
638.908	774
638.969	594
639.030	1263
639.090	412
639.151	1231
639.211	994
639.272	1379
639.332	2013
639.393	2664
639.453	451
639.514	256
639.574	1286
639.635	988
639.695	1398
639.756	707
639.816	330
639.877	1365
639.937	1702
639.997	3654
640.058	1346
640.118	993
640.178	1893
640.239	958
640.299	278
640.359	1107
640.420	256
640.480	1259
640.540	1241
640.600	471
640.661	1138
640.721	612
640.781	1950
640.841	1101
640.901	1458
640.961	1025
641.021	328
641.082	1757
641.142	1260
641.202	2235
641.262	-705
641.322	1352
641.382	-257
641.442	769
641.502	1051
641.562	1458
641.622	903
641.682	572
641.742	-236
641.802	771
641.861	230
641.921	983
641.981	1233
642.041	1849
642.101	977
642.161	221
642.221	160
642.280	339
642.340	133
642.400	305
642.460	103
642.519	555
642.579	70
642.639	934
642.698	-1248
642.758	2254
642.818	353
642.877	101
642.937	838
642.997	1809
643.056	1306
643.116	506
643.175	1224
643.235	673
643.294	1108
643.354	711
643.414	718
643.473	1544
643.532	1173
643.592	1348
643.651	1726
643.711	5085
643.770	7890
643.830	17850
643.889	55483
643.948	31919
644.008	2365
644.067	2030
644.126	243
644.186	645
644.245	1168
644.304	118
644.363	1047
644.423	140
644.482	341
644.541	627
644.600	-822
644.659	1017
644.719	-513
644.778	1986
644.837	976
644.896	3076
644.955	8004
645.014	5578
645.073	2054
645.132	1236
645.191	538
645.250	351
645.309	715
645.368	971
645.427	888
645.486	494
645.545	1618
645.604	939
645.663	426
645.722	204
645.781	-123
645.840	1120
645.898	-128
645.957	1468
646.016	480
646.075	4418
646.134	6943
646.192	15775
646.251	41632
646.310	12804
646.369	1098
646.427	760
646.486	216
646.545	443
646.603	29
646.662	431
646.721	35
646.779	381
646.838	-965
646.896	637
646.955	482
647.014	562
647.072	1298
647.131	3798
647.189	3048
647.248	759
647.306	492
647.365	954
647.423	-499
647.481	1667
647.540	-1276
647.598	531
647.657	-537
647.715	1336
647.773	-420
647.832	835
647.890	-621
647.948	509
648.007	404
648.065	-430
648.123	-186
648.181	1342
648.240	119
648.298	993
648.356	175
648.414	940
648.472	448
648.531	1511
648.589	64
648.647	884
648.705	420
648.763	565
648.821	214
648.879	-154
648.937	-374
648.995	728
649.053	-279
649.111	928
649.169	1433
649.227	3085
649.285	3533
649.343	14429
649.401	16359
649.459	5350
649.516	4865
649.574	2467
649.632	6627
649.690	13633
649.748	4277
649.806	2582
649.863	6418
649.921	5298
649.979	2875
650.037	1201
650.094	-538
650.152	-10
650.210	-111
650.268	676
650.325	67
650.383	826
650.440	-13
650.498	762
650.556	165
650.613	252
650.671	320
650.728	-85
650.786	-8
650.843	-378
650.901	-1711
650.958	528
651.016	100
651.073	-153
651.131	-711
651.188	-547
651.246	-21
651.303	-607
651.360	410
651.418	-67
651.475	286
651.532	-766
651.590	207
651.647	551
651.704	-553
651.762	285
651.819	57
651.876	-25
651.933	182
651.990	-424
652.048	-366
652.105	-486
652.162	-496
652.219	-370
652.276	-866
652.333	776
652.390	-1401
652.448	-143
652.505	-78
652.562	414
652.619	-199
652.676	958
652.733	2627
652.790	564
652.847	-1370
652.904	609
652.961	-665
653.017	-754
653.074	-228
653.131	270
653.188	-1201
653.245	61
653.302	-71
653.359	-692
653.415	442
653.472	-632
653.529	-46
653.586	-1092
653.642	-391
653.699	681
653.756	-328
653.813	-7
653.869	-322
653.926	-294
653.983	-1471
654.039	411
654.096	-20
654.152	550
654.209	-1407
654.266	18
654.322	-559
654.379	465
654.435	-285
654.492	541
654.548	313
654.605	1335
654.661	1509
654.717	-153
654.774	-778
654.830	-644
654.887	-519
654.943	531
655.000	490
655.056	-590
655.112	-531
655.168	-1036
655.225	134
655.281	-1043
655.337	-312
655.394	1311
655.450	718
655.506	1128
655.562	1071
655.618	3128
655.675	-485
655.731	440
655.787	-1018
655.843	972
655.899	156
655.955	1288
656.011	-451
656.067	-797
656.123	838
656.179	173
656.235	714
656.291	381
656.347	1936
656.403	-58
656.459	222
656.515	944
656.571	-134
656.627	315
656.683	-147
656.739	628
656.795	-162
656.850	-94
656.906	-281
656.962	1417
657.018	-1060
657.074	323
657.129	-908
657.185	568
657.241	-413
657.297	427
657.352	258
657.408	-630
657.464	-29
657.519	-49
657.575	-933
657.630	-440
657.686	-361
657.742	-858
657.797	-60
657.853	-925
657.908	-67
657.964	-598
658.019	-855
658.075	581
658.130	-59
658.186	-747
658.241	-96
658.297	-540
658.352	-1245
658.407	-48
658.463	-884
658.518	57
658.573	-346
658.629	-221
658.684	-386
658.739	41
658.795	-527
658.850	427
658.905	-998
658.960	-33
659.016	-934
659.071	176
659.126	-569
659.181	-526
659.236	-54
659.291	1678
659.346	201
659.401	-140
659.457	267
659.512	857
659.567	762
659.622	138
659.677	-374
659.732	-552
659.787	-614
659.842	1
659.897	-195
659.952	-33
660.007	-556
660.061	97
660.116	-521
660.171	-524
660.226	-673
660.281	400
660.336	-924
660.391	92
660.445	-670
660.500	-161
660.555	-347
660.610	-154
660.664	129
660.719	-304
660.774	-748
660.828	495
660.883	175
660.938	-24
660.992	-1144
661.047	139
661.101	-1235
661.156	75
661.211	-705
661.265	-668
661.320	-690
661.374	380
661.429	-392
661.483	197
661.538	-908
661.592	-51
661.647	-1098
661.701	-61
661.755	-813
661.810	-94
661.864	-1152
661.919	435
661.973	-522
662.027	-802
662.081	-1303
662.136	-644
662.190	-845
662.244	68
662.299	-275
662.353	271
662.407	-224
662.461	-343
662.515	-179
662.569	-719
662.624	-104
662.678	-529
662.732	-400
662.786	319
662.840	-759
662.894	785
662.948	-1010
663.002	32
663.056	-977
663.110	-192
663.164	-388
663.218	-394
663.272	-1442
663.326	180
663.380	-661
663.434	-313
663.488	-1379
663.542	128
663.595	-808
663.649	-618
663.703	98
663.757	-355
663.811	-1313
663.864	-490
663.918	-883
663.972	-683
664.026	-1072
664.079	-303
664.133	31
664.187	519
664.240	-842
664.294	-842
664.348	-16
664.401	-363
664.455	-118
664.508	296
664.562	-643
664.615	-219
664.669	-795
664.722	-633
664.776	-847
664.829	-253
664.883	-780
664.936	-573
664.990	-553
665.043	-354
665.097	-1696
665.150	62
665.203	-1098
665.257	-764
665.310	86
665.363	-103
665.417	11
665.470	-199
665.523	-949
665.576	-337
665.630	-824
665.683	-636
665.736	-170
665.789	115
665.842	-1019
665.895	-674
665.949	-734
666.002	-472
666.055	-411
666.108	48
666.161	-290
666.214	-280
666.267	65
666.320	-667
666.373	4
666.426	42
666.479	-1080
666.532	-15
666.585	-1085
666.638	-295
666.691	-602
666.744	786
666.796	-701
666.849	-485
666.902	-151
666.955	-1305
667.008	-859
667.060	-2
667.113	-837
667.166	-103
667.219	-1273
667.271	-182
667.324	-854
667.377	-571
667.430	-475
667.482	79
667.535	-594
667.587	-37
667.640	91
667.693	-751
667.745	209
667.798	1575
667.850	-771
667.903	-655
667.955	-1120
668.008	-275
668.060	-827
668.113	-216
668.165	-486
668.218	-155
668.270	-968
668.322	-280
668.375	-463
668.427	-299
668.479	-989
668.532	34
668.584	-661
668.636	-419
668.689	-1231
668.741	-538
668.793	-620
668.845	-619
668.898	-246
668.950	-196
669.002	-604
669.054	72
669.106	-1973
669.158	812
669.211	-606
669.263	-832
669.315	-329
669.367	244
669.419	-888
669.471	1152
669.523	262
669.575	1527
669.627	143
669.679	-67
669.731	42
669.783	452
669.835	69
669.886	311
669.938	97
669.990	320
670.042	-408
670.094	-34
670.146	-537
670.197	378
670.249	133
670.301	1326
670.353	2224
670.404	4337
670.456	4957
670.508	9610
670.560	16026
670.611	31493
670.663	54620
670.715	109223
670.766	258771
670.818	166083
670.869	24805
670.921	8449
670.972	3426
671.024	2781
671.075	2443
671.127	1579
671.178	449
671.230	279
671.281	513
671.333	492
671.384	-177
671.436	-49
671.487	550
671.538	554
671.590	-417
671.641	874
671.692	43
671.744	862
671.795	2090
671.846	727
671.897	-206
671.949	347
672.000	396
672.051	-24
672.102	59
672.153	-932
672.204	-396
672.256	-377
672.307	-484
672.358	-264
672.409	146
672.460	43
672.511	-1196
672.562	-486
672.613	-210
672.664	-563
672.715	-636
672.766	-162
672.817	-207
672.868	205
672.919	-470
672.970	-662
673.021	-544
673.071	-441
673.122	-1171
673.173	-436
673.224	-812
673.275	64
673.326	-1142
673.376	68
673.427	-1412
673.478	-60
673.528	-1429
673.579	-273
673.630	-78
673.680	400
673.731	-923
673.782	-623
673.832	-532
673.883	-386
673.934	-1750
673.984	295
674.035	-378
674.085	-69
674.136	-681
674.186	75
674.237	-509
674.287	-68
674.338	383
674.388	-737
674.438	-1610
674.489	-14
674.539	-852
674.589	-150
674.640	-635
674.690	179
674.740	-2060
674.791	-279
674.841	-1002
674.891	-613
674.942	-824
674.992	-705
675.042	-1469
675.092	-835
675.142	-734
675.193	-369
675.243	-900
675.293	-1135
675.343	-1630
675.393	-1247
675.443	-286
675.493	-472
675.543	-1226
675.593	507
675.643	-385
675.693	-1060
675.743	-559
675.793	341
675.843	-1182
675.893	-670
675.943	-931
675.993	-515
676.043	-823
676.093	755
676.142	-1406
676.192	-817
676.242	-875
676.292	-1006
676.341	-1433
676.391	-309
676.441	-241
676.491	-647
676.540	-1535
676.590	-506
676.640	-1575
676.689	-701
676.739	-1627
676.789	-902
676.838	-700
676.888	-704
676.937	-1450
676.987	-741
677.037	-1244
677.086	-791
677.136	-2091
677.185	-544
677.235	-569
677.284	-1078
677.333	-1562
677.383	-986
677.432	-1530
677.482	-636
677.531	-173
677.580	-1252
677.630	-1586
677.679	-1155
677.728	-1206
677.778	-430
677.827	-653
677.876	-411
677.925	-1101
677.975	-577
678.024	-1544
678.073	-1151
678.122	-580
678.171	-911
678.220	-1208
678.269	-788
678.319	-1422
678.368	-1269
678.417	-1722
678.466	301
678.515	-852
678.564	-796
678.613	-1351
678.662	-1060
678.711	-584
678.760	-610
678.809	-844
678.857	-918
678.906	-1006
678.955	-1143
679.004	-177
679.053	-944
679.102	-1629
679.151	-42
679.199	-1099
679.248	-1219
679.297	-905
679.346	-544
679.394	-1095
679.443	-571
679.492	-904
679.540	247
679.589	-1467
679.638	-516
679.686	-1552
679.735	-382
679.784	-1678
679.832	-571
679.881	-1658
679.929	-1044
679.978	-1756
680.026	-735
680.075	-953
680.123	-806
680.172	-692
680.220	-1167
680.268	-1159
680.317	-1786
680.365	-819
680.414	-671
680.462	-1458
680.510	-640
680.559	-1370
680.607	-1236
680.655	-844
680.703	-1190
680.752	-1461
680.800	-577
680.848	-1922
680.896	-319
680.945	-974
680.993	-650
681.041	-1307
681.089	-613
681.137	-1301
681.185	-1432
681.233	-1875
681.258	-1261
681.281	-700
681.329	-1857
681.377	-950
681.380	-919
681.425	-722
681.473	-20
681.502	-691
681.521	-1193
681.569	-512
681.617	-991
681.624	-958
681.665	-873
681.713	-622
681.745	-645
681.761	-691
681.809	-910
681.857	275
681.867	-36
681.904	-1192
681.952	462
681.989	-607
682.000	-952
682.048	-147
682.096	-818
682.111	-681
682.143	-451
682.191	-776
682.233	106
682.239	216
682.286	-299
682.334	-263
682.354	-531
682.382	-909
682.430	383
682.476	-432
682.477	-467
682.525	764
682.572	326
682.598	-220
682.620	-707
682.667	-544
682.715	853
682.720	754
682.763	-344
682.810	539
682.841	58
682.857	-216
682.905	658
682.952	-319
682.963	-147
683.000	398
683.047	124
683.085	795
683.095	960
683.142	77
683.190	686
683.206	510
683.237	85
683.284	557
683.328	605
683.332	603
683.379	591
683.426	59
683.449	558
683.473	1042
683.521	1090
683.568	1311
683.571	1272
683.615	540
683.662	1784
683.693	985
683.709	526
683.757	1123
683.804	851
683.814	881
683.851	948
683.898	692
683.936	887
683.945	930
683.992	1086
684.039	1557
684.057	1295
684.086	866
684.133	1464
684.179	726
684.180	685
684.227	1874
684.274	1071
684.300	1317
684.321	1508
684.368	687
684.415	1359
684.422	1334
684.462	1120
684.509	1707
684.543	1467
684.556	1358
684.603	1826
684.649	1201
684.665	1436
684.696	1934
684.743	1278
684.786	1935
684.790	1985
684.837	1299
684.883	2802
684.908	2414
684.930	2056
684.977	2457
685.023	2329
685.029	2349
685.070	2232
685.117	1820
685.150	1991
685.164	2097
685.210	2245
685.257	2931
685.272	2850
685.303	2546
685.350	2659
685.393	2339
685.396	2321
685.443	2495
685.490	2578
685.514	2716
685.536	2769
685.583	2150
685.629	2629
685.636	2623
685.675	2500
685.722	2985
685.757	2900
685.768	2898
685.815	3054
685.861	2835
685.878	2874
685.908	2888
685.954	3127
686.000	3322
686.000	3323
686.047	2977
686.093	3606
686.121	3453
686.139	3236
686.185	3341
686.232	3034
686.242	3105
686.278	3288
686.324	3559
686.363	3669
686.370	3689
686.416	2642
686.463	3936
686.484	3380
686.509	2801
686.555	3142
686.601	3055
686.606	3137
686.647	3895
686.693	3596
686.727	3597
686.739	3577
686.785	3172
686.831	3584
686.848	3477
686.877	3273
686.923	4221
686.969	3642
686.969	3638
687.015	3592
687.061	3032
687.090	3454
687.107	3682
687.153	3461
687.199	3111
687.211	3005
687.245	2905
687.291	3730
687.332	3447
687.336	3415
687.382	4158
687.428	4215
687.453	4506
687.474	4583
687.520	3871
687.565	3673
687.574	3584
687.611	3608
687.657	3583
687.695	4040
687.702	4108
687.748	4721
687.794	4055
687.816	4367
687.839	4654
687.885	4575
687.931	4480
687.937	4466
687.976	4131
688.022	3992
688.058	4089
688.067	4188
688.113	4032
688.158	3885
688.179	4235
688.204	4567
688.249	4156
688.295	4069
688.300	4033
688.340	3909
688.386	4464
688.421	4361
688.431	4333
688.477	4487
688.522	4667
688.542	4581
688.567	4491
688.613	4702
688.658	5018
688.663	4966
688.703	4468
688.749	4792
688.784	4413
688.794	4316
688.839	5000
688.884	4598
688.905	4669
688.930	4812
688.975	4627
689.020	4570
689.026	4559
689.065	4578
689.110	5091
689.146	4394
689.155	4190
689.201	5023
689.246	4454
689.267	4540
689.291	4796
689.336	4768
689.381	4966
689.388	5008
689.426	4882
689.471	4732
689.509	4260
689.516	4258
689.561	4444
689.606	4099
689.630	4605
689.651	5003
689.696	4697
689.741	4848
689.750	4832
689.785	4859
689.830	5076
689.871	5025
689.875	5002
689.920	5141
689.965	4802
689.992	4703
690.010	4771
690.054	4871
690.099	5118
690.112	5175
690.144	5374
690.189	5282
690.233	5427
690.233	5438
690.278	5763
690.323	5816
690.354	6073
690.367	6168
690.412	5973
690.457	6459
690.474	6444
690.501	6388
690.546	6704
690.590	6669
690.595	6630
690.635	6766
690.680	7090
690.716	7607
690.724	7784
690.769	8100
690.813	9004
690.836	9269
690.857	10091
690.902	11937
690.946	13530
690.957	14026
690.991	19246
691.035	25712
691.077	32730
691.080	33145
691.124	38917
691.168	44806
691.198	48350
691.213	45435
691.257	37121
691.301	28215
691.318	24877
691.346	22138
691.390	17511
691.434	12880
691.439	12349
691.478	11375
691.522	10375
691.559	9062
691.567	8940
691.611	8941
691.655	7925
691.680	7799
691.699	7874
691.743	7813
691.787	7356
691.800	7224
691.831	7041
691.875	7238
691.919	7168
691.921	7150
691.964	7301
692.008	7210
692.041	7489
692.052	7518
692.096	7087
692.139	7215
692.162	6864
692.183	6688
692.227	7115
692.271	7007
692.282	7002
692.315	7101
692.359	7344
692.402	7499
692.403	7519
692.447	7799
692.490	8120
692.523	8132
692.534	8033
692.578	8057
692.622	7346
692.643	7344
692.666	7382
692.709	7062
692.753	7119
692.763	6983
692.797	6936
692.840	7337
692.884	7130
692.884	7148
692.928	7731
692.971	7821
693.004	8052
693.015	8185
693.059	8167
693.102	8513
693.124	8651
693.146	8703
693.189	8785
693.233	8881
693.245	8876
693.276	9253
693.320	9617
693.363	10290
693.365	10278
693.407	11000
693.450	11828
693.485	12459
693.493	12809
693.537	14968
693.580	16355
693.605	17438
693.624	19532
693.667	24164
693.710	29132
693.725	30734
693.753	40461
693.797	55615
693.840	71064
693.845	72836
693.883	85211
693.926	98228
693.966	110232
693.970	108451
694.013	87201
694.056	66514
694.086	51704
694.099	48588
694.142	38660
694.185	28788
694.206	23921
694.229	22225
694.272	19017
694.315	15833
694.326	14948
694.358	14186
694.401	13173
694.444	11999
694.446	11931
694.487	11582
694.530	10668
694.566	10257
694.573	10270
694.616	9689
694.659	9502
694.686	9269
694.702	9182
694.745	9012
694.787	8526
694.806	8446
694.830	8466
694.873	8152
694.916	8011
694.926	7878
694.959	7824
695.002	8325
695.044	8267
695.046	8257
695.087	8384
695.130	8134
695.166	8154
695.172	8193
695.215	8156
695.258	8228
695.286	7987
695.301	7946
695.343	8370
695.386	8398
695.406	8396
695.428	8241
695.471	7985
695.514	7795
695.526	7669
695.556	7809
695.599	8190
695.641	8165
695.646	8201
695.684	8297
695.726	7800
695.766	7729
695.769	7759
695.811	7590
695.854	7662
695.886	7444
695.896	7482
695.938	7674
695.981	7964
696.005	8096
696.023	8064
696.065	7956
696.108	7904
696.125	7760
696.150	7876
696.192	8215
696.235	8341
696.245	8447
696.277	8373
696.319	7923
696.361	7540
696.365	7480
696.404	7923
696.446	8522
696.485	8938
696.488	8971
696.530	9134
696.572	9220
696.604	9347
696.614	9339
696.656	8984
696.698	8914
696.724	8715
696.740	8673
696.783	8510
696.825	8411
696.844	8352
696.867	8436
696.909	8445
696.951	8595
696.964	8576
696.992	8407
697.034	8172
697.076	7889
697.083	7831
697.118	8099
697.160	8317
697.202	8585
697.203	8563
697.244	8166
697.286	7993
697.323	7561
697.327	7576
697.369	7675
697.411	7604
697.442	7654
697.453	7729
697.494	7749
697.536	8014
697.562	8024
697.578	8129
697.620	8454
697.661	8791
697.682	8892
697.703	8727
697.744	8334
697.786	8077
697.801	7880
697.828	8221
697.869	8886
697.911	9491
697.921	9623
697.952	9214
697.994	8558
698.035	7994
698.040	7894
698.077	7906
698.118	7915
698.160	7886
698.160	7862
698.201	8063
698.243	8193
698.279	8353
698.284	8409
698.325	8663
698.367	8944
698.399	9100
698.408	9002
698.449	8463
698.491	7902
698.518	7501
698.532	7597
698.573	7820
698.614	8050
698.638	8148
698.656	8123
698.697	8047
698.738	7911
698.757	7840
698.779	7942
698.820	8062
698.862	8212
698.877	8234
698.903	8506
698.944	8912
698.985	9315
698.996	9400
699.026	9276
699.067	9063
699.116	8784
699.235	8788
699.354	8557
699.474	7902
699.593	8732
699.713	9319
699.832	7909
699.951	9270
700.070	9272
700.190	7941
700.309	8662
700.428	9201
700.547	8580
700.667	8427
700.786	8246
700.905	8859
701.024	7656
701.143	7861
701.262	7364
701.381	7870
701.500	7343
701.619	8396
701.738	7472
701.857	7597
701.976	7164
702.095	7189
702.214	7479
702.333	8627
702.452	7928
702.571	7031
702.690	7600
702.809	6629
702.928	7003
703.047	6820
703.165	6766
703.284	7062
703.403	7164
703.522	7148
703.640	8534
703.759	7364
703.878	10224
703.997	8459
704.115	7103
704.234	6443
704.353	7027
704.471	7025
704.590	6887
704.708	7320
704.827	6401
704.946	7276
705.064	7214
705.183	7029
705.301	7172
705.420	10516
705.538	11095
705.656	9429
705.775	9444
705.893	15334
706.012	31405
706.130	11967
706.249	8943
706.367	9591
706.485	8773
706.604	9056
706.722	9368
706.840	9836
706.958	10737
707.077	10527
707.195	9007
707.313	9006
707.431	8449
707.549	7906
707.668	7975
707.786	8781
707.904	7783
708.022	7727
708.140	7255
708.258	7394
708.376	8063
708.494	7824
708.612	6989
708.730	10204
708.848	11646
708.966	9741
709.084	9293
709.202	8400
709.320	9662
709.438	8796
709.556	9164
709.674	9436
709.791	9676
709.909	8752
710.027	8815
710.145	8714
710.263	8832
710.380	8869
710.498	9300
710.616	9033
710.733	9255
710.851	9600
710.969	9949
711.086	8664
711.204	8402
711.322	8644
711.439	8815
711.557	8235
711.674	9076
711.792	8221
711.909	9778
712.027	11782
712.144	9691
712.262	7979
712.379	8349
712.497	10445
712.614	13062
712.732	10921
712.849	9937
712.966	9943
713.084	11945
713.201	11046
713.318	10091
713.436	10059
713.553	10335
713.670	10098
713.787	10417
713.905	10960
714.022	9368
714.139	9356
714.256	10155
714.373	10131
714.490	11550
714.608	14591
714.725	35519
714.842	82656
714.959	16444
715.076	9217
715.193	8066
715.310	8665
715.427	8303
715.544	8058
715.661	8129
715.778	8588
715.895	9351
716.011	9809
716.128	8438
716.245	7612
716.362	9271
716.479	9984
716.596	8317
716.713	8256
716.829	7910
716.946	8722
717.063	8057
717.180	7693
717.296	7875
717.413	8157
717.530	7824
717.646	8201
717.763	7581
717.880	7832
717.996	7067
718.113	7543
718.229	6681
718.346	7946
718.462	7918
718.579	7671
718.695	9301
718.812	10864
718.928	8995
719.045	9085
719.161	7074
719.277	7264
719.394	6671
719.510	7182
719.626	6656
719.743	8222
719.859	7580
719.975	8371
720.092	11890
720.208	30919
720.324	15537
720.440	7169
720.557	7273
720.673	9111
720.789	12404
720.905	23940
721.021	20288
721.137	7313
721.253	6926
721.369	6447
721.486	8025
721.602	9763
721.718	7463
721.834	6326
721.950	6155
722.066	6529
722.181	5451
722.297	6202
722.413	6827
722.529	5706
722.645	6501
722.761	6234
722.877	6567
722.993	6028
723.108	6037
723.224	6071
723.340	5508
723.456	5284
723.571	5900
723.687	5310
723.803	5601
723.918	6248
724.034	6083
724.150	5758
724.265	6601
724.381	9014
724.497	17605
724.612	6717
724.728	5382
724.843	5586
724.959	6369
725.074	9432
725.190	15890
725.305	7138
725.421	6404
725.536	6034
725.651	5724
725.767	5081
725.882	5339
725.997	5052
726.113	5332
726.228	5451
726.343	4886
726.459	3889
726.574	4636
726.689	4120
726.804	5184
726.920	5792
727.035	4902
727.150	5145
727.265	4957
727.380	5364
727.495	5675
727.610	4187
727.725	5047
727.841	5552
727.956	9119
728.071	14477
728.186	6147
728.301	5092
728.416	4642
728.531	4237
728.645	5272
728.760	4425
728.875	4353
728.990	4624
729.105	5016
729.220	5145
729.335	5388
729.449	4443
729.564	3957
729.679	4118
729.794	3946
729.908	4517
730.023	4631
730.138	4245
730.253	4478
730.367	3756
730.482	3539
730.596	4019
730.711	4522
730.826	4234
730.940	4356
731.055	4275
731.169	2531
731.284	4032
731.398	3885
731.513	4935
731.627	4488
731.742	4407
731.856	5359
731.970	4530
732.085	3771
732.199	3623
732.313	4170
732.428	5083
732.542	11390
732.656	13624
732.771	4976
732.885	4148
732.999	3933
733.113	4436
733.227	3841
733.342	4050
733.456	3512
733.570	3400
733.684	3346
733.798	4239
733.912	3767
734.026	2797
734.140	3349
734.254	3071
734.368	4407
734.482	8991
734.596	4473
734.710	3779
734.824	2993
734.938	3327
735.052	3140
735.166	3917
735.280	4650
735.393	3651
735.507	3178
735.621	3943
735.735	6672
735.849	5962
735.962	2997
736.076	3810
736.190	3573
736.303	3730
736.417	7090
736.531	3228
736.644	3265
736.758	2665
736.872	4095
736.985	2527
737.099	3633
737.212	2953
737.326	3293
737.439	3569
737.553	3198
737.666	3535
737.780	2784
737.893	2168
738.007	2888
738.120	2460
738.233	2912
738.347	3201
738.460	3589
738.573	2787
738.687	3220
738.800	3414
738.913	3569
739.026	3426
739.140	3048
739.253	3774
739.366	3168
739.479	2541
739.592	3213
739.705	3845
739.818	2985
739.932	3527
740.045	2754
740.158	3471
740.271	3004
740.384	2763
740.497	3412
740.610	4149
740.723	2909
740.836	3572
740.949	3346
741.062	3660
741.174	3908
741.287	2918
741.400	3151
741.513	3047
741.626	3463
741.739	3224
741.851	3015
741.964	2392
742.077	2256
742.189	3180
742.302	3879
742.415	4041
742.527	3106
742.640	2991
742.753	2358
742.865	3304
742.978	2322
743.090	3186
743.203	2867
743.316	2925
743.428	2398
743.541	2688
743.653	2643
743.766	2677
743.878	2800
743.990	2884
744.103	4502
744.215	5092
744.327	2513
744.440	2870
744.552	4001
744.664	3728
744.777	2270
744.889	2314
745.001	2925
745.113	2657
745.226	2742
745.338	2945
745.450	2434
745.562	2623
745.674	2660
745.786	2718
745.898	3059
746.010	3242
746.122	2987
746.234	2874
746.347	2721
746.459	3040
746.570	2498
746.682	3457
746.794	4960
746.906	3083
747.018	2862
747.130	2726
747.242	2615
747.354	2920
747.466	2858
747.577	2332
747.689	2199
747.801	3207
747.913	1998
748.024	2970
748.136	2732
748.248	1905
748.359	2589
748.471	2665
748.583	2382
748.694	2808
748.806	4334
748.918	3444
749.029	3111
749.141	3049
749.252	2371
749.364	2854
749.475	3594
749.587	3665
749.698	3515
749.809	2255
749.921	2633
750.032	2208
750.144	2158
750.255	2774
750.366	2739
750.478	2462
750.589	2862
750.700	2160
750.811	2822
750.923	2808
751.034	4154
751.145	5990
751.256	2390
751.367	3009
751.479	2778
751.590	2456
751.701	2976
751.812	3358
751.923	2398
752.034	3103
752.145	2600
752.256	2848
752.367	1945
752.478	2298
752.589	2462
752.700	2646
752.811	2106
752.922	3239
753.032	2717
753.143	2944
753.254	2711
753.365	3051
753.476	2543
753.586	2663
753.697	1647
753.808	3156
753.919	1897
754.029	2369
754.140	2384
754.251	2759
754.361	829
754.472	3194
754.582	2567
754.693	2213
754.804	3103
754.914	2681
755.025	2225
755.135	2176
755.246	2245
755.356	2170
755.466	2850
755.577	2367
755.687	2445
755.798	3545
755.908	2870
756.018	2507
756.129	2339
756.239	3430
756.349	3047
756.460	2433
756.570	3319
756.680	3143
756.790	3059
756.900	3399
757.011	2955
757.121	2551
757.231	3006
757.341	3899
757.451	2811
757.561	2768
757.671	2923
757.781	2650
757.891	3195
758.001	2681
758.111	3140
758.221	3060
758.331	3392
758.441	3155
758.551	2521
758.661	4071
758.771	3565
758.880	3673
758.990	3588
759.100	3095
759.210	3025
759.320	4113
759.429	4093
759.539	3387
759.649	3312
759.758	3481
759.868	3931
759.978	3215
760.087	4505
760.197	3702
760.307	3290
760.416	4471
760.526	4165
760.635	4820
760.745	4184
760.854	3674
760.964	5130
761.073	5328
761.182	4895
761.292	5429
761.401	4954
761.511	4525
761.620	5167
761.729	5208
761.839	5455
761.948	5899
762.057	5626
762.166	5789
762.276	5825
762.385	6002
762.494	6769
762.603	6596
762.712	6746
762.822	6757
762.931	6656
763.040	7055
763.149	7844
763.258	8298
763.367	7823
763.476	8371
763.585	9366
763.694	9894
763.803	9885
763.912	10827
764.021	10877
764.130	11857
764.238	12971
764.347	13557
764.456	13837
764.565	15063
764.674	16701
764.783	18445
764.891	20169
765.000	22888
765.109	26483
765.217	29149
765.326	34205
765.435	41822
765.543	50264
765.652	60899
765.761	78795
765.869	105406
765.978	147769
766.086	218422
766.195	341077
766.303	542250
766.412	676168
766.520	521117
766.629	633877
766.737	465597
766.846	287365
766.954	188643
767.062	133303
767.171	98879
767.279	74809
767.387	57120
767.496	47373
767.604	40585
767.712	34524
767.820	29954
767.928	27900
768.037	26267
768.145	24366
768.253	23037
768.361	22503
768.469	21978
768.577	21626
768.685	22846
768.793	24115
768.901	26653
769.009	29798
769.117	35144
769.225	44647
769.333	58907
769.441	87651
769.549	140907
769.657	250389
769.765	460878
769.873	580499
769.981	529279
770.088	392137
770.196	205858
770.304	123272
770.412	83530
770.519	61891
770.627	47472
770.735	37671
770.842	30641
770.950	25478
771.058	22604
771.165	21026
771.273	18092
771.380	15871
771.488	14734
771.595	13505
771.703	11824
771.810	12578
771.918	10333
772.025	10265
772.133	9134
772.240	9283
772.348	8815
772.455	8516
772.562	8388
772.670	7292
772.777	6952
772.884	6902
772.991	6397
773.099	6294
773.206	6147
773.313	6255
773.420	5402
773.528	5222
773.635	5407
773.742	5818
773.849	4603
773.956	4870
774.063	4704
774.170	4337
774.277	4719
774.384	4242
774.491	4001
774.598	3799
774.705	4523
774.812	4575
774.919	4270
775.026	3758
775.133	3325
775.239	3673
775.346	3948
775.453	3985
775.560	3706
775.667	3751
775.773	3827
775.880	3292
775.987	3585
776.093	4225
776.200	3274
776.307	2892
776.413	3405
776.520	2971
776.627	3088
776.733	3065
776.840	2835
776.946	4241
777.053	3786
777.159	7363
777.266	4766
777.372	6964
777.478	5873
777.585	3660
777.691	2699
777.798	2979
777.904	3088
778.010	3410
778.117	4663
778.223	2745
778.329	2595
778.435	2427
778.542	2529
778.648	2496
778.754	2011
778.860	2344
778.966	2875
779.072	2829
779.178	2451
779.284	2556
779.391	2544
779.497	2091
779.603	4300
779.708	4219
779.815	9279
779.920	27551
780.026	100450
780.132	45611
780.238	5479
780.344	3114
780.450	3401
780.556	2410
780.661	1842
780.767	1705
780.873	2291
780.979	1868
781.085	1911
781.190	2108
781.296	1612
781.402	1485
781.507	1104
781.613	2160
781.719	2118
781.824	1977
781.930	1409
782.035	1952
782.141	1911
782.246	1892
782.352	1968
782.457	2041
782.563	1551
782.668	1689
782.773	1407
782.879	2014
782.984	1495
783.090	1779
783.195	2602
783.300	2289
783.405	1515
783.511	1606
783.616	1819
783.721	1125
783.826	989
783.932	1517
784.037	1470
784.142	1228
784.247	1858
784.352	2141
784.457	1711
784.562	1132
784.667	1467
784.772	1157
784.877	1750
784.982	1722
785.087	1239
785.192	1480
785.297	1175
785.402	1429
785.507	985
785.611	1647
785.716	441
785.821	1049
785.926	853
786.031	993
786.135	1434
786.240	1153
786.345	690
786.450	1196
786.554	1458
786.659	1384
786.763	848
786.868	1641
786.973	1847
787.077	1749
787.182	771
787.286	882
787.391	857
787.495	1469
787.600	758
787.704	907
787.809	1892
787.913	1411
788.017	1087
788.122	1329
788.226	1185
788.330	1409
788.435	1002
788.539	1323
788.643	1338
788.747	855
788.852	872
788.956	955
789.060	433
789.164	1276
789.268	770
789.372	1088
789.476	395
789.580	400
789.684	1153
789.788	891
789.892	729
789.996	1347
790.100	1156
790.204	716
790.308	1057
790.412	776
790.516	1191
790.620	1189
790.724	1078
790.828	1019
790.931	1284
791.035	1334
791.139	1524
791.242	1608
791.346	1349
791.450	893
791.554	1428
791.657	-96
791.761	430
791.864	747
791.968	1524
792.072	617
792.175	484
792.279	651
792.382	1116
792.486	656
792.589	1567
792.693	965
792.796	604
792.899	1229
793.003	1107
793.106	-125
793.209	624
793.313	1955
793.416	248
793.519	1731
793.623	1188
793.726	2276
793.829	1849
793.932	358
794.035	1160
794.138	1610
794.242	713
794.345	1630
794.448	3068
794.551	4296
794.654	14982
794.757	51581
794.860	28969
794.963	3310
795.066	687
795.169	1781
795.272	1039
795.375	938
795.477	580
795.580	777
795.683	40
795.786	138
795.889	368
795.991	1689
796.094	1571
796.197	1373
796.300	375
796.402	150
796.505	430
796.608	-47
796.710	997
796.813	328
796.915	633
797.018	430
797.120	282
797.223	183
797.326	581
797.428	123
797.530	572
797.633	706
797.735	690
797.838	619
797.940	1781
798.042	645
798.145	250
798.247	104
798.349	282
798.452	434
798.554	181
798.656	-64
798.758	1620
798.860	699
798.962	396
799.065	79
799.167	-283
799.269	780
799.371	923
799.473	253
799.575	-188
799.677	390
799.779	1022
799.881	658
799.983	1570
800.085	586
800.187	562
800.289	-262
800.390	632
800.492	408
800.594	736
800.696	871
800.798	714
800.899	43
801.001	-167
801.103	-91
801.205	433
801.306	398
801.408	-169
801.509	833
801.611	639
801.713	773
801.814	-1033
801.916	492
802.017	-86
802.119	173
802.220	191
802.322	-195
802.423	1695
802.525	435
802.626	485
802.727	811
802.829	-15
802.930	-806
803.031	799
803.133	160
803.234	-741
803.335	-76
803.436	-573
803.538	-190
803.639	-475
803.740	339
803.841	86
803.942	667
804.043	599
804.144	108
804.245	272
804.346	143
804.447	920
804.548	-446
804.649	-5
804.750	-479
804.851	111
804.952	-507
805.053	-57
805.154	-216
805.255	835
805.355	88
805.456	692
805.557	-268
805.658	-326
805.758	1146
805.859	162
805.960	365
806.061	-203
806.161	-231
806.262	319
806.362	-169
806.463	-18
806.564	575
806.664	503
806.765	511
806.865	1211
806.966	122
807.066	838
807.166	135
807.267	973
807.367	506
807.468	273
807.568	-500
807.668	259
807.769	318
807.869	351
807.969	715
808.069	139
808.170	1088
808.270	396
808.370	406
808.470	629
808.570	235
808.670	248
808.770	227
808.870	-161
808.970	274
809.070	161
809.170	254
809.271	-32
809.370	-187
809.470	32
809.570	487
809.670	229
809.770	474
809.870	58
809.970	644
810.070	-668
810.169	89
810.269	-634
810.369	918
810.469	-28
810.568	648
810.668	-78
810.768	-12
810.867	583
810.967	-471
811.066	-117
811.166	323
811.265	629
811.365	498
811.464	383
811.564	829
811.663	501
811.763	-228
811.862	947
811.962	805
812.061	828
812.160	392
812.260	65
812.359	874
812.458	523
812.557	2443
812.657	4096
812.756	2763
812.855	535
812.954	675
813.053	488
813.153	394
813.252	-228
813.351	403
813.450	621
813.549	900
813.648	541
813.747	-125
813.846	1064
813.945	924
814.044	969
814.143	439
814.242	1193
814.341	982
814.439	759
814.538	1233
814.637	824
814.736	1613
814.835	1627
814.933	1225
815.032	1639
815.131	1276
815.229	1016
815.328	1790
815.427	838
815.525	1404
815.624	736
815.722	1195
815.821	1855
815.919	1691
816.018	1063
816.116	2768
816.215	2501
816.313	2904
816.412	2842
816.510	2648
816.609	4135
816.707	3439
816.805	3265
816.904	3843
817.002	4289
817.100	5386
817.198	6191
817.296	7368
817.395	8806
817.493	9990
817.591	12727
817.689	17181
817.787	23901
817.885	33690
817.983	53614
818.081	95906
818.179	189607
818.277	385898
818.375	534117
818.473	329670
818.571	147473
818.669	83488
818.767	62468
818.865	54476
818.963	58274
819.061	72457
819.158	105337
819.256	172852
819.354	314689
819.452	544408
819.549	586289
819.647	386070
819.745	200778
819.842	113916
819.940	73284
820.038	51522
820.135	38532
820.233	30290
820.330	23644
820.428	19055
820.525	16460
820.623	13798
820.720	11150
820.818	10324
820.915	8605
821.012	7564
821.110	6449
821.207	7052
821.304	5844
821.402	5039
821.499	4941
821.596	5764
821.693	4912
821.791	4574
821.888	4293
821.985	4448
822.082	3613
822.179	3213
822.276	3147
822.373	2281
822.470	1415
822.567	2702
822.664	1011
822.761	2079
822.858	1912
822.955	2101
823.052	1528
823.149	1781
823.246	1334
823.343	556
823.440	1271
823.536	347
823.633	1822
823.730	643
823.827	290
823.923	426
824.020	1580
824.117	1255
824.213	854
824.310	765
824.407	800
824.503	1283
824.600	919
824.696	338
824.793	259
824.889	155
824.986	383
825.082	-295
825.179	428
825.275	180
825.371	24
825.468	-9
825.564	-271
825.660	536
825.757	389
825.853	1081
825.949	-360
826.045	189
826.142	-180
826.238	-576
826.334	685
826.430	-338
826.526	1110
826.622	-228
826.718	1153
826.814	-949
826.910	375
827.006	-225
827.102	-644
827.198	419
827.294	-142
827.390	-514
827.486	-780
827.582	-1082
827.678	-778
827.774	405
827.869	-137
827.965	-147
828.061	-471
828.157	-863
828.252	144
828.348	65
828.444	-73
828.539	-153
828.635	-1055
828.731	-526
828.826	-684
828.922	18
829.017	-112
829.113	661
829.208	-282
829.304	-1209
829.399	396
829.495	-841
829.590	-108
829.685	-97
829.781	-99
829.876	-836
829.971	-4
830.066	-184
830.162	-417
830.257	-31
830.352	-492
830.447	585
830.543	-481
830.638	-750
830.733	-63
830.828	-198
830.923	-554
831.018	-726
831.113	-163
831.208	-976
831.303	587
831.398	122
831.493	-816
831.588	-292
831.683	-714
831.778	46
831.873	-219
831.967	399
832.062	-1276
832.157	-1386
832.252	-328
832.346	-618
832.441	-199
832.536	-115
832.631	861
832.725	1185
832.820	53
832.914	-1436
833.009	-457
833.104	-98
833.198	-314
833.293	-723
833.387	192
833.482	-150
833.576	-947
833.670	138
833.765	-673
833.859	-947
833.954	-282
834.048	-292
834.142	-633
834.237	-882
834.331	-328
834.425	25
834.519	-764
834.613	358
834.708	-1236
834.802	167
834.896	-541
834.990	-1118
835.084	-391
835.178	-762
835.272	-737
835.366	-1271
835.460	-511
835.554	231
835.648	95
835.742	-747
835.836	-876
835.930	-973
836.024	-863
836.117	188
836.211	-927
836.305	-727
836.399	-375
836.493	-149
836.586	-845
836.680	-679
836.774	-1270
836.867	220
836.961	-798
837.055	-661
837.148	-409
837.242	-560
837.335	-566
837.429	-571
837.522	-1364
837.616	-511
837.709	589
837.803	61
837.896	116
837.989	-325
838.083	441
838.176	583
838.269	1395
838.363	865
838.456	-1216
838.549	-405
838.642	-539
838.735	1177
838.829	1418
838.922	-430
839.015	44
839.108	-84
839.201	-26
839.294	-337
839.387	-358
839.480	-863
839.573	-191
839.666	808
839.759	517
839.852	-1240
839.945	-86
840.038	-985
840.131	183
840.223	-820
840.316	139
840.409	-263
840.502	-1484
840.594	-351
840.687	-953
840.780	-132
840.873	-248
840.965	-874
841.058	174
841.150	41
841.243	269
841.336	496
841.428	-631
841.521	-1346
841.613	-649
841.706	89
841.798	-621
841.890	-952
841.983	-1461
842.075	-657
842.167	-608
842.260	-723
842.352	13
842.444	-687
842.537	325
842.629	2629
842.721	737
842.813	-603
842.905	-1494
842.997	-152
843.090	-177
843.182	-260
843.274	120
843.366	2569
843.458	6729
843.550	7864
843.642	1398
843.734	219
843.826	-298
843.918	166
844.009	-411
844.101	-513
844.193	-903
844.285	-923
844.377	-169
844.469	370
844.560	-173
844.652	493
844.744	-21
844.835	-331
844.927	-482
845.019	-172
845.110	-237
845.202	-989
845.293	-95
845.385	-995
845.476	-1018
845.568	-437
845.659	-770
845.751	-221
845.842	-81
845.934	-887
846.025	-1369
846.116	-816
846.208	-1198
846.299	-867
846.390	159
846.482	-172
846.573	-105
846.664	-363
846.755	-980
846.846	703
846.937	-990
847.029	-1422
847.120	-659
847.211	-1114
847.302	248
847.393	-1877
847.484	-476
847.575	-345
847.666	-1014
847.757	-1192
847.847	-325
847.938	-748
848.029	-1495
848.120	-766
848.211	-448
848.302	-637
848.392	-1018
848.483	-841
848.574	-813
848.664	-1127
848.755	-273
848.846	-863
848.936	-1348
849.027	-1035
849.118	-1131
849.208	-1303
849.299	-447
849.389	-1239
849.480	-161
849.570	-754
849.661	94
849.751	787
849.841	561
849.932	-371
850.022	-1088
850.112	-948
850.203	-297
850.293	-1571
850.383	-1011
850.474	-1226
850.564	-1301
850.654	-592
850.744	-299
850.834	-1221
850.924	-1060
851.014	503
851.104	-1079
851.194	-532
851.284	-479
851.374	-415
851.464	73
851.554	-872
851.644	-600
851.734	-429
851.824	86
851.914	-236
852.004	950
852.094	1296
852.183	-165
852.273	-272
852.363	-1316
852.452	-992
852.542	-515
852.632	-376
852.721	-766
852.811	-619
852.901	-1325
852.990	-901
853.080	-737
853.169	-699
853.259	-989
853.348	-1367
853.438	-1132
853.527	-786
853.617	-716
853.706	-441
853.795	199
853.885	1293
853.974	2930
854.063	6139
854.152	12454
854.242	10163
854.331	1541
854.420	-986
854.509	-1446
854.598	-459
854.687	-965
854.777	225
854.866	-1328
854.955	448
855.044	-951
855.133	-965
855.222	-833
855.311	-999
855.400	-554
855.488	-914
855.577	-742
855.666	-330
855.755	-862
855.844	-186
855.933	252
856.021	-245
856.110	-996
856.199	-1334
856.288	-1003
856.376	-521
856.465	-1206
856.554	-487
856.642	-1242
856.731	-630
856.819	-14
856.908	-1348
856.996	-1127
857.085	-744
857.173	-1000
857.262	-1115
857.350	-198
857.438	-262
857.527	-1062
857.615	-1211
857.703	-599
857.792	-1349
857.880	-797
857.968	-540
858.056	-895
858.145	-705
858.233	-1035
858.321	-974
858.409	-547
858.497	-1675
858.585	-914
858.673	-941
858.761	-1018
858.849	-949
858.937	-1012
859.025	-1291
859.113	-1257
859.201	-1017
859.289	-105
859.377	-1083
859.465	-1138
859.552	-1244
859.640	-880
859.728	-1174
859.816	-1299
859.903	-946
859.991	-1237
860.079	43
860.166	-1012
860.254	-896
860.342	-383
860.429	-1161
860.517	-1437
860.604	-1203
860.692	-682
860.779	-1272
860.867	-246
860.954	-1006
861.042	-657
861.129	-628
861.216	-949
861.304	-1269
861.391	-294
861.478	-1268
861.565	-418
861.653	-311
861.740	-1082
861.827	-1481
861.914	-374
862.001	-899
862.089	-1113
862.176	-1302
862.263	-281
862.350	-1104
862.437	-1702
862.524	-1011
862.611	-870
862.698	-864
862.785	-474
862.871	-353
862.958	-1002
863.045	-991
863.132	-738
863.219	-1299
863.306	-1559
863.392	-302
863.479	-1094
863.566	-872
863.652	-1101
863.739	-776
863.826	-782
863.912	-718
863.999	-1275
864.086	-737
864.172	-1549
864.259	-716
864.345	-809
864.432	-773
864.518	-737
864.604	-1047
864.691	-1200
864.777	-806
864.863	-871
864.950	-520
865.036	-1246
865.122	-630
865.209	-405
865.295	55
865.381	-1566
865.467	-546
865.553	-792
865.639	-939
865.726	-861
865.812	-230
865.898	1016
865.984	2040
866.070	3330
866.156	7556
866.242	3633
866.328	33
866.414	-1116
866.499	-1627
866.585	-1002
866.671	-804
866.757	-1181
866.843	-701
866.928	-1709
867.014	-726
867.100	-704
867.186	-662
867.271	-989
867.357	-1020
867.442	-724
867.528	-1096
867.614	-1264
867.699	-783
867.785	-468
867.870	-884
867.956	21
868.041	357
868.127	-394
868.212	-176
868.297	235
868.383	-847
868.468	-272
868.553	-181
868.639	105
868.724	74
868.809	1734
868.894	180
868.979	-916
869.065	-694
869.150	-996
869.235	-1363
869.320	-1401
869.405	-1172
869.490	-1395
869.575	-1352
869.660	-951
869.745	-1107
869.830	-1457
869.915	-158
870.000	-529
870.085	-1358
870.169	-661
870.254	-606
870.339	-1063
870.424	-1251
870.509	-1047
870.593	-1199
870.678	-932
870.763	-1166
870.847	-53
870.932	-2209
871.016	-1421
871.101	-1370
871.186	-790
871.270	-1379
871.355	-1331
871.439	-964
871.523	-1376
871.608	-1045
871.692	-1374
871.777	-1402
871.861	-1075
871.945	-682
872.030	-1134
872.114	-1356
872.198	-698
872.282	-1339
872.367	-1128
872.451	-1625
872.535	-1420
872.619	-706
872.703	-645
872.787	-830
872.871	-1150
872.955	-1416
873.039	-882
873.123	-1291
873.207	-690
873.291	-1071
873.375	-416
873.459	-1321
873.543	-1555
873.627	-1421
873.711	-741
873.794	-493
873.878	-1195
873.962	-1278
874.045	-1151
874.129	-1350
874.137	-1290
874.213	-695
874.245	-751
874.296	-839
874.352	-1229
874.380	-1422
874.460	-2132
874.464	-2162
874.547	-724
874.568	-761
874.631	-865
874.676	-904
874.714	-930
874.784	-1095
874.798	-1132
874.881	-122
874.892	-200
874.965	-746
874.999	-667
875.048	-545
875.107	-746
875.131	-824
875.215	-645
875.215	-645
875.298	-999
875.323	-948
875.381	-787
875.430	-675
875.465	-606
875.538	-1233
875.548	-1324
875.631	-1255
875.646	-1316
875.714	-1634
875.753	-1705
875.798	-1749
875.861	-1585
875.881	-1535
875.964	-503
875.968	-562
876.047	-1500
876.076	-1409
876.130	-1343
876.183	-786
876.213	-481
876.291	-988
876.296	-1017
876.379	-1023
876.398	-974
876.462	-772
876.506	-1029
876.545	-1309
876.613	-1091
876.628	-1035
876.711	-1597
876.721	-1488
876.794	-685
876.828	-967
876.877	-1367
876.935	-1195
876.960	-1128
877.043	-992
877.043	-990
877.125	-517
877.150	-573
877.208	-852
877.258	-820
877.291	-738
877.365	-697
877.374	-694
877.456	-603
877.472	-682
877.539	-944
877.579	-794
877.622	-716
877.687	-440
877.704	-360
877.787	-1025
877.794	-1022
877.869	-759
877.901	-721
877.952	-903
878.008	-961
878.034	-921
878.115	-690
878.117	-684
878.199	-757
878.222	-678
878.282	-521
878.329	-400
878.364	-325
878.437	-627
878.447	-667
878.529	-454
878.544	-515
878.611	-752
878.651	-501
878.694	-188
878.758	-208
878.776	-254
878.858	-1325
878.865	-1244
878.941	-234
878.972	-490
879.023	-913
879.078	-829
879.105	-751
879.185	-848
879.187	-850
879.269	-221
879.292	-434
879.351	-915
879.399	-753
879.433	-722
879.506	-420
879.516	-321
879.598	-473
879.613	-449
879.680	-922
879.720	-1091
879.762	-1058
879.827	-593
879.844	-527
879.926	-1006
879.933	-1011
880.007	-700
880.040	-652
880.089	-576
880.147	-269
880.171	-208
880.253	68
880.254	65
880.335	-359
880.360	-245
880.417	219
880.467	302
880.499	439
880.574	1813
880.580	1855
880.662	856
880.680	383
880.744	-692
880.787	-293
880.825	-99
880.893	-424
880.907	-465
880.989	-567
881.000	-566
881.070	-507
881.106	-432
881.152	-458
881.213	-558
881.233	-513
881.315	-732
881.319	-726
881.396	-412
881.426	-397
881.478	-550
881.532	-224
881.559	-133
881.639	-546
881.641	-543
881.722	-245
881.745	-230
881.803	-253
881.852	-219
881.885	-438
881.958	-902
881.966	-876
882.047	-297
882.064	-201
882.129	-28
882.171	21
882.210	129
882.277	23
882.291	-30
882.372	-145
882.383	-134
882.454	-2
882.489	-231
882.535	-623
882.596	-505
882.616	-434
882.697	-758
882.702	-751
882.778	-339
882.808	-350
882.859	-486
882.914	-382
882.940	-284
883.020	-168
883.021	-163
883.102	70
883.127	93
883.183	-265
883.233	-668
883.264	-714
883.339	-279
883.345	-222
883.426	-25
883.445	54
883.507	-68
883.551	-195
883.587	-172
883.657	-24
883.668	-32
883.749	-148
883.763	-246
883.830	-560
883.869	-485
883.910	-510
883.975	-569
883.991	-502
884.072	-328
884.081	-348
884.152	-787
884.187	-747
884.233	-411
884.292	-151
884.314	-45
884.394	34
884.398	50
884.475	-254
884.504	-424
884.555	-431
884.610	-459
884.636	-526
884.716	-548
884.716	-544
884.797	-535
884.821	-438
884.877	62
884.927	331
884.958	181
885.033	-44
885.038	-39
885.118	-383
885.139	-351
885.199	126
885.244	377
885.279	162
885.350	-327
885.359	-261
885.439	275
885.456	343
885.520	-300
885.561	-610
885.600	-501
885.667	-278
885.680	-296
885.760	-408
885.773	-467
885.840	-411
885.878	-277
885.920	-198
885.984	-86
886.000	-22
886.080	107
886.089	119
886.160	-262
886.195	-422
886.240	-77
886.300	346
886.320	249
886.400	-40
886.406	-71
886.480	57
886.511	104
886.560	111
886.616	90
886.640	132
886.720	298
886.722	298
886.800	-19
886.827	-158
886.879	-194
886.932	-315
886.959	-187
887.038	266
887.039	267
887.119	-154
887.143	-294
887.198	-199
887.248	-103
887.278	-23
887.354	25
887.358	26
887.437	65
887.459	74
887.517	313
887.564	504
887.596	426
887.669	132
887.676	91
887.755	-488
887.774	-594
887.835	-451
887.880	-316
887.914	-174
887.985	-76
887.994	-112
888.073	-344
888.090	-418
888.153	-62
888.195	245
888.232	267
888.300	308
888.311	312
888.391	188
888.405	162
888.470	178
888.510	241
888.549	185
888.615	29
888.628	-2
888.708	-220
888.720	-248
888.787	450
888.825	827
888.866	343
888.930	-427
888.945	-273
889.024	535
889.035	641
889.103	603
889.140	576
889.182	520
889.245	409
889.261	273
889.340	-387
889.349	-463
889.419	-140
889.454	10
889.498	51
889.559	114
889.577	125
889.656	161
889.664	164
889.735	3
889.768	-77
889.814	282
889.873	757
889.978	436
890.083	889
890.187	-7
890.292	-172
890.397	-34
890.501	-287
890.606	199
890.710	346
890.815	406
890.919	689
891.024	-338
891.128	210
891.233	577
891.337	-279
891.442	36
891.546	-386
891.650	-177
891.755	-161
891.859	703
891.963	582
892.068	253
892.172	-366
892.276	-332
892.380	-266
892.484	-92
892.589	-145
892.693	91
892.797	329
892.901	517
893.005	-611
893.109	339
893.213	-139
893.317	248
893.421	-371
893.525	292
893.629	-42
893.733	702
893.837	486
893.941	-106
894.045	926
894.148	379
894.252	684
894.356	854
894.460	224
894.564	386
894.667	514
894.771	264
894.875	-566
894.978	-145
895.082	462
895.186	62
895.289	959
895.393	-274
895.496	-161
895.600	-73
895.703	369
895.807	-45
895.910	747
896.014	245
896.117	337
896.221	70
896.324	-425
896.427	825
896.531	-195
896.634	12
896.737	200
896.840	192
896.944	-397
897.047	-132
897.150	75
897.253	499
897.356	-17
897.460	-648
897.563	-321
897.666	-142
897.769	-40
897.872	474
897.975	280
898.078	232
898.181	513
898.284	-180
898.387	123
898.490	311
898.593	-65
898.695	-528
898.798	50
898.901	-341
899.004	70
899.107	471
899.209	222
899.312	-418
899.415	-244
899.518	64
899.620	-28
899.723	445
899.826	987
899.928	-667
900.031	133
900.133	163
900.236	223
900.338	302
900.441	616
900.543	78
900.646	250
900.748	-212
900.851	-506
900.953	-295
901.055	-40
901.158	348
901.260	-389
901.362	237
901.465	526
901.567	376
901.669	-94
901.771	530
901.873	355
901.976	-489
902.078	40
902.180	-525
902.282	287
902.384	308
902.486	63
902.588	429
902.690	608
902.792	-33
902.894	109
902.996	378
903.098	275
903.200	-97
903.302	-511
903.404	-476
903.505	401
903.607	239
903.709	875
903.811	-155
903.913	400
904.014	-200
904.116	-176
904.218	217
904.319	437
904.421	144
904.523	703
904.624	574
904.726	881
904.827	368
904.929	369
905.030	2
905.132	229
905.233	-736
905.335	425
905.436	66
905.537	174
905.639	529
905.740	-567
905.841	-552
905.943	396
906.044	650
906.145	-182
906.247	353
906.348	242
906.449	265
906.550	92
906.651	-666
906.752	-215
906.854	517
906.955	418
907.056	-113
907.157	354
907.258	-325
907.359	380
907.460	351
907.561	-516
907.662	-549
907.762	-375
907.863	-612
907.964	504
908.065	-886
908.166	672
908.267	-397
908.367	-371
908.468	387
908.569	-9
908.670	171
908.770	104
908.871	-316
908.971	547
909.072	-563
909.173	447
909.273	-114
909.374	-142
909.474	11
909.575	138
909.675	-463
909.776	838
909.876	-495
909.977	471
910.077	446
910.177	528
910.278	-11
910.378	-473
910.478	635
910.579	274
910.679	-373
910.779	-411
910.879	432
910.980	384
911.080	-697
911.180	381
911.280	23
911.380	74
911.480	-285
911.580	4
911.680	-82
911.780	9
911.880	773
911.980	718
912.080	-369
912.180	273
912.280	250
912.380	-844
912.480	-852
912.580	-522
912.679	597
912.779	368
912.879	390
912.979	-131
913.078	-450
913.178	-270
913.278	398
913.377	-380
913.477	251
913.577	884
913.676	294
913.776	-450
913.875	-256
913.975	109
914.074	525
914.174	-241
914.273	18
914.373	321
914.472	-162
914.572	-266
914.671	-463
914.770	613
914.870	-379
914.969	199
915.068	-526
915.167	77
915.267	-62
915.366	379
915.465	355
915.564	-201
915.663	263
915.763	623
915.862	72
915.961	84
916.060	-616
916.159	554
916.258	261
916.357	-496
916.456	-103
916.555	413
916.654	215
916.752	-151
916.851	424
916.950	134
917.049	-357
917.148	-425
917.247	519
917.345	241
917.444	91
917.543	522
917.642	-622
917.740	-188
917.839	-320
917.937	-193
918.036	-43
918.135	-118
918.233	371
918.332	-15
918.430	-371
918.529	921
918.627	-43
918.726	-635
918.824	-179
918.923	-79
919.021	599
919.119	140
919.218	214
919.316	-20
919.414	399
919.512	5
919.611	864
919.709	394
919.807	647
919.905	-86
920.003	132
920.102	116
920.200	-291
920.298	311
920.396	762
920.494	-53
920.592	65
920.690	371
920.788	-454
920.886	193
920.984	496
921.082	129
921.180	522
921.277	-348
921.375	469
921.473	-740
921.571	-429
921.669	268
921.766	-68
921.864	1134
921.962	656
922.060	247
922.157	52
922.255	-50
922.352	267
922.450	480
922.548	756
922.645	343
922.743	244
922.840	200
922.938	135
923.035	325
923.133	143
923.230	-168
923.327	333
923.425	147
923.522	118
923.619	1
923.717	-167
923.814	106
923.911	444
924.008	1076
924.106	-414
924.203	362
924.300	-486
924.397	-161
924.494	678
924.591	-151
924.688	-350
924.786	-109
924.883	190
924.979	163
925.077	484
925.173	-14
925.270	57
925.367	152
925.464	-68
925.561	319
925.658	1276
925.755	929
925.852	-162
925.948	-117
926.045	387
926.142	1046
926.239	462
926.335	1407
926.432	1024
926.529	1820
926.625	1124
926.722	790
926.818	1035
926.915	290
927.011	279
927.108	378
927.204	31
927.301	-337
927.397	-94
927.494	71
927.590	908
927.687	121
927.783	804
927.879	-30
927.976	-389
928.072	796
928.168	-102
928.264	345
928.361	273
928.457	191
928.553	754
928.649	-133
928.745	579
928.841	133
928.937	205
929.033	381
929.129	-227
929.225	-472
929.321	-343
929.417	539
929.513	-290
929.609	77
929.705	-865
929.801	232
929.897	-187
929.993	75
930.089	258
930.184	179
930.280	-538
930.376	591
930.471	-237
930.567	160
930.663	-303
930.758	267
930.854	130
930.950	742
931.045	-154
931.141	529
931.236	-662
931.332	22
931.427	142
931.523	-437
931.618	24
931.714	201
931.809	-132
931.905	-439
932.000	-300
932.095	-219
932.191	-336
932.286	-589
932.381	-591
932.476	570
932.572	-2
932.667	231
932.762	-64
932.857	255
932.952	398
933.047	546
933.142	-21
933.237	-2
933.332	-684
933.427	687
933.522	63
933.617	328
933.712	98
933.807	154
933.902	149
933.997	-378
934.092	-21
934.187	2
934.282	-71
934.376	220
934.471	88
934.566	43
934.661	-583
934.755	153
934.850	-752
934.945	-52
935.039	683
935.134	699
935.228	-116
935.323	-281
935.417	-56
935.512	-149
935.606	-485
935.701	-419
935.795	-551
935.890	16
935.984	-413
936.079	-539
936.173	-475
936.267	-114
936.362	-215
936.456	132
936.550	-142
936.644	-239
936.738	-625
936.833	96
936.927	-55
937.021	90
937.115	-216
937.209	-670
937.303	24
937.397	543
937.491	-415
937.585	-320
937.679	26
937.773	-454
937.867	-108
937.961	-408
938.055	70
938.149	93
938.243	213
938.337	8
938.430	166
938.524	414
938.618	348
938.712	1599
938.805	3
938.899	-279
938.993	-100
939.086	-52
939.180	1484
939.274	1812
939.367	560
939.461	56
939.554	143
939.648	-697
939.741	-111
939.835	372
939.928	-86
940.022	-233
940.115	368
940.208	618
940.302	-305
940.395	191
940.488	-809
940.582	22
940.675	-446
940.768	-180
940.861	-207
940.954	138
941.048	187
941.141	508
941.234	-867
941.327	191
941.420	930
941.513	-89
941.606	-949
941.699	356
941.792	-219
941.885	-70
941.978	-209
942.071	-445
942.164	-506
942.257	-241
942.349	-392
942.442	-308
942.535	-481
942.628	-92
942.721	-375
942.813	-586
942.906	-417
942.999	-591
943.091	-67
943.184	-406
943.277	-605
943.369	-1357
943.462	438
943.554	183
943.647	80
943.739	-931
943.832	-570
943.924	-350
944.017	-235
944.109	-629
944.201	226
944.294	-255
944.386	-543
944.478	-403
944.571	-428
944.663	-15
944.755	385
944.847	-1136
944.940	-361
945.032	-791
945.124	-247
945.216	332
945.308	84
945.400	165
945.492	196
945.584	-283
945.676	-1055
945.768	-504
945.860	-847
945.952	-527
946.044	-378
946.136	374
946.228	-512
946.320	-847
946.412	-338
946.503	-1514
946.595	139
946.687	-597
946.779	-412
946.870	-859
946.962	-830
947.054	-103
947.145	-235
947.237	708
947.329	247
947.420	-449
947.512	-182
947.603	-626
947.695	-778
947.786	-327
947.878	-514
947.969	-267
948.061	-666
948.152	-278
948.243	-403
948.335	-678
948.426	-190
948.517	-465
948.609	-1090
948.700	-924
948.791	262
948.882	223
948.973	-493
949.065	-200
949.156	-400
949.247	-591
949.338	-576
949.429	-623
949.520	-4
949.611	-134
949.702	-251
949.793	-498
949.884	-298
949.975	-928
950.066	-855
950.157	-519
950.247	-824
950.338	-1111
950.429	-394
950.520	-507
950.611	-832
950.701	-351
950.792	-93
950.883	272
950.973	-1243
951.064	-787
951.155	-647
951.245	65
951.336	-72
951.427	-678
951.517	-773
951.608	-435
951.698	-886
951.788	-727
951.879	-1056
951.969	-984
952.060	-1181
952.150	-602
952.240	-684
952.331	-1427
952.421	149
952.511	-862
952.602	-1021
952.692	-590
952.782	-406
952.872	-525
952.962	-1450
953.052	-465
953.143	-371
953.233	-735
953.323	-639
953.413	-508
953.503	-264
953.593	-80
953.683	-1434
953.773	-679
953.863	-559
953.953	-717
954.042	-68
954.132	-1039
954.222	-708
954.312	-1615
954.402	-261
954.492	-125
954.581	-494
954.671	-226
954.761	-758
954.850	-163
954.940	-376
955.030	52
955.119	-650
955.209	-338
955.298	-1226
955.388	-912
955.477	581
955.567	98
955.656	192
955.746	-708
955.835	-779
955.925	-1030
956.014	-197
956.103	-483
956.193	-223
956.282	-524
956.371	-314
956.461	-936
956.550	-635
956.639	-220
956.728	-419
956.817	-406
956.906	-528
956.995	-591
957.085	-1069
957.174	-945
957.263	-528
957.352	-533
957.441	-1129
957.530	165
957.619	-562
957.708	-824
957.796	-1301
957.885	-573
957.974	-835
958.063	-643
958.152	-733
958.241	-482
958.329	-181
958.418	-496
958.507	-785
958.596	21
958.684	-991
958.773	174
958.861	-736
958.950	-407
959.039	271
959.127	-468
959.216	-407
959.304	-889
959.393	-114
959.481	-108
959.570	-819
959.658	150
959.746	-768
959.835	62
959.923	-271
960.011	-257
960.100	-506
960.188	-442
960.276	-800
960.365	-250
960.453	-697
960.541	-217
960.629	-537
960.717	-150
960.805	-623
960.893	-87
960.981	-847
961.069	-243
961.158	-146
961.245	-723
961.333	-864
961.421	-708
961.509	-444
961.597	-369
961.685	-1032
961.773	-1344
961.861	-1215
961.949	-332
962.036	-324
962.124	-144
962.212	-461
962.299	-463
962.387	-553
962.475	-404
962.562	-965
962.650	-326
962.738	-496
962.825	-933
962.913	-433
963.000	-941
963.088	-1031
963.175	-539
963.263	-397
963.350	-421
963.438	-1177
963.525	-990
963.612	-58
963.700	269
963.787	1394
963.874	1143
963.962	56
964.049	-1138
964.136	-583
964.223	-1166
964.310	53
964.398	-698
964.485	-534
964.572	162
964.659	112
964.746	-553
964.833	-247
964.920	-644
965.007	-642
965.094	79
965.181	-854
965.268	-465
965.355	-798
965.441	-260
965.528	-1307
965.615	-491
965.702	-222
965.789	-1436
965.875	-617
965.962	-1077
966.049	-1482
966.136	-299
966.222	-1379
966.309	-804
966.395	-982
966.482	94
966.569	-1062
966.655	-1258
966.742	-285
966.828	-605
966.915	245
967.001	145
967.087	-566
967.174	-296
967.260	71
967.347	-365
967.433	-842
967.519	528
967.605	524
967.692	-612
967.778	-756
967.864	-810
967.950	-378
968.036	-1121
968.123	-320
968.209	-619
968.295	-809
968.381	-148
968.467	-904
968.553	-435
968.639	-495
968.725	-668
968.811	-369
968.897	409
968.983	-1025
969.069	-806
969.154	-700
969.240	-414
969.326	-378
969.412	-602
969.497	-463
969.583	-89
969.669	204
969.755	-573
969.840	-422
969.926	-552
970.012	-1096
970.097	48
970.183	-450
970.268	-1483
970.354	-901
970.439	-243
970.525	579
970.610	-775
970.696	26
970.781	231
970.866	-817
970.952	-596
971.037	-1393
971.122	-1036
971.208	-694
971.293	-303
971.378	-1481
971.463	-514
971.549	-112
971.634	51
971.719	-91
971.804	-363
971.889	21
971.974	-791
972.059	-316
972.144	-518
972.229	-529
972.314	-278
972.399	-554
972.484	-411
972.569	-365
972.654	-955
972.739	30
972.824	-279
972.908	-230
972.993	-400
973.078	-72
973.163	-453
973.247	-779
973.332	-1897
973.417	-113
973.501	-253
973.586	-1493
973.671	-740
973.755	-848
973.840	-645
973.924	-183
974.009	-1174
974.093	-432
974.178	229
974.262	-1098
974.346	-551
974.431	-495
974.515	-1542
974.600	-117
974.684	-281
974.768	-769
974.852	-247
974.937	-1081
975.021	76
975.105	-1037
975.189	-284
975.273	-368
975.358	-245
975.442	-746
975.526	-414
975.610	-991
975.694	-885
975.778	277
975.862	91
975.946	-2307
976.030	657
976.114	-744
976.198	36
976.281	-334
976.365	-1
976.449	-430
976.533	-957
976.617	-1307
976.700	-521
976.784	-356
976.868	-760
976.951	-844
977.035	-448
977.119	-784
977.202	-437
977.286	-588
977.369	-263
977.453	-674
977.536	-490
977.620	-997
977.703	11
977.787	-1112
977.870	-1059
977.953	-767
978.037	-644
978.120	93
978.203	-660
978.287	-938
978.370	-590
978.453	-574
978.536	-334
978.620	-307
978.703	142
978.786	-369
978.869	-697
978.952	-988
979.035	-336
979.118	-112
979.201	-686
979.284	-327
979.367	-969
979.450	-74
979.533	-886
979.616	-742
979.699	-1053
979.782	-488
979.865	-219
979.948	-614
980.030	-1896
980.113	-838
980.196	-582
980.279	-442
980.361	-915
980.444	-1337
980.526	-413
980.609	-551
980.692	-1115
980.774	-236
980.857	-1022
980.939	-831
981.022	-501
981.104	-1593
981.187	-554
981.269	-650
981.352	-348
981.434	-1713
981.516	-924
981.599	-136
981.681	-338
981.763	-1091
981.846	-765
981.928	-1249
982.010	-735
982.092	-1110
982.174	-530
982.256	-1399
982.339	180
982.421	-454
982.503	-1033
982.585	-1187
982.667	-884
982.749	-528
982.831	-656
982.913	-805
982.995	-536
983.077	-791
983.158	-62
983.240	-1669
983.322	-233
983.404	-298
983.486	-1444
983.568	-493
983.649	-1124
983.731	-993
983.813	-1309
983.894	-607
983.976	216
984.058	-482
984.139	-243
984.221	-1066
984.302	-299
984.384	-353
984.465	-1883
984.547	-599
984.628	-4
984.710	-269
984.791	-739
984.872	-529
984.954	-980
985.035	-731
985.116	-321
985.198	-1344
985.279	570
985.360	-362
985.441	-1365
985.522	-933
985.604	-1247
985.685	-1369
985.766	60
985.847	-125
985.928	-925
986.009	-1004
986.090	-340
986.171	-330
986.252	-744
986.333	-854
986.414	-1236
986.495	-668
986.576	-781
986.656	-933
986.737	-448
986.818	-844
986.899	-1085
986.980	-1330
987.060	132
987.141	-1291
987.222	-208
987.302	-521
987.383	-680
987.464	-1560
987.544	-528
987.625	-948
987.705	-183
987.786	-204
987.866	-666
987.947	-715
988.027	-375
988.108	-1016
988.188	-623
988.268	-760
988.349	-154
988.429	-1131
988.509	-1579
988.589	-487
988.670	-1375
988.750	-524
988.830	-1367
988.910	-254
988.990	-1251
989.070	-1835
989.151	-252
989.231	-930
989.311	-884
989.391	-82
989.471	-336
989.551	-1292
989.631	-767
989.711	-570
989.791	-776
989.870	-1052
989.950	-613
990.030	-671
990.110	-681
990.190	-1200
990.269	324
990.349	-775
990.429	-1463
990.509	-1243
990.588	-1435
990.668	-687
990.747	-924
990.827	-344
990.907	-651
990.986	-1171
991.066	-278
991.145	-448
991.225	-563
991.304	-346
991.383	-672
991.463	98
991.542	-847
991.622	-667
991.701	-1290
991.780	-883
991.859	-830
991.939	-807
992.018	-1010
992.097	-1082
992.176	-906
992.256	-313
992.335	-859
992.414	-490
992.493	-638
992.572	-559
992.651	405
992.730	-425
992.809	-957
992.888	-1209
992.967	-1007
993.046	-886
993.125	-1573
993.203	-889
993.282	-50
993.361	-749
993.440	-431
993.519	-1164
993.597	-488
993.676	-1403
993.755	-222
993.834	-744
993.912	-1282
993.991	377
994.069	-1100
994.148	-498
994.226	-1494
994.305	-620
994.384	-1110
994.462	-167
994.540	-1485
994.619	-892
994.697	-329
994.776	-1453
994.854	-61
994.932	-1268
995.011	-573
995.089	-1384
995.167	-329
995.245	-1444
995.324	-992
995.402	-640
995.480	-1363
995.558	-958
995.636	-1382
995.714	-1339
995.792	-245
995.870	-1166
995.948	-304
996.026	-660
996.104	-1529
996.182	-779
996.260	-670
996.338	-750
996.416	-1355
996.494	-1342
996.572	-526
996.649	-543
996.727	-1075
996.805	-101
996.883	-1126
996.960	-849
997.038	-401
997.116	-435
997.193	-1440
997.271	-1026
997.348	-473
997.426	-886
997.504	-1086
997.581	-290
997.658	-348
997.736	-1551
997.813	-1118
997.891	-991
997.968	-1077
998.046	-377
998.123	-1185
998.200	-990
998.277	-1409
998.355	-1302
998.432	-1492
998.509	-1119
998.586	-1150
998.663	-1170
998.741	-1135
998.818	-1057
998.895	-726
998.972	-585
999.049	-467
999.126	-1598
999.203	-765
999.280	-997
999.357	-1239
999.434	-1137
999.511	-601
999.587	-765
999.664	-875
999.741	-1595
999.818	-415
999.895	-1261
999.971	-1049
1000.048	-749
1000.125	149
1000.202	-1384
1000.278	-395
1000.355	-144
1000.431	-1443
1000.508	-1245
1000.584	-421
1000.661	-452
1000.738	-1741
1000.814	-256
1000.890	-1307
1000.967	-1308
1001.043	-802
1001.120	-1800
1001.196	-1007
1001.272	-1442
1001.349	-1159
1001.425	-732
1001.501	-827
1001.577	-1598
1001.654	-977
1001.730	-1408
1001.806	-1321
1001.882	-1493
1001.958	-603
1002.034	-1159
1002.110	-648
1002.186	-1282
1002.262	-186
1002.338	-1547
1002.414	-619
1002.490	-903
1002.566	-1042
1002.642	-931
1002.718	5
1002.794	-1351
1002.870	-1054
1002.945	-1024
1003.021	-1252
1003.097	-929
1003.173	-1136
1003.248	-1203
1003.324	-506
1003.400	-1337
1003.475	-956
1003.551	-1182
1003.626	-716
1003.702	-762
1003.777	-312
1003.853	-1315
1003.928	-428
1004.004	-829
1004.079	-404
1004.155	-801
1004.230	-2094
1004.305	-472
1004.381	-1313
1004.456	-443
1004.531	-916
1004.607	-215
1004.682	-972
1004.757	-1221
1004.832	-1535
1004.907	-1329
1004.982	-1000
1005.057	-1121
1005.133	-544
1005.208	-1222
1005.283	-1282
1005.358	-820
1005.433	-685
1005.508	-919
1005.583	-727
1005.657	-1595
1005.732	-800
1005.807	-1703
1005.882	-618
1005.957	-488
1006.032	-677
1006.106	-589
1006.181	-1559
1006.256	-858
1006.331	-1516
1006.405	-1659
1006.480	-1545
1006.554	-1135
1006.629	-672
1006.704	-1314
1006.778	-598
1006.853	-626
1006.927	-1682
1007.002	-924
1007.076	-568
1007.150	-769
1007.225	-854
1007.299	-980
1007.373	-1876
1007.448	-886
1007.522	-408
1007.596	-986
1007.671	-631
1007.745	-1837
1007.819	-1682
1007.893	-765
1007.967	-886
1008.041	-1374
1008.115	-272
1008.190	-1529
1008.264	-834
1008.338	-1081
1008.412	-1192
1008.486	-744
1008.560	-1259
1008.633	-1306
1008.707	-2027
1008.781	-1221
1008.855	-1627
1008.929	-408
1009.003	-1524
1009.076	-1466
1009.150	-951
1009.224	-1480
1009.298	-842
1009.371	-955
1009.445	-785
1009.519	-1680
1009.592	-1046
1009.666	-490
1009.739	-1252
1009.813	-1587
1009.886	-605
1009.960	-2425
1010.033	-1000
1010.107	-584
1010.180	-2291
1010.253	-978
1010.327	-1664
1010.400	-1568
1010.473	-494
1010.547	-289
1010.620	-904
1010.693	-1061
1010.766	-1670
1010.840	-800
1010.913	-827
1010.986	-1218
1011.059	-1590
1011.132	-1300
1011.205	-442
1011.278	-1059
1011.351	-1579
1011.424	-1089
1011.497	-836
1011.570	-769
1011.643	-1030
1011.716	-1071
1011.789	-947
1011.862	-1188
1011.934	-657
1012.007	-1561
1012.080	-741
1012.153	-1413
1012.225	-505
1012.298	-1907
1012.371	-786
1012.443	-798
1012.516	-1475
1012.588	-1646
1012.661	-1053
1012.733	-615
1012.806	-947
1012.879	-1235
1012.951	-944
1013.023	-1669
1013.096	-854
1013.168	-926
1013.241	-436
1013.313	-1209
1013.385	-777
1013.458	-1374
1013.530	-355
1013.602	-2000
1013.674	-1454
1013.746	-2104
1013.819	-1503
1013.891	-1040
1013.963	-1196
1014.035	-1499
1014.107	-731
1014.179	-1066
1014.251	-1692
1014.323	-1080
1014.395	-1582
1014.467	-1168
1014.539	-1602
1014.611	-918
1014.683	-980
1014.754	-1490
1014.826	-966
1014.898	-849
1014.970	-822
1015.042	-814
1015.113	-265
1015.185	-1143
1015.257	-1539
1015.328	-703
1015.400	-888
1015.471	-974
1015.543	-1521
1015.615	-654
1015.686	-1420
1015.757	-732
1015.829	-1350
1015.901	-1629
1015.972	-1069
1016.043	-758
1016.115	-1733
1016.186	-984
1016.257	-1039
1016.328	-1286
1016.400	-1183
1016.471	-1457
1016.542	9
1016.613	-1290
1016.685	-871
1016.756	-1395
1016.827	-1066
1016.898	-1616
1016.969	-488
1017.040	-1435
1017.111	-1257
1017.182	-1744
1017.253	-189
1017.324	-1639
1017.395	-1771
1017.466	-1281
1017.537	-1954
1017.608	-1868
1017.678	-1583
1017.749	-1083
1017.820	-872
1017.891	-1615
1017.961	-1260
1018.032	-1142
1018.103	-892
1018.173	-1831
1018.244	-1905
1018.315	-630
1018.385	-779
1018.456	-893
1018.526	-2066
1018.597	-2265
1018.667	-884
1018.738	-986
1018.808	-1201
1018.878	-1194
1018.949	-534
1019.019	-1030
1019.089	-258
1019.160	-1661
1019.230	-1695
1019.300	-1861
1019.371	-1345
1019.441	-856
1019.511	-778
1019.581	-1282
1019.651	-1096
1019.721	-1079
1019.791	-878
1019.861	-1916
1019.931	-943
1020.001	-1948
1020.071	-1495
1020.141	-1580
1020.211	-1656
1020.281	-1900
1020.351	-887
1020.421	-824
1020.491	-997
1020.560	-1197
1020.630	-1845
1020.700	-1393
1020.770	-1424
1020.839	-1519
1020.909	-887
1020.979	-1025
1021.048	-1064
1021.118	-967
1021.187	-1685
1021.257	-1071
1021.326	-691
1021.396	-1382
1021.465	-685
1021.535	-1858
1021.604	-1502
1021.674	-2335
1021.743	-723
1021.812	-1501
1021.882	-1412
1021.951	-868
1022.020	-1158
1022.089	-376
1022.159	-906
1022.228	-1248
1022.297	-1096
1022.366	-1308
1022.435	-1581
1022.504	-843
1022.573	-982
1022.642	-1354
1022.711	-809
1022.781	-1477
1022.849	-797
1022.918	-1427
1022.987	-571
1023.056	-1547
1023.125	-1005
1023.194	-1070
1023.263	-1136
1023.331	85
1023.400	-1326
1023.469	-951
1023.538	-298
1023.606	-1138
1023.675	-999
1023.744	-1112
1023.812	-1697
1023.881	-1604
1023.949	-1448
1024.018	-1255
1024.086	-1437
1024.155	-1769
1024.223	-1727
1024.292	-1391
1024.360	-1378
1024.429	-948
1024.497	-1421
1024.565	-1242
1024.634	-881
1024.702	-1291
1024.770	-1106
1024.838	-1464
1024.907	-607
1024.975	-1385
1025.043	-378
1025.111	-1624
1025.179	-1343
1025.247	-1362
1025.315	-1678
1025.383	-1675
1025.451	-1225
1025.519	-1400
1025.587	-1338
1025.655	-1501
1025.723	-845
1025.791	-1752
1025.859	-1772
1025.927	-1291
1025.995	-1571
1026.062	-1588
1026.130	-1434
1026.198	-1432
1026.266	-1405
1026.333	-2041
1026.401	-1525
1026.469	-1103
1026.536	-1117
1026.604	-1241
1026.671	-1133
1026.739	-2176
1026.806	-1367
1026.874	-1088
1026.941	-962
1027.009	-608
1027.076	-716
1027.144	-1538
1027.211	-1386
1027.278	-1750
1027.345	-1938
1027.413	-1680
1027.480	-2130
1027.547	-552
1027.614	-1730
1027.682	-1067
1027.749	-1472
1027.816	-1309
1027.883	-1232
1027.950	-1388
1028.017	-1225
1028.084	-714
1028.151	-1465
1028.218	-1515
1028.285	-1389
1028.352	-561
1028.419	-1953
1028.486	-791
1028.553	-1069
1028.619	-1676
1028.686	-987
1028.753	-1986
1028.820	-1469
1028.886	-1348
1028.953	-2031
1029.020	-750
1029.086	-741
1029.153	-1713
1029.220	-883
1029.286	-1519
1029.353	-664
1029.419	-2012
1029.486	-1175
1029.552	-1532
1029.619	-998
1029.685	-1166
1029.751	-1138
1029.818	-630
1029.884	-1705
1029.951	-1018
1030.017	-1343
1030.083	-1483
1030.149	-245
1030.216	-1233
1030.282	-1802
1030.348	-1231
1030.414	-964
1030.480	-705
1030.546	-1810
1030.612	-1216
1030.678	-1212
1030.744	-1544
1030.810	-1226
1030.876	-547
1030.942	-1005
1031.008	-1720
1031.074	-1073
1031.140	-1271
1031.206	-1131
1031.272	-1176
1031.337	-1052
1031.403	-1554
1031.469	-1712
1031.534	-1534
1031.600	-1208
1031.666	-1072
1031.731	-1862
1031.797	-1898
1031.863	-826
1031.928	-1189
1031.994	-1712
1032.059	-1806
1032.125	-1250
1032.190	-1074
1032.256	-1537
1032.321	-1191
1032.386	-928
1032.452	-1644
1032.517	-941
1032.582	-1204
1032.647	-1830
1032.713	-1455
1032.778	-1054
1032.843	-171
1032.908	-1325
1032.974	-996
1033.039	-973
1033.104	-904
1033.169	-1181
1033.234	-1254
1033.299	-1005
1033.364	-1733
1033.429	-917
1033.494	-668
1033.559	-1318
1033.624	-1000
1033.688	-1120
1033.753	-1491
1033.818	-1653
1033.883	-1581
1033.948	-1685
1034.013	-1646
1034.077	-1529
1034.142	-1016
1034.207	-1139
1034.271	-1167
1034.336	-1471
1034.400	-656
1034.465	-1453
1034.530	-811
1034.594	-1668
1034.658	-963
1034.723	-1466
1034.787	-1308
1034.852	-962
1034.916	-769
1034.981	-992
1035.045	-933
1035.109	-1551
1035.173	-1545
1035.238	-952
1035.302	-1507
1035.366	-1769
1035.430	-1699
1035.495	-1307
1035.559	-909
1035.623	-878
1035.687	-1560
1035.751	-954
1035.815	-1559
1035.879	-1563
1035.943	-972
1036.007	-1747
1036.071	-1384
1036.135	-1404
1036.198	-710
1036.262	-2388
1036.326	-677
1036.390	-1305
1036.454	-1441
1036.517	-861
1036.581	-1737
1036.645	-1946
1036.709	-916
1036.772	-2021
1036.836	-1071
1036.900	-1289
1036.963	-1998
1037.026	-1598
1037.090	-1613
1037.154	-894
1037.217	-1519
1037.280	-1520
1037.344	-1652
1037.407	-1255
1037.471	-1613
1037.534	-1587
1037.597	-1593
1037.661	-1347
1037.724	-2205
1037.787	-1976
1037.850	-1081
1037.913	-1845
1037.977	-1080
1038.040	-1588
1038.103	-1457
1038.166	-1317
1038.229	-1445
1038.292	-1984
1038.355	-2639
1038.418	-1388
1038.481	-2000
1038.544	-1271
1038.607	-2327
1038.670	-1906
1038.732	-1206
1038.795	-1575
1038.858	-1441
1038.921	-444
1038.984	-810
1039.046	-1289
1039.109	-1756
1039.172	-926
1039.234	-1294
1039.297	-1041
1039.360	-1258
1039.422	-1698
1039.485	-1482
1039.547	-1480
1039.610	-1737
1039.672	-1542
1039.734	-1556
1039.797	-1930
1039.859	-1620
1039.922	-1571
1039.984	-2019
1040.046	-923
1040.109	-1849
1040.171	-1627
1040.233	-1767
1040.295	-2605
1040.358	-1503
1040.420	-1531
1040.482	-1540
1040.544	-927
1040.606	-1589
1040.668	-1146
1040.730	-1406
1040.792	-2123
1040.854	-1353
1040.916	-1009
1040.978	-2067
1041.040	-1025
1041.102	-1168
1041.164	-1160
1041.225	-1938
1041.287	-2708
1041.349	-1605
1041.411	-1268
1041.472	-786
1041.534	-985
1041.596	-2832
1041.657	-1459
1041.719	-1036
1041.781	-1277
1041.842	-1405
1041.904	-2941
1041.965	-1782
1042.027	-1961
1042.088	-959
1042.150	-1659
1042.211	-1831
1042.272	-1782
1042.334	-1318
1042.395	-1903
1042.456	-1301
1042.518	-1712
1042.579	-1073
1042.640	-1431
1042.701	-2477
1042.763	-1135
1042.824	-2454
1042.885	-1645
1042.946	-968
1043.007	-1606
1043.068	-1731
1043.129	-998
1043.190	-1828
1043.251	-1820
1043.312	-1533
1043.373	-1453
1043.434	-1740
1043.495	-1130
1043.556	-1938
1043.616	-1090
1043.677	-1763
1043.738	-1087
1043.799	-1631
1043.859	-1211
1043.920	-1602
1043.981	-1459
1044.041	-1679
1044.102	-1285
1044.162	-1433
1044.223	-1671
1044.284	-2381
1044.344	-2107
1044.405	-1752
1044.465	-1759
1044.525	-1668
1044.586	-1676
1044.646	-1883
1044.707	-874
1044.767	-1178
1044.827	-1350
1044.887	-1149
1044.948	-1393
1045.008	-1357
1045.068	-1336
1045.128	-1403
1045.188	-1473
1045.249	-1615
1045.309	-1729
1045.369	-1684
1045.429	-1506
1045.489	-1612
1045.549	-1359
1045.609	-1256
1045.669	-1485
1045.729	-1831
1045.789	-907
1045.848	-1131
1045.908	-1769
1045.968	-1178
1046.028	-1647
1046.088	-1598
1046.147	-1220
1046.207	-1177
1046.267	-818
1046.326	-997
1046.386	-1096
1046.446	-1722
1046.505	-1463
1046.565	-1521
1046.624	-563
1046.684	-709
1046.743	-1726
1046.803	-89
1046.862	-144
1046.922	0
