'Start Wavelength	183.907
'End Wavelength	1046.922
'Gate Delay	5.000
'Gate Width (ms)	1.050
'Laser Output Level	0.000
'X Position	0.000
'Y Position	0.000
'Z Position	0.000
'Grid Point Number	1.000
'Shot Number	100.000
183.907	714.000
183.977	600.000
184.047	165
184.116	634
184.186	340
184.256	-103
184.325	398
184.395	154
184.465	402
184.534	186
184.604	-461
184.674	438
184.743	-302
184.813	771
184.883	-103
184.952	749
185.022	916
185.092	1154
185.161	71
185.231	-198
185.301	568
185.370	729
185.440	-417
185.509	-264
185.579	87
185.649	1139
185.718	385
185.788	331
185.857	137
185.927	339
185.996	120
186.066	415
186.136	124
186.205	515
186.275	29
186.344	247
186.414	-562
186.483	-222
186.553	646
186.622	624
186.692	107
186.761	-59
186.831	441
186.900	245
186.970	-156
187.039	123
187.109	1077
187.178	319
187.248	892
187.317	489
187.387	603
187.456	925
187.526	302
187.595	905
187.664	-242
187.734	600
187.803	207
187.873	368
187.942	292
188.012	554
188.081	148
188.150	369
188.220	448
188.289	498
188.358	400
188.428	553
188.497	82
188.567	665
188.636	-163
188.705	150
188.775	694
188.844	-359
188.913	193
188.983	448
189.052	448
189.121	-257
189.191	138
189.260	-141
189.329	97
189.399	-139
189.468	491
189.537	-200
189.606	-75
189.676	200
189.745	131
189.814	581
189.883	-38
189.953	540
190.022	367
190.091	1248
190.161	1869
190.230	585
190.299	820
190.368	321
190.437	356
190.507	101
190.576	-126
190.645	629
190.714	551
190.783	82
190.853	25
190.922	82
190.991	627
191.060	292
191.129	603
191.198	818
191.268	218
191.337	811
191.406	-237
191.475	642
191.544	387
191.613	-275
191.682	124
191.752	1277
191.821	289
191.890	449
191.959	132
192.028	370
192.097	340
192.166	-234
192.235	-261
192.304	1137
192.373	935
192.442	478
192.511	144
192.580	368
192.650	158
192.719	262
192.788	291
192.857	355
192.926	-16
192.995	241
193.064	109
193.133	387
193.202	451
193.271	811
193.340	875
193.409	88
193.478	1550
193.547	1046
193.615	1312
193.684	995
193.753	438
193.822	818
193.891	340
193.960	604
194.029	370
194.098	844
194.167	-777
194.236	725
194.305	358
194.374	-300
194.443	-467
194.512	15
194.580	579
194.649	1170
194.718	337
194.787	941
194.856	-399
194.925	354
194.994	612
195.062	818
195.131	827
195.200	620
195.269	519
195.338	479
195.407	562
195.475	397
195.544	163
195.613	171
195.682	82
195.751	358
195.819	119
195.888	1030
195.957	1027
196.026	420
196.094	584
196.163	800
196.232	133
196.301	517
196.369	654
196.438	392
196.507	620
196.576	364
196.644	474
196.713	769
196.782	192
196.850	-599
196.919	613
196.988	-203
197.056	97
197.125	174
197.194	934
197.262	46
197.331	-487
197.400	243
197.468	-154
197.537	948
197.606	1369
197.674	566
197.743	714
197.812	538
197.880	1291
197.949	1620
198.017	984
198.086	961
198.155	227
198.223	-122
198.292	1203
198.360	440
198.429	841
198.497	732
198.566	1171
198.635	1266
198.703	956
198.772	1380
198.840	1304
198.909	1626
198.977	795
199.046	464
199.114	379
199.183	535
199.251	635
199.320	720
199.388	558
199.457	489
199.525	701
199.594	419
199.662	198
199.731	-121
199.799	289
199.867	1296
199.936	316
200.004	116
200.073	-4
200.141	1092
200.210	53
200.278	904
200.346	109
200.415	269
200.483	640
200.552	237
200.620	272
200.688	319
200.757	616
200.825	786
200.893	76
200.962	1121
201.030	-14
201.098	824
201.167	-34
201.235	803
201.303	629
201.372	1107
201.440	196
201.508	66
201.577	787
201.645	471
201.713	326
201.781	241
201.850	806
201.918	717
201.986	-171
202.055	797
202.123	248
202.191	238
202.259	826
202.327	777
202.396	740
202.464	58
202.532	-177
202.600	1005
202.669	738
202.737	-508
202.805	-66
202.873	428
202.941	182
203.009	496
203.078	-81
203.146	1102
203.214	363
203.282	-17
203.350	468
203.418	630
203.487	101
203.555	794
203.623	-636
203.691	296
203.759	-242
203.827	-54
203.895	307
203.963	451
204.031	411
204.099	750
204.168	45
204.236	770
204.304	338
204.372	885
204.440	483
204.508	-23
204.576	-4
204.644	485
204.712	172
204.780	167
204.848	293
204.916	10
204.984	453
205.052	587
205.120	129
205.188	416
205.256	-285
205.324	431
205.392	380
205.460	782
205.528	754
205.596	176
205.664	-49
205.732	676
205.799	2091
205.867	2013
205.935	224
206.003	682
206.071	274
206.139	-179
206.207	1104
206.275	258
206.343	989
206.411	1233
206.478	461
206.546	435
206.614	166
206.682	868
206.750	591
206.818	1039
206.885	1017
206.953	150
207.021	722
207.089	909
207.157	250
207.225	909
207.292	194
207.360	1105
207.428	23
207.496	394
207.563	268
207.631	508
207.699	53
207.767	239
207.834	399
207.902	144
207.970	522
208.038	757
208.105	96
208.173	1080
208.241	915
208.309	1420
208.376	182
208.444	748
208.512	854
208.579	91
208.647	617
208.715	248
208.782	430
208.850	596
208.918	311
208.985	699
209.053	334
209.120	360
209.188	402
209.256	324
209.323	-416
209.391	572
209.459	354
209.526	-15
209.594	923
209.661	847
209.729	565
209.796	233
209.864	243
209.932	-188
209.999	839
210.067	650
210.134	866
210.202	877
210.269	1098
210.337	138
210.404	1044
210.472	610
210.539	597
210.607	342
210.674	1130
210.742	725
210.809	33
210.877	889
210.944	621
211.012	790
211.079	772
211.146	842
211.214	485
211.281	1081
211.349	157
211.416	770
211.484	975
211.551	880
211.618	1179
211.686	613
211.753	659
211.821	477
211.888	86
211.955	555
212.023	360
212.090	503
212.157	391
212.225	813
212.292	1322
212.359	3430
212.427	7461
212.494	2544
212.561	1244
212.629	912
212.696	912
212.763	570
212.831	296
212.898	1398
212.965	813
213.032	600
213.100	702
213.167	1085
213.234	924
213.301	1331
213.369	956
213.436	983
213.503	652
213.570	1050
213.638	471
213.705	804
213.772	-32
213.839	1632
213.906	769
213.973	1071
214.041	703
214.108	496
214.175	215
214.242	711
214.309	709
214.376	1067
214.444	722
214.511	1089
214.578	1095
214.645	617
214.712	803
214.779	1142
214.846	1230
214.913	514
214.980	862
215.048	1849
215.115	949
215.182	993
215.249	447
215.316	1320
215.383	492
215.450	1048
215.517	354
215.584	612
215.651	557
215.718	233
215.785	356
215.852	851
215.919	1344
215.986	1281
216.053	67
216.120	830
216.187	313
216.254	644
216.321	-42
216.388	278
216.455	1389
216.522	1216
216.589	1256
216.656	1750
216.722	1609
216.789	1142
216.856	1834
216.923	2116
216.990	453
217.057	899
217.124	916
217.191	2110
217.258	1489
217.324	2289
217.391	2362
217.458	2532
217.525	881
217.592	653
217.659	393
217.725	1310
217.792	1049
217.859	1118
217.926	424
217.993	1099
218.059	477
218.126	1386
218.193	562
218.260	507
218.327	59
218.393	556
218.460	-116
218.527	716
218.594	155
218.660	1210
218.727	739
218.794	406
218.860	721
218.927	678
218.994	541
219.061	956
219.127	636
219.194	1072
219.261	727
219.327	656
219.394	251
219.461	487
219.527	20
219.594	1037
219.661	874
219.727	65
219.794	74
219.860	499
219.927	-74
219.994	1710
220.060	2202
220.127	743
220.193	790
220.260	866
220.326	1446
220.393	3132
220.460	3930
220.526	1876
220.593	1467
220.659	1420
220.726	1662
220.792	4243
220.859	3492
220.925	5405
220.992	6321
221.058	6039
221.125	5758
221.191	4126
221.258	1076
221.324	1096
221.391	192
221.457	1195
221.524	846
221.590	948
221.657	4907
221.723	1373
221.789	3124
221.856	1717
221.922	931
221.989	511
222.055	692
222.121	789
222.188	1239
222.254	889
222.321	289
222.387	1008
222.453	-45
222.520	982
222.586	500
222.652	476
222.719	602
222.785	627
222.851	37
222.918	474
222.984	515
223.050	377
223.116	179
223.183	702
223.249	265
223.315	-491
223.382	677
223.448	718
223.514	318
223.580	585
223.647	-229
223.713	26
223.779	851
223.845	-72
223.911	215
223.978	-166
224.044	247
224.110	200
224.176	-163
224.242	256
224.309	-228
224.375	359
224.441	15
224.507	659
224.573	-238
224.639	824
224.705	175
224.772	703
224.838	498
224.904	562
224.970	530
225.036	723
225.102	538
225.168	165
225.234	-207
225.300	982
225.366	454
225.432	486
225.499	194
225.565	416
225.631	614
225.697	532
225.763	1155
225.829	853
225.895	910
225.961	1002
226.027	796
226.093	1548
226.159	1029
226.225	3082
226.291	6685
226.357	8766
226.423	3282
226.489	2300
226.554	1409
226.620	1558
226.686	2097
226.752	2891
226.818	4806
226.884	13438
226.950	8933
227.016	3039
227.082	1553
227.148	2277
227.214	286
227.279	1582
227.345	851
227.411	948
227.477	1556
227.543	2595
227.609	2282
227.674	961
227.740	170
227.806	1390
227.872	1115
227.938	564
228.003	1662
228.069	-81
228.135	536
228.201	669
228.267	183
228.332	-10
228.398	1019
228.464	288
228.530	18
228.595	535
228.661	-100
228.727	1496
228.792	-113
228.858	441
228.924	-451
228.990	1439
229.055	601
229.121	754
229.187	220
229.252	529
229.318	-191
229.384	189
229.449	619
229.515	-27
229.581	-297
229.646	1076
229.712	483
229.777	1773
229.843	1685
229.909	1044
229.974	1585
230.040	1035
230.105	517
230.171	1121
230.236	1059
230.302	1960
230.368	944
230.433	455
230.499	565
230.564	1224
230.630	176
230.695	435
230.761	110
230.826	18
230.892	903
230.957	175
231.023	-183
231.088	828
231.154	353
231.219	945
231.284	512
231.350	1092
231.415	-327
231.481	139
231.546	-532
231.612	243
231.677	-341
231.742	1046
231.808	166
231.873	441
231.939	-812
232.004	603
232.069	1240
232.135	1501
232.200	-445
232.265	391
232.331	43
232.396	1028
232.461	524
232.527	206
232.592	-819
232.657	433
232.723	671
232.788	-144
232.853	531
232.918	208
232.984	-67
233.049	483
233.114	677
233.179	669
233.245	1558
233.310	2353
233.375	361
233.440	664
233.506	126
233.571	384
233.636	249
233.701	1046
233.766	1609
233.832	746
233.897	432
233.962	422
234.027	360
234.092	392
234.157	382
234.222	928
234.288	815
234.353	4684
234.418	3856
234.483	1793
234.548	562
234.613	1053
234.678	1356
234.743	913
234.808	4649
234.873	1395
234.938	1812
235.004	590
235.069	500
235.134	675
235.199	564
235.264	800
235.329	365
235.394	862
235.459	1059
235.524	1305
235.589	325
235.654	819
235.719	-44
235.784	1247
235.849	739
235.913	1871
235.978	2861
236.043	3030
236.108	816
236.173	1092
236.238	371
236.303	256
236.368	860
236.433	2028
236.498	2636
236.563	1850
236.627	5483
236.692	15933
236.757	9403
236.822	4477
236.887	2980
236.952	2593
237.017	2572
237.081	2353
237.146	3210
237.211	6751
237.276	17525
237.341	21450
237.405	8399
237.470	4394
237.535	2524
237.600	1498
237.664	1630
237.729	617
237.794	2029
237.859	3702
237.923	2257
237.988	1337
238.053	2646
238.118	2252
238.182	7634
238.247	4973
238.312	1412
238.376	1915
238.441	116
238.506	1980
238.570	74
238.635	1466
238.700	653
238.764	767
238.829	2835
238.893	3140
238.958	1569
239.023	450
239.087	611
239.152	1054
239.216	390
239.281	939
239.346	897
239.410	729
239.475	1141
239.539	7048
239.604	2820
239.668	1502
239.733	571
239.797	2370
239.862	5308
239.926	4743
239.991	1842
240.055	1173
240.120	486
240.184	1008
240.249	444
240.313	140
240.378	1023
240.442	4364
240.507	4972
240.571	1444
240.635	2879
240.700	2247
240.764	424
240.829	670
240.893	-665
240.957	984
241.022	3880
241.086	4266
241.151	1298
241.215	351
241.279	1021
241.344	2061
241.408	887
241.472	320
241.537	1314
241.601	905
241.665	110
241.730	541
241.794	628
241.858	841
241.922	685
241.987	414
242.051	770
242.115	508
242.179	715
242.244	44
242.308	931
242.372	945
242.436	687
242.501	506
242.565	585
242.629	-14
242.693	694
242.757	404
242.822	583
242.886	262
242.950	298
243.014	113
243.078	591
243.142	560
243.206	50
243.271	1280
243.335	1133
243.399	2455
243.463	10956
243.527	19426
243.591	4186
243.655	2003
243.719	1162
243.783	1315
243.847	2254
243.911	2966
243.975	2559
244.040	1396
244.104	1477
244.168	366
244.232	338
244.296	2179
244.360	2325
244.424	1299
244.488	546
244.552	857
244.615	-42
244.679	332
244.743	568
244.807	172
244.871	1001
244.935	428
244.999	-364
245.063	918
245.127	1133
245.191	2018
245.255	1208
245.319	1391
245.383	111
245.446	1475
245.510	-186
245.574	800
245.638	151
245.702	803
245.766	1870
245.829	904
245.893	440
245.957	379
246.021	1584
246.085	929
246.149	1526
246.212	3873
246.276	4190
246.340	2037
246.404	1607
246.467	1618
246.531	1188
246.595	1453
246.659	769
246.722	215
246.786	1092
246.850	1144
246.913	2082
246.977	876
247.041	973
247.104	1106
247.168	901
247.232	3690
247.295	6096
247.359	2490
247.423	1495
247.486	2334
247.550	922
247.614	1074
247.677	684
247.741	740
247.804	513
247.868	1611
247.932	2430
247.995	5627
248.059	1130
248.122	328
248.186	2300
248.249	2684
248.313	11486
248.376	10065
248.440	5750
248.503	1177
248.567	2158
248.630	3086
248.694	2733
248.757	5362
248.821	10692
248.884	5123
248.948	6903
249.011	8678
249.075	14055
249.138	9467
249.202	3752
249.265	2818
249.328	4033
249.392	2345
249.455	1290
249.519	2351
249.582	2014
249.645	3923
249.709	2433
249.772	1624
249.835	1517
249.899	1912
249.962	1946
250.025	1697
250.089	4735
250.152	5097
250.215	2119
250.279	2381
250.342	2552
250.405	1771
250.468	893
250.532	2849
250.595	4995
250.658	24850
250.721	24937
250.785	7512
250.848	5005
250.911	2861
250.974	3054
251.038	3820
251.101	6365
251.164	3645
251.227	4021
251.290	3708
251.354	7703
251.417	32601
251.480	19934
251.543	19528
251.606	54181
251.669	27385
251.732	10816
251.795	11617
251.859	14477
251.922	32470
251.985	12185
252.048	5850
252.111	3509
252.174	4042
252.237	7938
252.300	13747
252.363	20745
252.426	37172
252.489	10947
252.552	6834
252.615	4698
252.678	5990
252.741	12283
252.804	21427
252.867	38325
252.930	17412
252.993	8983
253.056	5510
253.119	3909
253.182	4199
253.245	5955
253.308	4367
253.371	3383
253.434	2932
253.497	3450
253.559	7036
253.622	3047
253.685	5143
253.748	3808
253.811	1409
253.874	3235
253.937	2720
254.000	1297
254.062	4524
254.125	5526
254.188	6112
254.251	3924
254.314	2560
254.376	4493
254.439	4764
254.502	3106
254.565	4823
254.628	6670
254.690	3299
254.753	2053
254.816	898
254.878	1954
254.941	6344
255.004	3428
255.067	1894
255.129	879
255.192	575
255.255	381
255.317	1219
255.380	701
255.443	1242
255.505	611
255.568	164
255.631	-301
255.693	791
255.756	-766
255.819	1167
255.881	149
255.944	553
256.006	691
256.069	900
256.132	-271
256.194	1231
256.257	4414
256.319	2928
256.382	1381
256.444	1811
256.507	774
256.569	476
256.632	1128
256.694	1989
256.757	11273
256.819	21824
256.882	5511
256.944	2758
257.007	2006
257.069	1145
257.132	1235
257.194	1659
257.257	465
257.319	1450
257.381	1881
257.444	7462
257.506	31415
257.569	24513
257.631	12331
257.693	5950
257.756	2715
257.818	2452
257.880	1435
257.943	1534
258.005	564
258.067	612
258.130	790
258.192	1471
258.254	2241
258.317	1194
258.379	1625
258.441	3393
258.503	3462
258.566	7280
258.628	5763
258.690	1068
258.753	2319
258.815	2310
258.877	1076
258.939	1051
259.001	446
259.064	1090
259.126	643
259.188	964
259.250	1058
259.312	2030
259.375	6557
259.437	2360
259.499	1453
259.561	924
259.623	996
259.685	889
259.747	1371
259.809	7857
259.872	9561
259.934	19396
259.996	9545
260.058	2031
260.120	598
260.182	664
260.244	441
260.306	457
260.368	939
260.430	341
260.492	1721
260.554	5929
260.616	2989
260.678	8678
260.740	8578
260.802	1063
260.864	1080
260.926	840
260.988	1401
261.050	1055
261.112	3228
261.174	12458
261.236	6287
261.298	2332
261.359	5079
261.421	4449
261.483	719
261.545	918
261.607	367
261.669	686
261.731	2482
261.793	6197
261.854	391
261.916	1677
261.978	729
262.040	662
262.102	1582
262.164	2059
262.225	701
262.287	1143
262.349	2197
262.411	1256
262.472	975
262.534	3602
262.596	4895
262.658	1753
262.719	-118
262.781	2907
262.843	5190
262.904	1350
262.966	955
263.028	2004
263.090	18765
263.151	28877
263.213	6570
263.275	3852
263.336	881
263.398	1874
263.459	422
263.521	361
263.583	2842
263.644	908
263.706	413
263.767	-14
263.829	661
263.891	16
263.952	-32
264.014	-649
264.075	1125
264.137	1989
264.198	1004
264.260	-287
264.321	43
264.383	2531
264.444	5342
264.506	819
264.567	303
264.629	2852
264.690	2871
264.752	1201
264.813	361
264.875	-173
264.936	667
264.998	457
265.059	161
265.120	873
265.182	2856
265.243	14332
265.305	7771
265.366	1771
265.427	784
265.489	368
265.550	-4
265.611	773
265.673	389
265.734	236
265.795	110
265.857	29
265.918	157
265.979	3983
266.040	22351
266.102	11181
266.163	2824
266.224	1939
266.286	861
266.347	471
266.408	333
266.469	1083
266.530	482
266.592	470
266.653	1211
266.714	1988
266.775	-31
266.836	-194
266.898	-58
266.959	460
267.020	-302
267.081	507
267.142	-572
267.203	-217
267.264	-1016
267.326	-136
267.387	-675
267.448	-181
267.509	574
267.570	189
267.631	-609
267.692	-948
267.753	-143
267.814	-481
267.875	2166
267.936	3376
267.997	1069
268.058	1177
268.119	-258
268.180	-78
268.241	-1243
268.302	96
268.363	-19
268.424	-248
268.485	-29
268.546	-590
268.607	-664
268.668	-805
268.729	-201
268.790	50
268.851	193
268.912	2081
268.972	1783
269.033	-145
269.094	-413
269.155	-133
269.216	-505
269.277	110
269.338	-277
269.398	196
269.459	-699
269.520	1030
269.581	473
269.642	1223
269.702	-718
269.763	252
269.824	-618
269.885	102
269.945	1107
270.006	-97
270.067	-538
270.128	185
270.188	-97
270.249	-789
270.310	-504
270.370	467
270.431	285
270.492	-999
270.553	-53
270.613	1336
270.674	3349
270.734	554
270.795	-374
270.856	1052
270.916	84
270.977	139
271.038	469
271.098	322
271.159	1166
271.219	407
271.280	-40
271.340	-268
271.401	-291
271.462	2219
271.522	643
271.583	460
271.643	-134
271.704	-23
271.764	401
271.825	2328
271.885	11751
271.946	10476
272.006	2481
272.066	6722
272.127	8419
272.187	2402
272.248	713
272.308	2014
272.369	7680
272.429	1873
272.489	2296
272.550	771
272.610	2319
272.671	793
272.731	2021
272.791	2014
272.852	-736
272.912	1160
272.972	174
273.033	913
273.093	1126
273.153	335
273.214	285
273.274	798
273.334	7362
273.394	8726
273.455	1968
273.515	4544
273.575	7034
273.635	2600
273.696	6073
273.756	8841
273.816	1665
273.876	1544
273.936	7467
273.997	9660
274.057	1775
274.117	762
274.177	3122
274.237	14380
274.297	9185
274.358	6986
274.418	7907
274.478	4060
274.538	911
274.598	1587
274.658	10068
274.718	9426
274.778	2429
274.838	1261
274.898	7007
274.958	14753
275.018	10592
275.078	5156
275.138	2144
275.198	1082
275.258	439
275.318	552
275.378	1692
275.438	1702
275.498	1585
275.558	8666
275.618	13810
275.678	4903
275.738	2826
275.798	2492
275.858	1302
275.918	-415
275.978	673
276.038	286
276.098	767
276.157	2888
276.217	5546
276.277	1779
276.337	380
276.397	888
276.457	772
276.517	-1
276.576	234
276.636	-311
276.696	1079
276.756	3206
276.815	1274
276.875	187
276.935	529
276.995	721
277.055	-213
277.114	153
277.174	1446
277.234	4168
277.293	1168
277.353	231
277.413	159
277.472	290
277.532	373
277.592	1111
277.651	4201
277.711	4875
277.771	2062
277.830	10112
277.890	4829
277.950	7844
278.009	16953
278.069	3715
278.128	5922
278.188	5505
278.248	2608
278.307	8246
278.367	3413
278.426	1109
278.486	-188
278.545	-506
278.605	622
278.664	276
278.724	1074
278.783	6533
278.843	10231
278.902	1835
278.962	938
279.021	1635
279.081	1784
279.140	1458
279.199	1097
279.259	1535
279.318	1774
279.378	2599
279.437	7275
279.496	25571
279.556	72572
279.615	34959
279.675	8925
279.734	6146
279.793	11593
279.853	15724
279.912	4420
279.971	2815
280.031	3071
280.090	8230
280.149	9792
280.208	10798
280.268	52758
280.327	32085
280.386	7526
280.445	5641
280.505	4005
280.564	1602
280.623	1981
280.682	3653
280.742	2593
280.801	1082
280.860	170
280.919	1053
280.978	-291
281.037	703
281.097	-27
281.156	408
281.215	9
281.274	1027
281.333	7782
281.392	3955
281.451	54
281.510	32
281.569	17
281.628	70
281.688	131
281.747	894
281.806	637
281.865	-107
281.924	67
281.983	-917
282.042	30
282.101	446
282.160	-462
282.219	-379
282.278	1088
282.337	3268
282.396	1107
282.454	640
282.513	629
282.572	5027
282.631	1117
282.690	71
282.749	-406
282.808	657
282.867	-33
282.926	-109
282.985	-56
283.043	-218
283.102	366
283.161	81
283.220	3748
283.279	5043
283.338	482
283.396	246
283.455	792
283.514	356
283.573	657
283.631	-77
283.690	325
283.749	415
283.808	1488
283.866	1525
283.925	-150
283.984	-15
284.043	818
284.101	789
284.160	-299
284.219	1296
284.277	380
284.336	2330
284.395	7202
284.453	4602
284.512	299
284.570	2182
284.629	1322
284.688	961
284.746	970
284.805	1535
284.863	1332
284.922	1644
284.981	2394
285.039	4111
285.098	9430
285.156	30311
285.215	71694
285.273	54904
285.332	22498
285.390	11556
285.449	7135
285.507	5159
285.566	3576
285.624	1864
285.683	1567
285.741	1715
285.799	1654
285.858	883
285.916	329
285.975	1103
286.033	211
286.091	566
286.150	278
286.208	725
286.267	940
286.325	618
286.383	1563
286.442	252
286.500	48
286.558	691
286.616	-418
286.675	521
286.733	-926
286.791	356
286.850	589
286.908	1558
286.966	1517
287.024	-76
287.083	53
287.141	-579
287.199	695
287.257	1114
287.315	269
287.374	886
287.432	1788
287.490	1191
287.548	897
287.606	681
287.664	499
287.723	1195
287.781	1193
287.839	1155
287.897	1131
287.955	1570
288.013	3856
288.071	12327
288.129	56527
288.187	108121
288.245	35242
288.303	11306
288.361	6928
288.419	5667
288.477	3484
288.535	2590
288.593	1021
288.651	960
288.709	411
288.767	935
288.825	192
288.883	402
288.941	311
288.999	539
289.057	267
289.115	-3
289.173	39
289.231	84
289.289	146
289.346	147
289.404	-176
289.462	940
289.520	772
289.578	40
289.636	-592
289.694	48
289.751	-883
289.809	221
289.867	-947
289.925	305
289.983	-52
290.040	-243
290.098	-311
290.156	152
290.214	245
290.271	-278
290.329	-726
290.387	245
290.444	-281
290.502	-302
290.560	-640
290.617	-109
290.675	-739
290.733	-195
290.790	148
290.848	-601
290.906	-369
290.963	-443
291.021	-378
291.078	-218
291.136	230
291.194	2663
291.251	4882
291.309	641
291.366	-741
291.424	21
291.481	195
291.539	-294
291.596	-115
291.654	-527
291.711	-878
291.769	7
291.826	158
291.884	185
291.941	-370
291.999	80
292.056	206
292.114	-245
292.171	-397
292.228	-54
292.286	416
292.343	1496
292.401	982
292.458	240
292.515	31
292.573	114
292.630	-261
292.687	386
292.745	-553
292.802	720
292.859	3667
292.917	6629
292.974	1471
293.031	373
293.089	150
293.146	-28
293.203	-144
293.260	185
293.318	1004
293.375	954
293.432	278
293.489	-133
293.546	-654
293.604	896
293.661	5201
293.718	10905
293.775	4296
293.832	1881
293.889	944
293.947	2052
294.004	476
294.061	904
294.118	2970
294.175	6379
294.232	7736
294.289	2403
294.346	520
294.403	1062
294.460	140
294.517	488
294.574	-21
294.631	-445
294.688	1082
294.745	4968
294.802	15817
294.859	12485
294.916	5373
294.973	3142
295.030	859
295.087	1223
295.144	186
295.201	283
295.258	640
295.315	1033
295.372	6035
295.429	8614
295.486	3087
295.542	2428
295.599	7452
295.656	10101
295.713	7692
295.770	8169
295.827	1924
295.883	1346
295.940	1229
295.997	1790
296.054	1693
296.111	880
296.167	566
296.224	-732
296.281	287
296.338	-277
296.394	43
296.451	663
296.508	4428
296.564	6854
296.621	5057
296.678	13429
296.734	14125
296.791	4184
296.848	1777
296.904	3045
296.961	5095
297.018	11452
297.074	6486
297.131	1775
297.187	1493
297.244	3937
297.301	14728
297.357	18480
297.414	5497
297.470	2382
297.527	858
297.583	894
297.640	654
297.696	591
297.753	414
297.809	-316
297.866	193
297.922	664
297.979	-124
298.035	304
298.092	1307
298.148	6143
298.204	3954
298.261	2368
298.317	6050
298.374	13705
298.430	6018
298.486	2758
298.543	1566
298.599	2012
298.656	2173
298.712	4681
298.768	12367
298.824	7322
298.881	2297
298.937	1692
298.993	481
299.050	1663
299.106	1107
299.162	561
299.218	1365
299.275	828
299.331	468
299.387	4474
299.443	13859
299.500	11860
299.556	4634
299.612	2356
299.668	1759
299.724	3505
299.780	3206
299.837	1023
299.893	3144
299.949	12092
300.005	11304
300.061	11970
300.117	17617
300.173	7680
300.229	3396
300.285	3671
300.341	2776
300.397	941
300.453	855
300.510	570
300.566	730
300.622	2592
300.678	9492
300.734	13037
300.790	11313
300.845	12616
300.901	9482
300.957	11830
301.013	6941
301.069	2467
301.125	1270
301.181	1385
301.237	1128
301.293	489
301.349	694
301.405	243
301.461	717
301.516	791
301.572	1089
301.628	2276
301.684	1709
301.740	4035
301.796	5620
301.851	3502
301.907	7101
301.963	7710
302.019	16458
302.074	38069
302.130	30604
302.186	12324
302.242	5126
302.297	3912
302.353	4287
302.409	7149
302.464	5756
302.520	4598
302.576	12774
302.631	12620
302.687	6025
302.743	2404
302.798	1095
302.854	724
302.910	657
302.965	2189
303.021	2979
303.076	2294
303.132	4273
303.187	3813
303.243	1023
303.299	1015
303.354	1185
303.410	499
303.465	52
303.521	267
303.576	548
303.632	1538
303.687	4651
303.743	12082
303.798	8616
303.853	2443
303.909	1180
303.964	1095
304.020	2010
304.075	3728
304.130	2580
304.186	5447
304.241	5256
304.297	4888
304.352	1725
304.358	1676
304.407	1279
304.449	1161
304.463	1122
304.518	1171
304.539	1120
304.573	1028
304.629	1473
304.630	1510
304.684	3284
304.720	7875
304.739	10226
304.794	12543
304.811	10439
304.850	5183
304.902	2804
304.905	2665
304.960	1965
304.992	1816
305.015	1720
305.071	1376
305.083	1193
305.126	485
305.173	364
305.181	359
305.236	110
305.264	522
305.292	932
305.347	934
305.354	1015
305.402	1544
305.445	2153
305.457	2322
305.512	2485
305.535	2155
305.567	1659
305.622	2225
305.626	2384
305.678	5804
305.716	11898
305.733	14276
305.788	15017
305.807	13397
305.843	10020
305.897	12481
305.898	12515
305.953	11547
305.988	7821
306.008	5496
306.063	3064
306.078	2567
306.118	1861
306.168	1372
306.173	1323
306.228	1444
306.259	1140
306.283	913
306.338	658
306.349	685
306.393	988
306.440	1613
306.448	1679
306.503	1397
306.530	1666
306.558	2586
306.613	7086
306.620	7490
306.668	10009
306.711	13033
306.723	13364
306.778	9934
306.801	7966
306.833	5545
306.888	2367
306.892	2283
306.943	1778
306.982	1480
306.997	1493
307.052	1460
307.072	1726
307.107	2255
307.162	2616
307.163	2624
307.217	4026
307.253	5440
307.272	5808
307.327	5647
307.343	5268
307.381	4415
307.434	3751
307.436	3831
307.491	7592
307.524	11148
307.546	12601
307.600	12134
307.614	11163
307.655	6635
307.704	3373
307.710	3300
307.765	3908
307.795	5012
307.819	6648
307.874	11491
307.885	11644
307.929	9371
307.975	7221
307.984	7318
308.038	10559
308.065	13558
308.093	21880
308.148	44997
308.156	50487
308.202	89606
308.246	109727
308.257	105013
308.312	57574
308.336	39629
308.366	29501
308.421	17039
308.426	16050
308.475	10938
308.517	7608
308.530	7070
308.585	6076
308.607	5539
308.639	5167
308.694	5497
308.697	5582
308.748	9816
308.787	13939
308.803	14291
308.857	11737
308.877	10579
308.912	8434
308.967	6780
308.967	6757
309.021	9054
309.058	11752
309.076	14977
309.130	27559
309.148	32832
309.185	61290
309.238	113130
309.239	113853
309.293	137774
309.328	136351
309.348	116197
309.402	56798
309.418	41697
309.457	28192
309.508	14851
309.511	14563
309.566	11816
309.598	10644
309.620	10965
309.674	12569
309.688	13015
309.729	12663
309.778	11387
309.783	11113
309.837	7757
309.868	6310
309.892	7268
309.946	10240
309.959	11257
310.001	17146
310.049	22369
310.055	21672
310.109	13782
310.139	9350
310.163	7474
310.218	4147
310.229	3616
310.272	3114
310.319	2446
310.326	2397
310.381	2072
310.409	2072
310.435	2227
310.489	2325
310.499	2349
310.543	1867
310.589	1355
310.598	1431
310.652	2236
310.679	2375
310.706	1927
310.760	1285
310.769	1168
310.814	1203
310.859	1261
310.868	1218
310.923	1127
310.948	930
310.977	1280
311.031	2257
311.038	2373
311.085	2025
311.128	1657
311.139	1751
311.193	2206
311.218	2426
311.247	2193
311.301	1786
311.308	1714
311.356	1694
311.398	1743
311.410	1762
311.464	1795
311.488	1821
311.518	1620
311.572	1206
311.578	1164
311.626	1389
311.668	1576
311.680	1745
311.734	2466
311.758	2790
311.788	2540
311.842	2052
311.847	1998
311.896	2527
311.937	3008
311.950	3135
312.004	3682
312.027	3882
312.058	3217
312.112	2057
312.117	1938
312.165	1596
312.207	1303
312.297	2586
312.386	2066
312.476	2161
312.566	3403
312.656	2715
312.745	1120
312.835	2020
312.925	1740
313.015	2239
313.104	1716
313.194	1411
313.284	2241
313.374	1796
313.463	2083
313.553	2238
313.643	170
313.732	1610
313.822	1017
313.912	2104
314.001	2303
314.091	2680
314.180	2840
314.270	2902
314.360	2601
314.449	2976
314.539	1219
314.628	1547
314.718	1545
314.808	2285
314.897	959
314.987	2117
315.076	1840
315.166	3227
315.255	3174
315.345	3224
315.434	3178
315.524	2845
315.613	3382
315.703	4483
315.792	6281
315.881	21260
315.971	11195
316.060	5587
316.150	7376
316.239	7835
316.328	3957
316.418	2188
316.507	1393
316.597	3256
316.686	3129
316.775	3836
316.865	8538
316.954	2982
317.043	1601
317.133	1932
317.222	833
317.311	2054
317.400	695
317.490	2263
317.579	3408
317.668	3125
317.757	4496
317.847	10030
317.936	39778
318.025	19492
318.114	8084
318.203	5282
318.293	4346
318.382	7560
318.471	7200
318.560	9249
318.649	20273
318.738	6593
318.828	3150
318.917	3337
319.006	3955
319.095	9104
319.184	23147
319.273	17147
319.362	6899
319.451	2540
319.540	2076
319.629	4494
319.718	7903
319.807	4782
319.896	6749
319.985	30516
320.074	15220
320.163	3592
320.252	4344
320.341	3942
320.430	3370
320.519	4051
320.608	2163
320.697	2793
320.786	2193
320.875	3486
320.964	3934
321.053	5544
321.142	6722
321.230	9554
321.319	6329
321.408	13661
321.497	8031
321.586	6017
321.675	7375
321.764	9400
321.852	5065
321.941	7767
322.030	6970
322.119	6901
322.207	14240
322.296	13994
322.385	6634
322.474	7623
322.562	15843
322.651	12109
322.740	6248
322.829	11997
322.917	10855
323.006	7513
323.095	4970
323.183	4188
323.272	6109
323.361	9823
323.449	34373
323.538	17020
323.626	21404
323.715	21757
323.804	6064
323.892	19052
323.981	14224
324.069	4702
324.158	8771
324.246	13606
324.335	3061
324.424	5765
324.512	2193
324.601	2619
324.689	3421
324.778	8116
324.866	7910
324.954	3277
325.043	1943
325.131	4327
325.220	7896
325.308	10711
325.397	5997
325.485	6169
325.574	1345
325.662	1704
325.750	1766
325.839	2228
325.927	405
326.015	1712
326.104	3175
326.192	6168
326.280	639
326.369	1454
326.457	1467
326.545	4246
326.634	2216
326.722	1447
326.810	1421
326.898	1480
326.987	925
327.075	3729
327.163	3863
327.251	2610
327.340	2566
327.428	4957
327.516	954
327.604	2081
327.692	1347
327.781	2051
327.869	3423
327.957	2560
328.045	1847
328.133	1517
328.221	1301
328.309	1717
328.397	1839
328.485	2177
328.574	1638
328.662	8374
328.750	6021
328.838	3132
328.926	1420
329.014	1604
329.102	1267
329.190	4721
329.278	3683
329.366	1626
329.454	1626
329.542	1109
329.630	712
329.718	2121
329.806	1262
329.893	3271
329.981	2966
330.069	5430
330.157	17561
330.245	57540
330.333	39598
330.421	7852
330.509	4189
330.597	9415
330.684	8286
330.772	3430
330.860	3210
330.948	5191
331.036	2115
331.123	1297
331.211	587
331.299	1535
331.387	3313
331.475	7742
331.562	2190
331.650	1617
331.738	513
331.825	2493
331.913	927
332.001	1754
332.089	1954
332.176	4606
332.264	8880
332.352	10283
332.439	2459
332.527	2073
332.614	958
332.702	2773
332.790	1629
332.877	3985
332.965	10143
333.052	2951
333.140	1628
333.228	5582
333.315	992
333.403	1711
333.490	4285
333.578	5248
333.665	3927
333.753	3721
333.840	1084
333.928	2841
334.015	5843
334.103	10149
334.190	34482
334.278	13813
334.365	4663
334.452	4843
334.540	2669
334.627	3008
334.715	4534
334.802	8145
334.889	35108
334.977	56930
335.064	9235
335.151	3721
335.239	3045
335.326	3195
335.413	12141
335.501	27752
335.588	4900
335.675	3192
335.762	2934
335.850	6142
335.937	5060
336.024	12171
336.111	43227
336.199	29790
336.286	6100
336.373	3509
336.460	1532
336.547	2093
336.635	2307
336.722	2514
336.809	1436
336.896	2794
336.983	7244
337.070	21807
337.157	38249
337.245	25718
337.332	24798
337.419	3023
337.506	1173
337.593	2607
337.680	5492
337.767	21774
337.854	7390
337.941	6273
338.028	7767
338.115	4834
338.202	2981
338.289	6136
338.376	24190
338.463	11245
338.550	9628
338.637	17002
338.724	3783
338.811	8727
338.898	1720
338.984	1117
339.071	1265
339.158	2152
339.245	4293
339.332	4038
339.419	3879
339.506	5875
339.593	735
339.679	1311
339.766	39
339.853	1243
339.940	2767
340.027	2028
340.113	950
340.200	2331
340.287	1628
340.374	1760
340.460	3230
340.547	2456
340.634	1710
340.720	8783
340.807	8128
340.894	1340
340.980	892
341.067	1480
341.154	742
341.240	1759
341.327	4293
341.414	2246
341.500	553
341.587	1696
341.674	668
341.760	3176
341.847	3648
341.933	1859
342.020	241
342.106	818
342.193	220
342.279	2624
342.366	1273
342.452	3592
342.539	2328
342.625	2815
342.712	10434
342.798	6216
342.885	1285
342.971	1700
343.058	184
343.144	1315
343.230	75
343.317	1200
343.403	772
343.490	1105
343.576	-44
343.662	939
343.749	830
343.835	2427
343.921	3901
344.008	17800
344.094	59137
344.180	18511
344.267	4149
344.353	11490
344.439	17346
344.525	6518
344.612	2384
344.698	2952
344.784	1840
344.870	1522
344.957	262
345.043	2394
345.129	1115
345.215	3172
345.301	1295
345.387	1438
345.474	842
345.560	1117
345.646	993
345.732	1231
345.818	906
345.904	1252
345.990	760
346.076	1638
346.162	3099
346.249	1969
346.335	807
346.421	1639
346.507	4084
346.593	21326
346.679	7256
346.765	1302
346.851	1222
346.937	1810
347.023	507
347.108	1256
347.194	513
347.280	1033
347.366	1862
347.452	5246
347.538	24697
347.624	19887
347.710	15979
347.796	3185
347.882	699
347.967	822
348.053	1025
348.139	1741
348.225	329
348.311	1210
348.397	481
348.482	1263
348.568	1773
348.654	1184
348.740	1290
348.825	3214
348.911	2571
348.997	8888
349.083	26021
349.168	5766
349.254	1234
349.340	1923
349.425	718
349.511	973
349.597	1835
349.682	3394
349.768	11436
349.854	8687
349.939	1166
350.025	1272
350.110	897
350.196	367
350.282	106
350.367	770
350.453	815
350.538	2431
350.624	1381
350.709	2249
350.795	787
350.880	852
350.966	991
351.051	1577
351.137	1682
351.222	1372
351.308	2196
351.393	11069
351.479	3478
351.564	1234
351.649	347
351.735	1690
351.820	-174
351.906	1334
351.991	1270
352.076	5017
352.162	11736
352.247	2611
352.332	1388
352.418	2123
352.503	2753
352.588	13064
352.673	14378
352.759	3043
352.844	668
352.929	1492
353.014	2044
353.100	1105
353.185	3117
353.270	4777
353.355	3916
353.441	1122
353.526	1116
353.611	3270
353.696	3756
353.781	2865
353.866	818
353.952	1767
354.037	1650
354.122	7187
354.207	6777
354.292	3399
354.377	632
354.462	1410
354.547	1007
354.632	1282
354.717	2558
354.802	4808
354.887	2307
354.972	811
355.057	1059
355.142	801
355.227	1179
355.312	1999
355.397	3841
355.482	10372
355.567	7138
355.652	3959
355.737	4238
355.822	12841
355.907	16151
355.991	3213
356.076	928
356.161	439
356.246	721
356.331	1119
356.416	3240
356.501	22114
356.585	36944
356.670	5213
356.755	2179
356.840	4079
356.924	14793
357.009	68110
357.094	35090
357.179	4882
357.263	3288
357.348	2991
357.433	2981
357.517	2280
357.602	2666
357.687	2495
357.771	3440
357.856	9105
357.941	6899
358.025	10704
358.110	60704
358.195	41069
358.279	5189
358.364	3139
358.448	7577
358.533	26067
358.617	21807
358.702	21493
358.787	9426
358.871	4121
358.956	2513
359.040	1883
359.125	324
359.209	1207
359.294	2307
359.378	7686
359.462	3027
359.547	2420
359.631	766
359.716	1785
359.800	1070
359.885	3068
359.969	745
360.053	1490
360.138	731
360.222	1859
360.306	2376
360.391	2834
360.475	3640
360.559	11394
360.644	9123
360.728	9118
360.812	10756
360.896	45333
360.981	19859
361.065	9592
361.149	1614
361.233	2596
361.318	978
361.402	2493
361.486	1166
361.570	1278
361.654	1942
361.739	4806
361.823	19720
361.907	50930
361.991	10081
362.075	3890
362.159	6626
362.243	7529
362.327	6683
362.411	13106
362.495	5689
362.580	3270
362.664	1548
362.748	2580
362.832	2829
362.916	4684
363.000	16021
363.084	43771
363.168	63264
363.252	18309
363.336	4622
363.420	5490
363.503	17341
363.587	33746
363.671	6570
363.755	2884
363.839	3455
363.923	2426
364.007	4140
364.091	6208
364.175	8035
364.258	37948
364.342	37920
364.426	44737
364.510	29972
364.594	9927
364.677	7481
364.761	33430
364.845	35177
364.929	7422
365.013	5580
365.096	4340
365.180	5603
365.264	6778
365.347	37348
365.431	22296
365.515	4058
365.598	1577
365.682	879
365.766	2024
365.849	3152
365.933	1495
366.017	2359
366.100	2802
366.184	550
366.267	1484
366.351	882
366.435	1495
366.518	520
366.602	378
366.685	-294
366.769	1269
366.852	1638
366.936	4727
367.019	2515
367.103	2126
367.186	3512
367.270	1947
367.353	-300
367.436	553
367.520	903
367.603	1826
367.687	1545
367.770	4466
367.853	2829
367.937	6972
368.020	18029
368.104	5525
368.187	2662
368.270	4805
368.353	4632
368.437	4868
368.520	15391
368.603	10565
368.687	7704
368.770	24351
368.853	6610
368.936	3606
369.020	4593
369.103	2112
369.186	364
369.269	1249
369.352	1610
369.436	5106
369.519	2038
369.602	845
369.685	845
369.768	1179
369.851	167
369.934	352
370.018	322
370.101	2812
370.184	3145
370.267	2134
370.350	2356
370.433	5905
370.516	14202
370.599	29854
370.682	9183
370.765	9180
370.848	11934
370.931	27774
371.014	13302
371.097	2642
371.180	862
371.263	554
371.346	175
371.429	1609
371.511	349
371.594	1599
371.677	3044
371.760	4843
371.843	2825
371.926	14751
372.009	54557
372.091	21762
372.174	7506
372.257	25698
372.340	13448
372.423	4980
372.505	7466
372.588	3260
372.671	5124
372.754	23811
372.836	17000
372.919	7302
373.002	20486
373.085	7398
373.167	3407
373.250	7843
373.332	25103
373.415	28768
373.498	77115
373.580	34632
373.663	30234
373.746	61011
373.828	13624
373.911	4085
373.993	3045
374.076	15345
374.159	22402
374.241	6452
374.324	18774
374.406	17074
374.489	14024
374.571	60261
374.654	32002
374.736	8830
374.819	32765
374.901	49114
374.983	65959
375.066	13801
375.148	3327
375.231	10339
375.313	33774
375.395	14731
375.478	2676
375.560	2220
375.643	2370
375.725	6389
375.807	41646
375.890	46995
375.972	17947
376.054	7557
376.136	13155
376.219	7320
376.301	7862
376.383	40465
376.465	20736
376.548	7020
376.630	7498
376.712	29676
376.794	20943
376.877	2050
376.959	583
377.041	1098
377.123	2041
377.205	5122
377.287	455
377.369	786
377.452	237
377.534	1283
377.616	754
377.698	1125
377.780	-378
377.862	889
377.944	16
378.026	413
378.108	167
378.190	972
378.272	662
378.354	1052
378.436	-283
378.518	918
378.600	5831
378.682	6266
378.764	11539
378.846	15103
378.928	2553
379.010	3881
379.091	2295
379.173	1233
379.255	221
379.337	1062
379.419	3530
379.501	20826
379.583	11515
379.664	1625
379.746	3119
379.828	11303
379.910	17252
379.991	20738
380.073	3149
380.155	1231
380.237	169
380.318	420
380.400	177
380.482	2337
380.564	3899
380.645	4664
380.727	5249
380.809	2210
380.890	982
380.972	1568
381.053	300
381.135	1615
381.217	2061
381.298	14469
381.380	8267
381.461	4863
381.543	24315
381.624	48094
381.706	10193
381.787	3569
381.869	3054
381.951	7899
382.032	51865
382.113	46741
382.195	7398
382.276	3792
382.358	7067
382.439	26241
382.521	29118
382.602	57137
382.684	25442
382.765	33559
382.846	37994
382.928	35729
383.009	24171
383.090	11359
383.172	39978
383.253	92074
383.334	36304
383.416	44283
383.497	29232
383.578	7464
383.659	9398
383.741	32038
383.822	125720
383.903	87205
383.984	23957
384.066	49881
384.147	38852
384.228	8715
384.309	4272
384.390	3756
384.471	2091
384.553	2771
384.634	2607
384.715	3345
384.796	1184
384.877	2149
384.958	9433
385.039	18229
385.120	6053
385.201	3321
385.282	2480
385.363	3098
385.444	2559
385.525	3776
385.606	18844
385.687	24617
385.768	4483
385.849	4165
385.930	15747
386.011	48754
386.092	16717
386.173	3972
386.254	2158
386.335	1891
386.416	1675
386.496	6616
386.577	15103
386.658	6236
386.739	2424
386.820	3365
386.901	1440
386.981	2290
387.062	833
387.143	2673
387.224	11040
387.304	15746
387.385	5242
387.466	2360
387.547	3339
387.627	3495
387.708	3812
387.789	20069
387.869	36960
387.950	13887
388.031	2230
388.111	918
388.192	4177
388.273	7676
388.353	4978
388.434	2961
388.514	3432
388.595	20938
388.676	36030
388.756	17434
388.837	11532
388.917	10225
388.998	1166
389.078	1563
389.159	1231
389.239	626
389.320	1275
389.400	1195
389.480	3298
389.561	14198
389.641	10355
389.722	2573
389.802	3063
389.883	4720
389.963	16946
390.043	15106
390.124	3344
390.204	3212
390.284	13602
390.365	12848
390.445	9489
390.525	37464
390.605	45704
390.686	12521
390.766	3200
390.846	1533
390.927	584
391.007	700
391.087	1542
391.167	2222
391.247	172
391.328	2601
391.408	3728
391.488	3119
391.568	317
391.648	1739
391.728	2711
391.808	3025
391.888	3204
391.969	6578
392.049	13310
392.129	8494
392.209	5139
392.289	18280
392.369	12434
392.449	8534
392.529	6652
392.609	5275
392.689	4861
392.769	16524
392.849	20183
392.929	11164
393.009	26284
393.089	29849
393.169	23848
393.248	64865
393.328	270236
393.408	417637
393.488	140412
393.568	35300
393.648	16661
393.728	9431
393.807	5957
393.887	6232
393.967	4699
394.047	5518
394.127	5688
394.206	10061
394.286	25500
394.366	138501
394.446	222857
394.525	65758
394.605	13496
394.685	7515
394.764	10858
394.844	19924
394.924	19780
395.003	7213
395.083	3781
395.163	3835
395.242	2515
395.322	2954
395.402	1442
395.481	3953
395.561	4949
395.640	22615
395.720	22980
395.799	27795
395.879	28746
395.958	15644
396.038	39540
396.117	183237
396.197	287628
396.276	101160
396.356	27515
396.435	15934
396.515	12116
396.594	12140
396.673	20517
396.753	63203
396.832	269543
396.912	278879
396.991	69646
397.070	17251
397.150	7723
397.229	5810
397.308	6405
397.388	15315
397.467	9911
397.546	3084
397.625	383
397.705	3768
397.784	2465
397.863	2115
397.942	522
398.022	1568
398.101	2782
398.180	20038
398.259	13946
398.338	3213
398.417	1017
398.497	1141
398.576	535
398.655	1586
398.734	-425
398.813	1296
398.892	3410
398.971	21080
399.050	16034
399.129	1294
399.208	-51
399.287	35
399.366	-42
399.445	77
399.524	-729
399.603	-48
399.682	1120
399.761	4477
399.840	20965
399.919	26214
399.998	3760
400.077	419
400.156	-589
400.235	2067
400.313	-430
400.392	693
400.471	4204
400.550	12693
400.629	3408
400.708	1001
400.786	178
400.865	2142
400.944	3527
401.023	3423
401.102	-728
401.180	352
401.259	-340
401.338	492
401.416	207
401.495	694
401.574	-191
401.652	746
401.731	243
401.810	1716
401.888	-319
401.967	-67
402.046	-645
402.124	882
402.203	1121
402.281	527
402.360	-169
402.438	4465
402.517	3485
402.596	1046
402.674	278
402.753	747
402.831	-150
402.910	589
402.988	2797
403.066	23066
403.145	20391
403.223	6446
403.302	19163
403.380	18713
403.459	16681
403.537	8223
403.615	1625
403.694	-290
403.772	433
403.850	9
403.929	-88
404.007	94
404.085	1549
404.164	3788
404.242	694
404.320	2653
404.398	9555
404.477	14594
404.555	32894
404.633	47811
404.711	12756
404.789	6776
404.868	1128
404.946	1119
405.024	-163
405.102	-174
405.180	-971
405.258	-396
405.336	416
405.415	-713
405.493	894
405.571	2136
405.649	-150
405.727	19
405.805	688
405.883	714
405.961	492
406.039	1006
406.117	-465
406.195	1432
406.273	3291
406.351	29830
406.429	27008
406.507	3926
406.585	373
406.663	587
406.740	833
406.818	580
406.896	-380
406.974	647
407.052	88
407.130	12244
407.208	30434
407.285	8384
407.363	561
407.441	399
407.519	-552
407.596	1094
407.674	2827
407.752	22772
407.830	30297
407.907	6844
407.985	1075
408.063	809
408.141	-532
408.218	345
408.296	977
408.373	1369
408.451	711
408.529	535
408.606	-569
408.684	-104
408.762	-526
408.839	-496
408.917	-505
408.994	-216
409.072	-1289
409.149	-471
409.227	-82
409.304	1419
409.382	598
409.459	1228
409.537	1537
409.614	3025
409.692	1139
409.769	1444
409.846	2908
409.924	4450
410.001	2108
410.079	1545
410.156	1430
410.233	1294
410.311	82
410.388	45
410.465	459
410.543	589
410.620	147
410.697	-50
410.775	-79
410.852	-996
410.929	518
411.006	1528
411.083	-457
411.161	1100
411.238	1746
411.315	861
411.392	-137
411.469	847
411.547	409
411.624	-889
411.701	-416
411.778	437
411.855	884
411.932	540
412.009	-441
412.086	-577
412.163	-625
412.240	-173
412.317	302
412.394	159
412.471	-128
412.548	-373
412.625	-1280
412.702	-501
412.779	499
412.856	1528
412.933	-1070
413.010	770
413.087	-285
413.164	3361
413.241	9396
413.318	2186
413.395	71
413.471	1020
413.548	227
413.625	414
413.702	-734
413.779	149
413.855	-531
413.932	-408
414.009	-827
414.086	124
414.162	-735
414.239	-477
414.316	2917
414.393	13031
414.469	5992
414.546	-28
414.623	-987
414.699	-221
414.776	-887
414.853	-981
414.929	-462
415.006	-453
415.082	-478
415.159	-212
415.236	-393
415.312	-183
415.389	-416
415.465	1118
415.542	571
415.618	-590
415.695	-190
415.771	425
415.848	-697
415.924	144
416.000	-471
416.077	76
416.153	-997
416.230	-327
416.306	-660
416.383	-295
416.459	-367
416.535	-910
416.612	-1319
416.688	-586
416.764	-659
416.841	-1056
416.917	-466
416.993	-217
417.069	-224
417.146	723
417.222	246
417.298	1266
417.374	-1238
417.451	46
417.527	-1099
417.603	456
417.679	-154
417.755	-111
417.831	-1113
417.908	-240
417.984	-1536
418.060	-426
418.136	-90
418.212	1062
418.288	-252
418.364	-15
418.440	-1443
418.516	263
418.592	614
418.668	1220
418.744	1902
418.820	3449
418.896	-399
418.972	-794
419.048	-1079
419.124	774
419.200	339
419.276	152
419.352	-1288
419.428	-450
419.504	-763
419.579	-596
419.655	-733
419.731	-293
419.807	492
419.883	2818
419.959	3308
420.034	1489
420.110	47
420.186	5719
420.262	9083
420.337	2043
420.413	-91
420.489	423
420.565	-103
420.640	270
420.716	20
420.792	-591
420.867	119
420.943	159
421.019	-136
421.094	-173
421.170	287
421.245	-54
421.321	437
421.397	368
421.472	2630
421.548	14081
421.623	14145
421.699	3391
421.774	1039
421.850	1211
421.925	1930
422.001	3156
422.076	2268
422.152	2980
422.227	4618
422.302	7719
422.378	10751
422.453	19646
422.529	40821
422.604	111479
422.679	204399
422.755	177312
422.830	82596
422.905	34180
422.981	16648
423.056	10599
423.131	7508
423.207	5230
423.282	3685
423.357	4505
423.432	3326
423.508	3294
423.583	4307
423.658	4767
423.733	1531
423.808	2404
423.883	1438
423.959	1809
424.034	607
424.109	1772
424.184	-326
424.259	628
424.334	133
424.409	465
424.484	-319
424.559	257
424.634	-1064
424.709	277
424.784	118
424.859	836
424.934	322
425.009	3631
425.084	9458
425.159	5755
425.234	952
425.309	-749
425.384	59
425.459	3079
425.534	1413
425.609	-118
425.683	-303
425.758	110
425.833	-355
425.908	935
425.983	911
426.058	8855
426.132	6095
426.207	454
426.282	679
426.357	730
426.431	-185
426.506	454
426.581	55
426.655	-1
426.730	-790
426.805	-89
426.879	-469
426.954	-69
427.029	364
427.103	5141
427.178	24582
427.253	20557
427.327	1378
427.402	53
427.476	2797
427.551	3226
427.625	47
427.700	1206
427.774	-876
427.849	677
427.923	-716
427.998	239
428.072	-283
428.147	1871
428.221	6349
428.296	38580
428.370	38566
428.444	5732
428.519	940
428.593	2493
428.667	3863
428.742	3816
428.816	4209
428.890	15893
428.965	49067
429.039	21885
429.113	5408
429.188	2830
429.262	-262
429.336	473
429.410	3400
429.485	3870
429.559	2692
429.633	3283
429.707	158
429.781	1943
429.855	15666
429.930	47901
430.004	22919
430.078	19129
430.152	23362
430.226	43687
430.300	79513
430.374	21596
430.448	2558
430.522	3882
430.596	17635
430.670	18642
430.744	27237
430.818	72199
430.892	23709
430.966	2479
431.040	636
431.114	50
431.188	-891
431.262	55
431.336	-404
431.410	521
431.484	3103
431.557	4327
431.631	164
431.705	123
431.779	3409
431.853	30650
431.927	43336
432.000	8302
432.074	449
432.148	637
432.222	-405
432.295	32
432.369	-1301
432.443	88
432.516	4493
432.590	27176
432.664	18519
432.737	2125
432.811	-212
432.885	-285
432.958	-660
433.032	208
433.106	-1518
433.179	-495
433.253	-1975
433.326	-308
433.400	-1672
433.473	-972
433.547	-885
433.620	-505
433.694	-901
433.767	1503
433.841	-1029
433.914	-487
433.988	-798
434.061	-911
434.134	-907
434.208	-931
434.281	-1385
434.355	-498
434.428	-390
434.501	-888
434.575	-1071
434.648	-922
434.721	-937
434.795	-921
434.868	-937
434.941	-212
435.014	-1037
435.088	-1441
435.161	-1107
435.234	-365
435.307	-113
435.381	-136
435.454	-460
435.527	904
435.600	837
435.673	1472
435.746	394
435.819	329
435.892	210
435.966	-431
436.039	-809
436.112	-71
436.185	-1777
436.258	-506
436.331	-1385
436.404	-1066
436.477	-1299
436.550	-561
436.623	-1110
436.696	-592
436.769	-617
436.842	-550
436.915	-704
436.987	-71
437.060	-535
437.133	153
437.206	-909
437.279	12
437.352	-1246
437.425	-324
437.498	-948
437.570	487
437.643	-90
437.716	-597
437.789	-368
437.861	-549
437.934	1402
438.007	2337
438.080	-575
438.152	716
438.225	612
438.298	6879
438.370	41152
438.443	33320
438.516	5904
438.588	1776
438.661	-121
438.734	-17
438.806	-176
438.879	-253
438.951	-187
439.024	1091
439.096	-72
439.169	-45
439.241	-444
439.314	-891
439.386	-639
439.459	1321
439.531	453
439.604	1245
439.676	-776
439.749	-34
439.821	-1549
439.893	-720
439.966	-722
440.038	-546
440.110	-161
440.183	286
440.255	-779
440.327	-93
440.400	1768
440.472	19000
440.544	26702
440.617	4747
440.689	949
440.761	768
440.833	2197
440.905	2095
440.978	330
441.050	-489
441.122	-558
441.194	-1064
441.266	-395
441.338	-219
441.411	-594
441.483	3776
441.555	12846
441.627	5881
441.699	893
441.771	1656
441.843	-183
441.915	72
441.987	100
442.059	-25
442.131	355
442.203	1005
442.275	1579
442.347	1864
442.419	2648
442.491	12224
442.563	53940
442.635	45880
442.706	11559
442.778	8676
442.850	1634
442.922	1391
442.994	454
443.066	2171
443.137	1291
443.209	1849
443.281	2845
443.353	5996
443.425	17180
443.496	81069
443.568	128400
443.640	69862
443.711	17411
443.783	3823
443.855	1238
443.926	1315
443.998	251
444.070	1357
444.141	518
444.213	1802
444.285	1457
444.356	736
444.428	1510
444.499	330
444.571	130
444.642	439
444.714	28
444.785	685
444.857	2386
444.928	3601
445.000	3701
445.071	2724
445.143	4192
445.214	4330
445.285	4606
445.357	14231
445.428	43560
445.500	145616
445.571	138696
445.642	82081
445.714	33385
445.785	15119
445.856	6008
445.928	3576
445.999	1864
446.070	2461
446.141	1176
446.213	2087
446.284	1260
446.355	1681
446.426	303
446.497	1035
446.569	0
446.640	1792
446.711	1803
446.782	561
446.853	-44
446.924	1069
446.995	270
447.066	488
447.138	199
447.209	1437
447.280	-483
447.351	317
447.422	-557
447.493	-33
447.564	-229
447.635	791
447.706	200
447.777	-143
447.847	-253
447.918	-377
447.989	-204
448.060	323
448.131	1431
448.202	2891
448.273	1134
448.344	1005
448.414	474
448.485	-332
448.556	-621
448.627	-86
448.698	78
448.768	-313
448.839	-503
448.910	212
448.981	662
449.051	810
449.122	-866
449.193	438
449.263	-155
449.334	582
449.405	-376
449.475	1907
449.546	2317
449.616	2148
449.687	1594
449.758	1007
449.828	507
449.899	308
449.969	-499
450.040	128
450.110	184
450.181	470
450.251	914
450.322	286
450.392	-713
450.463	76
450.533	-9
450.604	753
450.674	-154
450.744	266
450.815	-265
450.885	1142
450.955	746
451.026	-58
451.096	-425
451.166	556
451.237	1009
451.307	4968
451.377	3489
451.447	542
451.518	-100
451.588	-107
451.658	-628
451.728	289
451.799	2922
451.869	6924
451.939	2673
452.009	1168
452.079	-319
452.149	522
452.219	282
452.289	4779
452.360	7170
452.430	2536
452.500	6
452.570	951
452.640	2177
452.710	6424
452.780	11267
452.850	9197
452.920	5697
452.990	4041
453.060	718
453.129	1226
453.199	1598
453.269	4625
453.339	19384
453.409	34190
453.479	22706
453.549	33416
453.619	38881
453.688	26271
453.758	5004
453.828	1596
453.898	986
453.968	872
454.037	715
454.087	798
454.107	830
454.168	153
454.177	48
454.247	851
454.249	825
454.316	109
454.330	187
454.386	476
454.411	578
454.456	576
454.492	3180
454.525	5483
454.574	3417
454.595	2518
454.655	843
454.665	583
454.734	929
454.736	956
454.804	1509
454.817	1961
454.873	3645
454.898	5176
454.943	7671
454.979	5518
455.013	3678
455.060	2480
455.082	1995
455.141	702
455.152	473
455.221	3229
455.222	3319
455.291	8527
455.303	8691
455.360	9398
455.384	13452
455.430	19389
455.465	18476
455.499	17736
455.546	10550
455.569	7183
455.627	6122
455.638	6000
455.707	1163
455.708	1167
455.777	463
455.789	510
455.846	675
455.869	774
455.916	897
455.950	382
455.985	-95
456.031	561
456.054	868
456.112	413
456.124	329
456.193	116
456.193	109
456.262	543
456.274	765
456.332	1880
456.355	1605
456.401	848
456.436	939
456.470	952
456.516	397
456.540	214
456.597	341
456.609	339
456.678	605
456.678	601
456.747	584
456.759	518
456.817	419
456.840	780
456.886	1187
456.920	740
456.955	455
457.001	527
457.024	505
457.082	588
457.093	625
457.162	1183
457.163	1193
457.232	1522
457.243	1512
457.301	1088
457.324	708
457.370	342
457.405	650
457.439	937
457.485	716
457.508	607
457.566	1019
457.577	1104
457.646	1110
457.647	1124
457.715	2506
457.727	2668
457.784	4418
457.808	5917
457.853	8273
457.889	11512
457.922	12716
457.969	10591
457.991	10867
458.050	9181
458.060	9156
458.129	13877
458.130	14134
458.198	19813
458.211	19197
458.267	15486
458.292	11644
458.336	6965
458.372	5231
458.405	4689
458.453	5152
458.474	6329
458.533	12669
458.543	13513
458.611	25414
458.614	25899
458.680	26090
458.694	22670
458.749	14092
458.775	10358
458.818	5570
458.855	4026
458.887	2903
458.936	2296
458.955	2131
459.016	1767
459.024	1671
459.093	1522
459.097	1487
459.162	834
459.177	981
459.230	1906
459.257	1814
459.299	1373
459.338	1604
459.368	1912
459.418	2002
459.437	1955
459.499	2350
459.505	2387
459.574	1037
459.579	1084
459.643	1179
459.659	809
459.711	494
459.740	892
459.780	1259
459.820	1520
459.849	1650
459.900	1695
459.917	1619
459.981	1145
459.986	1139
460.054	1508
460.061	1493
460.123	1254
460.141	1538
460.191	2494
460.222	2253
460.260	1915
460.302	2528
460.328	2789
460.382	2560
460.397	2472
460.462	2041
460.465	2085
460.534	3765
460.543	4024
460.602	12025
460.623	15077
460.671	28554
460.703	41504
460.739	42856
460.783	47591
460.808	44992
460.864	17725
460.876	15415
460.944	3389
460.945	3261
461.013	2381
461.024	2303
461.081	1199
461.104	1297
461.150	1945
461.184	1512
461.218	1195
461.264	1373
461.286	1439
461.345	1455
461.355	1427
461.423	1533
461.425	1525
461.491	1081
461.505	1171
461.559	2270
461.585	2481
461.628	4444
461.665	6318
461.696	7260
461.745	10107
461.764	9161
461.825	4555
461.832	4524
461.901	2045
461.905	1995
461.969	1579
461.985	1526
462.037	1516
462.065	1637
462.105	1670
462.145	1432
462.173	1908
462.225	3134
462.241	3674
462.305	5796
462.310	5672
462.378	4721
462.385	4387
462.446	2759
462.465	2301
462.514	1539
462.545	1419
462.582	1663
462.625	1880
462.650	1859
462.705	1669
462.718	1641
462.785	1574
462.786	1581
462.854	1737
462.865	1861
462.922	2766
462.945	3166
462.990	2766
463.025	2159
463.058	1987
463.104	1679
463.126	1586
463.184	1623
463.194	1709
463.262	1884
463.264	1901
463.330	1467
463.344	1360
463.398	2062
463.424	2431
463.466	2098
463.504	1720
463.533	1820
463.583	2014
463.601	2027
463.663	1904
463.669	1949
463.737	2822
463.743	2897
463.805	3524
463.823	3653
463.873	5846
463.903	7295
463.940	8449
463.982	10119
464.008	8734
464.062	5152
464.076	4873
464.142	2501
464.144	2460
464.211	1833
464.221	1740
464.279	1625
464.301	1586
464.347	2184
464.381	2728
464.414	2802
464.461	2693
464.482	2924
464.540	3958
464.550	3814
464.617	2413
464.620	2368
464.685	2606
464.699	2601
464.753	2986
464.779	3306
464.820	4328
464.859	5228
464.888	4843
464.938	4271
464.956	4467
465.018	4800
465.023	4721
465.091	3926
465.098	3816
465.158	3825
465.177	3898
465.226	3614
465.257	3295
465.293	3493
465.336	3950
465.361	4086
465.416	4177
465.428	4389
465.495	5695
465.496	5720
465.563	8682
465.575	9207
465.631	11850
465.654	13096
465.698	9077
465.734	5541
465.765	4820
465.813	3297
465.833	3127
465.893	3174
465.900	3262
465.968	3896
465.972	3946
466.035	3584
466.052	3455
466.102	3516
466.131	3595
466.170	3472
466.210	3283
466.237	3754
466.290	4800
466.304	4771
466.369	4430
466.372	4418
466.439	4122
466.449	4057
466.506	5014
466.528	5415
466.573	6411
466.607	7092
466.641	9526
466.687	13005
466.708	15181
466.766	21126
466.775	19783
466.842	9649
466.845	9150
466.909	7184
466.925	6743
466.977	6049
467.004	5718
467.044	5763
467.083	5831
467.111	6310
467.163	7152
467.178	7441
467.242	8689
467.245	8600
467.312	6585
467.321	6319
467.379	6725
467.400	6855
467.446	6542
467.480	6309
467.559	7084
467.638	5386
467.717	4661
467.796	5588
467.875	5688
467.955	6143
468.034	6904
468.113	14009
468.192	22767
468.271	10022
468.350	5469
468.429	5450
468.508	7564
468.588	6036
468.667	4799
468.746	4572
468.825	5137
468.904	4202
468.983	5639
469.062	6008
469.141	8463
469.220	5036
469.299	4408
469.378	3768
469.456	5835
469.535	5024
469.614	4411
469.693	4360
469.772	5597
469.851	6655
469.930	7479
470.009	4770
470.088	4157
470.166	3781
470.245	5841
470.324	6647
470.403	5304
470.482	4290
470.560	3390
470.639	4661
470.718	4842
470.797	4539
470.875	4780
470.954	5751
471.033	6881
471.111	3693
471.190	3350
471.269	2858
471.347	3656
471.426	2955
471.505	4644
471.583	4612
471.662	4856
471.740	4017
471.819	4159
471.898	3330
471.976	3694
472.055	3516
472.133	4182
472.212	5457
472.290	6262
472.369	4007
472.447	3765
472.526	2665
472.604	3584
472.683	4317
472.761	4539
472.839	2995
472.918	3176
472.996	3427
473.075	4152
473.153	4123
473.231	3479
473.310	3338
473.388	4062
473.466	3205
473.545	4330
473.623	5112
473.701	5378
473.780	3747
473.858	3411
473.936	4327
474.014	3039
474.093	3279
474.171	6025
474.249	7639
474.327	6172
474.405	3302
474.484	3657
474.562	2857
474.640	3472
474.718	3762
474.796	4638
474.874	4085
474.952	3725
475.030	3622
475.108	4118
475.187	4698
475.265	5521
475.343	5532
475.421	7140
475.499	3729
475.577	4594
475.655	4079
475.733	7267
475.811	12040
475.889	12605
475.966	9982
476.044	3660
476.122	3417
476.200	5569
476.278	5051
476.356	2727
476.434	2775
476.512	3716
476.590	5119
476.667	5800
476.745	3000
476.823	3032
476.901	2815
476.979	3466
477.056	3164
477.134	3063
477.212	3378
477.290	2653
477.367	1851
477.445	3201
477.523	2092
477.601	2539
477.678	2285
477.756	3811
477.834	3408
477.911	3106
477.989	3409
478.066	2591
478.144	3088
478.222	3824
478.299	5974
478.377	7980
478.454	2902
478.532	2716
478.609	1605
478.687	2801
478.764	2810
478.842	3115
478.919	2020
478.997	2690
479.074	1574
479.152	2918
479.229	3559
479.307	2673
479.384	1766
479.461	2430
479.539	2801
479.616	2878
479.694	2064
479.771	2246
479.848	2316
479.926	2996
480.003	4485
480.080	3141
480.157	1988
480.235	2727
480.312	2251
480.389	2292
480.467	3804
480.544	4987
480.621	2817
480.698	2803
480.775	2697
480.853	3759
480.930	2361
481.007	3144
481.084	3412
481.161	5704
481.238	4106
481.315	2445
481.392	2186
481.470	1834
481.547	2004
481.624	2761
481.701	1263
481.778	2246
481.855	2912
481.932	3845
482.009	6226
482.086	5449
482.163	3307
482.240	3169
482.317	8113
482.393	7610
482.470	3318
482.547	2537
482.624	2608
482.701	2830
482.778	1559
482.855	2176
482.932	1808
483.009	2260
483.085	1978
483.162	3597
483.239	3339
483.316	2748
483.393	2081
483.469	2921
483.546	2837
483.623	3187
483.699	2880
483.776	2170
483.853	2900
483.930	4038
484.006	8474
484.083	19690
484.160	12061
484.236	17539
484.313	15198
484.389	11555
484.466	9630
484.543	8671
484.619	8776
484.696	9978
484.772	9280
484.849	10234
484.925	8051
485.002	8645
485.078	7650
485.155	7971
485.231	7177
485.308	7269
485.384	7527
485.461	8442
485.537	12471
485.614	17053
485.690	8450
485.766	7313
485.843	6769
485.919	8792
485.995	10000
486.072	7573
486.148	6077
486.224	7164
486.301	6059
486.377	7263
486.453	6933
486.530	8163
486.606	10355
486.682	11686
486.758	12402
486.835	15169
486.911	10890
486.987	15196
487.063	16016
487.139	18832
487.215	16386
487.292	10129
487.368	8066
487.444	9211
487.520	10868
487.596	11929
487.672	15255
487.748	37367
487.824	73379
487.900	31619
487.976	10960
488.052	8863
488.128	9085
488.204	8403
488.280	7518
488.356	8078
488.432	11359
488.508	21831
488.584	9920
488.660	6551
488.736	6297
488.812	6791
488.888	8004
488.964	8652
489.039	13864
489.115	24040
489.191	18295
489.267	7502
489.343	6526
489.418	5526
489.494	5026
489.570	4669
489.646	6237
489.722	6357
489.797	5032
489.873	6790
489.949	14219
490.024	16286
490.100	5546
490.176	6054
490.251	5502
490.327	6975
490.403	5108
490.478	5082
490.554	3947
490.629	5118
490.705	4207
490.781	5889
490.856	4205
490.932	5061
491.007	4030
491.083	5282
491.158	4444
491.234	5402
491.309	10277
491.385	13070
491.460	5009
491.536	4390
491.611	4052
491.686	3745
491.762	5548
491.837	8998
491.913	15380
491.988	19460
492.063	31420
492.139	11531
492.214	6758
492.289	4301
492.365	2995
492.440	4599
492.515	3903
492.590	4203
492.666	2889
492.741	4612
492.816	7549
492.891	5025
492.967	3795
493.042	3355
493.117	3697
493.192	4580
493.267	6786
493.342	24543
493.418	54004
493.493	13149
493.568	2731
493.643	2893
493.718	3220
493.793	5008
493.868	6000
493.943	3392
494.018	3728
494.093	3482
494.168	2566
494.243	2703
494.318	2752
494.393	2870
494.468	2768
494.543	2237
494.618	2441
494.693	3281
494.768	2216
494.842	2978
494.917	2019
494.992	3281
495.067	2700
495.142	2462
495.217	2850
495.292	2588
495.366	2689
495.441	3164
495.516	4949
495.591	5413
495.665	13924
495.740	42839
495.815	26056
495.890	5312
495.964	3340
496.039	4183
496.114	3699
496.188	5300
496.263	5361
496.338	3596
496.412	3579
496.487	5052
496.561	3762
496.636	5496
496.710	3832
496.785	5780
496.860	5937
496.934	3835
497.009	4853
497.083	4585
497.158	3967
497.232	4949
497.307	6462
497.381	6441
497.455	6607
497.530	10139
497.604	7639
497.679	7720
497.753	10821
497.827	16857
497.902	17076
497.976	19170
498.050	26809
498.125	98176
498.199	155748
498.273	31928
498.348	20482
498.422	17591
498.496	13633
498.570	12752
498.645	9053
498.719	9009
498.793	9300
498.867	12383
498.941	15923
499.016	30159
499.090	120228
499.164	68934
499.238	7476
499.312	5158
499.386	5156
499.460	4907
499.534	4320
499.609	5432
499.683	7860
499.757	9475
499.831	12282
499.905	61800
499.979	94272
500.053	14976
500.127	9553
500.201	6833
500.275	3666
500.349	3911
500.422	4018
500.496	5791
500.570	11824
500.644	27970
500.718	80965
500.792	28284
500.866	4019
500.940	6273
501.013	4552
501.087	4608
501.161	6074
501.235	9985
501.309	15975
501.382	52762
501.456	72542
501.530	12645
501.603	18237
501.677	10707
501.751	3009
501.825	4120
501.898	4718
501.972	21419
502.046	20837
502.119	3872
502.193	6545
502.266	24271
502.340	16768
502.413	8193
502.487	21445
502.561	14487
502.634	4764
502.708	3548
502.781	2467
502.855	1558
502.928	2169
503.002	1921
503.075	1793
503.149	2789
503.222	2487
503.295	2628
503.369	3794
503.442	4424
503.516	11735
503.589	40661
503.662	36215
503.736	9121
503.809	17000
503.882	19783
503.956	21428
504.029	31249
504.102	20260
504.175	37014
504.249	15175
504.322	6368
504.395	4922
504.468	2223
504.542	1901
504.615	2263
504.688	1939
504.761	1269
504.834	2788
504.907	2770
504.980	3987
505.053	2552
505.127	1263
505.200	4160
505.273	3315
505.346	2237
505.419	603
505.492	1433
505.565	1049
505.638	1400
505.711	731
505.784	1209
505.857	1392
505.930	2069
506.003	1586
506.076	2637
506.149	1077
506.221	4172
506.294	2796
506.367	5365
506.440	29151
506.513	25696
506.586	3242
506.659	1717
506.731	893
506.804	1616
506.877	2843
506.950	2293
507.022	1001
507.095	1033
507.168	2698
507.241	1296
507.313	420
507.386	955
507.459	2442
507.531	1441
507.604	317
507.677	1414
507.749	1246
507.822	1605
507.894	3195
507.967	6999
508.040	3801
508.112	3441
508.185	2585
508.257	1535
508.330	3483
508.402	2767
508.475	2520
508.547	2559
508.620	1935
508.692	5027
508.765	3147
508.837	1754
508.909	1753
508.982	1768
509.054	2486
509.127	2156
509.199	1322
509.271	1659
509.344	947
509.416	617
509.488	1437
509.560	2060
509.633	1688
509.705	1979
509.777	722
509.849	3025
509.922	2328
509.994	2453
510.066	2163
510.138	1339
510.210	5594
510.283	5570
510.355	3924
510.427	3344
510.499	3090
510.571	2928
510.643	2660
510.715	3772
510.787	3216
510.859	3388
510.931	2795
511.003	5038
511.076	4178
511.148	2826
511.219	1601
511.291	4279
511.363	5996
511.435	2292
511.507	2051
511.579	2828
511.651	1994
511.723	2180
511.795	2373
511.867	3324
511.939	2483
512.010	5171
512.082	5144
512.154	2327
512.226	2388
512.298	2927
512.369	6398
512.441	6099
512.513	3415
512.585	3445
512.656	3476
512.728	3892
512.800	3713
512.871	3300
512.943	3106
513.015	2238
513.086	2810
513.158	3779
513.230	1956
513.301	3500
513.373	4681
513.444	2743
513.516	2447
513.588	3037
513.659	1900
513.731	3743
513.802	2269
513.874	4444
513.945	9039
514.016	5564
514.088	2336
514.159	2794
514.231	2907
514.302	5494
514.374	3944
514.445	3455
514.516	6374
514.588	6300
514.659	3098
514.730	5754
514.802	6400
514.873	5023
514.944	7056
515.016	4780
515.087	3431
515.158	4473
515.229	7267
515.301	5281
515.372	8470
515.443	5991
515.514	3818
515.585	2434
515.656	2634
515.728	2386
515.799	1245
515.870	2321
515.941	2048
516.012	2173
516.083	3540
516.154	3717
516.225	4653
516.296	4311
516.367	2912
516.438	3584
516.509	5120
516.580	6065
516.651	11606
516.722	52758
516.793	44179
516.864	7547
516.935	6835
517.006	7931
517.077	9111
517.148	16909
517.219	44269
517.289	121753
517.360	44661
517.431	22244
517.502	3964
517.573	3993
517.643	2891
517.714	3280
517.785	4110
517.856	4218
517.926	5225
517.997	5852
518.068	6807
518.138	9454
518.209	11434
518.280	28771
518.350	149590
518.421	104754
518.492	11939
518.562	6755
518.633	6518
518.703	7397
518.774	12488
518.845	33007
518.915	47766
518.986	15448
519.056	7437
519.127	8427
519.197	12355
519.268	30919
519.338	32251
519.408	5784
519.479	5465
519.549	5023
519.620	3631
519.690	2246
519.760	1834
519.831	1587
519.901	2588
519.971	1861
520.042	2550
520.112	3132
520.182	3048
520.253	3495
520.323	1733
520.393	3430
520.463	5727
520.534	2663
520.604	7472
520.674	4934
520.744	3277
520.814	7401
520.885	9166
520.955	8106
521.025	37316
521.095	26743
521.165	4045
521.235	2978
521.305	1333
521.375	1235
521.445	2728
521.515	2112
521.585	3015
521.655	3829
521.725	2603
521.795	3014
521.865	927
521.935	3167
522.005	2876
522.075	2107
522.145	2190
522.215	2332
522.285	2694
522.355	4648
522.424	7920
522.494	10278
522.564	4649
522.634	4500
522.704	17617
522.774	11923
522.843	2350
522.913	1793
522.983	2608
523.053	2650
523.122	2212
523.192	1956
523.262	6607
523.331	12978
523.401	2862
523.471	1761
523.540	1660
523.610	1451
523.680	2447
523.749	1877
523.819	901
523.888	3287
523.958	1250
524.027	2679
524.097	2257
524.166	1857
524.236	1233
524.305	2601
524.375	936
524.444	841
524.514	1741
524.583	1953
524.653	1713
524.722	1737
524.791	1427
524.861	897
524.930	698
524.999	1035
525.069	2152
525.138	1900
525.207	1790
525.277	2692
525.346	1440
525.415	1985
525.484	1365
525.554	2369
525.623	2870
525.692	3112
525.761	3080
525.830	3459
525.900	4915
525.969	7815
526.038	12950
526.107	19428
526.176	71200
526.245	86363
526.314	24908
526.383	32745
526.452	62819
526.522	72953
526.591	124983
526.660	27629
526.729	13881
526.797	14715
526.867	19474
526.935	66404
527.004	180353
527.073	177412
527.142	18109
527.211	6504
527.280	4167
527.349	3680
527.418	1845
527.487	2352
527.555	903
527.624	1456
527.693	495
527.762	1262
527.831	672
527.899	766
527.968	888
528.037	118
528.106	790
528.174	3075
528.243	2012
528.312	3465
528.380	5051
528.449	1580
528.518	1808
528.586	41
528.655	953
528.723	884
528.792	-3
528.861	1220
528.929	-285
528.998	1536
529.066	-221
529.135	902
529.203	335
529.272	986
529.340	1678
529.409	2438
529.477	680
529.545	1027
529.614	3344
529.682	2362
529.751	2684
529.819	3068
529.887	2404
529.956	1249
530.024	2423
530.092	985
530.161	1605
530.229	3215
530.297	2320
530.365	2944
530.434	1341
530.502	1282
530.570	1379
530.638	908
530.707	1699
530.775	2820
530.843	1044
530.911	1830
530.979	764
531.047	1858
531.115	1790
531.183	1329
531.252	2297
531.320	1915
531.388	1114
531.456	2304
531.524	493
531.592	1984
531.660	1492
531.728	2269
531.796	1267
531.864	1330
531.932	2166
532.000	1211
532.067	1221
532.135	3086
532.203	3533
532.271	2596
532.339	3100
532.407	8126
532.475	7138
532.542	3831
532.610	3642
532.678	3324
532.746	10051
532.814	42538
532.881	18037
532.949	3470
533.017	2690
533.084	1871
533.152	2256
533.220	1599
533.287	1525
533.355	2081
533.423	1379
533.490	1943
533.558	2029
533.625	1933
533.693	2436
533.761	2740
533.828	1776
533.896	1200
533.963	3604
534.031	5552
534.098	5604
534.166	4669
534.233	2240
534.300	3125
534.368	2263
534.435	2048
534.503	3282
534.570	3049
534.637	2532
534.705	3948
534.772	4886
534.840	4888
534.907	24590
534.974	59831
535.041	10376
535.109	3549
535.176	1877
535.243	3076
535.310	1519
535.378	1035
535.445	1012
535.512	2617
535.579	1924
535.646	1220
535.714	1260
535.781	2396
535.848	2794
535.915	2845
535.982	2419
536.049	2477
536.116	2590
536.183	2415
536.250	1599
536.317	2621
536.384	2000
536.451	2776
536.518	3006
536.585	2204
536.652	3240
536.719	4101
536.786	3218
536.853	2303
536.920	3176
536.987	6107
537.053	4295
537.120	13827
537.187	24165
537.254	3813
537.321	1200
537.388	3084
537.454	759
537.521	1462
537.588	1773
537.654	2445
537.721	2000
537.788	2260
537.855	2117
537.921	1752
537.988	2237
538.055	2731
538.121	1684
538.188	2206
538.254	2214
538.321	5332
538.388	4171
538.454	2128
538.521	1724
538.587	1896
538.654	1386
538.720	2207
538.787	2013
538.853	2306
538.920	2348
538.986	2705
539.053	2273
539.119	2033
539.185	708
539.252	2594
539.318	2768
539.385	3733
539.451	1863
539.517	2907
539.583	2354
539.650	3636
539.716	14447
539.782	7045
539.849	2023
539.915	1833
539.981	1778
540.047	2392
540.114	1758
540.180	3300
540.246	1263
540.312	2807
540.378	4309
540.444	7633
540.510	4573
540.576	14968
540.643	8827
540.709	2168
540.775	1761
540.841	2318
540.907	2307
540.973	3764
541.039	4397
541.105	3858
541.171	2972
541.237	2166
541.303	2241
541.369	3267
541.435	2313
541.500	4564
541.566	4047
541.632	2153
541.698	2697
541.764	1748
541.830	1827
541.896	1245
541.961	1758
542.027	1912
542.093	2078
542.159	2202
542.224	1157
542.290	3250
542.356	3921
542.421	7552
542.487	4307
542.553	2934
542.618	2344
542.684	2506
542.750	2091
542.815	2520
542.881	3143
542.947	10228
543.012	14452
543.078	3069
543.143	1749
543.209	2460
543.274	2098
543.340	2753
543.405	3912
543.471	9898
543.536	3017
543.602	2829
543.667	1197
543.732	1765
543.798	951
543.863	2298
543.928	1623
543.994	1900
544.059	1108
544.124	2504
544.190	1425
544.255	2411
544.320	1707
544.386	1988
544.451	3654
544.516	3607
544.581	2369
544.646	6121
544.712	16319
544.777	6487
544.842	2550
544.907	2609
544.972	2114
545.037	2944
545.102	2361
545.168	3095
545.233	3038
545.298	3230
545.363	4340
545.428	3762
545.493	5112
545.558	10328
545.623	7633
545.688	3000
545.753	2813
545.818	2598
545.883	3503
545.947	2923
546.012	3525
546.077	3802
546.142	3908
546.207	3011
546.272	4423
546.337	4171
546.401	4639
546.466	3749
546.531	3300
546.596	4612
546.661	4186
546.725	5582
546.790	4709
546.855	5057
546.919	5028
546.984	5315
547.049	5653
547.113	7863
547.178	6603
547.243	8222
547.307	9237
547.372	10905
547.436	11325
547.501	11358
547.565	11569
547.630	11735
547.695	11069
547.759	12086
547.823	10676
547.888	10925
547.952	11067
548.017	11294
548.081	13993
548.146	14113
548.210	13123
548.274	12732
548.339	12734
548.403	12341
548.468	10006
548.532	10402
548.596	11006
548.660	10772
548.725	12054
548.789	12895
548.853	14477
548.917	11812
548.982	11916
549.046	12593
549.110	9931
549.174	10452
549.238	10457
549.303	11675
549.367	13433
549.431	13069
549.495	11858
549.559	12121
549.623	13419
549.687	15262
549.751	14953
549.815	16943
549.879	18102
549.943	15789
550.007	17059
550.071	18189
550.135	17642
550.199	15774
550.263	15111
550.327	15367
550.391	15649
550.455	16823
550.519	17061
550.582	17479
550.646	20598
550.710	22501
550.774	20511
550.838	20683
550.901	20797
550.965	22841
551.029	23090
551.093	25891
551.156	28400
551.220	34287
551.284	42030
551.347	32695
551.411	28778
551.475	33976
551.538	24061
551.602	22092
551.666	19644
551.729	17936
551.793	17725
551.856	17787
551.920	17046
551.983	17001
552.047	16919
552.110	18033
552.174	16862
552.237	17868
552.301	16388
552.364	16451
552.428	15079
552.491	15709
552.554	17113
552.618	16004
552.681	16775
552.745	16440
552.808	17859
552.871	19875
552.934	18502
552.998	17729
553.061	15666
553.124	16734
553.187	15983
553.251	16926
553.314	17900
553.377	18291
553.440	20164
553.503	29030
553.567	58011
553.630	29248
553.693	18361
553.756	17734
553.819	17005
553.882	16726
553.945	15770
554.008	17152
554.071	15336
554.134	17200
554.197	15319
554.260	16103
554.323	15474
554.386	16375
554.449	15787
554.512	17869
554.575	15090
554.638	16353
554.701	15682
554.764	14777
554.827	15568
554.889	14815
554.952	13830
555.015	12847
555.078	12713
555.141	14248
555.203	12439
555.266	13822
555.329	13646
555.391	13280
555.454	13028
555.517	13123
555.580	12077
555.642	11978
555.705	10352
555.768	10843
555.830	11788
555.893	10896
555.955	10481
556.018	11621
556.080	11085
556.143	11354
556.206	9953
556.268	10794
556.330	9553
556.393	9898
556.455	9960
556.518	10231
556.580	11800
556.643	10324
556.705	8744
556.767	8292
556.830	9008
556.892	9386
556.955	10245
557.017	10415
557.079	8481
557.142	8325
557.204	8872
557.266	10541
557.328	10384
557.391	7380
557.453	7175
557.515	8676
557.577	7724
557.639	8612
557.701	7845
557.764	7872
557.826	8468
557.888	9471
557.950	9052
558.012	11547
558.074	13863
558.136	22943
558.198	67494
558.260	45833
558.322	12617
558.384	12198
558.446	13211
558.508	16313
558.570	20599
558.632	25489
558.694	35317
558.756	45929
558.818	92434
558.880	308687
558.942	187462
559.003	78370
559.065	63433
559.127	21389
559.189	20336
559.251	22213
559.312	29412
559.374	50914
559.436	174450
559.498	172968
559.559	31009
559.621	21597
559.683	22906
559.744	30001
559.806	69158
559.868	174317
559.929	62627
559.991	22189
560.052	25634
560.114	62383
560.176	70199
560.237	35209
560.299	73619
560.360	32319
560.422	8270
560.483	7430
560.545	6344
560.606	5533
560.667	5677
560.729	4785
560.790	5001
560.852	4649
560.913	4531
560.974	4840
561.036	4596
561.097	5077
561.158	4093
561.220	5608
561.281	4780
561.342	5746
561.403	4945
561.465	4965
561.526	7676
561.587	13792
561.648	6454
561.709	4801
561.771	4401
561.832	4434
561.893	4071
561.954	4948
562.015	3979
562.076	4082
562.137	3700
562.198	4749
562.259	3748
562.320	4130
562.381	4081
562.442	5549
562.503	4313
562.564	4727
562.625	3335
562.686	4100
562.747	4357
562.808	4658
562.869	3888
562.930	4416
562.991	4335
563.051	4362
563.112	3847
563.173	3927
563.234	3960
563.294	4994
563.355	3567
563.416	4962
563.477	4282
563.537	4355
563.598	4336
563.659	4235
563.720	3408
563.780	4640
563.841	4497
563.901	4441
563.962	4532
564.023	4496
564.083	4474
564.144	5432
564.204	4290
564.265	4760
564.325	4433
564.386	6803
564.446	8495
564.507	5185
564.567	4786
564.628	4394
564.688	4260
564.749	4577
564.809	4396
564.869	5609
564.930	5290
564.990	4452
565.050	4499
565.111	4857
565.171	4338
565.231	4690
565.292	6134
565.352	5078
565.412	5249
565.472	5617
565.532	5674
565.593	5809
565.653	5265
565.713	5958
565.773	6415
565.833	5957
565.893	8555
565.953	6344
566.013	5465
566.074	6832
566.134	7214
566.194	9468
566.254	9943
566.314	9195
566.374	8132
566.434	8546
566.494	7552
566.554	8690
566.614	9219
566.673	9453
566.733	9249
566.793	11052
566.853	10570
566.913	11237
566.973	11456
567.033	12189
567.092	11204
567.152	12407
567.212	12581
567.272	13026
567.331	13104
567.391	13444
567.451	14412
567.511	16028
567.570	16223
567.630	14244
567.690	13252
567.749	14006
567.809	14977
567.868	17325
567.928	19257
567.988	22796
568.047	26699
568.107	33684
568.166	40497
568.226	58911
568.285	85130
568.345	86986
568.404	71825
568.464	63812
568.523	59552
568.582	60059
568.642	63847
568.701	75714
568.761	93982
568.820	135291
568.879	159937
568.939	129731
568.998	100766
569.057	80450
569.116	66137
569.176	55724
569.235	45973
569.294	40590
569.353	35420
569.413	30748
569.472	28623
569.531	24391
569.590	21980
569.649	20930
569.708	18910
569.767	18471
569.827	17532
569.886	16143
569.945	14665
570.004	13867
570.063	12579
570.122	12737
570.181	12645
570.240	12384
570.299	11385
570.358	11958
570.417	10382
570.475	10895
570.534	10209
570.593	9542
570.652	9742
570.711	9740
570.770	8181
570.829	9912
570.887	8022
570.946	9524
571.005	8485
571.064	7868
571.122	7676
571.181	8110
571.240	8204
571.299	8492
571.357	7786
571.416	7941
571.475	7996
571.533	8544
571.592	7202
571.650	7958
571.709	7794
571.768	8639
571.826	7869
571.885	8497
571.943	7725
572.002	7568
572.060	7377
572.119	7255
572.177	6966
572.236	6772
572.294	6899
572.352	7633
572.411	6698
572.469	5838
572.528	6594
572.586	7405
572.644	6454
572.703	8292
572.761	6924
572.819	7741
572.877	6515
572.936	6403
572.994	5710
573.052	6488
573.110	6711
573.169	7376
573.227	6506
573.285	6996
573.343	6216
573.401	7019
573.459	7600
573.517	6572
573.576	6818
573.634	7058
573.692	6560
573.750	7324
573.808	7043
573.866	6428
573.924	7108
573.982	7309
574.040	6709
574.098	7962
574.155	6637
574.213	6968
574.271	6317
574.329	7054
574.387	6566
574.445	6595
574.503	6622
574.560	6674
574.618	5918
574.676	6520
574.734	6370
574.792	6039
574.849	5607
574.907	6451
574.965	5576
575.022	5489
575.080	5205
575.138	6083
575.195	6238
575.253	5947
575.311	6415
575.368	6183
575.426	6296
575.483	6806
575.541	6745
575.598	6338
575.656	6384
575.713	6761
575.771	6558
575.828	6751
575.886	6059
575.943	6825
576.001	6026
576.058	6474
576.115	6489
576.173	7340
576.230	8109
576.287	7805
576.345	7384
576.402	7388
576.459	7013
576.517	7003
576.574	6628
576.631	7128
576.688	6351
576.746	6722
576.803	7556
576.860	6931
576.917	6334
576.974	7163
577.031	6466
577.089	7332
577.146	6968
577.203	7008
577.260	7059
577.317	7140
577.374	8306
577.431	7739
577.488	7239
577.545	7645
577.602	7954
577.659	7544
577.716	7046
577.773	8556
577.830	7458
577.886	8624
577.943	7514
578.000	7921
578.057	7970
578.114	8825
578.171	8462
578.227	9334
578.284	10063
578.341	10271
578.398	9383
578.454	9271
578.511	8881
578.568	10071
578.625	9092
578.681	8811
578.738	7933
578.794	8166
578.851	8397
578.908	8488
578.964	7643
579.021	8541
579.077	8668
579.134	8441
579.190	8584
579.247	8592
579.303	8624
579.360	8282
579.416	8481
579.473	9331
579.529	7676
579.586	9092
579.642	9053
579.698	8753
579.755	9200
579.811	9439
579.867	9839
579.924	10379
579.980	10020
580.036	10641
580.093	11990
580.149	13726
580.205	16231
580.261	14399
580.317	12304
580.374	13517
580.430	11397
580.486	12775
580.542	12177
580.598	10977
580.619	11119
580.654	11376
580.692	11652
580.710	11805
580.765	11196
580.767	11186
580.823	11860
580.838	11735
580.879	11439
580.911	11589
580.935	11718
580.984	11049
580.991	10966
581.047	12484
581.057	12269
581.103	11374
581.130	11676
581.159	12006
581.203	12167
581.215	12218
581.270	13529
581.276	13386
581.326	12051
581.349	11869
581.382	11632
581.422	12020
581.438	12183
581.494	12537
581.494	12526
581.550	12020
581.567	12206
581.606	12566
581.640	12345
581.661	12233
581.713	13033
581.717	13101
581.773	12152
581.786	12250
581.829	12632
581.859	13049
581.885	13411
581.932	13106
581.940	13055
581.996	12700
582.004	12775
582.052	13209
582.077	13439
582.107	13716
582.150	13934
582.163	13986
582.219	13871
582.223	13842
582.274	13661
582.296	13635
582.330	13563
582.368	14627
582.386	15104
582.441	13965
582.441	13965
582.497	14963
582.514	15001
582.552	15200
582.587	15754
582.608	16106
582.659	15104
582.663	15020
582.719	15906
582.732	15840
582.774	15528
582.805	15575
582.830	15683
582.877	16958
582.885	17200
582.941	17513
582.950	17615
582.996	18025
583.023	18709
583.052	19439
583.095	19756
583.107	19884
583.162	20743
583.168	20793
583.218	21152
583.240	21048
583.273	20719
583.313	20060
583.328	19821
583.384	18802
583.385	18782
583.439	18210
583.458	18318
583.494	18473
583.531	17974
583.549	17807
583.603	18794
583.605	18821
583.660	17892
583.676	18273
583.715	19272
583.748	18740
583.770	18423
583.820	19120
583.825	19180
583.881	19749
583.893	19685
583.936	19420
583.965	19460
583.991	19413
584.038	19413
584.046	19479
584.101	20320
584.110	20396
584.156	20463
584.183	20566
584.211	20893
584.255	21511
584.266	21599
584.321	21696
584.328	21777
584.376	22555
584.400	22715
584.431	22820
584.472	23112
584.486	23204
584.541	22522
584.545	22594
584.596	24001
584.617	23993
584.651	24129
584.689	24891
584.706	25107
584.761	24974
584.762	24979
584.816	25555
584.834	25802
584.871	26422
584.906	27054
584.926	27303
584.978	26695
584.980	26708
585.035	29472
585.051	29910
585.090	30403
585.123	31184
585.145	31946
585.195	33066
585.200	33193
585.254	35665
585.267	36490
585.309	39616
585.340	42720
585.364	45285
585.412	48548
585.419	48809
585.473	52684
585.484	53378
585.528	58571
585.556	63803
585.583	72788
585.628	95221
585.637	105467
585.692	185046
585.700	202820
585.747	330347
585.772	365625
585.801	317635
585.845	185131
585.856	156830
585.910	74148
585.917	66440
585.965	54838
585.989	50593
586.019	48138
586.061	46013
586.074	45764
586.128	45473
586.133	45451
586.183	45129
586.205	45403
586.237	46092
586.277	46185
586.292	46170
586.346	46504
586.349	46547
586.401	47508
586.421	47817
586.455	48741
586.493	49853
586.509	50521
586.564	52950
586.565	53024
586.618	58639
586.637	60800
586.672	63053
586.709	62140
586.727	61128
586.781	61340
586.781	61358
586.835	62462
586.853	62977
586.889	63717
586.925	63995
586.944	64275
586.996	65533
586.998	65608
587.052	68486
587.068	69255
587.106	70913
587.140	72907
587.161	74335
587.212	77628
587.215	77773
587.269	80245
587.284	81167
587.323	84042
587.356	86715
587.377	88814
587.427	93036
587.431	93324
587.485	97917
587.499	99103
587.539	102925
587.571	106605
587.593	109792
587.643	116389
587.648	116992
587.702	124531
587.715	126439
587.755	133779
587.786	139161
587.810	143199
587.858	152181
587.864	153365
587.917	165566
587.930	168550
587.971	181141
588.001	190724
588.025	198014
588.073	212816
588.079	215167
588.133	237359
588.145	242312
588.187	262423
588.217	277200
588.241	291691
588.288	321921
588.295	326795
588.348	367182
588.360	375875
588.402	415170
588.431	443146
588.456	473233
588.503	531908
588.510	542880
588.564	630405
588.575	648131
588.617	737713
588.646	799261
588.671	874673
588.718	1014828
588.725	1043014
588.778	1251832
588.789	1291124
588.832	1422866
588.861	1503106
588.886	1447339
588.932	1317221
588.939	1279930
588.993	935070
589.004	877244
589.047	1097271
589.075	1250631
589.100	1395200
589.147	1623189
589.154	1610462
589.207	1472546
589.218	1440602
589.261	1319561
589.290	1234733
589.314	1223166
589.361	1198889
589.368	1213377
589.421	1320222
589.433	1340205
589.475	1436356
589.504	1496058
589.528	1411364
589.576	1208422
589.582	1203863
589.635	1164389
589.647	1158421
589.689	1373467
589.718	1503747
589.742	1402756
589.790	1182625
589.795	1159526
589.849	914718
589.861	856530
589.902	738378
589.932	648874
589.955	602653
590.004	505737
590.009	499954
590.062	431173
590.075	414391
590.115	375727
590.146	345395
590.168	329660
590.218	294781
590.222	292822
590.275	265033
590.289	257857
590.328	242005
590.360	228696
590.381	221624
590.431	205002
590.435	204203
590.488	188462
590.503	183972
590.541	175611
590.574	168360
590.594	164469
590.645	154664
590.647	154420
590.700	144953
590.716	142145
590.753	136742
590.787	131445
590.806	129060
590.859	122469
590.859	122478
590.912	118062
590.930	116614
590.965	112448
591.001	108051
591.018	106982
591.071	103727
591.072	103618
591.124	100052
591.143	98611
591.177	95969
591.214	93129
591.230	92519
591.283	90663
591.285	90502
591.336	86912
591.356	85507
591.389	84550
591.427	83226
591.442	82556
591.495	80016
591.498	79750
591.547	77136
591.569	75981
591.600	74847
591.640	73138
591.653	73098
591.706	72627
591.711	72515
591.759	70840
591.782	69974
591.811	70216
591.853	70380
591.864	70029
591.917	67877
591.924	67488
591.969	66615
591.995	66080
592.022	65505
592.066	64325
592.075	64118
592.127	62518
592.137	62174
592.180	63071
592.208	63552
592.233	62716
592.279	60830
592.285	60648
592.338	58720
592.350	58223
592.390	58201
592.421	58088
592.443	57835
592.491	57098
592.495	57105
592.548	56412
592.562	56160
592.600	55564
592.633	54952
592.653	54658
592.704	53448
592.705	53759
592.775	53992
592.846	53797
592.916	54244
592.987	53434
593.058	52929
593.128	51339
593.199	50362
593.270	49934
593.341	50024
593.411	48903
593.482	49480
593.553	50213
593.623	48294
593.694	49131
593.764	50873
593.835	51208
593.906	48965
593.976	47673
594.047	48636
594.117	50452
594.188	51057
594.258	50287
594.329	48976
594.399	48240
594.470	50034
594.540	49774
594.611	49334
594.681	49165
594.751	50564
594.822	50889
594.892	51913
594.963	52681
595.033	52494
595.103	53145
595.174	53371
595.244	56839
595.314	62782
595.384	59534
595.455	56252
595.525	57252
595.595	57650
595.665	58987
595.736	57132
595.806	57915
595.876	57220
595.946	57225
596.016	57999
596.087	60654
596.157	60642
596.227	61423
596.297	61646
596.367	65053
596.437	68878
596.507	71377
596.577	74745
596.647	72286
596.717	70918
596.787	73605
596.857	73985
596.927	73607
596.997	73957
597.067	74258
597.137	76798
597.207	79039
597.277	78178
597.347	76599
597.417	73771
597.487	72333
597.557	72996
597.626	74072
597.696	76759
597.766	78184
597.836	78666
597.906	74733
597.975	68007
598.045	68201
598.115	70684
598.185	73402
598.254	78781
598.324	87070
598.394	90149
598.464	89923
598.533	88734
598.603	84199
598.672	80755
598.742	81056
598.812	81208
598.881	82187
598.951	83596
599.020	83367
599.090	85479
599.159	87563
599.229	86700
599.299	83872
599.368	86010
599.437	87358
599.507	83081
599.576	78997
599.646	77351
599.715	78893
599.785	76440
599.854	76724
599.924	75823
599.993	75284
600.062	73160
600.132	76158
600.201	77282
600.270	85860
600.340	95675
600.409	95246
600.478	93948
600.547	94587
600.617	96022
600.686	81545
600.755	73311
600.824	71423
600.894	68543
600.963	69314
601.032	70143
601.101	67767
601.170	66161
601.239	65056
601.308	66701
601.378	68835
601.447	67482
601.516	67820
601.585	69698
601.654	73853
601.723	73354
601.792	71882
601.861	75255
601.930	78794
601.999	81904
602.068	79894
602.137	82412
602.206	85665
602.275	82452
602.343	83007
602.412	86142
602.481	84435
602.550	84254
602.619	85656
602.688	86397
602.756	87631
602.825	87922
602.894	88352
602.963	91350
603.032	90249
603.100	93013
603.169	90605
603.238	92062
603.307	92724
603.375	90424
603.444	93508
603.513	93806
603.581	92513
603.650	97684
603.719	93437
603.787	86082
603.856	88523
603.924	89813
603.993	93283
604.061	95781
604.130	99948
604.198	102936
604.267	103337
604.335	106388
604.404	106207
604.472	109119
604.541	110019
604.609	112689
604.678	114859
604.746	113161
604.815	118115
604.883	120725
604.951	117382
605.020	119026
605.088	120619
605.156	115164
605.225	118305
605.293	118151
605.361	115691
605.429	118186
605.498	119003
605.566	121762
605.634	125103
605.702	130157
605.771	131884
605.839	137162
605.907	132429
605.975	129084
606.043	129447
606.111	122910
606.180	125834
606.248	129670
606.316	124264
606.384	124764
606.452	126565
606.520	112819
606.588	115674
606.656	114616
606.724	114397
606.792	110162
606.860	101621
606.928	91231
606.996	86052
607.064	82733
607.132	84199
607.200	86796
607.267	92456
607.335	92727
607.403	96690
607.471	95798
607.539	90997
607.607	93419
607.674	85534
607.742	80587
607.810	81504
607.878	80560
607.946	79839
608.013	84129
608.081	86150
608.149	87505
608.216	89344
608.284	92526
608.352	92423
608.419	94508
608.487	93042
608.555	89608
608.622	90422
608.690	92606
608.757	100651
608.825	109292
608.893	106500
608.960	104100
609.028	98116
609.095	97835
609.163	98546
609.230	92356
609.298	80039
609.365	78160
609.432	85092
609.500	90563
609.567	102044
609.635	118084
609.702	133323
609.769	133060
609.837	118540
609.904	89422
609.971	87030
610.039	93817
610.106	113278
610.173	186934
610.241	439623
610.308	650522
610.375	220116
610.442	116121
610.509	95092
610.577	90227
610.644	88774
610.711	91536
610.778	92660
610.845	96164
610.912	101860
610.980	108924
611.047	114214
611.114	115450
611.181	104244
611.248	100784
611.315	104462
611.382	107109
611.449	111128
611.516	115947
611.583	114150
611.650	115564
611.717	116462
611.784	119728
611.851	122832
611.918	131652
611.984	147446
612.051	193139
612.118	331335
612.185	808516
612.252	1308215
612.319	391196
612.386	180288
612.452	155452
612.519	140734
612.586	134016
612.653	133688
612.719	134990
612.786	136468
612.853	125169
612.919	117878
612.986	120013
613.053	116559
613.120	110596
613.186	102193
613.253	102236
613.319	102280
613.386	102336
613.453	103958
613.519	106815
613.586	105127
613.652	110014
613.719	111162
613.785	109203
613.852	107842
613.918	106367
613.985	105312
614.051	114090
614.118	129348
614.184	153396
614.250	115134
614.317	110483
614.383	107118
614.449	108057
614.516	108152
614.582	108640
614.648	107948
614.715	105081
614.781	105422
614.847	101177
614.914	104122
614.980	101463
615.046	99633
615.112	102692
615.179	106393
615.245	109912
615.311	114466
615.377	134455
615.443	171673
615.509	149288
615.575	125609
615.642	116926
615.708	117228
615.774	122959
615.840	129130
615.906	145269
615.972	179453
616.038	277612
616.104	518275
616.170	980805
616.236	1721996
616.302	673829
616.368	258753
616.434	195705
616.500	151278
616.565	146646
616.631	176986
616.697	187393
616.763	156774
616.829	186480
616.895	324583
616.961	483290
617.026	315270
617.092	150851
617.158	120740
617.224	113576
617.289	105912
617.355	97847
617.421	95902
617.487	96474
617.552	91670
617.618	87872
617.684	88342
617.749	89406
617.815	87384
617.880	83701
617.946	82905
618.012	82699
618.077	86395
618.143	85031
618.208	82228
618.274	85852
618.339	92886
618.405	82164
618.470	72222
618.536	75050
618.601	74842
618.667	72186
618.732	65951
618.798	63793
618.863	65116
618.928	63002
618.994	64355
619.059	64168
619.124	67904
619.190	68090
619.255	62520
619.320	62951
619.386	63227
619.451	63295
619.516	62410
619.581	61792
619.647	62523
619.712	64851
619.777	60931
619.842	60664
619.907	61014
619.972	62790
620.038	64622
620.103	62116
620.168	59947
620.233	61005
620.298	61572
620.363	61967
620.428	63182
620.493	64610
620.558	66426
620.623	66343
620.688	67838
620.753	65973
620.818	66479
620.883	69411
620.948	67357
621.013	67539
621.078	66868
621.143	65799
621.207	67513
621.272	67395
621.337	66235
621.402	65085
621.467	65778
621.532	67436
621.596	66409
621.661	65013
621.726	61656
621.791	61568
621.855	63069
621.920	64206
621.985	64557
622.049	65863
622.114	66274
622.179	66337
622.243	67394
622.308	69023
622.373	71420
622.437	72100
622.502	68175
622.566	66596
622.631	65222
622.695	67159
622.760	67420
622.824	66980
622.889	66781
622.953	67081
623.018	71340
623.082	80193
623.147	73512
623.211	70019
623.276	69016
623.340	69038
623.404	65111
623.469	63274
623.533	65208
623.597	64842
623.662	63131
623.726	61821
623.790	56497
623.854	54456
623.919	54030
623.983	55628
624.047	55934
624.111	56362
624.176	57466
624.240	57080
624.304	61202
624.368	59885
624.432	57540
624.496	57350
624.560	60925
624.625	64825
624.689	63479
624.753	64716
624.817	65204
624.881	61672
624.945	59212
625.009	53931
625.073	53049
625.137	55159
625.201	59141
625.265	62675
625.329	57573
625.393	56621
625.456	58180
625.520	57094
625.584	59580
625.648	62626
625.712	67710
625.776	81361
625.839	98096
625.903	80158
625.967	50974
626.031	52325
626.095	67681
626.158	70425
626.222	50841
626.286	42663
626.349	40028
626.413	37481
626.477	37415
626.540	37023
626.604	37438
626.668	37158
626.731	36076
626.795	36270
626.858	37781
626.922	35965
626.986	35921
627.049	35042
627.113	36366
627.176	36757
627.240	35478
627.303	34798
627.366	33873
627.430	34981
627.493	34865
627.557	34375
627.620	35488
627.684	34786
627.747	37359
627.810	34934
627.874	31872
627.937	29565
628.000	30877
628.064	31235
628.127	28847
628.190	27566
628.253	27453
628.317	26657
628.380	25503
628.443	23391
628.506	24205
628.569	24024
628.632	22120
628.696	21702
628.759	21846
628.822	21171
628.885	20487
628.948	20728
629.011	20319
629.074	20031
629.137	19606
629.200	19172
629.263	19086
629.326	19250
629.389	19155
629.452	19381
629.515	19002
629.578	19045
629.641	19288
629.704	19518
629.767	20513
629.830	18254
629.892	18044
629.955	16739
630.018	18419
630.081	18781
630.144	19732
630.207	18723
630.269	19121
630.332	18586
630.395	18976
630.458	17592
630.520	16424
630.583	16931
630.646	15911
630.708	17012
630.771	16993
630.834	18389
630.896	17742
630.959	18006
631.021	17101
631.084	17866
631.146	17790
631.209	19196
631.272	17868
631.334	17518
631.397	17417
631.459	17929
631.522	18781
631.584	19914
631.646	20382
631.709	21146
631.771	21655
631.834	22875
631.896	21012
631.958	18993
632.021	18369
632.083	17672
632.145	17026
632.208	16782
632.270	16650
632.332	16361
632.395	16206
632.457	17378
632.519	17050
632.581	16475
632.643	14900
632.706	16886
632.768	15693
632.830	15715
632.892	16477
632.954	17175
633.016	17185
633.078	16079
633.141	16081
633.203	15341
633.265	16494
633.327	15982
633.389	15494
633.451	17270
633.513	17253
633.575	18099
633.637	18302
633.698	18589
633.760	17818
633.822	16896
633.884	18001
633.946	18961
634.008	19598
634.070	19286
634.132	22516
634.193	24745
634.255	24039
634.317	24510
634.379	24846
634.441	23624
634.502	21458
634.564	19438
634.626	19217
634.687	18097
634.749	17463
634.811	16484
634.873	15583
634.934	16043
634.996	16106
635.057	15932
635.119	15475
635.181	16458
635.242	16350
635.304	16005
635.365	17100
635.427	15563
635.488	16535
635.550	16509
635.611	15953
635.673	15842
635.734	16451
635.796	18347
635.857	18624
635.918	20550
635.980	22129
636.041	24099
636.102	25193
636.164	27025
636.225	25030
636.286	24068
636.348	21288
636.409	19531
636.470	17398
636.531	17752
636.593	16042
636.654	16406
636.715	14774
636.776	14243
636.838	13714
636.899	13735
636.960	13344
637.021	14419
637.082	13636
637.143	13504
637.204	12468
637.265	12627
637.326	12724
637.387	12801
637.448	12563
637.509	12172
637.570	12207
637.631	13177
637.692	11863
637.753	11583
637.814	11380
637.875	11858
637.936	12677
637.997	10940
638.058	12092
638.119	12457
638.179	12286
638.240	11913
638.301	11023
638.362	11919
638.423	10979
638.483	11756
638.544	10825
638.605	11641
638.666	9918
638.726	11015
638.787	11128
638.848	10842
638.908	11430
638.969	10638
639.030	9489
639.090	10112
639.151	10417
639.211	11267
639.272	11720
639.332	13014
639.393	14820
639.453	11324
639.514	11938
639.574	11559
639.635	10114
639.695	10649
639.756	9330
639.816	9837
639.877	10050
639.937	12010
639.997	15162
640.058	13112
640.118	10307
640.178	9512
640.239	8955
640.299	9244
640.359	9489
640.420	10020
640.480	10361
640.540	11626
640.600	13114
640.661	13073
640.721	11989
640.781	14340
640.841	16352
640.901	13515
640.961	10634
641.021	10149
641.082	11107
641.142	12703
641.202	11661
641.262	8384
641.322	9049
641.382	7622
641.442	9653
641.502	8820
641.562	9135
641.622	9573
641.682	9943
641.742	10801
641.802	12739
641.861	10059
641.921	9110
641.981	9826
642.041	8431
642.101	9506
642.161	9193
642.221	7972
642.280	8912
642.340	8379
642.400	7666
642.460	8783
642.519	8684
642.579	8347
642.639	9602
642.698	7773
642.758	9861
642.818	9511
642.877	9097
642.937	9584
642.997	9549
643.056	10252
643.116	10360
643.175	9646
643.235	10033
643.294	9817
643.354	10092
643.414	11690
643.473	12053
643.532	15319
643.592	20184
643.651	30584
643.711	54876
643.770	105469
643.830	216551
643.889	625993
643.948	602777
644.008	80499
644.067	28412
644.126	20149
644.186	15306
644.245	13251
644.304	10778
644.363	11483
644.423	8838
644.482	9419
644.541	9627
644.600	9581
644.659	12274
644.719	13867
644.778	20816
644.837	34183
644.896	64866
644.955	164357
645.014	203915
645.073	33767
645.132	15501
645.191	12573
645.250	11550
645.309	11338
645.368	10857
645.427	14286
645.486	18319
645.545	41289
645.604	35809
645.663	11825
645.722	9739
645.781	10425
645.840	11118
645.898	13423
645.957	18389
646.016	27522
646.075	51137
646.134	97169
646.192	207657
646.251	603149
646.310	348742
646.369	44807
646.427	21962
646.486	17976
646.545	12901
646.603	11263
646.662	10476
646.721	9202
646.779	9513
646.838	8740
646.896	11839
646.955	14724
647.014	20754
647.072	36666
647.131	88607
647.189	157856
647.248	29162
647.306	10366
647.365	8064
647.423	7196
647.481	8289
647.540	5830
647.598	7059
647.657	6084
647.715	6745
647.773	6392
647.832	5806
647.890	5711
647.948	6328
648.007	6217
648.065	5520
648.123	5716
648.181	6923
648.240	6773
648.298	8224
648.356	5391
648.414	5801
648.472	6190
648.531	5748
648.589	5901
648.647	5198
648.705	4910
648.763	6025
648.821	6250
648.879	5513
648.937	6897
648.995	8129
649.053	9821
649.111	14312
649.169	23410
649.227	42202
649.285	82389
649.343	214995
649.401	392668
649.459	73578
649.516	25249
649.574	14910
649.632	16814
649.690	29906
649.748	21968
649.806	18909
649.863	33724
649.921	60850
649.979	125918
650.037	31772
650.094	7094
650.152	7037
650.210	5606
650.268	5791
650.325	6370
650.383	7475
650.440	6871
650.498	4805
650.556	4611
650.613	4321
650.671	4226
650.728	4083
650.786	4954
650.843	4950
650.901	6424
650.958	3985
651.016	4726
651.073	4009
651.131	4224
651.188	3066
651.246	3641
651.303	3126
651.360	3814
651.418	3423
651.475	3368
651.532	2787
651.590	3675
651.647	3217
651.704	2964
651.762	4147
651.819	3702
651.876	3198
651.933	3895
651.990	3458
652.048	2609
652.105	3226
652.162	3349
652.219	2961
652.276	3714
652.333	3573
652.390	2687
652.448	3814
652.505	3798
652.562	3872
652.619	3988
652.676	4530
652.733	7606
652.790	4389
652.847	3062
652.904	3331
652.961	3399
653.017	2504
653.074	3541
653.131	2980
653.188	2428
653.245	2726
653.302	2657
653.359	1871
653.415	2905
653.472	2510
653.529	3388
653.586	2292
653.642	3208
653.699	2934
653.756	2819
653.813	2731
653.869	2692
653.926	2812
653.983	2226
654.039	3059
654.096	2962
654.152	3461
654.209	1660
654.266	2572
654.322	2408
654.379	2529
654.435	3328
654.492	3183
654.548	3541
654.605	4965
654.661	6177
654.717	2931
654.774	3651
654.830	3392
654.887	3152
654.943	3124
655.000	3101
655.056	4425
655.112	3630
655.168	2749
655.225	2773
655.281	3077
655.337	2520
655.394	3945
655.450	5473
655.506	3874
655.562	3483
655.618	6183
655.675	2250
655.731	2669
655.787	2298
655.843	2679
655.899	2036
655.955	3228
656.011	3110
656.067	2392
656.123	3229
656.179	2857
656.235	2822
656.291	2225
656.347	3040
656.403	2506
656.459	3008
656.515	2651
656.571	2985
656.627	3040
656.683	2274
656.739	3414
656.795	2932
656.850	2568
656.906	3026
656.962	3430
657.018	3689
657.074	2451
657.129	3027
657.185	5168
657.241	8397
657.297	14288
657.352	4775
657.408	1819
657.464	3412
657.519	2412
657.575	2029
657.630	1986
657.686	2373
657.742	1729
657.797	1725
657.853	1320
657.908	3041
657.964	1365
658.019	1830
658.075	3032
658.130	2850
658.186	2298
658.241	2469
658.297	2347
658.352	1817
658.407	2475
658.463	2204
658.518	2715
658.573	2633
658.629	2546
658.684	2350
658.739	2497
658.795	1478
658.850	2330
658.905	1411
658.960	2858
659.016	1783
659.071	1765
659.126	1488
659.181	2332
659.236	2802
659.291	3987
659.346	2733
659.401	2856
659.457	2899
659.512	4767
659.567	5447
659.622	2536
659.677	1609
659.732	1826
659.787	2126
659.842	2430
659.897	2583
659.952	2550
660.007	1578
660.061	1642
660.116	1960
660.171	2512
660.226	2339
660.281	2478
660.336	1940
660.391	2187
660.445	1887
660.500	2321
660.555	2841
660.610	1552
660.664	2594
660.719	1960
660.774	2491
660.828	2611
660.883	2242
660.938	1393
660.992	2130
661.047	1715
661.101	1273
661.156	1552
661.211	1148
661.265	1827
661.320	1774
661.374	1488
661.429	1769
661.483	2190
661.538	1666
661.592	1982
661.647	1701
661.701	3219
661.755	3082
661.810	2703
661.864	1727
661.919	1815
661.973	2399
662.027	1011
662.081	1552
662.136	1642
662.190	2217
662.244	2409
662.299	1514
662.353	1794
662.407	1379
662.461	1260
662.515	1854
662.569	1256
662.624	2186
662.678	1518
662.732	2264
662.786	1709
662.840	2245
662.894	2035
662.948	1296
663.002	1600
663.056	1946
663.110	1521
663.164	1284
663.218	2526
663.272	1597
663.326	2563
663.380	1896
663.434	2433
663.488	1206
663.542	2179
663.595	2282
663.649	1638
663.703	2462
663.757	2107
663.811	1730
663.864	916
663.918	2092
663.972	1805
664.026	1839
664.079	2087
664.133	2023
664.187	1637
664.240	2923
664.294	1575
664.348	1742
664.401	1824
664.455	2392
664.508	983
664.562	1354
664.615	1718
664.669	1955
664.722	1731
664.776	1331
664.829	1328
664.883	1367
664.936	1921
664.990	2198
665.043	2888
665.097	739
665.150	2561
665.203	2607
665.257	1903
665.310	2484
665.363	1590
665.417	2864
665.470	1962
665.523	1673
665.576	1491
665.630	1843
665.683	1837
665.736	2158
665.789	2330
665.842	2314
665.895	1915
665.949	1995
666.002	2073
666.055	2444
666.108	1510
666.161	1394
666.214	1823
666.267	2192
666.320	2767
666.373	2279
666.426	2288
666.479	1755
666.532	2435
666.585	2829
666.638	2876
666.691	2689
666.744	2239
666.796	2079
666.849	2572
666.902	2891
666.955	3027
667.008	1725
667.060	2127
667.113	1969
667.166	1661
667.219	1887
667.271	1293
667.324	2799
667.377	1781
667.430	2134
667.482	2147
667.535	3256
667.587	1870
667.640	2424
667.693	1540
667.745	2949
667.798	3495
667.850	2992
667.903	1900
667.955	1487
668.008	2677
668.060	2592
668.113	1044
668.165	2193
668.218	2704
668.270	1638
668.322	1162
668.375	818
668.427	1794
668.479	1462
668.532	1376
668.584	1797
668.636	1396
668.689	2261
668.741	1550
668.793	2089
668.845	2398
668.898	2643
668.950	1707
669.002	2098
669.054	1369
669.106	2176
669.158	2669
669.211	1634
669.263	1557
669.315	2824
669.367	2690
669.419	2980
669.471	2615
669.523	2542
669.575	3464
669.627	3826
669.679	3000
669.731	2175
669.783	2792
669.835	2591
669.886	2655
669.938	3041
669.990	2121
670.042	1861
670.094	2634
670.146	1976
670.197	3352
670.249	3205
670.301	2949
670.353	3883
670.404	5425
670.456	8749
670.508	12962
670.560	22113
670.611	42595
670.663	75512
670.715	137406
670.766	351961
670.818	335346
670.869	57035
670.921	14998
670.972	10085
671.024	6704
671.075	5431
671.127	4158
671.178	3070
671.230	3415
671.281	4095
671.333	3687
671.384	2573
671.436	3937
671.487	4743
671.538	5956
671.590	8966
671.641	13973
671.692	21530
671.744	40940
671.795	64966
671.846	33793
671.897	12910
671.949	8000
672.000	4989
672.051	3977
672.102	4029
672.153	2311
672.204	2307
672.256	2717
672.307	2074
672.358	1824
672.409	2399
672.460	2289
672.511	1818
672.562	1302
672.613	1568
672.664	991
672.715	1165
672.766	1578
672.817	1824
672.868	1236
672.919	1863
672.970	791
673.021	882
673.071	938
673.122	1612
673.173	2175
673.224	1281
673.275	888
673.326	898
673.376	1500
673.427	509
673.478	1319
673.528	714
673.579	733
673.630	1116
673.680	711
673.731	803
673.782	1397
673.832	1397
673.883	1828
673.934	1251
673.984	1341
674.035	1463
674.085	339
674.136	1384
674.186	937
674.237	1511
674.287	2345
674.338	2749
674.388	1590
674.438	595
674.489	1319
674.539	699
674.589	1693
674.640	1272
674.690	1526
674.740	939
674.791	1641
674.841	1776
674.891	1523
674.942	1424
674.992	899
675.042	1442
675.092	868
675.142	839
675.193	1280
675.243	1359
675.293	1322
675.343	1098
675.393	1601
675.443	1472
675.493	791
675.543	1260
675.593	1238
675.643	1297
675.693	1220
675.743	575
675.793	1441
675.843	746
675.893	949
675.943	1456
675.993	276
676.043	737
676.093	765
676.142	305
676.192	304
676.242	1116
676.292	570
676.341	907
676.391	517
676.441	1342
676.491	604
676.540	552
676.590	509
676.640	513
676.689	1082
676.739	490
676.789	740
676.838	1027
676.888	946
676.937	142
676.987	336
677.037	351
677.086	214
677.136	742
677.185	691
677.235	1115
677.284	415
677.333	457
677.383	923
677.432	1003
677.482	497
677.531	156
677.580	389
677.630	1223
677.679	337
677.728	897
677.778	828
677.827	749
677.876	335
677.925	-397
677.975	512
678.024	1514
678.073	-199
678.122	739
678.171	184
678.220	532
678.269	956
678.319	1599
678.368	1731
678.417	1376
678.466	1032
678.515	312
678.564	514
678.613	591
678.662	826
678.711	364
678.760	657
678.809	848
678.857	493
678.906	144
678.955	402
679.004	191
679.053	971
679.102	533
679.151	596
679.199	139
679.248	532
679.297	715
679.346	463
679.394	333
679.443	375
679.492	636
679.540	509
679.589	657
679.638	524
679.686	555
679.735	574
679.784	848
679.832	504
679.881	1170
679.929	977
679.978	483
680.026	576
680.075	772
680.123	655
680.172	563
680.220	245
680.268	0
680.317	327
680.365	-45
680.414	34
680.462	1025
680.510	550
680.559	687
680.607	496
680.655	356
680.703	106
680.752	164
680.800	845
680.848	438
680.896	371
680.945	-738
680.993	187
681.041	685
681.089	568
681.137	129
681.185	-302
681.233	41
681.258	173
681.281	241
681.329	24
681.377	707
681.380	742
681.425	278
681.473	462
681.502	874
681.521	1061
681.569	1177
681.617	1646
681.624	1679
681.665	1428
681.713	682
681.745	1453
681.761	1737
681.809	1114
681.857	2081
681.867	1928
681.904	1147
681.952	2323
681.989	2433
682.000	2398
682.048	2494
682.096	2724
682.111	2735
682.143	2542
682.191	2454
682.233	2707
682.239	2687
682.286	2708
682.334	2546
682.354	2537
682.382	2417
682.430	3050
682.476	3793
682.477	3757
682.525	3426
682.572	2998
682.598	2776
682.620	2489
682.667	3722
682.715	3488
682.720	3621
682.763	4319
682.810	4022
682.841	4232
682.857	4286
682.905	4410
682.952	4623
682.963	4626
683.000	4378
683.047	4669
683.085	5210
683.095	5291
683.142	5076
683.190	4936
683.206	4938
683.237	4899
683.284	5043
683.328	6257
683.332	6299
683.379	5296
683.426	4882
683.449	5367
683.473	5859
683.521	6062
683.568	5581
683.571	5683
683.615	6359
683.662	6469
683.693	6193
683.709	5987
683.757	5924
683.804	6621
683.814	6657
683.851	6587
683.898	6522
683.936	6722
683.945	6728
683.992	7188
684.039	7706
684.057	7600
684.086	7418
684.133	7716
684.179	7977
684.180	7945
684.227	7684
684.274	7858
684.300	7918
684.321	7906
684.368	8112
684.415	8132
684.422	8133
684.462	7997
684.509	8715
684.543	8505
684.556	8376
684.603	8143
684.649	9008
684.665	9006
684.696	8856
684.743	8927
684.786	9597
684.790	9642
684.837	9010
684.883	10095
684.908	10000
684.930	9771
684.977	9863
685.023	10860
685.029	10787
685.070	10062
685.117	10115
685.150	9989
685.164	9921
685.210	11017
685.257	10818
685.272	10902
685.303	10928
685.350	10933
685.393	10633
685.396	10580
685.443	10679
685.490	11042
685.514	10884
685.536	10866
685.583	11871
685.629	11272
685.636	11413
685.675	11844
685.722	11412
685.757	11346
685.768	11325
685.815	11932
685.861	11670
685.878	11909
685.908	12374
685.954	12110
686.000	12523
686.000	12516
686.047	12253
686.093	12862
686.121	12780
686.139	12714
686.185	13500
686.232	13496
686.242	13492
686.278	13184
686.324	13503
686.363	13674
686.370	13713
686.416	13711
686.463	13175
686.484	13344
686.509	13530
686.555	13774
686.601	13916
686.606	13921
686.647	13968
686.693	14508
686.727	14108
686.739	13878
686.785	14553
686.831	14244
686.848	14108
686.877	14018
686.923	13826
686.969	14231
686.969	14230
687.015	13973
687.061	14358
687.090	14466
687.107	14542
687.153	15155
687.199	15045
687.211	15080
687.245	15099
687.291	15475
687.332	15101
687.336	15071
687.382	15478
687.428	15702
687.453	15767
687.474	15752
687.520	15225
687.565	16119
687.574	16099
687.611	16504
687.657	16380
687.695	17377
687.702	17680
687.748	19616
687.794	20617
687.816	21291
687.839	21983
687.885	23221
687.931	24155
687.937	24334
687.976	22129
688.022	19349
688.058	17693
688.067	17791
688.113	17393
688.158	17267
688.179	17276
688.204	17285
688.249	17278
688.295	17111
688.300	17102
688.340	17406
688.386	17668
688.421	17431
688.431	17375
688.477	17820
688.522	17905
688.542	18158
688.567	18540
688.613	18706
688.658	18543
688.663	18606
688.703	18962
688.749	18873
688.784	18764
688.794	18802
688.839	19038
688.884	19240
688.905	19067
688.930	18801
688.975	19050
689.020	19047
689.026	19017
689.065	19021
689.110	19299
689.146	19147
689.155	19238
689.201	19621
689.246	20955
689.267	20962
689.291	20719
689.336	21166
689.381	20804
689.388	20742
689.426	20190
689.471	20239
689.509	19399
689.516	19375
689.561	19249
689.606	19907
689.630	20059
689.651	20077
689.696	19931
689.741	19835
689.750	19731
689.785	19672
689.830	19981
689.871	20037
689.875	20066
689.920	19931
689.965	20171
689.992	20123
690.010	20091
690.054	20415
690.099	20044
690.112	20123
690.144	20672
690.189	20931
690.233	20959
690.233	20988
690.278	21068
690.323	21038
690.354	21037
690.367	21128
690.412	21245
690.457	22001
690.474	21846
690.501	21819
690.546	22401
690.590	22769
690.595	22757
690.635	23093
690.680	23515
690.716	24052
690.724	24398
690.769	25925
690.813	27432
690.836	28086
690.857	29440
690.902	32365
690.946	35515
690.957	36178
690.991	44068
691.035	54864
691.077	65047
691.080	66200
691.124	86451
691.168	104935
691.198	117669
691.213	112708
691.257	97509
691.301	82116
691.318	76001
691.346	68624
691.390	55966
691.434	44149
691.439	42690
691.478	38843
691.522	34733
691.559	31048
691.567	30871
691.611	29755
691.655	28490
691.680	27679
691.699	27510
691.743	27189
691.787	26454
691.800	26266
691.831	26314
691.875	26329
691.919	26176
691.921	26122
691.964	25978
692.008	26039
692.041	26159
692.052	26270
692.096	25957
692.139	26010
692.162	25841
692.183	25698
692.227	25601
692.271	25456
692.282	25316
692.315	25216
692.359	25129
692.402	25204
692.403	25256
692.447	25355
692.490	25486
692.523	25758
692.534	25853
692.578	25757
692.622	25501
692.643	25208
692.666	25106
692.709	25379
692.753	25714
692.763	25673
692.797	25920
692.840	26046
692.884	26481
692.884	26536
692.928	26093
692.971	26264
693.004	26094
693.015	26263
693.059	26832
693.102	27366
693.124	27429
693.146	27575
693.189	28503
693.233	28383
693.245	28502
693.276	29489
693.320	30352
693.363	31564
693.365	31531
693.407	32606
693.450	33919
693.485	34707
693.493	35368
693.537	38725
693.580	41828
693.605	43654
693.624	47034
693.667	54624
693.710	62378
693.725	64970
693.753	80488
693.797	104597
693.840	129578
693.845	132380
693.883	171978
693.926	215407
693.966	254592
693.970	251625
694.013	215635
694.056	179538
694.086	154378
694.099	145884
694.142	117666
694.185	89365
694.206	75738
694.229	70801
694.272	60848
694.315	51099
694.326	48472
694.358	46225
694.401	42910
694.444	39497
694.446	39241
694.487	37506
694.530	35759
694.566	34061
694.573	34009
694.616	33060
694.659	32426
694.686	31755
694.702	31666
694.745	31274
694.787	31147
694.806	30838
694.830	30555
694.873	30180
694.916	29546
694.926	29429
694.959	29535
695.002	29140
695.044	29005
695.046	28927
695.087	29167
695.130	29322
695.166	29355
695.172	29429
695.215	29579
695.258	29479
695.286	29519
695.301	29745
695.343	30078
695.386	30299
695.406	30296
695.428	30182
695.471	30352
695.514	29973
695.526	29835
695.556	30575
695.599	31584
695.641	32628
695.646	32663
695.684	33066
695.726	33006
695.766	33328
695.769	33391
695.811	32981
695.854	32543
695.886	32088
695.896	32067
695.938	31795
695.981	31443
696.005	31084
696.023	31327
696.065	31897
696.108	32429
696.125	32560
696.150	32761
696.192	32948
696.235	33130
696.245	33100
696.277	33673
696.319	34294
696.361	34918
696.365	34884
696.404	35575
696.446	36120
696.485	36610
696.488	36653
696.530	35941
696.572	35331
696.604	34701
696.614	34757
696.656	34565
696.698	34453
696.724	34379
696.740	34488
696.783	34297
696.825	34192
696.844	34025
696.867	34231
696.909	34542
696.951	34874
696.964	34859
696.992	34948
697.034	35008
697.076	35036
697.083	34953
697.118	35102
697.160	35144
697.202	35221
697.203	35132
697.244	35357
697.286	35352
697.323	35388
697.327	35484
697.369	35401
697.411	35379
697.442	35238
697.453	35344
697.494	35333
697.536	35469
697.562	35422
697.578	35538
697.620	35630
697.661	35676
697.682	35562
697.703	35769
697.744	36161
697.786	36513
697.801	36519
697.828	36891
697.869	37265
697.911	37778
697.921	37787
697.952	37494
697.994	37006
698.035	36476
698.040	36311
698.077	36370
698.118	36378
698.160	36343
698.160	36244
698.201	36359
698.243	36368
698.279	36289
698.284	36463
698.325	37138
698.367	37877
698.399	38280
698.408	38401
698.449	38519
698.491	38651
698.518	38601
698.532	38788
698.573	39060
698.614	39329
698.638	39380
698.656	39499
698.697	39518
698.738	39538
698.757	39436
698.779	39555
698.820	39582
698.862	39597
698.877	39501
698.903	39840
698.944	40193
698.985	40548
698.996	40537
699.026	40349
699.067	39936
699.116	39334
699.235	39693
699.354	39287
699.474	39008
699.593	38315
699.713	39336
699.832	37519
699.951	38301
700.070	39213
700.190	36971
700.309	37835
700.428	36564
700.547	36391
700.667	35902
700.786	35671
700.905	36047
701.024	33918
701.143	36182
701.262	34336
701.381	35595
701.500	35991
701.619	35848
701.738	35953
701.857	35576
701.976	34633
702.095	33689
702.214	33893
702.333	35550
702.452	34548
702.571	35001
702.690	34962
702.809	34817
702.928	33465
703.047	32594
703.165	32067
703.284	34204
703.403	32978
703.522	32199
703.640	32817
703.759	32702
703.878	32906
703.997	33488
704.115	32474
704.234	31583
704.353	31819
704.471	30818
704.590	29616
704.708	30767
704.827	30274
704.946	30152
705.064	29976
705.183	30685
705.301	30369
705.420	34046
705.538	36201
705.656	34889
705.775	32037
705.893	38090
706.012	64229
706.130	46749
706.249	32964
706.367	32743
706.485	31244
706.604	32752
706.722	32131
706.840	33702
706.958	41416
707.077	56697
707.195	35152
707.313	31073
707.431	29653
707.549	29707
707.668	28784
707.786	28878
707.904	29798
708.022	29205
708.140	29857
708.258	29393
708.376	29892
708.494	28920
708.612	29107
708.730	31547
708.848	35947
708.966	33111
709.084	31716
709.202	32121
709.320	31079
709.438	30095
709.556	30971
709.674	30517
709.791	29689
709.909	28814
710.027	28993
710.145	28986
710.263	28952
710.380	28272
710.498	29046
710.616	29262
710.733	28396
710.851	28438
710.969	29342
711.086	27290
711.204	27913
711.322	27542
711.439	27620
711.557	27023
711.674	27634
711.792	27475
711.909	27585
712.027	30544
712.144	29119
712.262	26271
712.379	27799
712.497	29414
712.614	34883
712.732	32030
712.849	30173
712.966	28498
713.084	30713
713.201	31315
713.318	29383
713.436	30029
713.553	30181
713.670	30365
713.787	30556
713.905	31899
714.022	30993
714.139	30025
714.256	32837
714.373	37760
714.490	51751
714.608	88069
714.725	259457
714.842	912229
714.959	338944
715.076	54598
715.193	37337
715.310	33776
715.427	31208
715.544	28666
715.661	29200
715.778	27831
715.895	27180
716.011	28629
716.128	28439
716.245	26451
716.362	27152
716.479	26451
716.596	26247
716.713	26300
716.829	26603
716.946	25566
717.063	23721
717.180	24119
717.296	23506
717.413	23695
717.530	24132
717.646	23364
717.763	23505
717.880	23071
717.996	21889
718.113	22810
718.229	22101
718.346	23538
718.462	22025
718.579	22390
718.695	24303
718.812	27686
718.928	24266
719.045	23875
719.161	22313
719.277	23065
719.394	22791
719.510	23302
719.626	23502
719.743	26049
719.859	29993
719.975	42895
720.092	91872
720.208	356939
720.324	352113
720.440	41728
720.557	26670
720.673	25342
720.789	26939
720.905	30296
721.021	37740
721.137	22770
721.253	21142
721.369	21410
721.486	21451
721.602	21705
721.718	22486
721.834	19032
721.950	19719
722.066	18958
722.181	19618
722.297	19235
722.413	19692
722.529	18248
722.645	19258
722.761	18683
722.877	19283
722.993	19263
723.108	20088
723.224	21992
723.340	19096
723.456	19543
723.571	17759
723.687	17980
723.803	17313
723.918	17989
724.034	17776
724.150	17446
724.265	18133
724.381	17938
724.497	24841
724.612	20705
724.728	17373
724.843	17823
724.959	17221
725.074	18207
725.190	24566
725.305	20890
725.421	17466
725.536	16984
725.651	17634
725.767	16488
725.882	15770
725.997	16800
726.113	17024
726.228	17153
726.343	16247
726.459	16571
726.574	15923
726.689	16238
726.804	16149
726.920	15667
727.035	15772
727.150	16357
727.265	16320
727.380	17187
727.495	16485
727.610	15835
727.725	15450
727.841	16740
727.956	20130
728.071	33213
728.186	18771
728.301	15755
728.416	15431
728.531	15751
728.645	14917
728.760	15304
728.875	14918
728.990	15022
729.105	15227
729.220	14262
729.335	15139
729.449	15471
729.564	14983
729.679	13937
729.794	14686
729.908	14968
730.023	14981
730.138	14394
730.253	14328
730.367	14544
730.482	14550
730.596	14002
730.711	14640
730.826	16776
730.940	20285
731.055	19753
731.169	15213
731.284	15794
731.398	14934
731.513	16404
731.627	15812
731.742	17055
731.856	19890
731.970	21157
732.085	21672
732.199	26369
732.313	37204
732.428	65444
732.542	168541
732.656	322539
732.771	102709
732.885	36114
732.999	25497
733.113	23453
733.227	22533
733.342	21919
733.456	20018
733.570	20142
733.684	20658
733.798	18740
733.912	17830
734.026	18780
734.140	18515
734.254	18690
734.368	18905
734.482	21576
734.596	19774
734.710	17918
734.824	17194
734.938	16865
735.052	18001
735.166	18294
735.280	18078
735.393	17342
735.507	16457
735.621	17233
735.735	19158
735.849	20155
735.962	17318
736.076	17050
736.190	17316
736.303	16505
736.417	18519
736.531	17551
736.644	16408
736.758	15243
736.872	16626
736.985	15154
737.099	16037
737.212	15496
737.326	15135
737.439	15266
737.553	15868
737.666	15231
737.780	15006
737.893	15480
738.007	16348
738.120	15496
738.233	14743
738.347	15097
738.460	14572
738.573	15283
738.687	16010
738.800	14840
738.913	14990
739.026	16218
739.140	14932
739.253	14927
739.366	15260
739.479	14659
739.592	14489
739.705	14477
739.818	14814
739.932	14536
740.045	14443
740.158	15065
740.271	13997
740.384	14523
740.497	14794
740.610	14563
740.723	14024
740.836	14100
740.949	14129
741.062	15435
741.174	15460
741.287	13689
741.400	13986
741.513	14003
741.626	13621
741.739	14416
741.851	14161
741.964	13748
742.077	14141
742.189	14162
742.302	13638
742.415	14916
742.527	14217
742.640	13652
742.753	13686
742.865	13091
742.978	13044
743.090	12239
743.203	12732
743.316	13319
743.428	12387
743.541	12962
743.653	13737
743.766	12375
743.878	13088
743.990	12712
744.103	13877
744.215	12445
744.327	12151
744.440	12828
744.552	13836
744.664	14298
744.777	12671
744.889	13368
745.001	11732
745.113	11697
745.226	12889
745.338	11995
745.450	11615
745.562	13138
745.674	11572
745.786	11604
745.898	11811
746.010	12479
746.122	12605
746.234	11289
746.347	12743
746.459	12188
746.570	10961
746.682	12090
746.794	12838
746.906	12172
747.018	12086
747.130	11352
747.242	11680
747.354	11669
747.466	11231
747.577	11331
747.689	12034
747.801	11914
747.913	11683
748.024	11222
748.136	11466
748.248	11464
748.359	11860
748.471	11672
748.583	12460
748.694	11335
748.806	12847
748.918	12626
749.029	12041
749.141	11894
749.252	12553
749.364	11234
749.475	11907
749.587	13087
749.698	12451
749.809	11966
749.921	11502
750.032	12008
750.144	11588
750.255	11262
750.366	11503
750.478	10857
750.589	11291
750.700	11402
750.811	11147
750.923	11693
751.034	12417
751.145	14906
751.256	13202
751.367	11743
751.479	11233
751.590	11948
751.701	11990
751.812	11820
751.923	10430
752.034	11285
752.145	11298
752.256	12132
752.367	10524
752.478	11268
752.589	10637
752.700	10589
752.811	10774
752.922	10696
753.032	10364
753.143	11246
753.254	11479
753.365	10651
753.476	11752
753.586	12052
753.697	11566
753.808	11185
753.919	10300
754.029	10521
754.140	10724
754.251	10850
754.361	11525
754.472	10930
754.582	11125
754.693	10853
754.804	11204
754.914	11729
755.025	10976
755.135	10368
755.246	10239
755.356	11086
755.466	10986
755.577	10909
755.687	11448
755.798	10826
755.908	10353
756.018	11446
756.129	11100
756.239	11360
756.349	11987
756.460	11372
756.570	12156
756.680	11731
756.790	10857
756.900	11779
757.011	11278
757.121	12269
757.231	11091
757.341	11973
757.451	11772
757.561	11047
757.671	11771
757.781	11793
757.891	12307
758.001	11679
758.111	12441
758.221	12393
758.331	12919
758.441	12407
758.551	12509
758.661	13554
758.771	13384
758.880	13787
758.990	13103
759.100	13479
759.210	14172
759.320	13456
759.429	15068
759.539	13755
759.649	14477
759.758	14646
759.868	15622
759.978	15549
760.087	15461
760.197	16956
760.307	16097
760.416	15667
760.526	15563
760.635	16697
760.745	16743
760.854	17623
760.964	18313
761.073	20044
761.182	18998
761.292	19469
761.401	18380
761.511	17934
761.620	18276
761.729	18386
761.839	18492
761.948	18900
762.057	18708
762.166	20115
762.276	20090
762.385	20707
762.494	20364
762.603	21695
762.712	22225
762.822	21937
762.931	23376
763.040	23665
763.149	24455
763.258	25839
763.367	26653
763.476	27692
763.585	28616
763.694	30713
763.803	32421
763.912	33353
764.021	35310
764.130	36043
764.238	38403
764.347	42717
764.456	43745
764.565	48376
764.674	51233
764.783	56610
764.891	59878
765.000	66236
765.109	74663
765.217	83624
765.326	96068
765.435	112073
765.543	132893
765.652	158720
765.761	198495
765.869	254838
765.978	332748
766.086	449823
766.195	621172
766.303	830640
766.412	930594
766.520	681689
766.629	796017
766.737	879278
766.846	685473
766.954	505266
767.062	374043
767.171	281468
767.279	223061
767.387	176236
767.496	143762
767.604	120505
767.712	104319
767.820	93333
767.928	84242
768.037	77959
768.145	72221
768.253	68882
768.361	64353
768.469	63777
768.577	64419
768.685	66525
768.793	68646
768.901	73428
769.009	81958
769.117	94679
769.225	114745
769.333	146540
769.441	201544
769.549	291194
769.657	457502
769.765	710346
769.873	833335
769.981	676999
770.088	774008
770.196	552790
770.304	361042
770.412	252329
770.519	185341
770.627	144915
770.735	117361
770.842	98237
770.950	82820
771.058	71545
771.165	63636
771.273	58154
771.380	53180
771.488	47360
771.595	45594
771.703	43309
771.810	39498
771.918	38110
772.025	34729
772.133	33889
772.240	33136
772.348	31204
772.455	31495
772.562	30222
772.670	28032
772.777	26528
772.884	25764
772.991	26614
773.099	25217
773.206	23969
773.313	23472
773.420	23533
773.528	22002
773.635	21819
773.742	21520
773.849	20691
773.956	19391
774.063	20194
774.170	19815
774.277	19163
774.384	18297
774.491	18180
774.598	19139
774.705	18710
774.812	18133
774.919	18581
775.026	16617
775.133	16120
775.239	16621
775.346	15941
775.453	16194
775.560	15750
775.667	16307
775.773	15727
775.880	16272
775.987	14892
776.093	14748
776.200	14422
776.307	14379
776.413	13611
776.520	12997
776.627	14829
776.733	13692
776.840	13562
776.946	13737
777.053	13692
777.159	12930
777.266	13299
777.372	13402
777.478	12640
777.585	14025
777.691	12859
777.798	12119
777.904	12576
778.010	12717
778.117	14378
778.223	12393
778.329	12168
778.435	11260
778.542	12081
778.648	12036
778.754	10922
778.860	11122
778.966	12095
779.072	11704
779.178	10810
779.284	11837
779.391	10621
779.497	11715
779.603	13825
779.708	15005
779.815	22121
779.920	45355
780.026	162496
780.132	179690
780.238	27448
780.344	14721
780.450	12608
780.556	11706
780.661	9268
780.767	10867
780.873	10197
780.979	9771
781.085	9369
781.190	9988
781.296	9314
781.402	9447
781.507	9077
781.613	8911
781.719	7860
781.824	9326
781.930	9565
782.035	9013
782.141	9147
782.246	8537
782.352	8822
782.457	8444
782.563	8544
782.668	8292
782.773	8829
782.879	8667
782.984	8548
783.090	9060
783.195	8784
783.300	9418
783.405	8183
783.511	8812
783.616	7836
783.721	8553
783.826	8672
783.932	7740
784.037	7454
784.142	7670
784.247	8913
784.352	7826
784.457	8026
784.562	7435
784.667	8234
784.772	8204
784.877	6454
784.982	7895
785.087	8180
785.192	7638
785.297	7187
785.402	7444
785.507	8016
785.611	7779
785.716	7042
785.821	6725
785.926	6981
786.031	6839
786.135	7085
786.240	7079
786.345	6380
786.450	6739
786.554	6400
786.659	6731
786.763	6535
786.868	6971
786.973	6791
787.077	7041
787.182	6208
787.286	6256
787.391	7299
787.495	6549
787.600	6823
787.704	6087
787.809	7787
787.913	6047
788.017	6935
788.122	7016
788.226	6397
788.330	6392
788.435	5469
788.539	7035
788.643	6742
788.747	5885
788.852	6140
788.956	5936
789.060	5849
789.164	5804
789.268	5477
789.372	7005
789.476	6316
789.580	5878
789.684	5745
789.788	6126
789.892	6078
789.996	6633
790.100	4903
790.204	4833
790.308	6809
790.412	6776
790.516	5339
790.620	6346
790.724	6738
790.828	6279
790.931	5527
791.035	6175
791.139	6340
791.242	6453
791.346	6319
791.450	5369
791.554	6074
791.657	5125
791.761	5765
791.864	6152
791.968	5857
792.072	5485
792.175	5805
792.279	4771
792.382	4730
792.486	5570
792.589	5817
792.693	5868
792.796	5469
792.899	5772
793.003	5383
793.106	5251
793.209	5068
793.313	5272
793.416	4760
793.519	5807
793.623	5663
793.726	6566
793.829	6542
793.932	4965
794.035	5231
794.138	5389
794.242	6965
794.345	6585
794.448	8374
794.551	10355
794.654	25798
794.757	89222
794.860	111903
794.963	16559
795.066	6824
795.169	5960
795.272	6616
795.375	5727
795.477	6057
795.580	4928
795.683	4862
795.786	4686
795.889	5006
795.991	5463
796.094	5958
796.197	5333
796.300	5214
796.402	4902
796.505	5201
796.608	4825
796.710	5034
796.813	5381
796.915	5130
797.018	4803
797.120	5423
797.223	3958
797.326	5149
797.428	5352
797.530	4452
797.633	4712
797.735	4372
797.838	5261
797.940	5926
798.042	4792
798.145	4481
798.247	4868
798.349	4449
798.452	3468
798.554	4100
798.656	4531
798.758	5195
798.860	4764
798.962	4481
799.065	4543
799.167	3940
799.269	5388
799.371	4709
799.473	4929
799.575	5039
799.677	4816
799.779	5049
799.881	3592
799.983	5273
800.085	4442
800.187	3601
800.289	4269
800.390	3625
800.492	4311
800.594	5302
800.696	4032
800.798	4229
800.899	3521
801.001	4854
801.103	4645
801.205	4187
801.306	4573
801.408	4071
801.509	4330
801.611	3579
801.713	4030
801.814	4026
801.916	3564
802.017	3465
802.119	3452
802.220	3786
802.322	3236
802.423	4590
802.525	4247
802.626	4382
802.727	3721
802.829	4700
802.930	3442
803.031	4489
803.133	3242
803.234	3323
803.335	3815
803.436	4401
803.538	2986
803.639	3309
803.740	4184
803.841	3049
803.942	3724
804.043	3849
804.144	3268
804.245	2872
804.346	3839
804.447	3283
804.548	2922
804.649	4701
804.750	4180
804.851	3063
804.952	3908
805.053	3598
805.154	3321
805.255	4639
805.355	3475
805.456	3702
805.557	3783
805.658	3024
805.758	4472
805.859	4323
805.960	3448
806.061	3168
806.161	3500
806.262	3486
806.362	3554
806.463	3457
806.564	3833
806.664	3454
806.765	3535
806.865	3995
806.966	3976
807.066	3290
807.166	4014
807.267	3835
807.367	2769
807.468	3758
807.568	3046
807.668	4382
807.769	3487
807.869	3376
807.969	3639
808.069	4075
808.170	3491
808.270	3459
808.370	3678
808.470	4225
808.570	3543
808.670	3014
808.770	3840
808.870	3345
808.970	3653
809.070	3023
809.170	3173
809.271	3314
809.370	3372
809.470	3560
809.570	3270
809.670	3111
809.770	3070
809.870	3384
809.970	4248
810.070	3777
810.169	4306
810.269	3625
810.369	4110
810.469	3219
810.568	3154
810.668	3711
810.768	4269
810.867	4137
810.967	3556
811.066	3453
811.166	3480
811.265	3932
811.365	3659
811.464	2922
811.564	3418
811.663	4240
811.763	4003
811.862	3832
811.962	3951
812.061	3581
812.160	3774
812.260	3672
812.359	3865
812.458	4106
812.557	4636
812.657	8350
812.756	8548
812.855	5216
812.954	4563
813.053	4084
813.153	3786
813.252	4295
813.351	4338
813.450	4333
813.549	4353
813.648	5381
813.747	3929
813.846	4128
813.945	4462
814.044	4467
814.143	4408
814.242	5115
814.341	4799
814.439	4476
814.538	5669
814.637	5187
814.736	5109
814.835	5136
814.933	5615
815.032	6483
815.131	6324
815.229	6827
815.328	9181
815.427	10561
815.525	9691
815.624	9046
815.722	8829
815.821	9622
815.919	9967
816.018	9938
816.116	10864
816.215	10479
816.313	10669
816.412	11324
816.510	13269
816.609	13625
816.707	13965
816.805	15937
816.904	15990
817.002	17730
817.100	18075
817.198	20625
817.296	22995
817.395	24161
817.493	28871
817.591	31696
817.689	38469
817.787	48354
817.885	65091
817.983	94674
818.081	146020
818.179	251540
818.277	437847
818.375	598047
818.473	498486
818.571	317709
818.669	193157
818.767	140507
818.865	121768
818.963	121063
819.061	136822
819.158	177660
819.256	257149
819.354	390954
819.452	580092
819.549	623689
819.647	530545
819.745	385582
819.842	255475
819.940	173744
820.038	123228
820.135	92926
820.233	73029
820.330	59692
820.428	50438
820.525	43388
820.623	36927
820.720	32293
820.818	28221
820.915	25246
821.012	24346
821.110	21911
821.207	20636
821.304	18439
821.402	16603
821.499	16367
821.596	15587
821.693	13447
821.791	14586
821.888	12885
821.985	13629
822.082	13734
822.179	11859
822.276	10968
822.373	9974
822.470	9733
822.567	9521
822.664	8876
822.761	8846
822.858	8160
822.955	9618
823.052	8216
823.149	8032
823.246	8701
823.343	7971
823.440	7258
823.536	7777
823.633	7610
823.730	7661
823.827	8025
823.923	7118
824.020	6693
824.117	6943
824.213	7203
824.310	7339
824.407	5982
824.503	5967
824.600	6849
824.696	5628
824.793	6291
824.889	6694
824.986	5370
825.082	4547
825.179	5413
825.275	5701
825.371	5938
825.468	6062
825.564	4755
825.660	4687
825.757	5754
825.853	6436
825.949	5289
826.045	4873
826.142	4655
826.238	4931
826.334	4942
826.430	4855
826.526	4928
826.622	4037
826.718	4327
826.814	5043
826.910	5741
827.006	4186
827.102	3731
827.198	4219
827.294	4778
827.390	4284
827.486	4960
827.582	3710
827.678	3103
827.774	4552
827.869	4107
827.965	4252
828.061	3693
828.157	3808
828.252	5832
828.348	4343
828.444	3962
828.539	2857
828.635	3552
828.731	4064
828.826	3613
828.922	4790
829.017	4347
829.113	4846
829.208	3399
829.304	3325
829.399	4255
829.495	4108
829.590	3856
829.685	2897
829.781	3918
829.876	4019
829.971	3878
830.066	2622
830.162	2490
830.257	3282
830.352	4307
830.447	3627
830.543	3045
830.638	3478
830.733	4274
830.828	3731
830.923	3819
831.018	4115
831.113	3342
831.208	4208
831.303	3530
831.398	2339
831.493	3372
831.588	3734
831.683	3658
831.778	3235
831.873	2779
831.967	3688
832.062	3106
832.157	3179
832.252	4028
832.346	3283
832.441	3170
832.536	3206
832.631	3778
832.725	6736
832.820	3516
832.914	3045
833.009	3198
833.104	2364
833.198	2482
833.293	2212
833.387	3518
833.482	3570
833.576	3569
833.670	3463
833.765	3188
833.859	3104
833.954	4226
834.048	3455
834.142	3204
834.237	2299
834.331	2845
834.425	2510
834.519	2926
834.613	2955
834.708	2678
834.802	3231
834.896	1939
834.990	2980
835.084	3043
835.178	2845
835.272	3256
835.366	2833
835.460	3145
835.554	3293
835.648	3252
835.742	2194
835.836	2011
835.930	2464
836.024	2292
836.117	3600
836.211	2207
836.305	2688
836.399	3049
836.493	2825
836.586	3152
836.680	3063
836.774	2493
836.867	2222
836.961	2861
837.055	2027
837.148	1953
837.242	1837
837.335	2979
837.429	2311
837.522	2533
837.616	2428
837.709	2652
837.803	3502
837.896	2895
837.989	3279
838.083	2661
838.176	2336
838.269	3088
838.363	2589
838.456	2482
838.549	3089
838.642	2957
838.735	3355
838.829	4487
838.922	2561
839.015	2127
839.108	2313
839.201	2714
839.294	2165
839.387	1895
839.480	2603
839.573	2185
839.666	2152
839.759	2744
839.852	2682
839.945	2050
840.038	2572
840.131	1882
840.223	1634
840.316	3062
840.409	2117
840.502	2727
840.594	3236
840.687	2499
840.780	2496
840.873	1239
840.965	1557
841.058	2157
841.150	2495
841.243	3432
841.336	2543
841.428	1601
841.521	1812
841.613	1885
841.706	2370
841.798	2326
841.890	2344
841.983	1213
842.075	1605
842.167	2099
842.260	1483
842.352	2637
842.444	2656
842.537	3414
842.629	3089
842.721	3649
842.813	2144
842.905	1366
842.997	2505
843.090	2468
843.182	1761
843.274	2798
843.366	3579
843.458	6049
843.550	9973
843.642	5341
843.734	2294
843.826	2427
843.918	2498
844.009	2274
844.101	2506
844.193	2090
844.285	2287
844.377	2601
844.469	3018
844.560	2230
844.652	1561
844.744	2330
844.835	1793
844.927	2066
845.019	2341
845.110	2441
845.202	2236
845.293	2336
845.385	1430
845.476	1081
845.568	2828
845.659	2255
845.751	1594
845.842	2115
845.934	1426
846.025	1709
846.116	1390
846.208	2307
846.299	1544
846.390	1488
846.482	1445
846.573	1684
846.664	1565
846.755	2031
846.846	3070
846.937	1616
847.029	1260
847.120	1113
847.211	843
847.302	2788
847.393	1334
847.484	2580
847.575	1401
847.666	1524
847.757	1612
847.847	1550
847.938	2136
848.029	1938
848.120	2844
848.211	1642
848.302	1996
848.392	1875
848.483	1907
848.574	2033
848.664	1282
848.755	2123
848.846	2561
848.936	1672
849.027	1424
849.118	1226
849.208	2074
849.299	2247
849.389	3218
849.480	4306
849.570	7806
849.661	12789
849.751	24101
849.841	31388
849.932	10091
850.022	3023
850.112	2091
850.203	2019
850.293	1805
850.383	1480
850.474	2198
850.564	1472
850.654	1194
850.744	1701
850.834	2219
850.924	1419
851.014	1592
851.104	1692
851.194	1711
851.284	1680
851.374	1771
851.464	2365
851.554	1702
851.644	1798
851.734	2012
851.824	3245
851.914	3395
852.004	5351
852.094	9506
852.183	6119
852.273	2881
852.363	1544
852.452	1896
852.542	2002
852.632	1333
852.721	1462
852.811	1878
852.901	2508
852.990	2322
853.080	1988
853.169	1789
853.259	2205
853.348	1778
853.438	3011
853.527	3027
853.617	3596
853.706	6136
853.795	9030
853.885	16866
853.974	36536
854.063	64070
854.152	119687
854.242	145933
854.331	45025
854.420	11264
854.509	6064
854.598	5490
854.687	3933
854.777	2941
854.866	2826
854.955	2697
855.044	2591
855.133	1506
855.222	2272
855.311	1637
855.400	1861
855.488	1423
855.577	1345
855.666	2508
855.755	1614
855.844	2509
855.933	3191
856.021	2505
856.110	1426
856.199	1586
856.288	1570
856.376	2174
856.465	832
856.554	1200
856.642	912
856.731	1896
856.819	2073
856.908	1775
856.996	875
857.085	881
857.173	724
857.262	2059
857.350	1598
857.438	1010
857.527	1085
857.615	1322
857.703	1486
857.792	1373
857.880	1616
857.968	1474
858.056	1220
858.145	1836
858.233	1622
858.321	913
858.409	1777
858.497	1479
858.585	1015
858.673	2023
858.761	1166
858.849	1094
858.937	1346
859.025	1911
859.113	1418
859.201	1313
859.289	1792
859.377	1617
859.465	2081
859.552	1523
859.640	1299
859.728	1721
859.816	1669
859.903	1421
859.991	740
860.079	1149
860.166	1507
860.254	1312
860.342	1416
860.429	888
860.517	909
860.604	1981
860.692	1352
860.779	1512
860.867	1066
860.954	1004
861.042	999
861.129	2356
861.216	1886
861.304	1480
861.391	1871
861.478	1226
861.565	1787
861.653	1657
861.740	1097
861.827	797
861.914	2274
862.001	1101
862.089	893
862.176	1409
862.263	1556
862.350	1812
862.437	1610
862.524	494
862.611	1769
862.698	1382
862.785	1656
862.871	1309
862.958	2232
863.045	1167
863.132	1699
863.219	1416
863.306	464
863.392	1399
863.479	1778
863.566	1531
863.652	2082
863.739	1393
863.826	2086
863.912	1275
863.999	1185
864.086	2028
864.172	642
864.259	2052
864.345	1744
864.432	1811
864.518	1746
864.604	1795
864.691	1737
864.777	3279
864.863	1959
864.950	3212
865.036	3307
865.122	4975
865.209	6396
865.295	6361
865.381	5601
865.467	4462
865.553	5390
865.639	5986
865.726	8026
865.812	11432
865.898	20829
865.984	34667
866.070	49056
866.156	90094
866.242	75559
866.328	20932
866.414	8319
866.499	5560
866.585	5621
866.671	5104
866.757	4691
866.843	5962
866.928	4153
867.014	4183
867.100	4597
867.186	4137
867.271	4659
867.357	4133
867.442	4326
867.528	4488
867.614	4413
867.699	3677
867.785	4072
867.870	4378
867.956	3643
868.041	4322
868.127	3975
868.212	3441
868.297	3812
868.383	3776
868.468	4540
868.553	4660
868.639	4994
868.724	5342
868.809	7484
868.894	5755
868.979	3194
869.065	3299
869.150	3261
869.235	3197
869.320	3654
869.405	3864
869.490	2903
869.575	3076
869.660	3603
869.745	2254
869.830	3353
869.915	4179
870.000	3076
870.085	3199
870.169	2817
870.254	3518
870.339	3122
870.424	2185
870.509	3809
870.593	3629
870.678	3743
870.763	3442
870.847	2673
870.932	2376
871.016	3611
871.101	2448
871.186	3236
871.270	3326
871.355	3529
871.439	2495
871.523	2858
871.608	3748
871.692	2412
871.777	2991
871.861	3549
871.945	2697
872.030	2759
872.114	2795
872.198	3014
872.282	2039
872.367	2994
872.451	1920
872.535	2951
872.619	2498
872.703	2307
872.787	2248
872.871	2418
872.955	2714
873.039	1819
873.123	1616
873.207	3570
873.291	2216
873.375	2249
873.459	1862
873.543	2502
873.627	2652
873.711	2448
873.794	2038
873.878	2615
873.962	2287
874.045	1884
874.129	2595
874.137	2582
874.213	2455
874.245	2223
874.296	1848
874.352	1708
874.380	1637
874.460	2536
874.464	2574
874.547	2338
874.568	2469
874.631	2855
874.676	2475
874.714	2157
874.784	2272
874.798	2293
874.881	3230
874.892	3029
874.965	1644
874.999	1791
875.048	2022
875.107	1921
875.131	1865
875.215	2140
875.215	2139
875.298	1719
875.323	1800
875.381	1968
875.430	2092
875.465	2207
875.538	2470
875.548	2494
875.631	2334
875.646	2169
875.714	1397
875.753	1286
875.798	1201
875.861	1769
875.881	1922
875.964	2334
875.968	2260
876.047	1006
876.076	1179
876.130	1541
876.183	1563
876.213	1521
876.291	2085
876.296	2130
876.379	1879
876.398	1851
876.462	1770
876.506	1743
876.545	1657
876.613	1343
876.628	1298
876.711	1626
876.721	1589
876.794	1250
876.828	1522
876.877	1893
876.935	2103
876.960	2221
877.043	1308
877.043	1308
877.125	1320
877.150	1797
877.208	2809
877.258	2034
877.291	1559
877.365	1579
877.374	1582
877.456	1361
877.472	1439
877.539	1768
877.579	1673
877.622	1585
877.687	1358
877.704	1256
877.787	2078
877.794	2020
877.869	1595
877.901	1734
877.952	1915
878.008	1873
878.034	1824
878.115	539
878.117	515
878.199	1306
878.222	1347
878.282	1275
878.329	1148
878.364	1249
878.437	1804
878.447	1827
878.529	987
878.544	981
878.611	1268
878.651	1373
878.694	1312
878.758	1741
878.776	1850
878.858	1441
878.865	1429
878.941	1380
878.972	1181
879.023	964
879.078	799
879.105	709
879.185	1359
879.187	1372
879.269	1954
879.292	1862
879.351	1317
879.399	1217
879.433	1260
879.506	776
879.516	709
879.598	1275
879.613	1247
879.680	1145
879.720	931
879.762	834
879.827	493
879.844	332
879.926	1144
879.933	1144
880.007	1369
880.040	1209
880.089	771
880.147	598
880.171	642
880.253	1344
880.254	1348
880.335	1524
880.360	1431
880.417	1377
880.467	1613
880.499	1896
880.574	2970
880.580	3013
880.662	2757
880.680	2457
880.744	1660
880.787	1361
880.825	968
880.893	494
880.907	436
880.989	860
881.000	881
881.070	989
881.106	1050
881.152	1262
881.213	1192
881.233	1017
881.315	627
881.319	633
881.396	1122
881.426	1129
881.478	1012
881.532	844
881.559	759
881.639	857
881.641	863
881.722	958
881.745	993
881.803	882
881.852	856
881.885	934
881.958	1106
881.966	1111
882.047	903
882.064	863
882.129	752
882.171	1015
882.210	1027
882.277	620
882.291	619
882.372	747
882.383	754
882.454	825
882.489	880
882.535	996
882.596	935
882.616	789
882.697	740
882.702	730
882.778	1127
882.808	1167
882.859	956
882.914	918
882.940	874
883.020	879
883.021	878
883.102	941
883.127	845
883.183	511
883.233	761
883.264	1019
883.339	692
883.345	676
883.426	1035
883.445	1019
883.507	685
883.551	773
883.587	847
883.657	1184
883.668	1259
883.749	1145
883.763	1147
883.830	985
883.869	852
883.910	636
883.975	540
883.991	528
884.072	440
884.081	427
884.152	542
884.187	554
884.233	593
884.292	791
884.314	840
884.394	731
884.398	723
884.475	276
884.504	241
884.555	366
884.610	445
884.636	442
884.716	609
884.716	608
884.797	1012
884.821	930
884.877	739
884.927	718
884.958	681
885.033	451
885.038	461
885.118	1077
885.139	1083
885.199	390
885.244	290
885.279	540
885.350	731
885.359	720
885.439	740
885.456	723
885.520	958
885.561	978
885.600	702
885.667	344
885.680	354
885.760	638
885.773	678
885.840	678
885.878	585
885.920	375
885.984	249
886.000	289
886.080	391
886.089	391
886.160	504
886.195	664
886.240	757
886.300	587
886.320	559
886.400	934
886.406	955
886.480	639
886.511	401
886.560	313
886.616	247
886.640	196
886.720	106
886.722	107
886.800	551
886.827	752
886.879	744
886.932	653
886.959	719
887.038	974
887.039	968
887.119	524
887.143	432
887.198	614
887.248	792
887.278	612
887.354	49
887.358	61
887.437	451
887.459	541
887.517	282
887.564	145
887.596	267
887.669	423
887.676	395
887.755	178
887.774	95
887.835	400
887.880	694
887.914	544
887.985	263
887.994	276
888.073	339
888.090	391
888.153	544
888.195	492
888.232	557
888.300	814
888.311	811
888.391	804
888.405	791
888.470	524
888.510	396
888.549	338
888.615	294
888.628	297
888.708	224
888.720	232
888.787	78
888.825	-65
888.866	37
888.930	254
888.945	254
889.024	270
889.035	280
889.103	616
889.140	772
889.182	418
889.245	-76
889.261	24
889.340	547
889.349	607
889.419	206
889.454	30
889.498	88
889.559	168
889.577	242
889.656	612
889.664	653
889.735	760
889.768	816
889.814	647
889.873	427
889.978	237
890.083	304
890.187	545
890.292	757
890.397	535
890.501	44
890.606	-757
890.710	884
890.815	414
890.919	110
891.024	393
891.128	1343
891.233	133
891.337	611
891.442	597
891.546	22
891.650	59
891.755	310
891.859	731
891.963	365
892.068	273
892.172	549
892.276	-124
892.380	194
892.484	432
892.589	903
892.693	881
892.797	-548
892.901	292
893.005	-8
893.109	-56
893.213	660
893.317	-151
893.421	860
893.525	-205
893.629	-419
893.733	516
893.837	-116
893.941	-190
894.045	1104
894.148	127
894.252	857
894.356	827
894.460	-225
894.564	-269
894.667	42
894.771	-303
894.875	-416
894.978	-453
895.082	7
895.186	721
895.289	1118
895.393	426
895.496	517
895.600	-201
895.703	373
895.807	-53
895.910	743
896.014	242
896.117	426
896.221	685
896.324	757
896.427	-333
896.531	274
896.634	183
896.737	347
896.840	-242
896.944	14
897.047	322
897.150	-196
897.253	-173
897.356	249
897.460	-223
897.563	204
897.666	315
897.769	283
897.872	-271
897.975	318
898.078	146
898.181	341
898.284	153
898.387	-18
898.490	524
898.593	146
898.695	789
898.798	258
898.901	238
899.004	567
899.107	384
899.209	140
899.312	-407
899.415	107
899.518	-637
899.620	194
899.723	149
899.826	660
899.928	108
900.031	441
900.133	-641
900.236	168
900.338	213
900.441	-53
900.543	475
900.646	389
900.748	-405
900.851	482
900.953	795
901.055	-433
901.158	128
901.260	433
901.362	360
901.465	181
901.567	248
901.669	366
901.771	239
901.873	124
901.976	320
902.078	-24
902.180	386
902.282	145
902.384	13
902.486	-885
902.588	56
902.690	863
902.792	-735
902.894	15
902.996	-372
903.098	-168
903.200	-118
903.302	231
903.404	-94
903.505	-13
903.607	-45
903.709	124
903.811	67
903.913	389
904.014	374
904.116	415
904.218	440
904.319	-142
904.421	-126
904.523	324
904.624	307
904.726	166
904.827	-723
904.929	-481
905.030	92
905.132	0
905.233	73
905.335	304
905.436	-311
905.537	-312
905.639	-360
905.740	-382
905.841	526
905.943	295
906.044	200
906.145	-399
906.247	578
906.348	395
906.449	-319
906.550	-27
906.651	-399
906.752	-345
906.854	-483
906.955	135
907.056	423
907.157	373
907.258	294
907.359	-338
907.460	348
907.561	-305
907.662	717
907.762	258
907.863	-278
907.964	338
908.065	114
908.166	890
908.267	-542
908.367	78
908.468	-129
908.569	332
908.670	-482
908.770	-570
908.871	496
908.971	-103
909.072	-788
909.173	367
909.273	-228
909.374	-451
909.474	253
909.575	134
909.675	185
909.776	618
909.876	-175
909.977	455
910.077	275
910.177	-838
910.278	-384
910.378	87
910.478	-394
910.579	361
910.679	249
910.779	-795
910.879	-266
910.980	94
911.080	18
911.180	-226
911.280	438
911.380	110
911.480	357
911.580	-80
911.680	-304
911.780	383
911.880	-108
911.980	-706
912.080	495
912.180	723
912.280	315
912.380	348
912.480	-201
912.580	-39
912.679	-296
912.779	598
912.879	-90
912.979	-328
913.078	-1333
913.178	342
913.278	-361
913.377	357
913.477	-324
913.577	-181
913.676	-235
913.776	177
913.875	38
913.975	197
914.074	312
914.174	-237
914.273	-652
914.373	10
914.472	-29
914.572	-448
914.671	696
914.770	501
914.870	452
914.969	-382
915.068	-73
915.167	-617
915.267	-841
915.366	-311
915.465	-713
915.564	333
915.663	46
915.763	-183
915.862	-228
915.961	-584
916.060	381
916.159	-59
916.258	13
916.357	-84
916.456	151
916.555	-537
916.654	334
916.752	-395
916.851	254
916.950	299
917.049	-1032
917.148	-597
917.247	90
917.345	126
917.444	29
917.543	65
917.642	88
917.740	-39
917.839	-421
917.937	-241
918.036	23
918.135	-281
918.233	138
918.332	-10
918.430	-269
918.529	-462
918.627	174
918.726	-505
918.824	-370
918.923	-553
919.021	-853
919.119	-510
919.218	-865
919.316	-14
919.414	-545
919.512	-803
919.611	-588
919.709	-258
919.807	-480
919.905	413
920.003	-742
920.102	-188
920.200	166
920.298	13
920.396	-151
920.494	-172
920.592	-776
920.690	-77
920.788	-310
920.886	-487
920.984	-298
921.082	-26
921.180	14
921.277	-619
921.375	-44
921.473	-216
921.571	-109
921.669	419
921.766	438
921.864	210
921.962	-321
922.060	120
922.157	-664
922.255	-497
922.352	-729
922.450	714
922.548	-841
922.645	177
922.743	-351
922.840	841
922.938	360
923.035	432
923.133	411
923.230	251
923.327	327
923.425	328
923.522	390
923.619	101
923.717	-464
923.814	16
923.911	-504
924.008	818
924.106	-626
924.203	-513
924.300	-384
924.397	309
924.494	921
924.591	765
924.688	600
924.786	459
924.883	297
924.979	-3
925.077	157
925.173	160
925.270	8
925.367	422
925.464	57
925.561	802
925.658	213
925.755	-661
925.852	588
925.948	-33
926.045	1307
926.142	53
926.239	508
926.335	-648
926.432	882
926.529	-190
926.625	450
926.722	742
926.818	-47
926.915	437
927.011	64
927.108	670
927.204	-454
927.301	304
927.397	-531
927.494	252
927.590	675
927.687	-431
927.783	35
927.879	-293
927.976	-210
928.072	-95
928.168	-102
928.264	88
928.361	-7
928.457	660
928.553	303
928.649	-339
928.745	168
928.841	-221
928.937	-173
929.033	558
929.129	170
929.225	-198
929.321	-113
929.417	-31
929.513	161
929.609	-583
929.705	691
929.801	-249
929.897	637
929.993	33
930.089	159
930.184	415
930.280	-55
930.376	-95
930.471	-262
930.567	-529
930.663	549
930.758	-171
930.854	-1258
930.950	45
931.045	-10
931.141	-583
931.236	403
931.332	606
931.427	-173
931.523	360
931.618	71
931.714	-287
931.809	172
931.905	11
932.000	516
932.095	191
932.191	-598
932.286	-145
932.381	-800
932.476	-95
932.572	-193
932.667	955
932.762	158
932.857	178
932.952	-653
933.047	-443
933.142	137
933.237	-38
933.332	-122
933.427	343
933.522	188
933.617	-150
933.712	457
933.807	195
933.902	292
933.997	-61
934.092	-831
934.187	-182
934.282	353
934.376	-344
934.471	-131
934.566	-322
934.661	-20
934.755	-430
934.850	-39
934.945	314
935.039	-302
935.134	-122
935.228	-35
935.323	-138
935.417	-315
935.512	-545
935.606	-298
935.701	-581
935.795	-428
935.890	-848
935.984	-476
936.079	457
936.173	104
936.267	-283
936.362	-344
936.456	-118
936.550	-275
936.644	436
936.738	-166
936.833	-330
936.927	-9
937.021	465
937.115	-4
937.209	-388
937.303	-263
937.397	115
937.491	-235
937.585	-1
937.679	-274
937.773	-363
937.867	343
937.961	-249
938.055	-659
938.149	-762
938.243	-386
938.337	-652
938.430	-175
938.524	-569
938.618	-876
938.712	-755
938.805	-140
938.899	-820
938.993	-365
939.086	-260
939.180	-174
939.274	-462
939.367	-708
939.461	160
939.554	-547
939.648	-389
939.741	-51
939.835	-375
939.928	-448
940.022	208
940.115	-336
940.208	100
940.302	-597
940.395	-352
940.488	-663
940.582	-158
940.675	-826
940.768	-511
940.861	-1309
940.954	-463
941.048	-360
941.141	-423
941.234	290
941.327	-690
941.420	-708
941.513	-671
941.606	-173
941.699	314
941.792	-347
941.885	-161
941.978	35
942.071	-436
942.164	-389
942.257	-927
942.349	-299
942.442	-935
942.535	429
942.628	-804
942.721	82
942.813	-409
942.906	-109
942.999	-646
943.091	-711
943.184	225
943.277	-763
943.369	-679
943.462	-1183
943.554	-704
943.647	-571
943.739	61
943.832	-314
943.924	-153
944.017	-737
944.109	-1558
944.201	-564
944.294	-555
944.386	-349
944.478	-833
944.571	-456
944.663	-862
944.755	-371
944.847	-865
944.940	-605
945.032	-1063
945.124	-626
945.216	277
945.308	343
945.400	-89
945.492	-634
945.584	-1358
945.676	-486
945.768	-539
945.860	-824
945.952	-381
946.044	-284
946.136	-353
946.228	-293
946.320	-545
946.412	-981
946.503	-358
946.595	169
946.687	-912
946.779	-320
946.870	-894
946.962	-1473
947.054	-1343
947.145	-999
947.237	-695
947.329	-458
947.420	-730
947.512	-289
947.603	-152
947.695	-365
947.786	-1116
947.878	-664
947.969	-634
948.061	-733
948.152	-190
948.243	-1562
948.335	-12
948.426	-680
948.517	-576
948.609	-1242
948.700	-82
948.791	-334
948.882	-698
948.973	-803
949.065	-776
949.156	13
949.247	-501
949.338	-499
949.429	-268
949.520	-506
949.611	-1247
949.702	-1201
949.793	-1666
949.884	-530
949.975	166
950.066	-661
950.157	-471
950.247	-524
950.338	-862
950.429	-1286
950.520	-297
950.611	-156
950.701	-795
950.792	-1156
950.883	203
950.973	-1239
951.064	-85
951.155	-1783
951.245	-685
951.336	-239
951.427	-1302
951.517	375
951.608	-203
951.698	-1113
951.788	-419
951.879	-599
951.969	-1150
952.060	493
952.150	-906
952.240	-268
952.331	-840
952.421	89
952.511	-216
952.602	-782
952.692	-716
952.782	-1081
952.872	-930
952.962	612
953.052	-618
953.143	-736
953.233	-343
953.323	-554
953.413	-360
953.503	-172
953.593	-147
953.683	-1047
953.773	-561
953.863	-632
953.953	-772
954.042	-882
954.132	-1084
954.222	-206
954.312	-818
954.402	-543
954.492	-753
954.581	-102
954.671	-448
954.761	-301
954.850	-363
954.940	-650
955.030	-350
955.119	-370
955.209	-810
955.298	-796
955.388	-877
955.477	-1
955.567	-620
955.656	135
955.746	-1170
955.835	-119
955.925	-422
956.014	-239
956.103	-885
956.193	-478
956.282	-97
956.371	-1195
956.461	-872
956.550	-966
956.639	-50
956.728	-470
956.817	-384
956.906	-1032
956.995	-458
957.085	-487
957.174	-1521
957.263	-714
957.352	-858
957.441	-41
957.530	-747
957.619	-864
957.708	-1070
957.796	-981
957.885	-374
957.974	-713
958.063	-605
958.152	-230
958.241	371
958.329	-1672
958.418	-1225
958.507	-373
958.596	-270
958.684	-760
958.773	21
958.861	-552
958.950	-655
959.039	-401
959.127	-374
959.216	-290
959.304	-744
959.393	-208
959.481	-776
959.570	-1224
959.658	-1000
959.746	-596
959.835	-611
959.923	-63
960.011	-569
960.100	-844
960.188	235
960.276	-647
960.365	-1092
960.453	-72
960.541	-985
960.629	-465
960.717	-585
960.805	-1474
960.893	-622
960.981	-736
961.069	-883
961.158	-191
961.245	-606
961.333	-1472
961.421	-397
961.509	-28
961.597	-479
961.685	-720
961.773	-328
961.861	-1739
961.949	376
962.036	-215
962.124	-793
962.212	-782
962.299	-1149
962.387	-1097
962.475	-435
962.562	-655
962.650	-226
962.738	-1157
962.825	-722
962.913	-1155
963.000	-268
963.088	-991
963.175	-655
963.263	365
963.350	-1031
963.438	-716
963.525	-638
963.612	-919
963.700	-245
963.787	718
963.874	1051
963.962	-203
964.049	-215
964.136	-1296
964.223	-67
964.310	-42
964.398	20
964.485	-646
964.572	-540
964.659	-730
964.746	-246
964.833	-207
964.920	-338
965.007	-837
965.094	-1291
965.181	-1193
965.268	-427
965.355	-713
965.441	-538
965.528	-438
965.615	-1620
965.702	-764
965.789	-267
965.875	-846
965.962	246
966.049	-1855
966.136	-697
966.222	-783
966.309	-171
966.395	-473
966.482	-289
966.569	144
966.655	-677
966.742	-161
966.828	-817
966.915	-1251
967.001	-885
967.087	-735
967.174	-523
967.260	-200
967.347	-498
967.433	51
967.519	16
967.605	-148
967.692	-12
967.778	-488
967.864	-1103
967.950	-1004
968.036	-836
968.123	-465
968.209	-229
968.295	-904
968.381	-369
968.467	-513
968.553	-1431
968.639	-834
968.725	6
968.811	-936
968.897	-939
968.983	-480
969.069	-795
969.154	-791
969.240	-1044
969.326	-1126
969.412	-737
969.497	-698
969.583	-474
969.669	-818
969.755	-634
969.840	-646
969.926	-855
970.012	-1316
970.097	-168
970.183	-154
970.268	-571
970.354	-890
970.439	-1912
970.525	-425
970.610	-220
970.696	63
970.781	-342
970.866	-712
970.952	-698
971.037	-660
971.122	-507
971.208	-683
971.293	-1427
971.378	-870
971.463	-751
971.549	65
971.634	-679
971.719	-752
971.804	-732
971.889	-704
971.974	-663
972.059	-803
972.144	-584
972.229	-72
972.314	-855
972.399	-402
972.484	-879
972.569	-561
972.654	-670
972.739	-904
972.824	-992
972.908	-412
972.993	-890
973.078	-539
973.163	-856
973.247	-665
973.332	-1251
973.417	364
973.501	-804
973.586	-529
973.671	-1016
973.755	-1021
973.840	-758
973.924	-655
974.009	-1191
974.093	-749
974.178	-467
974.262	-964
974.346	-700
974.431	-1120
974.515	-375
974.600	-1397
974.684	-612
974.768	-650
974.852	-37
974.937	-1029
975.021	-615
975.105	-825
975.189	-1873
975.273	-616
975.358	-1166
975.442	-674
975.526	-765
975.610	-587
975.694	-1384
975.778	-773
975.862	-1241
975.946	-1207
976.030	-117
976.114	-1051
976.198	-876
976.281	-481
976.365	-510
976.449	-1099
976.533	-131
976.617	-987
976.700	-933
976.784	-37
976.868	-762
976.951	66
977.035	-291
977.119	-1019
977.202	-644
977.286	-1129
977.369	-544
977.453	-329
977.536	-1513
977.620	-1200
977.703	-1123
977.787	-1021
977.870	149
977.953	20
978.037	-594
978.120	-784
978.203	-220
978.287	-1163
978.370	-567
978.453	-1575
978.536	-639
978.620	-1434
978.703	-452
978.786	-63
978.869	-1361
978.952	-2119
979.035	-321
979.118	-1200
979.201	-286
979.284	-929
979.367	-1127
979.450	-1308
979.533	-937
979.616	-1376
979.699	-686
979.782	-1265
979.865	-952
979.948	-287
980.030	-1587
980.113	-681
980.196	-406
980.279	-737
980.361	-1373
980.444	-679
980.526	-590
980.609	-690
980.692	-1280
980.774	-37
980.857	-953
980.939	-131
981.022	-132
981.104	-1262
981.187	-836
981.269	-618
981.352	-1471
981.434	-1195
981.516	-509
981.599	-1126
981.681	-1009
981.763	-541
981.846	-1083
981.928	-773
982.010	-120
982.092	-1106
982.174	-1285
982.256	-1237
982.339	-1436
982.421	-1225
982.503	-1230
982.585	-591
982.667	-1126
982.749	-667
982.831	-198
982.913	-2129
982.995	-684
983.077	-1022
983.158	-620
983.240	-1627
983.322	-466
983.404	-267
983.486	-147
983.568	10
983.649	-1330
983.731	-648
983.813	-968
983.894	-803
983.976	-651
984.058	-889
984.139	-913
984.221	-1000
984.302	-1000
984.384	-1271
984.465	-822
984.547	-789
984.628	-1114
984.710	-1197
984.791	-1224
984.872	-860
984.954	-478
985.035	-1611
985.116	-1109
985.198	-1451
985.279	-7
985.360	-502
985.441	-1646
985.522	-571
985.604	-683
985.685	-1845
985.766	-200
985.847	35
985.928	-549
986.009	-1033
986.090	-1288
986.171	-718
986.252	-1343
986.333	-1231
986.414	-1384
986.495	-549
986.576	-426
986.656	-1028
986.737	-1126
986.818	-1509
986.899	-1100
986.980	-483
987.060	-1077
987.141	-1203
987.222	-1030
987.302	-902
987.383	-744
987.464	-811
987.544	32
987.625	-1326
987.705	-845
987.786	-1123
987.866	-1438
987.947	-1349
988.027	-1131
988.108	-1563
988.188	-1107
988.268	-664
988.349	-1040
988.429	-980
988.509	-542
988.589	-963
988.670	-1617
988.750	123
988.830	-907
988.910	-1383
988.990	-1434
989.070	-2035
989.151	-920
989.231	-937
989.311	-747
989.391	-1000
989.471	-1853
989.551	-1301
989.631	-1343
989.711	-1398
989.791	-2029
989.870	-1059
989.950	-363
990.030	-1485
990.110	-1258
990.190	-407
990.269	-1231
990.349	-1499
990.429	-1424
990.509	-65
990.588	-1723
990.668	-1128
990.747	-1202
990.827	-352
990.907	-1090
990.986	-1795
991.066	-1925
991.145	-1180
991.225	-1343
991.304	-1180
991.383	-988
991.463	-1427
991.542	-1819
991.622	-932
991.701	-1140
991.780	-1140
991.859	-1282
991.939	-1184
992.018	-1001
992.097	-637
992.176	-1280
992.256	-1022
992.335	-1181
992.414	-1204
992.493	-1184
992.572	-1311
992.651	-759
992.730	-1313
992.809	-992
992.888	-890
992.967	-1027
993.046	-833
993.125	-1911
993.203	-2014
993.282	-1004
993.361	-1360
993.440	-1442
993.519	-1713
993.597	-1071
993.676	-1936
993.755	-644
993.834	-2129
993.912	-1991
993.991	-1305
994.069	-819
994.148	-1608
994.226	-2933
994.305	-1318
994.384	-1074
994.462	-1595
994.540	-1324
994.619	-1827
994.697	-875
994.776	-1561
994.854	-1216
994.932	-1119
995.011	-1820
995.089	-1781
995.167	-1083
995.245	-967
995.324	-1976
995.402	-884
995.480	-1574
995.558	-1680
995.636	-2360
995.714	-1111
995.792	-1157
995.870	-1615
995.948	-1291
996.026	-1817
996.104	-1917
996.182	-550
996.260	-2181
996.338	-1759
996.416	-855
996.494	-1439
996.572	-526
996.649	-1556
996.727	-2430
996.805	-717
996.883	-1165
996.960	-1557
997.038	-1678
997.116	-1217
997.193	-1484
997.271	-1524
997.348	-1889
997.426	-977
997.504	-1972
997.581	-941
997.658	-1151
997.736	-1736
997.813	-2431
997.891	-795
997.968	-1421
998.046	-1556
998.123	-1110
998.200	-678
998.277	-1712
998.355	-1361
998.432	-2150
998.509	-1333
998.586	-1482
998.663	-921
998.741	-784
998.818	-1894
998.895	-1434
998.972	-1190
999.049	-1729
999.126	-1709
999.203	-931
999.280	-1408
999.357	-2689
999.434	-1442
999.511	-1005
999.587	-990
999.664	-1630
999.741	-1107
999.818	-1466
999.895	-1593
999.971	-1637
1000.048	-1107
1000.125	-483
1000.202	-1873
1000.278	-1846
1000.355	-869
1000.431	-1202
1000.508	-1456
1000.584	-1146
1000.661	-1144
1000.738	-1802
1000.814	-1671
1000.890	-1060
1000.967	-2111
1001.043	-1409
1001.120	-1949
1001.196	-1396
1001.272	-1453
1001.349	-1249
1001.425	-1340
1001.501	-1507
1001.577	-1903
1001.654	-1957
1001.730	-1895
1001.806	-1375
1001.882	-1522
1001.958	-1526
1002.034	-1528
1002.110	-1206
1002.186	-1472
1002.262	-1826
1002.338	-2832
1002.414	-721
1002.490	-1841
1002.566	-1127
1002.642	-1927
1002.718	-1901
1002.794	-2085
1002.870	-1516
1002.945	-1560
1003.021	-1501
1003.097	-1772
1003.173	-2351
1003.248	-2156
1003.324	-792
1003.400	-892
1003.475	-1757
1003.551	-2131
1003.626	-1066
1003.702	-1301
1003.777	-1335
1003.853	-1046
1003.928	-1361
1004.004	-1938
1004.079	-2008
1004.155	-1689
1004.230	-1776
1004.305	-1764
1004.381	-1977
1004.456	-1322
1004.531	-1998
1004.607	-2137
1004.682	-2159
1004.757	-1536
1004.832	-1518
1004.907	-2119
1004.982	-2137
1005.057	-1821
1005.133	-1644
1005.208	-2397
1005.283	-1723
1005.358	-1132
1005.433	-1835
1005.508	-1680
1005.583	-1593
1005.657	-1487
1005.732	-1579
1005.807	-1710
1005.882	-2491
1005.957	-2286
1006.032	-2047
1006.106	-1964
1006.181	-2107
1006.256	-1846
1006.331	-1572
1006.405	-1526
1006.480	-1390
1006.554	-2308
1006.629	-1912
1006.704	-1893
1006.778	-1744
1006.853	-1594
1006.927	-1487
1007.002	-1522
1007.076	-1727
1007.150	-1863
1007.225	-2024
1007.299	-1372
1007.373	-2418
1007.448	-1265
1007.522	-1801
1007.596	-1191
1007.671	-2222
1007.745	-1885
1007.819	-1870
1007.893	-1597
1007.967	-1703
1008.041	-2525
1008.115	-1969
1008.190	-1906
1008.264	-1577
1008.338	-1833
1008.412	-1373
1008.486	-3066
1008.560	-2169
1008.633	-2568
1008.707	-2078
1008.781	-1548
1008.855	-1577
1008.929	-2001
1009.003	-2664
1009.076	-1689
1009.150	-1206
1009.224	-1433
1009.298	-2032
1009.371	-2482
1009.445	-1282
1009.519	-1817
1009.592	-2359
1009.666	-2227
1009.739	-1449
1009.813	-2195
1009.886	-1585
1009.960	-3114
1010.033	-1258
1010.107	-1701
1010.180	-2373
1010.253	-2395
1010.327	-2373
1010.400	-1661
1010.473	-1272
1010.547	-1241
1010.620	-1919
1010.693	-1822
1010.766	-1808
1010.840	-967
1010.913	-1602
1010.986	-1890
1011.059	-2506
1011.132	-2089
1011.205	-2164
1011.278	-2099
1011.351	-2079
1011.424	-2096
1011.497	-2631
1011.570	-2669
1011.643	-1946
1011.716	-1486
1011.789	-1520
1011.862	-2293
1011.934	-983
1012.007	-1750
1012.080	-1196
1012.153	-1604
1012.225	-807
1012.298	-2874
1012.371	-1862
1012.443	-1858
1012.516	-2681
1012.588	-2080
1012.661	-1450
1012.733	-2575
1012.806	-1617
1012.879	-1969
1012.951	-1671
1013.023	-2494
1013.096	-1707
1013.168	-1696
1013.241	-2029
1013.313	-1961
1013.385	-1068
1013.458	-1469
1013.530	-1386
1013.602	-2228
1013.674	-2002
1013.746	-1131
1013.819	-2674
1013.891	-1206
1013.963	-2631
1014.035	-1955
1014.107	-1766
1014.179	-1864
1014.251	-2211
1014.323	-1902
1014.395	-1578
1014.467	-1911
1014.539	-1829
1014.611	-2431
1014.683	-1439
1014.754	-2295
1014.826	-2472
1014.898	-2696
1014.970	-2429
1015.042	-1022
1015.113	-1686
1015.185	-1874
1015.257	-2366
1015.328	-1055
1015.400	-1997
1015.471	-2474
1015.543	-2851
1015.615	-3113
1015.686	-2583
1015.757	-2663
1015.829	-2151
1015.901	-2336
1015.972	-1739
1016.043	-2286
1016.115	-1944
1016.186	-2223
1016.257	-1855
1016.328	-2490
1016.400	-1866
1016.471	-1971
1016.542	-2481
1016.613	-2356
1016.685	-1817
1016.756	-2207
1016.827	-2623
1016.898	-2235
1016.969	-486
1017.040	-2330
1017.111	-1997
1017.182	-2442
1017.253	-1694
1017.324	-2166
1017.395	-1769
1017.466	-1833
1017.537	-2461
1017.608	-2015
1017.678	-1723
1017.749	-2362
1017.820	-1614
1017.891	-2734
1017.961	-1640
1018.032	-1850
1018.103	-1794
1018.173	-1738
1018.244	-2451
1018.315	-2472
1018.385	-1442
1018.456	-2046
1018.526	-2170
1018.597	-2313
1018.667	-2079
1018.738	-2222
1018.808	-1471
1018.878	-2247
1018.949	-1186
1019.019	-1557
1019.089	-1150
1019.160	-2064
1019.230	-2109
1019.300	-1797
1019.371	-1994
1019.441	-2317
1019.511	-2175
1019.581	-1974
1019.651	-2855
1019.721	-1776
1019.791	-2276
1019.861	-2208
1019.931	-1919
1020.001	-1633
1020.071	-1865
1020.141	-2037
1020.211	-1438
1020.281	-2292
1020.351	-2617
1020.421	-1866
1020.491	-1009
1020.560	-2064
1020.630	-796
1020.700	-1280
1020.770	-1879
1020.839	-2091
1020.909	-1845
1020.979	-2444
1021.048	-1199
1021.118	-2246
1021.187	-2035
1021.257	-2501
1021.326	-1961
1021.396	-2769
1021.465	-2242
1021.535	-2407
1021.604	-2880
1021.674	-1542
1021.743	-2088
1021.812	-2241
1021.882	-1599
1021.951	-1858
1022.020	-1540
1022.089	-1809
1022.159	-1579
1022.228	-1557
1022.297	-1932
1022.366	-2775
1022.435	-1954
1022.504	-2265
1022.573	-2887
1022.642	-2723
1022.711	-2742
1022.781	-1938
1022.849	-1158
1022.918	-2848
1022.987	-1424
1023.056	-1538
1023.125	-2674
1023.194	-2328
1023.263	-2448
1023.331	-1633
1023.400	-2570
1023.469	-1930
1023.538	-2618
1023.606	-1902
1023.675	-2376
1023.744	-2297
1023.812	-2462
1023.881	-1386
1023.949	-1860
1024.018	-2079
1024.086	-2133
1024.155	-2247
1024.223	-2854
1024.292	-2269
1024.360	-1868
1024.429	-2518
1024.497	-2555
1024.565	-1652
1024.634	-1995
1024.702	-2316
1024.770	-2595
1024.838	-2863
1024.907	-1345
1024.975	-2240
1025.043	-2022
1025.111	-2878
1025.179	-2173
1025.247	-1659
1025.315	-2061
1025.383	-1928
1025.451	-2134
1025.519	-1563
1025.587	-1630
1025.655	-1955
1025.723	-2760
1025.791	-1594
1025.859	-2098
1025.927	-1112
1025.995	-2011
1026.062	-1460
1026.130	-1434
1026.198	-2123
1026.266	-1804
1026.333	-2076
1026.401	-1750
1026.469	-2123
1026.536	-1798
1026.604	-2065
1026.671	-2520
1026.739	-2577
1026.806	-1690
1026.874	-2443
1026.941	-1826
1027.009	-1434
1027.076	-2349
1027.144	-1395
1027.211	-2104
1027.278	-2028
1027.345	-2156
1027.413	-1710
1027.480	-1900
1027.547	-2628
1027.614	-2409
1027.682	-2450
1027.749	-1689
1027.816	-1832
1027.883	-2880
1027.950	-1473
1028.017	-1963
1028.084	-1603
1028.151	-2624
1028.218	-2269
1028.285	-2498
1028.352	-2423
1028.419	-2280
1028.486	-1942
1028.553	-1663
1028.619	-1913
1028.686	-2087
1028.753	-2191
1028.820	-2138
1028.886	-2262
1028.953	-2287
1029.020	-2224
1029.086	-2362
1029.153	-1984
1029.220	-1748
1029.286	-1665
1029.353	-2189
1029.419	-2350
1029.486	-2108
1029.552	-2323
1029.619	-2310
1029.685	-2414
1029.751	-2570
1029.818	-1921
1029.884	-2382
1029.951	-2402
1030.017	-1961
1030.083	-2847
1030.149	-2196
1030.216	-1950
1030.282	-2256
1030.348	-2467
1030.414	-2519
1030.480	-2818
1030.546	-2059
1030.612	-2559
1030.678	-2147
1030.744	-2347
1030.810	-2180
1030.876	-1986
1030.942	-2210
1031.008	-1302
1031.074	-2509
1031.140	-1844
1031.206	-622
1031.272	-2689
1031.337	-2459
1031.403	-2474
1031.469	-2499
1031.534	-2647
1031.600	-1895
1031.666	-1935
1031.731	-2736
1031.797	-2463
1031.863	-2898
1031.928	-2604
1031.994	-2955
1032.059	-2194
1032.125	-2114
1032.190	-2544
1032.256	-2292
1032.321	-2715
1032.386	-2708
1032.452	-2726
1032.517	-2144
1032.582	-1976
1032.647	-2523
1032.713	-2480
1032.778	-2184
1032.843	-2352
1032.908	-2783
1032.974	-1936
1033.039	-1842
1033.104	-1548
1033.169	-1680
1033.234	-2108
1033.299	-1686
1033.364	-2330
1033.429	-1687
1033.494	-1612
1033.559	-2099
1033.624	-2825
1033.688	-1983
1033.753	-1931
1033.818	-1885
1033.883	-2598
1033.948	-1802
1034.013	-2372
1034.077	-2400
1034.142	-2304
1034.207	-2869
1034.271	-1759
1034.336	-1654
1034.400	-1706
1034.465	-1253
1034.530	-2245
1034.594	-2069
1034.658	-2022
1034.723	-2419
1034.787	-2018
1034.852	-2564
1034.916	-2512
1034.981	-1800
1035.045	-1414
1035.109	-2386
1035.173	-2490
1035.238	-2075
1035.302	-1837
1035.366	-2580
1035.430	-1685
1035.495	-1903
1035.559	-2164
1035.623	-2162
1035.687	-1587
1035.751	-2783
1035.815	-1123
1035.879	-2311
1035.943	-1811
1036.007	-2030
1036.071	-2321
1036.135	-1917
1036.198	-1759
1036.262	-2999
1036.326	-1725
1036.390	-2329
1036.454	-2948
1036.517	-2139
1036.581	-2300
1036.645	-2596
1036.709	-2047
1036.772	-1871
1036.836	-2328
1036.900	-1671
1036.963	-1856
1037.026	-2340
1037.090	-2258
1037.154	-2390
1037.217	-2025
1037.280	-2393
1037.344	-2338
1037.407	-2070
1037.471	-2412
1037.534	-2509
1037.597	-2885
1037.661	-2241
1037.724	-2278
1037.787	-2427
1037.850	-2167
1037.913	-2169
1037.977	-2433
1038.040	-2669
1038.103	-1742
1038.166	-2258
1038.229	-2330
1038.292	-2369
1038.355	-1905
1038.418	-1921
1038.481	-2289
1038.544	-2035
1038.607	-2503
1038.670	-2144
1038.732	-2356
1038.795	-1856
1038.858	-2673
1038.921	-1866
1038.984	-1983
1039.046	-2256
1039.109	-2623
1039.172	-2263
1039.234	-1788
1039.297	-2822
1039.360	-2194
1039.422	-2451
1039.485	-2019
1039.547	-2120
1039.610	-2549
1039.672	-2370
1039.734	-1819
1039.797	-2740
1039.859	-2432
1039.922	-1955
1039.984	-2392
1040.046	-2396
1040.109	-2549
1040.171	-2320
1040.233	-2211
1040.295	-1969
1040.358	-2261
1040.420	-2636
1040.482	-2851
1040.544	-2287
1040.606	-1432
1040.668	-2338
1040.730	-2103
1040.792	-2080
1040.854	-2421
1040.916	-2325
1040.978	-2402
1041.040	-2066
1041.102	-1581
1041.164	-2346
1041.225	-2592
1041.287	-2187
1041.349	-2422
1041.411	-1709
1041.472	-2136
1041.534	-2593
1041.596	-2043
1041.657	-2553
1041.719	-3295
1041.781	-2538
1041.842	-2710
1041.904	-1907
1041.965	-2718
1042.027	-2036
1042.088	-1864
1042.150	-2395
1042.211	-1387
1042.272	-2539
1042.334	-1738
1042.395	-2568
1042.456	-2324
1042.518	-2685
1042.579	-1826
1042.640	-2347
1042.701	-1960
1042.763	-1890
1042.824	-2155
1042.885	-1566
1042.946	-2838
1043.007	-2956
1043.068	-2394
1043.129	-2600
1043.190	-2799
1043.251	-2559
1043.312	-2504
1043.373	-2293
1043.434	-1931
1043.495	-2476
1043.556	-2385
1043.616	-1614
1043.677	-1823
1043.738	-2116
1043.799	-2177
1043.859	-2254
1043.920	-2318
1043.981	-2676
1044.041	-1339
1044.102	-2385
1044.162	-1706
1044.223	-2715
1044.284	-1886
1044.344	-2598
1044.405	-1938
1044.465	-2277
1044.525	-2033
1044.586	-2286
1044.646	-2444
1044.707	-1889
1044.767	-2370
1044.827	-2925
1044.887	-2426
1044.948	-2792
1045.008	-2179
1045.068	-2350
1045.128	-1585
1045.188	-2042
1045.249	-2158
1045.309	-1598
1045.369	-1825
1045.429	-1720
1045.489	-2482
1045.549	-2267
1045.609	-2363
1045.669	-1977
1045.729	-2403
1045.789	-1240
1045.848	-2057
1045.908	-2099
1045.968	-2973
1046.028	-2089
1046.088	-1518
1046.147	-1930
1046.207	-1809
1046.267	-2203
1046.326	-2186
1046.386	-1711
1046.446	-1445
1046.505	-1506
1046.565	-1996
1046.624	-2144
1046.684	-483
1046.743	-1231
1046.803	-1090
1046.862	-479
1046.922	0
