'Start Wavelength	183.907
'End Wavelength	1046.922
'Gate Delay	5.000
'Gate Width (ms)	1.050
'Laser Output Level	0.000
'X Position	0.000
'Y Position	0.000
'Z Position	0.000
'Grid Point Number	1.000
'Shot Number	100.000
183.907	222.000
183.977	491.000
184.047	-697
184.116	466
184.186	186
184.256	75
184.325	-740
184.395	-372
184.465	-489
184.534	-143
184.604	-260
184.674	98
184.743	-269
184.813	594
184.883	199
184.952	15
185.022	-465
185.092	-198
185.161	-208
185.231	221
185.301	25
185.370	456
185.440	-646
185.509	-793
185.579	63
185.649	698
185.718	380
185.788	-64
185.857	-57
185.927	278
185.996	201
186.066	509
186.136	-129
186.205	345
186.275	917
186.344	468
186.414	-502
186.483	-546
186.553	352
186.622	361
186.692	-518
186.761	30
186.831	210
186.900	262
186.970	-112
187.039	420
187.109	706
187.178	1018
187.248	306
187.317	741
187.387	-242
187.456	352
187.526	396
187.595	774
187.664	306
187.734	484
187.803	701
187.873	1055
187.942	898
188.012	-105
188.081	285
188.150	131
188.220	-55
188.289	96
188.358	-204
188.428	396
188.497	85
188.567	584
188.636	49
188.705	-242
188.775	-553
188.844	577
188.913	87
188.983	-738
189.052	514
189.121	874
189.191	761
189.260	658
189.329	538
189.399	-145
189.468	193
189.537	-132
189.606	559
189.676	1221
189.745	71
189.814	1239
189.883	50
189.953	1047
190.022	-338
190.091	2166
190.161	2066
190.230	1169
190.299	574
190.368	466
190.437	-26
190.507	979
190.576	362
190.645	457
190.714	-80
190.783	-544
190.853	13
190.922	768
190.991	-230
191.060	316
191.129	201
191.198	654
191.268	346
191.337	626
191.406	540
191.475	48
191.544	-14
191.613	1084
191.682	198
191.752	847
191.821	309
191.890	566
191.959	-440
192.028	639
192.097	957
192.166	775
192.235	382
192.304	560
192.373	639
192.442	-204
192.511	525
192.580	-175
192.650	478
192.719	712
192.788	537
192.857	641
192.926	355
192.995	598
193.064	455
193.133	2142
193.202	1043
193.271	779
193.340	1048
193.409	890
193.478	816
193.547	1970
193.615	2426
193.684	1753
193.753	1278
193.822	2023
193.891	947
193.960	624
194.029	388
194.098	1194
194.167	357
194.236	1111
194.305	-121
194.374	455
194.443	594
194.512	697
194.580	931
194.649	841
194.718	766
194.787	1104
194.856	153
194.925	555
194.994	-224
195.062	732
195.131	1
195.200	899
195.269	383
195.338	1369
195.407	273
195.475	1322
195.544	542
195.613	1133
195.682	250
195.751	1233
195.819	828
195.888	1090
195.957	744
196.026	562
196.094	1423
196.163	1483
196.232	786
196.301	1283
196.369	785
196.438	1009
196.507	539
196.576	1005
196.644	181
196.713	401
196.782	86
196.850	1652
196.919	1353
196.988	1109
197.056	666
197.125	788
197.194	1137
197.262	627
197.331	506
197.400	588
197.468	358
197.537	554
197.606	734
197.674	1877
197.743	2659
197.812	1144
197.880	3309
197.949	753
198.017	2449
198.086	1680
198.155	985
198.223	2160
198.292	2002
198.360	1569
198.429	113
198.497	1419
198.566	2221
198.635	3297
198.703	1213
198.772	1709
198.840	3591
198.909	2563
198.977	1270
199.046	970
199.114	1315
199.183	831
199.251	970
199.320	604
199.388	885
199.457	390
199.525	658
199.594	229
199.662	1275
199.731	1521
199.799	365
199.867	1572
199.936	690
200.004	1315
200.073	797
200.141	1062
200.210	247
200.278	262
200.346	375
200.415	986
200.483	164
200.552	1091
200.620	989
200.688	437
200.757	685
200.825	1037
200.893	967
200.962	1382
201.030	957
201.098	1024
201.167	340
201.235	879
201.303	1315
201.372	1359
201.440	436
201.508	902
201.577	696
201.645	1072
201.713	747
201.781	1655
201.850	634
201.918	753
201.986	669
202.055	1014
202.123	866
202.191	835
202.259	667
202.327	218
202.396	735
202.464	1583
202.532	1661
202.600	3507
202.669	1597
202.737	638
202.805	978
202.873	1047
202.941	1478
203.009	929
203.078	1216
203.146	1390
203.214	976
203.282	1045
203.350	771
203.418	856
203.487	643
203.555	1594
203.623	1188
203.691	1150
203.759	538
203.827	1078
203.895	1545
203.963	1504
204.031	908
204.099	1182
204.168	839
204.236	1261
204.304	1374
204.372	1664
204.440	845
204.508	1495
204.576	528
204.644	1266
204.712	1050
204.780	507
204.848	1188
204.916	570
204.984	1321
205.052	1535
205.120	831
205.188	1347
205.256	409
205.324	1424
205.392	442
205.460	1684
205.528	1813
205.596	1581
205.664	1050
205.732	1291
205.799	4571
205.867	5255
205.935	1729
206.003	1727
206.071	947
206.139	1439
206.207	1610
206.275	957
206.343	807
206.411	2126
206.478	1275
206.546	1217
206.614	916
206.682	1192
206.750	1053
206.818	1651
206.885	1238
206.953	1585
207.021	1546
207.089	1205
207.157	1019
207.225	2152
207.292	1189
207.360	801
207.428	1701
207.496	1570
207.563	1567
207.631	1396
207.699	2076
207.767	1664
207.834	1153
207.902	1956
207.970	2123
208.038	1780
208.105	1123
208.173	1903
208.241	2015
208.309	2273
208.376	1895
208.444	3114
208.512	2082
208.579	1457
208.647	1963
208.715	1420
208.782	1507
208.850	1290
208.918	1410
208.985	1791
209.053	1515
209.120	1901
209.188	1897
209.256	1411
209.323	1806
209.391	1852
209.459	2578
209.526	2187
209.594	2036
209.661	1218
209.729	1848
209.796	1712
209.864	2131
209.932	1565
209.999	2212
210.067	2066
210.134	1880
210.202	1560
210.269	2957
210.337	1487
210.404	1123
210.472	1466
210.539	2168
210.607	781
210.674	2183
210.742	1784
210.809	1442
210.877	2141
210.944	2802
211.012	1919
211.079	2257
211.146	2066
211.214	1930
211.281	1792
211.349	2478
211.416	2401
211.484	2119
211.551	1491
211.618	1978
211.686	2150
211.753	1242
211.821	2167
211.888	2042
211.955	2323
212.023	1882
212.090	2066
212.157	1988
212.225	2822
212.292	4716
212.359	8654
212.427	15649
212.494	6735
212.561	3729
212.629	3130
212.696	2012
212.763	2413
212.831	1655
212.898	2691
212.965	1978
213.032	2557
213.100	2582
213.167	2885
213.234	2874
213.301	2703
213.369	1765
213.436	3091
213.503	2120
213.570	2348
213.638	2488
213.705	2072
213.772	1881
213.839	3424
213.906	3214
213.973	2691
214.041	2514
214.108	2615
214.175	2440
214.242	2800
214.309	2272
214.376	2875
214.444	1860
214.511	2514
214.578	2234
214.645	2521
214.712	2640
214.779	2755
214.846	2803
214.913	2967
214.980	2860
215.048	3653
215.115	2498
215.182	2878
215.249	2128
215.316	2742
215.383	2273
215.450	2200
215.517	2039
215.584	2359
215.651	2000
215.718	1540
215.785	2510
215.852	3075
215.919	2761
215.986	2374
216.053	2262
216.120	2099
216.187	2791
216.254	2593
216.321	1709
216.388	2179
216.455	2578
216.522	3880
216.589	2990
216.656	5400
216.722	4546
216.789	3676
216.856	3654
216.923	3858
216.990	3848
217.057	2714
217.124	3783
217.191	4247
217.258	4278
217.324	4925
217.391	6290
217.458	3804
217.525	2824
217.592	2990
217.659	2752
217.725	3009
217.792	4337
217.859	3454
217.926	2258
217.993	2615
218.059	2394
218.126	2130
218.193	2511
218.260	2626
218.327	1431
218.393	2026
218.460	2159
218.527	1266
218.594	2036
218.660	3715
218.727	3679
218.794	1782
218.860	2194
218.927	1622
218.994	2022
219.061	2510
219.127	2639
219.194	3435
219.261	2422
219.327	1126
219.394	1688
219.461	1710
219.527	1291
219.594	2380
219.661	1719
219.727	1596
219.794	1678
219.860	1395
219.927	2238
219.994	3631
220.060	4111
220.127	3188
220.193	2960
220.260	4252
220.326	5174
220.393	7791
220.460	9185
220.526	5314
220.593	4604
220.659	5009
220.726	5081
220.792	10345
220.859	9430
220.925	12120
220.992	14142
221.058	14502
221.125	12254
221.191	9581
221.258	4747
221.324	4432
221.391	2715
221.457	3477
221.524	2923
221.590	3582
221.657	11666
221.723	6803
221.789	7569
221.856	6167
221.922	3228
221.989	2136
222.055	2266
222.121	1762
222.188	2590
222.254	1349
222.321	2270
222.387	1811
222.453	1638
222.520	2260
222.586	1083
222.652	2719
222.719	2030
222.785	2974
222.851	2089
222.918	2210
222.984	2900
223.050	2355
223.116	1212
223.183	1916
223.249	1262
223.315	919
223.382	1268
223.448	1521
223.514	936
223.580	1722
223.647	1329
223.713	643
223.779	459
223.845	819
223.911	1556
223.978	890
224.044	1179
224.110	931
224.176	1239
224.242	1909
224.309	1053
224.375	1194
224.441	641
224.507	1388
224.573	1163
224.639	1890
224.705	1080
224.772	901
224.838	911
224.904	1781
224.970	1242
225.036	1288
225.102	1497
225.168	1981
225.234	1164
225.300	1546
225.366	1062
225.432	1031
225.499	1269
225.565	819
225.631	1872
225.697	1794
225.763	2891
225.829	3259
225.895	2499
225.961	4791
226.027	3850
226.093	3637
226.159	4517
226.225	7842
226.291	16334
226.357	20485
226.423	11814
226.489	7659
226.554	4679
226.620	5259
226.686	5981
226.752	10403
226.818	15916
226.884	26997
226.950	19948
227.016	10437
227.082	6570
227.148	5385
227.214	4163
227.279	4111
227.345	2382
227.411	2910
227.477	2944
227.543	3310
227.609	3983
227.674	3732
227.740	3188
227.806	2216
227.872	2077
227.938	2655
228.003	3711
228.069	2229
228.135	1469
228.201	1936
228.267	2136
228.332	2504
228.398	2600
228.464	2701
228.530	1340
228.595	1307
228.661	1779
228.727	3385
228.792	1980
228.858	2059
228.924	1872
228.990	4212
229.055	2880
229.121	2582
229.187	1285
229.252	1711
229.318	1616
229.384	2339
229.449	2792
229.515	1132
229.581	239
229.646	2305
229.712	1704
229.777	5261
229.843	3801
229.909	4089
229.974	4015
230.040	2905
230.105	2409
230.171	2921
230.236	4526
230.302	6062
230.368	4150
230.433	3020
230.499	3202
230.564	3346
230.630	2954
230.695	1651
230.761	1801
230.826	1530
230.892	3606
230.957	2266
231.023	1585
231.088	2175
231.154	1637
231.219	1956
231.284	3187
231.350	3279
231.415	1517
231.481	972
231.546	1895
231.612	1780
231.677	1868
231.742	1917
231.808	2264
231.873	938
231.939	1389
232.004	3186
232.069	2753
232.135	2017
232.200	1664
232.265	2028
232.331	1504
232.396	1909
232.461	1410
232.527	1043
232.592	972
232.657	1017
232.723	2687
232.788	2150
232.853	1042
232.918	1697
232.984	2011
233.049	1829
233.114	2545
233.179	3050
233.245	3909
233.310	4528
233.375	1615
233.440	1392
233.506	2132
233.571	1642
233.636	1527
233.701	1739
233.766	3806
233.832	3541
233.897	2285
233.962	1835
234.027	2968
234.092	2463
234.157	1271
234.222	2950
234.288	3872
234.353	10980
234.418	7432
234.483	5015
234.548	3353
234.613	2869
234.678	3075
234.743	3231
234.808	10740
234.873	5479
234.938	3127
235.004	3013
235.069	2818
235.134	2327
235.199	2167
235.264	2502
235.329	1913
235.394	2367
235.459	2472
235.524	2868
235.589	2689
235.654	2762
235.719	2124
235.784	2321
235.849	3137
235.913	4927
235.978	6216
236.043	5889
236.108	2193
236.173	3536
236.238	3238
236.303	2644
236.368	2443
236.433	4585
236.498	7278
236.563	6514
236.627	14905
236.692	36264
236.757	25863
236.822	12218
236.887	8681
236.952	7869
237.017	6005
237.081	7372
237.146	10457
237.211	20710
237.276	38204
237.341	47255
237.405	24628
237.470	11612
237.535	7777
237.600	6038
237.664	3998
237.729	4727
237.794	7150
237.859	12139
237.923	7189
237.988	4391
238.053	6219
238.118	5582
238.182	15550
238.247	11087
238.312	5204
238.376	3818
238.441	3010
238.506	3691
238.570	2395
238.635	2779
238.700	2109
238.764	2830
238.829	6769
238.893	6774
238.958	4217
239.023	4142
239.087	2927
239.152	3036
239.216	1585
239.281	3243
239.346	2115
239.410	2113
239.475	3507
239.539	15235
239.604	8080
239.668	3838
239.733	2339
239.797	3176
239.862	5626
239.926	8759
239.991	4372
240.055	2137
240.120	1879
240.184	2109
240.249	2151
240.313	2133
240.378	2512
240.442	8651
240.507	10146
240.571	3963
240.635	6832
240.700	6380
240.764	2346
240.829	2544
240.893	2067
240.957	2458
241.022	8316
241.086	11925
241.151	4721
241.215	2870
241.279	3959
241.344	6070
241.408	3819
241.472	3481
241.537	3475
241.601	3475
241.665	3031
241.730	2784
241.794	3260
241.858	3728
241.922	2540
241.987	3381
242.051	2658
242.115	2954
242.179	2198
242.244	2648
242.308	3412
242.372	3566
242.436	3599
242.501	3588
242.565	2202
242.629	2882
242.693	2997
242.757	2209
242.822	2388
242.886	2778
242.950	2552
243.014	2220
243.078	3701
243.142	3347
243.206	2820
243.271	3645
243.335	3287
243.399	6881
243.463	26577
243.527	46684
243.591	13196
243.655	6406
243.719	4315
243.783	5468
243.847	8032
243.911	9602
243.975	10155
244.040	6643
244.104	4624
244.168	3987
244.232	6101
244.296	7721
244.360	7888
244.424	4480
244.488	3670
244.552	3421
244.615	2261
244.679	2742
244.743	4197
244.807	2899
244.871	2365
244.935	2873
244.999	2346
245.063	3015
245.127	3254
245.191	6984
245.255	5063
245.319	5971
245.383	2670
245.446	4467
245.510	2599
245.574	3334
245.638	3505
245.702	4125
245.766	7314
245.829	4077
245.893	2972
245.957	2905
246.021	3322
246.085	3658
246.149	5435
246.212	12978
246.276	13878
246.340	7208
246.404	5294
246.467	5540
246.531	7450
246.595	5528
246.659	4249
246.722	4217
246.786	5465
246.850	6962
246.913	6607
246.977	3166
247.041	3247
247.104	3884
247.168	4491
247.232	11924
247.295	20062
247.359	9121
247.423	5508
247.486	8916
247.550	5605
247.614	4620
247.677	6209
247.741	3755
247.804	3613
247.868	4590
247.932	11547
247.995	18234
248.059	5772
248.122	4461
248.186	6448
248.249	12257
248.313	36041
248.376	29341
248.440	18960
248.503	7393
248.567	6846
248.630	10797
248.694	12631
248.757	19196
248.821	33767
248.884	18938
248.948	20457
249.011	27526
249.075	41354
249.138	29990
249.202	12454
249.265	8627
249.328	9959
249.392	7315
249.455	6593
249.519	5146
249.582	7123
249.645	11391
249.709	8281
249.772	8429
249.835	6322
249.899	6194
249.962	5432
250.025	5263
250.089	16457
250.152	16030
250.215	8477
250.279	6655
250.342	6726
250.405	7175
250.468	5459
250.532	9417
250.595	16347
250.658	61209
250.721	69772
250.785	24583
250.848	14237
250.911	8857
250.974	9133
251.038	13662
251.101	20702
251.164	11854
251.227	13198
251.290	11267
251.354	21610
251.417	76605
251.480	57982
251.543	55382
251.606	124391
251.669	75794
251.732	34057
251.795	35440
251.859	39409
251.922	79783
251.985	36331
252.048	17054
252.111	12898
252.174	12326
252.237	23865
252.300	42239
252.363	56555
252.426	89013
252.489	34060
252.552	18385
252.615	12957
252.678	15749
252.741	35297
252.804	53781
252.867	96978
252.930	50950
252.993	26213
253.056	17150
253.119	12356
253.182	10973
253.245	19256
253.308	12770
253.371	11414
253.434	10679
253.497	11508
253.559	19307
253.622	12652
253.685	18047
253.748	14062
253.811	8030
253.874	9960
253.937	8630
254.000	8937
254.062	15259
254.125	18735
254.188	20930
254.251	13968
254.314	7739
254.376	16255
254.439	13946
254.502	11821
254.565	15670
254.628	22953
254.690	13034
254.753	6874
254.816	6881
254.878	7801
254.941	16851
255.004	11946
255.067	6661
255.129	5836
255.192	4028
255.255	3406
255.317	5104
255.380	2626
255.443	2781
255.505	2216
255.568	2653
255.631	3176
255.693	4046
255.756	2000
255.819	3882
255.881	1945
255.944	1989
256.006	2584
256.069	2563
256.132	2717
256.194	4596
256.257	9672
256.319	7543
256.382	5634
256.444	4882
256.507	3460
256.569	3494
256.632	4988
256.694	8208
256.757	27707
256.819	55977
256.882	21603
256.944	9277
257.007	7634
257.069	7690
257.132	5348
257.194	5164
257.257	4800
257.319	5447
257.381	6089
257.444	21274
257.506	73835
257.569	61024
257.631	25392
257.693	15252
257.756	8895
257.818	7200
257.880	4950
257.943	4724
258.005	4399
258.067	4696
258.130	4206
258.192	5849
258.254	8870
258.317	4870
258.379	4910
258.441	12231
258.503	9858
258.566	16094
258.628	13733
258.690	3687
258.753	6098
258.815	9252
258.877	4979
258.939	3971
259.001	3923
259.064	3101
259.126	4746
259.188	5552
259.250	5503
259.312	5709
259.375	10018
259.437	6176
259.499	3807
259.561	4048
259.623	3435
259.685	4332
259.747	4654
259.809	16401
259.872	21825
259.934	41438
259.996	27849
260.058	8209
260.120	4479
260.182	4029
260.244	2843
260.306	3305
260.368	3316
260.430	3760
260.492	9278
260.554	11573
260.616	6387
260.678	22239
260.740	19303
260.802	5795
260.864	4697
260.926	3644
260.988	4048
261.050	4673
261.112	14855
261.174	30824
261.236	15252
261.298	6494
261.359	12333
261.421	12714
261.483	4220
261.545	4106
261.607	2685
261.669	3716
261.731	7676
261.793	15583
261.854	6210
261.916	5139
261.978	4106
262.040	4813
262.102	3529
262.164	6814
262.225	4187
262.287	4037
262.349	9940
262.411	6682
262.472	2980
262.534	8948
262.596	11570
262.658	4307
262.719	2888
262.781	6564
262.843	12761
262.904	5991
262.966	5292
263.028	7174
263.090	42031
263.151	69908
263.213	20587
263.275	12865
263.336	4906
263.398	3973
263.459	2767
263.521	3686
263.583	9777
263.644	4724
263.706	2765
263.767	2307
263.829	2494
263.891	1892
263.952	1593
264.014	1763
264.075	7211
264.137	13644
264.198	5347
264.260	2425
264.321	2809
264.383	11147
264.444	19835
264.506	5490
264.567	3958
264.629	11708
264.690	15933
264.752	5904
264.813	4579
264.875	2986
264.936	2777
264.998	2031
265.059	1836
265.120	3238
265.182	7423
265.243	39211
265.305	25769
265.366	7653
265.427	4000
265.489	4247
265.550	2353
265.611	4104
265.673	3022
265.734	2696
265.795	2707
265.857	2887
265.918	3426
265.979	13813
266.040	57174
266.102	34546
266.163	11426
266.224	8525
266.286	4722
266.347	3164
266.408	3593
266.469	3605
266.530	2571
266.592	3387
266.653	6366
266.714	8794
266.775	2832
266.836	2894
266.898	1755
266.959	5036
267.020	2862
267.081	3525
267.142	2336
267.203	2051
267.264	1775
267.326	2770
267.387	1962
267.448	1312
267.509	2184
267.570	2041
267.631	1831
267.692	1584
267.753	1281
267.814	1857
267.875	7332
267.936	12480
267.997	7686
268.058	6087
268.119	3668
268.180	3324
268.241	2284
268.302	2342
268.363	1139
268.424	2348
268.485	2785
268.546	1745
268.607	1669
268.668	2226
268.729	1068
268.790	2411
268.851	2993
268.912	9451
268.972	7628
269.033	4804
269.094	1879
269.155	2922
269.216	1407
269.277	2139
269.338	2208
269.398	2451
269.459	2247
269.520	4992
269.581	5216
269.642	5792
269.702	3904
269.763	3542
269.824	2832
269.885	4208
269.945	6410
270.006	3199
270.067	1376
270.128	1596
270.188	1630
270.249	2405
270.310	1166
270.370	2493
270.431	1993
270.492	1772
270.553	2542
270.613	6946
270.674	12367
270.734	3424
270.795	2777
270.856	6348
270.916	2702
270.977	2891
271.038	2787
271.098	3812
271.159	6611
271.219	4682
271.280	2509
271.340	2493
271.401	3525
271.462	7034
271.522	3750
271.583	2381
271.643	2533
271.704	2475
271.764	3989
271.825	11248
271.885	36776
271.946	34913
272.006	11750
272.066	22864
272.127	27746
272.187	7917
272.248	4249
272.308	7014
272.369	21864
272.429	9312
272.489	9861
272.550	7931
272.610	9916
272.671	5134
272.731	7334
272.791	9221
272.852	4744
272.912	5570
272.972	2398
273.033	3241
273.093	4957
273.153	5725
273.214	3006
273.274	5164
273.334	21011
273.394	27226
273.455	10638
273.515	14549
273.575	24056
273.635	9534
273.696	16840
273.756	26231
273.816	9120
273.876	6705
273.936	16673
273.997	19999
274.057	5686
274.117	5431
274.177	9637
274.237	42008
274.297	25592
274.358	18681
274.418	23842
274.478	14749
274.538	5756
274.598	6477
274.658	21287
274.718	21178
274.778	7695
274.838	5714
274.898	15159
274.958	32060
275.018	29798
275.078	15631
275.138	6475
275.198	3895
275.258	3035
275.318	5475
275.378	8756
275.438	8436
275.498	5853
275.558	19704
275.618	31486
275.678	16650
275.738	13149
275.798	8445
275.858	4800
275.918	2633
275.978	3789
276.038	3558
276.098	3031
276.157	8669
276.217	19784
276.277	7801
276.337	5655
276.397	3966
276.457	4654
276.517	2709
276.576	2281
276.636	2822
276.696	5638
276.756	13249
276.815	6029
276.875	3772
276.935	5099
276.995	3769
277.055	2418
277.114	2943
277.174	6215
277.234	15036
277.293	5535
277.353	3318
277.413	2407
277.472	3616
277.532	2817
277.592	4218
277.651	15697
277.711	18728
277.771	8232
277.830	31248
277.890	17114
277.950	20646
278.009	43534
278.069	13798
278.128	18510
278.188	19522
278.248	9685
278.307	25468
278.367	11333
278.426	5090
278.486	3963
278.545	2822
278.605	2833
278.664	2265
278.724	3752
278.783	15293
278.843	25388
278.902	6861
278.962	4050
279.021	4739
279.081	5617
279.140	5743
279.199	5089
279.259	4976
279.318	4489
279.378	7586
279.437	14307
279.496	48704
279.556	137348
279.615	73022
279.675	20534
279.734	14989
279.793	23996
279.853	26959
279.912	10386
279.971	7126
280.031	5247
280.090	13718
280.149	18466
280.208	21205
280.268	105244
280.327	68657
280.386	16973
280.445	17369
280.505	12247
280.564	6807
280.623	5581
280.682	10745
280.742	11656
280.801	4271
280.860	3135
280.919	3731
280.978	2531
281.037	2095
281.097	1595
281.156	1983
281.215	2286
281.274	4528
281.333	20341
281.392	10192
281.451	2365
281.510	2694
281.569	1737
281.628	2229
281.688	1751
281.747	3197
281.806	2955
281.865	1794
281.924	1487
281.983	2042
282.042	1018
282.101	2110
282.160	1821
282.219	1751
282.278	3389
282.337	10806
282.396	4747
282.454	2848
282.513	4522
282.572	16279
282.631	5705
282.690	2404
282.749	2464
282.808	3441
282.867	3172
282.926	2838
282.985	1962
283.043	1486
283.102	1637
283.161	3095
283.220	10557
283.279	16093
283.338	3541
283.396	3115
283.455	2722
283.514	3927
283.573	5440
283.631	3817
283.690	2643
283.749	3053
283.808	7789
283.866	6134
283.925	2184
283.984	3356
284.043	4566
284.101	4160
284.160	2515
284.219	4928
284.277	3514
284.336	8100
284.395	22718
284.453	13657
284.512	4882
284.570	8814
284.629	5931
284.688	5348
284.746	5694
284.805	7170
284.863	8130
284.922	10597
284.981	12441
285.039	18885
285.098	39725
285.156	93313
285.215	160072
285.273	138349
285.332	72331
285.390	40528
285.449	24486
285.507	17184
285.566	13597
285.624	9953
285.683	7259
285.741	6335
285.799	5971
285.858	5450
285.916	4621
285.975	3134
286.033	3061
286.091	2507
286.150	2213
286.208	3129
286.267	3848
286.325	4159
286.383	6271
286.442	4310
286.500	2888
286.558	2518
286.616	1225
286.675	3534
286.733	3338
286.791	2623
286.850	4068
286.908	5509
286.966	6898
287.024	2660
287.083	2367
287.141	1923
287.199	2929
287.257	4669
287.315	2952
287.374	3802
287.432	10382
287.490	5176
287.548	3304
287.606	3128
287.664	2695
287.723	5236
287.781	5460
287.839	3291
287.897	4512
287.955	7034
288.013	12347
288.071	32364
288.129	120823
288.187	221417
288.245	87974
288.303	32814
288.361	20385
288.419	14091
288.477	10104
288.535	6496
288.593	5092
288.651	4245
288.709	3062
288.767	2936
288.825	2853
288.883	2604
288.941	2494
288.999	2174
289.057	2019
289.115	1970
289.173	2295
289.231	2516
289.289	2625
289.346	2294
289.404	3310
289.462	5502
289.520	4025
289.578	2509
289.636	1877
289.694	1421
289.751	1217
289.809	953
289.867	1290
289.925	2695
289.983	2435
290.040	1318
290.098	1143
290.156	2546
290.214	2559
290.271	1739
290.329	1026
290.387	1430
290.444	940
290.502	145
290.560	1086
290.617	2081
290.675	1225
290.733	2145
290.790	1322
290.848	981
290.906	1748
290.963	2034
291.021	1303
291.078	2160
291.136	2562
291.194	12826
291.251	17009
291.309	4764
291.366	1807
291.424	1347
291.481	1708
291.539	1686
291.596	1519
291.654	1089
291.711	728
291.769	2607
291.826	5663
291.884	2845
291.941	1137
291.999	1609
292.056	1974
292.114	1780
292.171	1772
292.228	1762
292.286	2637
292.343	5750
292.401	5505
292.458	3633
292.515	1764
292.573	3186
292.630	2936
292.687	3150
292.745	3057
292.802	5409
292.859	12639
292.917	17531
292.974	8315
293.031	3280
293.089	2275
293.146	1655
293.203	2255
293.260	1444
293.318	2150
293.375	4583
293.432	1964
293.489	1990
293.546	1542
293.604	4900
293.661	14618
293.718	29286
293.775	11553
293.832	5403
293.889	4156
293.947	4252
294.004	3154
294.061	4131
294.118	9810
294.175	20554
294.232	22911
294.289	7709
294.346	4483
294.403	4826
294.460	2864
294.517	3301
294.574	2012
294.631	2126
294.688	4267
294.745	13964
294.802	39256
294.859	35580
294.916	11517
294.973	6898
295.030	5450
295.087	4237
295.144	3517
295.201	2469
295.258	2390
295.315	4833
295.372	15515
295.429	21500
295.486	8229
295.542	7379
295.599	21888
295.656	28241
295.713	19996
295.770	20202
295.827	7155
295.883	4616
295.940	4405
295.997	7884
296.054	6077
296.111	3503
296.167	2734
296.224	2030
296.281	1897
296.338	2728
296.394	2202
296.451	3623
296.508	12438
296.564	19020
296.621	13403
296.678	32458
296.734	35671
296.791	12414
296.848	6529
296.904	8822
296.961	17906
297.018	27264
297.074	14565
297.131	7012
297.187	5548
297.244	9609
297.301	30658
297.357	39850
297.414	12509
297.470	6791
297.527	4123
297.583	3938
297.640	3209
297.696	2314
297.753	2133
297.809	1784
297.866	1309
297.922	2260
297.979	1524
298.035	3307
298.092	5572
298.148	15931
298.204	11587
298.261	6821
298.317	15292
298.374	33580
298.430	14997
298.486	7340
298.543	4647
298.599	5990
298.656	8189
298.712	14425
298.768	31970
298.824	17891
298.881	5843
298.937	3975
298.993	3814
299.050	5065
299.106	3720
299.162	3103
299.218	3391
299.275	2162
299.331	3915
299.387	8759
299.443	30347
299.500	22729
299.556	7970
299.612	4839
299.668	4331
299.724	3488
299.780	3322
299.837	4015
299.893	7522
299.949	24846
300.005	23165
300.061	24622
300.117	36179
300.173	15563
300.229	7506
300.285	10860
300.341	10518
300.397	5299
300.453	3275
300.510	3104
300.566	2371
300.622	3102
300.678	8350
300.734	18380
300.790	21174
300.845	25238
300.901	14043
300.957	21482
301.013	15066
301.069	5388
301.125	4727
301.181	4942
301.237	3369
301.293	3266
301.349	2562
301.405	2198
301.461	2947
301.516	4083
301.572	4374
301.628	7143
301.684	6564
301.740	11176
301.796	15473
301.851	10433
301.907	19575
301.963	19057
302.019	36045
302.074	83508
302.130	69272
302.186	29492
302.242	13201
302.297	9599
302.353	9626
302.409	18020
302.464	12710
302.520	13515
302.576	30243
302.631	29803
302.687	14988
302.743	6953
302.798	4013
302.854	4010
302.910	3860
302.965	6164
303.021	9953
303.076	8281
303.132	11968
303.187	11584
303.243	6057
303.299	3959
303.354	3262
303.410	3439
303.465	2294
303.521	3253
303.576	2737
303.632	4539
303.687	10704
303.743	26089
303.798	17128
303.853	6535
303.909	4616
303.964	3980
304.020	7965
304.075	10378
304.130	9004
304.186	16775
304.241	16252
304.297	12841
304.352	6375
304.358	6181
304.407	4596
304.449	4386
304.463	4317
304.518	4982
304.539	4502
304.573	3705
304.629	4508
304.630	4581
304.684	8121
304.720	17890
304.739	22876
304.794	26587
304.811	22711
304.850	12885
304.902	6484
304.905	6098
304.960	4947
304.992	5030
305.015	5148
305.071	5278
305.083	4882
305.126	3301
305.173	2423
305.181	2295
305.236	2749
305.264	3175
305.292	3719
305.347	4887
305.354	4840
305.402	4349
305.445	5586
305.457	5977
305.512	6544
305.535	6595
305.567	6493
305.622	7485
305.626	7744
305.678	13899
305.716	26121
305.733	30711
305.788	30094
305.807	26933
305.843	20927
305.897	27636
305.898	27721
305.953	24751
305.988	17951
306.008	13912
306.063	9481
306.078	8490
306.118	6518
306.168	4778
306.173	4649
306.228	3617
306.259	3662
306.283	3851
306.338	3513
306.349	3699
306.393	4644
306.440	5905
306.448	6029
306.503	4659
306.530	5331
306.558	7580
306.613	16992
306.620	17888
306.668	23766
306.711	30502
306.723	31094
306.778	22214
306.801	17745
306.833	12013
306.888	6482
306.892	6231
306.943	5187
306.982	4560
306.997	4474
307.052	4790
307.072	4742
307.107	5056
307.162	6834
307.163	6863
307.217	10802
307.253	12602
307.272	13094
307.327	13195
307.343	12582
307.381	10505
307.434	9119
307.436	9336
307.491	19171
307.524	26599
307.546	29529
307.600	27918
307.614	26090
307.655	16689
307.704	9855
307.710	9781
307.765	11326
307.795	13820
307.819	17223
307.874	26344
307.885	26374
307.929	21050
307.975	18367
307.984	19227
308.038	28422
308.065	35888
308.093	55643
308.148	108083
308.156	118263
308.202	177112
308.246	207165
308.257	200746
308.312	125925
308.336	99947
308.366	79448
308.421	47461
308.426	44683
308.475	31371
308.517	22097
308.530	20861
308.585	17681
308.607	16644
308.639	16107
308.694	16133
308.697	16196
308.748	23638
308.787	32135
308.803	33029
308.857	27167
308.877	25140
308.912	23221
308.967	22868
308.967	22857
309.021	32147
309.058	39480
309.076	48426
309.130	81457
309.148	94467
309.185	145292
309.238	230390
309.239	231438
309.293	257159
309.328	249377
309.348	222144
309.402	138443
309.418	117284
309.457	85931
309.508	51497
309.511	50755
309.566	39349
309.598	33795
309.620	34323
309.674	37096
309.688	37676
309.729	36705
309.778	33772
309.783	33282
309.837	27077
309.868	24137
309.892	27176
309.946	36088
309.959	38954
310.001	54740
310.049	68523
310.055	66226
310.109	41021
310.139	27333
310.163	22396
310.218	13875
310.229	12262
310.272	10930
310.319	9771
310.326	9633
310.381	8303
310.409	7796
310.435	7721
310.489	7330
310.499	7334
310.543	7419
310.589	7125
310.598	7253
310.652	8328
310.679	8700
310.706	8245
310.760	7130
310.769	6960
310.814	6114
310.859	5434
310.868	5541
310.923	5772
310.948	6016
310.977	6456
311.031	7199
311.038	7283
311.085	7056
311.128	6683
311.139	6785
311.193	7243
311.218	7442
311.247	7233
311.301	6813
311.308	6742
311.356	7169
311.398	7505
311.410	7543
311.464	7563
311.488	7573
311.518	7215
311.572	6464
311.578	6375
311.626	8695
311.668	10601
311.680	10640
311.734	10691
311.758	10663
311.788	10541
311.842	10257
311.847	10196
311.896	12953
311.937	15357
311.950	15544
312.004	16109
312.027	16274
312.058	13928
312.112	9691
312.117	9238
312.165	8491
312.207	7807
312.297	13021
312.386	10906
312.476	8560
312.566	16307
312.656	10549
312.745	7596
312.835	8394
312.925	9498
313.015	7812
313.104	8926
313.194	7369
313.284	7929
313.374	10110
313.463	10179
313.553	7740
313.643	7402
313.732	6897
313.822	6647
313.912	8125
314.001	9152
314.091	9569
314.180	14999
314.270	10691
314.360	10998
314.449	9927
314.539	7805
314.628	7133
314.718	8181
314.808	9397
314.897	7774
314.987	7530
315.076	8603
315.166	9961
315.255	10382
315.345	9762
315.434	9411
315.524	8533
315.613	9991
315.703	11354
315.792	11388
315.881	10441
315.971	9764
316.060	14488
316.150	19475
316.239	20511
316.328	12044
316.418	6922
316.507	7965
316.597	8889
316.686	9619
316.775	10388
316.865	20226
316.954	8311
317.043	6505
317.133	6917
317.222	7861
317.311	6127
317.400	6625
317.490	8447
317.579	10586
317.668	7823
317.757	8932
317.847	11486
317.936	14975
318.025	21524
318.114	13113
318.203	11789
318.293	17733
318.382	39599
318.471	31305
318.560	38267
318.649	71004
318.738	24841
318.828	11716
318.917	13678
319.006	14596
319.095	26917
319.184	78475
319.273	56782
319.362	29767
319.451	10924
319.540	10302
319.629	16540
319.718	34628
319.807	18348
319.896	26605
319.985	95804
320.074	52488
320.163	13888
320.252	15380
320.341	15626
320.430	18015
320.519	17154
320.608	13116
320.697	9992
320.786	10582
320.875	11136
320.964	13742
321.053	20077
321.142	27216
321.230	33308
321.319	22177
321.408	52793
321.497	30163
321.586	21403
321.675	23367
321.764	27774
321.852	19062
321.941	30176
322.030	25575
322.119	22689
322.207	51805
322.296	37208
322.385	21644
322.474	20798
322.562	56517
322.651	41709
322.740	21319
322.829	30134
322.917	28589
323.006	21541
323.095	18003
323.183	13674
323.272	19357
323.361	28709
323.449	72438
323.538	34434
323.626	48449
323.715	40719
323.804	17062
323.892	43855
323.981	36420
324.069	13221
324.158	23250
324.246	30201
324.335	13958
324.424	22491
324.512	12870
324.601	18303
324.689	36516
324.778	87309
324.866	31619
324.954	11884
325.043	9794
325.131	14109
325.220	22237
325.308	25936
325.397	18199
325.485	16019
325.574	7295
325.662	7419
325.750	8575
325.839	8122
325.927	6888
326.015	8927
326.104	11248
326.192	15187
326.280	8568
326.369	7679
326.457	10772
326.545	18101
326.634	11786
326.722	6589
326.810	6779
326.898	7790
326.987	8174
327.075	15418
327.163	17494
327.251	14322
327.340	31199
327.428	65304
327.516	12572
327.604	7036
327.692	7647
327.781	7901
327.869	11412
327.957	9798
328.045	10253
328.133	6477
328.221	8202
328.309	8529
328.397	8060
328.485	8637
328.574	10936
328.662	30949
328.750	24043
328.838	11092
328.926	8722
329.014	7833
329.102	11215
329.190	24334
329.278	22196
329.366	8404
329.454	7173
329.542	9157
329.630	9196
329.718	10673
329.806	13201
329.893	16843
329.981	23453
330.069	42125
330.157	114437
330.245	242462
330.333	184534
330.421	57171
330.509	27692
330.597	43905
330.684	38901
330.772	16772
330.860	19200
330.948	24588
331.036	16196
331.123	6984
331.211	7992
331.299	9817
331.387	15554
331.475	37591
331.562	12901
331.650	7152
331.738	7481
331.825	9491
331.913	6711
332.001	5888
332.089	8131
332.176	14905
332.264	23430
332.352	25266
332.439	10673
332.527	9135
332.614	7123
332.702	7420
332.790	7558
332.877	11835
332.965	24707
333.052	10482
333.140	8065
333.228	15969
333.315	9115
333.403	6731
333.490	14607
333.578	15992
333.665	17045
333.753	13808
333.840	7692
333.928	8369
334.015	16963
334.103	27310
334.190	90329
334.278	36499
334.365	11085
334.452	8007
334.540	7130
334.627	7433
334.715	10870
334.802	17908
334.889	66596
334.977	89766
335.064	14615
335.151	8340
335.239	8804
335.326	13204
335.413	38777
335.501	79573
335.588	15085
335.675	8597
335.762	9903
335.850	20506
335.937	12328
336.024	20698
336.111	86149
336.199	49882
336.286	11016
336.373	6882
336.460	6434
336.547	5836
336.635	7614
336.722	8388
336.809	8468
336.896	10940
336.983	28624
337.070	78708
337.157	107881
337.245	60573
337.332	49650
337.419	10049
337.506	7902
337.593	9272
337.680	21821
337.767	86493
337.854	30300
337.941	27723
338.028	24068
338.115	13218
338.202	12971
338.289	19877
338.376	53361
338.463	27744
338.550	40317
338.637	61878
338.724	14687
338.811	20140
338.898	7219
338.984	5892
339.071	9638
339.158	9339
339.245	20741
339.332	17820
339.419	12092
339.506	16250
339.593	5543
339.679	6513
339.766	6271
339.853	7598
339.940	16652
340.027	9058
340.113	7795
340.200	9679
340.287	7696
340.374	9389
340.460	16185
340.547	9215
340.634	10632
340.720	33707
340.807	28728
340.894	6393
340.980	5713
341.067	5490
341.154	7534
341.240	8988
341.327	21868
341.414	9899
341.500	10056
341.587	7293
341.674	6422
341.760	13393
341.847	18590
341.933	8057
342.020	4488
342.106	5091
342.193	6129
342.279	12012
342.366	9299
342.452	14577
342.539	10032
342.625	15438
342.712	42850
342.798	22159
342.885	10877
342.971	4936
343.058	4634
343.144	5419
343.230	5147
343.317	5461
343.403	6279
343.490	4253
343.576	4966
343.662	5583
343.749	7136
343.835	8353
343.921	14272
344.008	55113
344.094	151009
344.180	48016
344.267	16205
344.353	35406
344.439	49727
344.525	25687
344.612	23008
344.698	28233
344.784	19410
344.870	8066
344.957	6828
345.043	9930
345.129	7680
345.215	13875
345.301	10795
345.387	7418
345.474	4716
345.560	5186
345.646	5980
345.732	6537
345.818	7544
345.904	6711
345.990	7703
346.076	6298
346.162	10949
346.249	6617
346.335	5138
346.421	6390
346.507	13827
346.593	54482
346.679	22076
346.765	7158
346.851	5032
346.937	6092
347.023	5515
347.108	6415
347.194	7048
347.280	5964
347.366	7304
347.452	15407
347.538	62727
347.624	53127
347.710	47705
347.796	11145
347.882	7163
347.967	6556
348.053	9601
348.139	6534
348.225	4985
348.311	6325
348.397	5269
348.482	5948
348.568	8211
348.654	4717
348.740	5135
348.825	4650
348.911	9278
348.997	26533
349.083	64865
349.168	16983
349.254	6652
349.340	7871
349.425	4986
349.511	7067
349.597	9911
349.682	13704
349.768	40727
349.854	27021
349.939	7767
350.025	5459
350.110	7198
350.196	5916
350.282	4578
350.367	4249
350.453	7247
350.538	8462
350.624	7972
350.709	9749
350.795	5930
350.880	5888
350.966	6778
351.051	7317
351.137	6626
351.222	6100
351.308	12470
351.393	41483
351.479	17719
351.564	6810
351.649	5435
351.735	5886
351.820	4636
351.906	6140
351.991	7624
352.076	20431
352.162	43792
352.247	11767
352.332	7494
352.418	12770
352.503	17042
352.588	50578
352.673	58875
352.759	14300
352.844	8266
352.929	8159
353.014	10903
353.100	7210
353.185	8446
353.270	13947
353.355	18312
353.441	7208
353.526	7091
353.611	13329
353.696	19233
353.781	11063
353.866	7729
353.952	6905
354.037	12395
354.122	29371
354.207	29260
354.292	14716
354.377	7028
354.462	6284
354.547	8708
354.632	8012
354.717	10189
354.802	11044
354.887	6594
354.972	5592
355.057	5748
355.142	5458
355.227	7461
355.312	9070
355.397	20101
355.482	45211
355.567	30320
355.652	17624
355.737	18947
355.822	42072
355.907	49917
355.991	10566
356.076	7502
356.161	4953
356.246	6048
356.331	6768
356.416	12533
356.501	60088
356.585	89706
356.670	20232
356.755	11527
356.840	13369
356.924	44083
357.009	163270
357.094	92648
357.179	21996
357.263	15038
357.348	12046
357.433	14691
357.517	13253
357.602	11937
357.687	10148
357.771	13690
357.856	46215
357.941	38713
358.025	39858
358.110	165481
358.195	114278
358.279	23937
358.364	13640
358.448	30685
358.533	91295
358.617	79298
358.702	68795
358.787	35076
358.871	17313
358.956	18042
359.040	7511
359.125	6913
359.209	7560
359.294	19336
359.378	48751
359.462	18802
359.547	10515
359.631	6128
359.716	6018
359.800	6560
359.885	10842
359.969	8287
360.053	6739
360.138	8012
360.222	9073
360.306	15744
360.391	14952
360.475	22515
360.559	61466
360.644	41136
360.728	33425
360.812	33218
360.896	107665
360.981	61081
361.065	38488
361.149	10766
361.233	10114
361.318	7963
361.402	8767
361.486	8264
361.570	7214
361.654	8194
361.739	16990
361.823	62168
361.907	120125
361.991	32403
362.075	13308
362.159	29306
362.243	22720
362.327	15875
362.411	13032
362.495	9695
362.580	8798
362.664	6543
362.748	6701
362.832	7121
362.916	8442
363.000	18028
363.084	55197
363.168	128964
363.252	45357
363.336	15899
363.420	18407
363.503	57588
363.587	98412
363.671	21767
363.755	12223
363.839	17732
363.923	9760
364.007	14826
364.091	20453
364.175	20784
364.258	97586
364.342	72570
364.426	26669
364.510	19028
364.594	18428
364.677	22938
364.761	84207
364.845	84160
364.929	29818
365.013	25341
365.096	17095
365.180	25205
365.264	23643
365.347	106452
365.431	65831
365.515	20127
365.598	9641
365.682	8115
365.766	13141
365.849	24354
365.933	10979
366.017	12095
366.100	13316
366.184	5680
366.267	5963
366.351	6569
366.435	6052
366.518	5726
366.602	5121
366.685	5959
366.769	7378
366.852	12491
366.936	23973
367.019	14190
367.103	10890
367.186	23574
367.270	9442
367.353	4509
367.436	6141
367.520	4763
367.603	6838
367.687	9320
367.770	18866
367.853	12143
367.937	23400
368.020	54526
368.104	17394
368.187	12486
368.270	20404
368.353	22144
368.437	19226
368.520	36358
368.603	30428
368.687	31369
368.770	72606
368.853	24667
368.936	18179
369.020	25090
369.103	10488
369.186	7010
369.269	7679
369.352	10858
369.436	18213
369.519	13204
369.602	8083
369.685	7342
369.768	8820
369.851	7603
369.934	5743
370.018	6901
370.101	15770
370.184	14955
370.267	11358
370.350	17143
370.433	25276
370.516	47560
370.599	64682
370.682	20856
370.765	38436
370.848	48581
370.931	78711
371.014	44614
371.097	10979
371.180	7631
371.263	5903
371.346	5372
371.429	5979
371.511	6668
371.594	10724
371.677	18191
371.760	26477
371.843	19356
371.926	59399
372.009	168005
372.091	74283
372.174	33274
372.257	74589
372.340	40215
372.423	27541
372.505	40471
372.588	19422
372.671	21352
372.754	73531
372.836	52569
372.919	29394
373.002	77937
373.085	30291
373.167	15524
373.250	34232
373.332	76266
373.415	92744
373.498	202387
373.580	100277
373.663	81249
373.746	142180
373.828	45755
373.911	19555
373.993	16716
374.076	57828
374.159	77293
374.241	24433
374.324	63605
374.406	57157
374.489	47676
374.571	160356
374.654	89850
374.736	32990
374.819	93731
374.901	133878
374.983	163035
375.066	42363
375.148	14618
375.231	40210
375.313	109142
375.395	52799
375.478	13288
375.560	8671
375.643	9327
375.725	23338
375.807	107637
375.890	106943
375.972	44135
376.054	23045
376.136	32272
376.219	18340
376.301	24976
376.383	100203
376.465	52196
376.548	27704
376.630	29130
376.712	81810
376.794	54482
376.877	8590
376.959	5553
377.041	6587
377.123	14798
377.205	25833
377.287	7611
377.369	5009
377.452	5299
377.534	6128
377.616	4731
377.698	6188
377.780	4588
377.862	6258
377.944	5824
378.026	5137
378.108	4906
378.190	4755
378.272	4863
378.354	4010
378.436	3888
378.518	7564
378.600	32903
378.682	30788
378.764	44418
378.846	49757
378.928	14799
379.010	20816
379.091	13873
379.173	6161
379.255	5745
379.337	6831
379.419	18819
379.501	66965
379.583	37627
379.664	9887
379.746	17017
379.828	46503
379.910	66025
379.991	66575
380.073	16459
380.155	8568
380.237	7152
380.318	5571
380.400	5430
380.482	9830
380.564	19639
380.645	15950
380.727	16676
380.809	11742
380.890	9531
380.972	6428
381.053	6248
381.135	6684
381.217	13369
381.298	51670
381.380	34857
381.461	20234
381.543	70957
381.624	121272
381.706	31379
381.787	14214
381.869	16469
381.951	31539
382.032	139606
382.113	118334
382.195	31931
382.276	17958
382.358	25361
382.439	79002
382.521	86109
382.602	140999
382.684	72878
382.765	102936
382.846	123399
382.928	126909
383.009	86288
383.090	55992
383.172	159208
383.253	278407
383.334	123250
383.416	120351
383.497	80668
383.578	35375
383.659	55770
383.741	144570
383.822	381803
383.903	250413
383.984	91175
384.066	146082
384.147	119968
384.228	28907
384.309	17856
384.390	15396
384.471	10577
384.553	11821
384.634	15443
384.715	17767
384.796	10213
384.877	10223
384.958	35616
385.039	63815
385.120	29239
385.201	11815
385.282	14300
385.363	16187
385.444	12880
385.525	18288
385.606	60041
385.687	67951
385.768	20028
385.849	21335
385.930	63948
386.011	143608
386.092	55631
386.173	14262
386.254	9479
386.335	10575
386.416	10804
386.496	25508
386.577	57797
386.658	26688
386.739	14598
386.820	14282
386.901	12193
386.981	11155
387.062	7442
387.143	10480
387.224	41480
387.304	53232
387.385	20983
387.466	13223
387.547	17117
387.627	12040
387.708	14392
387.789	67152
387.869	109661
387.950	38122
388.031	9332
388.111	7936
388.192	19321
388.273	31263
388.353	21469
388.434	11824
388.514	15783
388.595	64327
388.676	109058
388.756	62117
388.837	47569
388.917	40867
388.998	11272
389.078	8810
389.159	7566
389.239	6431
389.320	10772
389.400	10577
389.480	15548
389.561	51215
389.641	34224
389.722	10180
389.802	18673
389.883	20453
389.963	53424
390.043	46497
390.124	18396
390.204	16189
390.284	55471
390.365	46636
390.445	41843
390.525	109478
390.605	111541
390.686	45219
390.766	15892
390.846	8927
390.927	7106
391.007	7401
391.087	8005
391.167	8481
391.247	7624
391.328	9377
391.408	17104
391.488	17360
391.568	6537
391.648	7799
391.728	14379
391.808	11832
391.888	12728
391.969	21885
392.049	51339
392.129	27410
392.209	20113
392.289	54791
392.369	39272
392.449	34286
392.529	25251
392.609	13796
392.689	14402
392.769	44599
392.849	52851
392.929	27103
393.009	73642
393.089	61482
393.169	20730
393.248	38588
393.328	211557
393.408	317951
393.488	78332
393.568	20343
393.648	14004
393.728	10446
393.807	9718
393.887	11416
393.967	10697
394.047	15224
394.127	21867
394.206	36019
394.286	95663
394.366	354110
394.446	479617
394.525	197012
394.605	59906
394.685	33371
394.764	49962
394.844	80205
394.924	68806
395.003	22096
395.083	15256
395.163	14041
395.242	12697
395.322	13478
395.402	10094
395.481	13316
395.561	25300
395.640	83750
395.720	67644
395.799	84958
395.879	97052
395.958	63674
396.038	151676
396.117	457713
396.197	580365
396.276	303845
396.356	116205
396.435	68592
396.515	41645
396.594	29015
396.673	31410
396.753	53680
396.832	223474
396.912	237929
396.991	77956
397.070	21304
397.150	12760
397.229	9771
397.308	8801
397.388	12238
397.467	9941
397.546	7298
397.625	5531
397.705	9034
397.784	10609
397.863	7337
397.942	5432
398.022	5695
398.101	17707
398.180	76833
398.259	55637
398.338	15378
398.417	9441
398.497	7323
398.576	6814
398.655	5831
398.734	5181
398.813	5590
398.892	15970
398.971	76419
399.050	55518
399.129	9104
399.208	4479
399.287	5525
399.366	4590
399.445	5285
399.524	5050
399.603	5186
399.682	7391
399.761	19588
399.840	72759
399.919	82431
399.998	15123
400.077	5761
400.156	3741
400.235	6542
400.313	6091
400.392	6210
400.471	20321
400.550	50920
400.629	19116
400.708	7028
400.786	7265
400.865	18388
400.944	28417
401.023	14901
401.102	4417
401.180	3976
401.259	4818
401.338	5222
401.416	7097
401.495	6898
401.574	6178
401.652	5630
401.731	7158
401.810	6726
401.888	4713
401.967	3469
402.046	5141
402.124	6031
402.203	9750
402.281	6517
402.360	7045
402.438	23837
402.517	25140
402.596	8104
402.674	7332
402.753	5476
402.831	4912
402.910	5195
402.988	10436
403.066	43207
403.145	36078
403.223	13584
403.302	38579
403.380	32629
403.459	28723
403.537	15442
403.615	7520
403.694	3793
403.772	4430
403.850	3904
403.929	3818
404.007	5088
404.085	7953
404.164	10313
404.242	9956
404.320	25795
404.398	91884
404.477	123328
404.555	126705
404.633	132707
404.711	85543
404.789	76437
404.868	23986
404.946	9684
405.024	5941
405.102	5141
405.180	4314
405.258	4133
405.336	5014
405.415	4542
405.493	9553
405.571	8416
405.649	3958
405.727	3800
405.805	6540
405.883	6593
405.961	6197
406.039	10012
406.117	4936
406.195	6804
406.273	18187
406.351	86357
406.429	77084
406.507	17550
406.585	7770
406.663	5427
406.740	6833
406.818	6459
406.896	4537
406.974	4888
407.052	6852
407.130	43014
407.208	92581
407.285	25736
407.363	5117
407.441	5797
407.519	4265
407.596	4407
407.674	8088
407.752	20142
407.830	30468
407.907	19191
407.985	6422
408.063	4663
408.141	3199
408.218	6235
408.296	8154
408.373	5155
408.451	5326
408.529	4875
408.606	3211
408.684	3161
408.762	1646
408.839	2289
408.917	1836
408.994	2546
409.072	2926
409.149	2576
409.227	3982
409.304	5514
409.382	3310
409.459	2649
409.537	3470
409.614	4275
409.692	3483
409.769	3385
409.846	3695
409.924	4971
410.001	6536
410.079	4894
410.156	4370
410.233	4563
410.311	4227
410.388	3109
410.465	4216
410.543	6886
410.620	3110
410.697	3448
410.775	4776
410.852	2624
410.929	4169
411.006	7550
411.083	3919
411.161	9731
411.238	15467
411.315	9399
411.392	4369
411.469	4837
411.547	8671
411.624	4214
411.701	4344
411.778	3371
411.855	8710
411.932	6539
412.009	3538
412.086	3147
412.163	3888
412.240	5117
412.317	6764
412.394	7568
412.471	3775
412.548	2928
412.625	3384
412.702	4448
412.779	9062
412.856	8892
412.933	3646
413.010	3390
413.087	4595
413.164	19524
413.241	45011
413.318	15093
413.395	6794
413.471	9334
413.548	6533
413.625	3371
413.702	5048
413.779	4943
413.855	2732
413.932	1429
414.009	1530
414.086	2728
414.162	2637
414.239	4858
414.316	17421
414.393	57111
414.469	30065
414.546	4038
414.623	2741
414.699	2562
414.776	4338
414.853	3846
414.929	3360
415.006	3764
415.082	4607
415.159	4829
415.236	3201
415.312	3103
415.389	5415
415.465	9022
415.542	6144
415.618	3099
415.695	6082
415.771	4678
415.848	3575
415.924	3924
416.000	3746
416.077	3338
416.153	1662
416.230	1601
416.306	2101
416.383	2255
416.459	3021
416.535	1923
416.612	2295
416.688	1696
416.764	2638
416.841	1469
416.917	2668
416.993	2424
417.069	3859
417.146	5987
417.222	13750
417.298	9814
417.374	3383
417.451	4086
417.527	4363
417.603	5268
417.679	3943
417.755	3123
417.831	2527
417.908	2005
417.984	2918
418.060	2033
418.136	6361
418.212	11918
418.288	5193
418.364	2935
418.440	2102
418.516	5144
418.592	7149
418.668	12596
418.744	18881
418.820	16859
418.896	5571
418.972	1731
419.048	2187
419.124	7582
419.200	8700
419.276	3985
419.352	1204
419.428	2360
419.504	3122
419.579	5112
419.655	3506
419.731	3246
419.807	8245
419.883	19648
419.959	17999
420.034	5288
420.110	7279
420.186	29505
420.262	36365
420.337	8186
420.413	4962
420.489	3048
420.565	3028
420.640	2818
420.716	3551
420.792	1469
420.867	3564
420.943	2320
421.019	5119
421.094	5412
421.170	3714
421.245	1918
421.321	2531
421.397	2456
421.472	4508
421.548	9538
421.623	12494
421.699	6397
421.774	4742
421.850	3414
421.925	6990
422.001	6889
422.076	4700
422.152	5023
422.227	8623
422.302	9118
422.378	9222
422.453	14305
422.529	31189
422.604	104975
422.679	278459
422.755	211764
422.830	64275
422.905	21091
422.981	10698
423.056	7160
423.131	5805
423.207	4801
423.282	4993
423.357	10433
423.432	10433
423.508	5766
423.583	14950
423.658	18103
423.733	6559
423.808	5679
423.883	6317
423.959	6476
424.034	4304
424.109	3270
424.184	3192
424.259	2807
424.334	2917
424.409	2231
424.484	1695
424.559	3128
424.634	2471
424.709	3941
424.784	5909
424.859	4979
424.934	5552
425.009	17600
425.084	43861
425.159	22985
425.234	5676
425.309	2704
425.384	10934
425.459	30851
425.534	13225
425.609	4633
425.683	3988
425.758	2475
425.833	2873
425.908	4643
425.983	9146
426.058	39179
426.132	28595
426.207	6259
426.282	7205
426.357	9076
426.431	3962
426.506	3464
426.581	3578
426.655	3349
426.730	3173
426.805	3213
426.879	4589
426.954	3921
427.029	5950
427.103	24027
427.178	81458
427.253	55059
427.327	9554
427.402	8152
427.476	28981
427.551	23485
427.625	6190
427.700	4978
427.774	3695
427.849	4149
427.923	2937
427.998	3219
428.072	2500
428.147	7183
428.221	14255
428.296	38191
428.370	26514
428.444	6389
428.519	8097
428.593	18524
428.667	19896
428.742	20238
428.816	18246
428.890	28059
428.965	59974
429.039	33528
429.113	25693
429.188	13537
429.262	4365
429.336	4725
429.410	18739
429.485	18063
429.559	15392
429.633	17470
429.707	5764
429.781	7134
429.855	33751
429.930	65911
430.004	45656
430.078	78166
430.152	77539
430.226	49388
430.300	65630
430.374	15293
430.448	6263
430.522	16255
430.596	75221
430.670	57710
430.744	41981
430.818	101841
430.892	36338
430.966	7036
431.040	4079
431.114	3234
431.188	2330
431.262	2677
431.336	3088
431.410	6942
431.484	23168
431.557	21909
431.631	4555
431.705	2445
431.779	4233
431.853	23602
431.927	28533
432.000	6308
432.074	2786
432.148	4199
432.222	5377
432.295	3151
432.369	2357
432.443	3862
432.516	20853
432.590	80883
432.664	48553
432.737	8802
432.811	2765
432.885	1450
432.958	2501
433.032	2664
433.106	2200
433.179	2349
433.253	1878
433.326	1937
433.400	2863
433.473	1987
433.547	1335
433.620	2413
433.694	4499
433.767	6962
433.841	2632
433.914	2085
433.988	3031
434.061	2513
434.134	3353
434.208	2002
434.281	1272
434.355	2145
434.428	2667
434.501	2949
434.575	2430
434.648	2895
434.721	1877
434.795	1636
434.868	1413
434.941	1483
435.014	1241
435.088	1917
435.161	4033
435.234	5024
435.307	7125
435.381	4555
435.454	2284
435.527	2386
435.600	2202
435.673	2449
435.746	1535
435.819	1353
435.892	1890
435.966	2060
436.039	2222
436.112	2565
436.185	1294
436.258	1502
436.331	849
436.404	1174
436.477	1509
436.550	1372
436.623	1830
436.696	1814
436.769	2291
436.842	2777
436.915	2411
436.987	4518
437.060	3619
437.133	2253
437.206	2032
437.279	2385
437.352	2684
437.425	2129
437.498	2908
437.570	6017
437.643	9468
437.716	3443
437.789	1969
437.861	3658
437.934	15709
438.007	11680
438.080	3542
438.152	3243
438.225	5823
438.298	24283
438.370	104266
438.443	70473
438.516	20952
438.588	5999
438.661	3017
438.734	3080
438.806	2657
438.879	3330
438.951	3696
439.024	9533
439.096	5426
439.169	2349
439.241	2716
439.314	1519
439.386	4565
439.459	5620
439.531	9069
439.604	5963
439.676	2485
439.749	2242
439.821	2056
439.893	2135
439.966	1862
440.038	2682
440.110	4798
440.183	3177
440.255	2043
440.327	3674
440.400	11693
440.472	60089
440.544	67733
440.617	11988
440.689	6957
440.761	7563
440.833	13658
440.905	12165
440.978	3347
441.050	1824
441.122	1471
441.194	1972
441.266	2386
441.338	1879
441.411	3724
441.483	15274
441.555	43151
441.627	13382
441.699	5728
441.771	6375
441.843	3382
441.915	2164
441.987	2311
442.059	1884
442.131	2836
442.203	5113
442.275	6141
442.347	4942
442.419	3587
442.491	6528
442.563	20859
442.635	17380
442.706	18033
442.778	24887
442.850	5431
442.922	2294
442.994	2551
443.066	5432
443.137	4927
443.209	3262
443.281	3521
443.353	5388
443.425	13561
443.496	36844
443.568	45279
443.640	19370
443.711	6543
443.783	3400
443.855	3838
443.926	1678
443.998	2191
444.070	3855
444.141	4534
444.213	4975
444.285	6910
444.356	5690
444.428	5166
444.499	2883
444.571	2107
444.642	1165
444.714	2436
444.785	3931
444.857	6074
444.928	14887
445.000	11964
445.071	8267
445.143	13088
445.214	5841
445.285	6578
445.357	21885
445.428	33169
445.500	75661
445.571	65002
445.642	29135
445.714	15595
445.785	27338
445.856	11092
445.928	6260
445.999	6628
446.070	5473
446.141	4160
446.213	7205
446.284	4970
446.355	4686
446.426	3430
446.497	2343
446.569	4400
446.640	8129
446.711	7022
446.782	2367
446.853	2554
446.924	3583
446.995	2719
447.066	3521
447.138	6708
447.209	6044
447.280	1495
447.351	2070
447.422	1664
447.493	3185
447.564	4297
447.635	5131
447.706	4045
447.777	2417
447.847	1918
447.918	1370
447.989	3878
448.060	4121
448.131	10491
448.202	11723
448.273	7924
448.344	4797
448.414	2634
448.485	2033
448.556	2311
448.627	1403
448.698	2904
448.768	2263
448.839	2457
448.910	4988
448.981	7443
449.051	3880
449.122	3014
449.193	3619
449.263	2483
449.334	3196
449.405	3694
449.475	8083
449.546	7062
449.616	7137
449.687	8228
449.758	4467
449.828	3082
449.899	2820
449.969	2972
450.040	2669
450.110	3735
450.181	4655
450.251	2560
450.322	2352
450.392	3053
450.463	2946
450.533	2309
450.604	3057
450.674	2821
450.744	3620
450.815	2028
450.885	3572
450.955	3340
451.026	2640
451.096	2571
451.166	3261
451.237	4790
451.307	17017
451.377	10284
451.447	2904
451.518	2364
451.588	2551
451.658	2990
451.728	4945
451.799	14202
451.869	24933
451.939	8677
452.009	2748
452.079	2578
452.149	3298
452.219	4416
452.289	18707
452.360	22026
452.430	6093
452.500	3179
452.570	4144
452.640	4832
452.710	8053
452.780	21123
452.850	12830
452.920	14198
452.990	6248
453.060	4050
453.129	6241
453.199	6957
453.269	14687
453.339	51035
453.409	87435
453.479	59475
453.549	100468
453.619	115106
453.688	63079
453.758	11859
453.828	5307
453.898	4323
453.968	4157
454.037	3735
454.087	3822
454.107	3856
454.168	3486
454.177	3433
454.247	2827
454.249	2875
454.316	3946
454.330	3830
454.386	3452
454.411	5055
454.456	7555
454.492	13065
454.525	17952
454.574	10886
454.595	7831
454.655	4456
454.665	3942
454.734	3908
454.736	3968
454.804	5829
454.817	7565
454.873	14403
454.898	18233
454.943	24911
454.979	16606
455.013	9130
455.060	6234
455.082	5102
455.141	4455
455.152	4338
455.221	8876
455.222	9129
455.291	27619
455.303	26810
455.360	22545
455.384	29661
455.430	40796
455.465	36708
455.499	32839
455.546	23189
455.569	18734
455.627	15243
455.638	14677
455.707	4766
455.708	4760
455.777	3424
455.789	3426
455.846	3547
455.869	3360
455.916	2916
455.950	2920
455.985	2970
456.031	3628
456.054	3864
456.112	2816
456.124	2653
456.193	2436
456.193	2430
456.262	2719
456.274	2897
456.332	3836
456.355	4093
456.401	4264
456.436	3409
456.470	2651
456.516	2466
456.540	2349
456.597	2577
456.609	2623
456.678	2341
456.678	2339
456.747	2033
456.759	2007
456.817	2033
456.840	2081
456.886	1917
456.920	1919
456.955	2001
457.001	1941
457.024	1927
457.082	2600
457.093	2811
457.162	3273
457.163	3287
457.232	4024
457.243	3919
457.301	2924
457.324	2475
457.370	2005
457.405	2289
457.439	2568
457.485	2868
457.508	3042
457.566	2801
457.577	2765
457.646	2600
457.647	2613
457.715	3500
457.727	3438
457.784	3289
457.808	3257
457.853	3203
457.889	4044
457.922	4645
457.969	4324
457.991	4203
458.050	4195
458.060	4207
458.129	4541
458.130	4548
458.198	4555
458.211	4536
458.267	4223
458.292	3961
458.336	3549
458.372	3075
458.405	2909
458.453	2936
458.474	3080
458.533	4249
458.543	4414
458.611	6297
458.614	6405
458.680	7561
458.694	6904
458.749	4691
458.775	3791
458.818	2531
458.855	2506
458.887	2682
458.936	2688
458.955	2572
459.016	2264
459.024	2294
459.093	3021
459.097	3018
459.162	2392
459.177	2450
459.230	2902
459.257	3374
459.299	4108
459.338	3936
459.368	3842
459.418	4165
459.437	3897
459.499	3705
459.505	3793
459.574	2880
459.579	2908
459.643	3373
459.659	3251
459.711	2778
459.740	2739
459.780	2795
459.820	3393
459.849	3800
459.900	3481
459.917	3291
459.981	3604
459.986	3632
460.054	3700
460.061	3682
460.123	3558
460.141	3538
460.191	3925
460.222	4224
460.260	4647
460.302	5463
460.328	5381
460.382	4677
460.397	4605
460.462	3614
460.465	3602
460.534	4400
460.543	4489
460.602	8738
460.623	10388
460.671	16339
460.703	23114
460.739	25390
460.783	29961
460.808	29289
460.864	9808
460.876	7422
460.944	3742
460.945	3703
461.013	3492
461.024	3436
461.081	3286
461.104	3423
461.150	3409
461.184	3329
461.218	3194
461.264	3021
461.286	3161
461.345	3063
461.355	2994
461.423	2986
461.425	2989
461.491	3295
461.505	3407
461.559	5114
461.585	5747
461.628	9246
461.665	12940
461.696	15147
461.745	21637
461.764	20395
461.825	10743
461.832	10452
461.901	4698
461.905	4560
461.969	3921
461.985	3939
462.037	3626
462.065	3357
462.105	3565
462.145	3833
462.173	4943
462.225	7033
462.241	7755
462.305	11798
462.310	11658
462.378	10446
462.385	9791
462.446	5295
462.465	4144
462.514	3007
462.545	3016
462.582	3072
462.625	3081
462.650	3148
462.705	3094
462.718	3199
462.785	3880
462.786	3900
462.854	4993
462.865	5185
462.922	6574
462.945	7396
462.990	6589
463.025	5116
463.058	4423
463.104	3634
463.126	3399
463.184	2914
463.194	2915
463.262	3140
463.264	3156
463.330	3434
463.344	3452
463.398	3991
463.424	4211
463.466	4023
463.504	4034
463.533	4211
463.583	4393
463.601	4339
463.663	3687
463.669	3748
463.737	4938
463.743	5055
463.805	7837
463.823	8591
463.873	12776
463.903	15586
463.940	17800
463.982	21253
464.008	18598
464.062	10918
464.076	10061
464.142	4220
464.144	4161
464.211	3650
464.221	3653
464.279	3638
464.301	3611
464.347	4228
464.381	4718
464.414	4702
464.461	4654
464.482	5173
464.540	6917
464.550	6769
464.617	5338
464.620	5282
464.685	5469
464.699	5478
464.753	6236
464.779	6834
464.820	7845
464.859	8739
464.888	8473
464.938	7829
464.956	8070
465.018	8786
465.023	8640
465.091	6798
465.098	6595
465.158	7091
465.177	7273
465.226	7000
465.257	6794
465.293	6927
465.336	7042
465.361	7017
465.416	7000
465.428	7557
465.495	10655
465.496	10703
465.563	16605
465.575	17634
465.631	23235
465.654	25976
465.698	19334
465.734	12821
465.765	10571
465.813	6822
465.833	6406
465.893	6091
465.900	6151
465.968	6634
465.972	6660
466.035	6184
466.052	6072
466.102	7012
466.131	7512
466.170	7376
466.210	7261
466.237	7250
466.290	7163
466.304	7343
466.369	8124
466.372	8143
466.439	8600
466.449	8635
466.506	8929
466.528	9057
466.573	11022
466.607	12491
466.641	17623
466.687	24756
466.708	27864
466.766	36564
466.775	34561
466.842	19348
466.845	18582
466.909	12177
466.925	10748
466.977	10246
467.004	10022
467.044	9964
467.083	9933
467.111	10699
467.163	12111
467.178	12756
467.242	15413
467.245	15286
467.312	12352
467.321	11955
467.379	11685
467.400	11567
467.446	11931
467.480	12173
467.559	11734
467.638	9861
467.717	9497
467.796	10058
467.875	10725
467.955	11172
468.034	13178
468.113	27522
468.192	43060
468.271	19493
468.350	8811
468.429	8228
468.508	8072
468.588	7348
468.667	8931
468.746	9437
468.825	9608
468.904	8249
468.983	8970
469.062	12237
469.141	15846
469.220	9658
469.299	7816
469.378	8302
469.456	9973
469.535	10753
469.614	8457
469.693	8180
469.772	10517
469.851	13586
469.930	13371
470.009	8310
470.088	8048
470.166	8075
470.245	10394
470.324	11002
470.403	10208
470.482	8504
470.560	8331
470.639	8031
470.718	8638
470.797	7670
470.875	8418
470.954	11685
471.033	14556
471.111	7699
471.190	7472
471.269	5842
471.347	6090
471.426	6318
471.505	7587
471.583	8356
471.662	9342
471.740	7240
471.819	8225
471.898	7081
471.976	7799
472.055	6369
472.133	6998
472.212	10161
472.290	11268
472.369	8202
472.447	6773
472.526	6244
472.604	6898
472.683	7328
472.761	7187
472.839	6044
472.918	7762
472.996	6245
473.075	8296
473.153	7517
473.231	6920
473.310	7417
473.388	8021
473.466	6202
473.545	7712
473.623	9076
473.701	10844
473.780	6809
473.858	6974
473.936	7449
474.014	7238
474.093	6949
474.171	10013
474.249	14067
474.327	12023
474.405	6448
474.484	6482
474.562	6637
474.640	6589
474.718	6407
474.796	8485
474.874	7082
474.952	6444
475.030	6182
475.108	6945
475.187	7955
475.265	8358
475.343	9362
475.421	9243
475.499	7896
475.577	8619
475.655	7530
475.733	14730
475.811	25172
475.889	27055
475.966	22738
476.044	7777
476.122	5760
476.200	7604
476.278	6989
476.356	6080
476.434	6548
476.512	6685
476.590	7646
476.667	9014
476.745	5378
476.823	7242
476.901	6048
476.979	6459
477.056	6448
477.134	7159
477.212	7303
477.290	6972
477.367	5096
477.445	5433
477.523	5316
477.601	5642
477.678	5117
477.756	6896
477.834	7950
477.911	6183
477.989	5831
478.066	5445
478.144	6205
478.222	6683
478.299	6625
478.377	7875
478.454	5278
478.532	5485
478.609	5977
478.687	6814
478.764	5253
478.842	5514
478.919	5609
478.997	6493
479.074	5340
479.152	5077
479.229	7933
479.307	7419
479.384	4549
479.461	5317
479.539	4903
479.616	6473
479.694	5550
479.771	6582
479.848	6325
479.926	7997
480.003	10217
480.080	5867
480.157	4368
480.235	5297
480.312	4109
480.389	5467
480.467	8127
480.544	12512
480.621	7938
480.698	6117
480.775	6189
480.853	7113
480.930	5107
481.007	5968
481.084	6517
481.161	7905
481.238	6765
481.315	5315
481.392	4618
481.470	5248
481.547	5007
481.624	5330
481.701	4998
481.778	5177
481.855	6432
481.932	8441
482.009	13185
482.086	14090
482.163	5119
482.240	5728
482.317	6906
482.393	8679
482.470	5114
482.547	4942
482.624	4655
482.701	6072
482.778	4909
482.855	4883
482.932	4324
483.009	4217
483.085	4996
483.162	5810
483.239	5941
483.316	4561
483.393	4365
483.469	4577
483.546	5767
483.623	7064
483.699	4697
483.776	5687
483.853	5591
483.930	7656
484.006	19465
484.083	38889
484.160	29625
484.236	32279
484.313	30913
484.389	21769
484.466	18438
484.543	15891
484.619	16587
484.696	16509
484.772	17668
484.849	19989
484.925	16807
485.002	16412
485.078	16166
485.155	17717
485.231	16129
485.308	15398
485.384	15281
485.461	16971
485.537	24714
485.614	36224
485.690	18975
485.766	14537
485.843	14738
485.919	18051
485.995	21585
486.072	15039
486.148	13184
486.224	13777
486.301	14181
486.377	15438
486.453	15476
486.530	16761
486.606	18847
486.682	24167
486.758	24728
486.835	30071
486.911	23874
486.987	32813
487.063	38717
487.139	40265
487.215	32529
487.292	21310
487.368	14949
487.444	15260
487.520	17851
487.596	17651
487.672	15745
487.748	20022
487.824	28686
487.900	21881
487.976	15169
488.052	15487
488.128	18034
488.204	17079
488.280	14506
488.356	15890
488.432	25892
488.508	47159
488.584	27044
488.660	13912
488.736	12701
488.812	13766
488.888	16665
488.964	18824
489.039	30363
489.115	55328
489.191	45896
489.267	16337
489.343	13500
489.418	12456
489.494	10674
489.570	10821
489.646	12236
489.722	11400
489.797	11460
489.873	15147
489.949	30698
490.024	40245
490.100	13022
490.176	11104
490.251	12945
490.327	15601
490.403	13507
490.478	10599
490.554	9066
490.629	9532
490.705	9070
490.781	9880
490.856	10551
490.932	11153
491.007	11567
491.083	11973
491.158	10292
491.234	11284
491.309	23101
491.385	33631
491.460	13392
491.536	11302
491.611	10269
491.686	10954
491.762	11972
491.837	20375
491.913	37229
491.988	48964
492.063	73430
492.139	33339
492.214	18022
492.289	10296
492.365	7764
492.440	10453
492.515	10032
492.590	10290
492.666	8508
492.741	9679
492.816	15104
492.891	12910
492.967	8949
493.042	8942
493.117	9385
493.192	10716
493.267	13625
493.342	48807
493.418	101863
493.493	31403
493.568	8718
493.643	6377
493.718	9364
493.793	13235
493.868	15125
493.943	10267
494.018	8658
494.093	8698
494.168	7051
494.243	7707
494.318	6908
494.393	5856
494.468	6593
494.543	6063
494.618	7651
494.693	8079
494.768	5752
494.842	7520
494.917	6098
494.992	6813
495.067	6840
495.142	6735
495.217	6872
495.292	7097
495.366	7470
495.441	9558
495.516	11759
495.591	13456
495.665	32374
495.740	102400
495.815	82777
495.890	14876
495.964	9107
496.039	10820
496.114	8813
496.188	10502
496.263	10828
496.338	10021
496.412	9548
496.487	12916
496.561	11926
496.636	13652
496.710	11849
496.785	12044
496.860	13798
496.934	12962
497.009	12234
497.083	12939
497.158	12685
497.232	13815
497.307	16789
497.381	16768
497.455	16978
497.530	23033
497.604	20150
497.679	19320
497.753	25126
497.827	35182
497.902	35985
497.976	38571
498.050	52473
498.125	180671
498.199	316476
498.273	79203
498.348	41820
498.422	37085
498.496	32075
498.570	31220
498.645	24539
498.719	23374
498.793	23202
498.867	29606
498.941	37341
499.016	64988
499.090	226508
499.164	174839
499.238	21495
499.312	15211
499.386	15648
499.460	16291
499.534	13442
499.609	13614
499.683	19368
499.757	23037
499.831	27912
499.905	120631
499.979	213726
500.053	42268
500.127	26079
500.201	20249
500.275	13689
500.349	11586
500.422	12627
500.496	15796
500.570	26364
500.644	64465
500.718	168811
500.792	86953
500.866	12462
500.940	14166
501.013	14314
501.087	10511
501.161	15354
501.235	24671
501.309	38072
501.382	116730
501.456	181945
501.530	39158
501.603	45494
501.677	35371
501.751	9603
501.825	11440
501.898	14918
501.972	47992
502.046	59409
502.119	12214
502.193	18389
502.266	55451
502.340	52076
502.413	21830
502.487	52970
502.561	42640
502.634	15908
502.708	7776
502.781	7837
502.855	7692
502.928	5476
503.002	5723
503.075	5587
503.149	6267
503.222	6375
503.295	7135
503.369	9260
503.442	10879
503.516	26942
503.589	97906
503.662	104278
503.736	29695
503.809	39438
503.882	53985
503.956	44655
504.029	70826
504.102	20920
504.175	18781
504.249	10057
504.322	8099
504.395	9466
504.468	6801
504.542	6449
504.615	6397
504.688	4776
504.761	4642
504.834	6181
504.907	7475
504.980	11230
505.053	9265
505.127	6682
505.200	11571
505.273	9802
505.346	9016
505.419	5031
505.492	6254
505.565	4121
505.638	4973
505.711	3898
505.784	3625
505.857	3948
505.930	5048
506.003	3794
506.076	6467
506.149	5723
506.221	9744
506.294	7460
506.367	14228
506.440	62785
506.513	73582
506.586	12499
506.659	8251
506.731	5374
506.804	5838
506.877	8084
506.950	8107
507.022	4909
507.095	5763
507.168	8844
507.241	6537
507.313	4037
507.386	4361
507.459	7600
507.531	4969
507.604	4436
507.677	4896
507.749	3604
507.822	5201
507.894	10476
507.967	18232
508.040	11546
508.112	9031
508.185	8596
508.257	7221
508.330	9853
508.402	9092
508.475	7006
508.547	8320
508.620	7236
508.692	11748
508.765	9966
508.837	6383
508.909	6583
508.982	5858
509.054	7310
509.127	6611
509.199	5298
509.271	6155
509.344	5502
509.416	6220
509.488	6215
509.560	6695
509.633	6906
509.705	6878
509.777	7541
509.849	8826
509.922	8153
509.994	8189
510.066	7298
510.138	6760
510.210	13025
510.283	16093
510.355	12011
510.427	11128
510.499	9834
510.571	12659
510.643	9482
510.715	11729
510.787	12103
510.859	10016
510.931	9024
511.003	12793
511.076	13633
511.148	8890
511.219	8469
511.291	12088
511.363	16253
511.435	10523
511.507	7030
511.579	7527
511.651	7797
511.723	7144
511.795	6629
511.867	7122
511.939	8730
512.010	14076
512.082	18480
512.154	8359
512.226	7991
512.298	9926
512.369	16047
512.441	14447
512.513	12514
512.585	10579
512.656	10486
512.728	10697
512.800	9773
512.871	8294
512.943	8350
513.015	7827
513.086	8337
513.158	8635
513.230	8305
513.301	10569
513.373	13813
513.444	9642
513.516	7795
513.588	8344
513.659	8219
513.731	9276
513.802	8666
513.874	13021
513.945	24793
514.016	17103
514.088	7573
514.159	8677
514.231	9536
514.302	14038
514.374	12605
514.445	9935
514.516	17120
514.588	20401
514.659	10838
514.730	15994
514.802	17855
514.873	12731
514.944	16931
515.016	13710
515.087	12677
515.158	13504
515.229	22406
515.301	17362
515.372	21375
515.443	18727
515.514	13356
515.585	10702
515.656	9603
515.728	9241
515.799	7422
515.870	8840
515.941	8345
516.012	7852
516.083	10041
516.154	12553
516.225	13246
516.296	13393
516.367	11889
516.438	12074
516.509	14060
516.580	16884
516.651	30839
516.722	126816
516.793	136379
516.864	26054
516.935	21216
517.006	20642
517.077	23813
517.148	41964
517.219	108691
517.289	299560
517.360	146679
517.431	69868
517.502	14755
517.573	11561
517.643	10394
517.714	12621
517.785	13499
517.856	11951
517.926	13925
517.997	15385
518.068	18280
518.138	22882
518.209	28556
518.280	67323
518.350	329470
518.421	311314
518.492	40429
518.562	16042
518.633	13834
518.703	11617
518.774	12370
518.845	15826
518.915	19200
518.986	14222
519.056	13160
519.127	20459
519.197	32241
519.268	70923
519.338	96265
519.408	18910
519.479	16353
519.549	15063
519.620	9644
519.690	8150
519.760	8404
519.831	8600
519.901	8599
519.971	7769
520.042	7057
520.112	9303
520.182	10145
520.253	11797
520.323	9273
520.393	9977
520.463	19222
520.534	13355
520.604	25759
520.674	19168
520.744	11996
520.814	23878
520.885	34919
520.955	21922
521.025	84953
521.095	85113
521.165	11761
521.235	9418
521.305	7370
521.375	6667
521.445	6800
521.515	8932
521.585	10244
521.655	12625
521.725	9479
521.795	11053
521.865	8245
521.935	10185
522.005	11804
522.075	7377
522.145	6393
522.215	7425
522.285	10816
522.355	13806
522.424	24402
522.494	31563
522.564	16422
522.634	15557
522.704	47904
522.774	42846
522.843	9296
522.913	7077
522.983	8665
523.053	8417
523.122	6976
523.192	7460
523.262	20104
523.331	41418
523.401	12439
523.471	5661
523.540	6592
523.610	5019
523.680	4727
523.749	5760
523.819	6244
523.888	8778
523.958	5590
524.027	5704
524.097	5467
524.166	6332
524.236	6332
524.305	7427
524.375	5364
524.444	5360
524.514	5846
524.583	6180
524.653	7050
524.722	8824
524.791	6698
524.861	5779
524.930	5278
524.999	5694
525.069	7767
525.138	7191
525.207	7297
525.277	7863
525.346	5802
525.415	6076
525.484	4901
525.554	5687
525.623	7252
525.692	6067
525.761	6141
525.830	5739
525.900	5527
525.969	6723
526.038	8524
526.107	8135
526.176	18401
526.245	22541
526.314	13855
526.383	16246
526.452	19283
526.522	23953
526.591	42699
526.660	32728
526.729	20512
526.797	13751
526.867	20618
526.935	102606
527.004	164079
527.073	86186
527.142	15297
527.211	7951
527.280	5821
527.349	8584
527.418	4857
527.487	5421
527.555	3858
527.624	4767
527.693	3601
527.762	5250
527.831	3777
527.899	4492
527.968	4277
528.037	4709
528.106	6052
528.174	9844
528.243	10018
528.312	9965
528.380	18107
528.449	9451
528.518	4483
528.586	3321
528.655	4150
528.723	4467
528.792	3554
528.861	4446
528.929	4091
528.998	5155
529.066	3011
529.135	3541
529.203	4067
529.272	3161
529.340	4085
529.409	5378
529.477	3376
529.545	6157
529.614	7759
529.682	6280
529.751	9728
529.819	8804
529.887	7626
529.956	4466
530.024	5119
530.092	3893
530.161	5412
530.229	7477
530.297	6536
530.365	5097
530.434	3447
530.502	3654
530.570	3818
530.638	2125
530.707	4309
530.775	6261
530.843	3519
530.911	4032
530.979	4144
531.047	3805
531.115	4766
531.183	4627
531.252	3886
531.320	4388
531.388	3991
531.456	4305
531.524	3128
531.592	4474
531.660	5223
531.728	3549
531.796	4370
531.864	4422
531.932	3763
532.000	4841
532.067	5406
532.135	5567
532.203	6028
532.271	6836
532.339	8497
532.407	20894
532.475	24146
532.542	10819
532.610	8595
532.678	9706
532.746	24796
532.814	110839
532.881	62909
532.949	10612
533.017	6143
533.084	6004
533.152	4449
533.220	5018
533.287	5045
533.355	4912
533.423	4325
533.490	4990
533.558	3555
533.625	5341
533.693	5760
533.761	6603
533.828	5743
533.896	6329
533.963	8861
534.031	15627
534.098	16080
534.166	13427
534.233	6044
534.300	6979
534.368	6642
534.435	6247
534.503	6215
534.570	6528
534.637	5696
534.705	5082
534.772	5498
534.840	6006
534.907	9316
534.974	17206
535.041	7912
535.109	6413
535.176	5399
535.243	4481
535.310	4601
535.378	4606
535.445	3951
535.512	4195
535.579	4782
535.646	3979
535.714	3978
535.781	7152
535.848	7044
535.915	7170
535.982	7699
536.049	7841
536.116	8710
536.183	7260
536.250	5865
536.317	6939
536.384	6627
536.451	9595
536.518	9069
536.585	7614
536.652	8564
536.719	11250
536.786	10699
536.853	7902
536.920	9349
536.987	16151
537.053	14623
537.120	36015
537.187	76356
537.254	12607
537.321	5078
537.388	6515
537.454	4788
537.521	5142
537.588	4109
537.654	5694
537.721	6055
537.788	7104
537.855	5090
537.921	5557
537.988	5715
538.055	5692
538.121	6266
538.188	5830
538.254	6714
538.321	15133
538.388	13302
538.454	7527
538.521	5222
538.587	5803
538.654	4598
538.720	4969
538.787	5072
538.853	4844
538.920	5128
538.986	7885
539.053	6111
539.119	6681
539.185	6434
539.252	6646
539.318	8831
539.385	10315
539.451	7778
539.517	8653
539.583	8306
539.650	12458
539.716	40777
539.782	28816
539.849	6781
539.915	6446
539.981	5740
540.047	7376
540.114	6902
540.180	7468
540.246	6062
540.312	7999
540.378	11926
540.444	19642
540.510	14972
540.576	43786
540.643	34058
540.709	7118
540.775	6963
540.841	6294
540.907	7435
540.973	12931
541.039	12580
541.105	13353
541.171	8165
541.237	5343
541.303	6798
541.369	8150
541.435	7649
541.500	13388
541.566	12027
541.632	6475
541.698	5165
541.764	5930
541.830	5595
541.896	4651
541.961	5640
542.027	6119
542.093	6319
542.159	5827
542.224	6546
542.290	10065
542.356	12940
542.421	19209
542.487	12367
542.553	8393
542.618	7897
542.684	8428
542.750	6310
542.815	8108
542.881	9211
542.947	30809
543.012	51140
543.078	10237
543.143	5898
543.209	7440
543.274	6299
543.340	7891
543.405	10731
543.471	29155
543.536	13443
543.602	7120
543.667	5386
543.732	7097
543.798	5426
543.863	6756
543.928	5569
543.994	5566
544.059	5277
544.124	6418
544.190	5088
544.255	6656
544.320	6190
544.386	5508
544.451	8395
544.516	9915
544.581	9482
544.646	16391
544.712	50229
544.777	21044
544.842	8090
544.907	8971
544.972	7603
545.037	7922
545.102	7362
545.168	7943
545.233	8669
545.298	10213
545.363	9933
545.428	11905
545.493	14532
545.558	32852
545.623	28663
545.688	8980
545.753	8979
545.818	7727
545.883	8356
545.947	7040
546.012	7741
546.077	9205
546.142	8867
546.207	7909
546.272	9646
546.337	11577
546.401	9588
546.466	8391
546.531	6950
546.596	8727
546.661	8244
546.725	8962
546.790	7023
546.855	8157
546.919	6660
546.984	7980
547.049	7379
547.113	9831
547.178	7606
547.243	8951
547.307	9987
547.372	9894
547.436	12461
547.501	10130
547.565	8654
547.630	10245
547.695	10946
547.759	12395
547.823	10990
547.888	9622
547.952	8624
548.017	8952
548.081	10222
548.146	12555
548.210	13425
548.274	8720
548.339	7965
548.403	9130
548.468	7591
548.532	7650
548.596	7669
548.660	8497
548.725	8743
548.789	9733
548.853	12279
548.917	10014
548.982	10865
549.046	15927
549.110	9211
549.174	8328
549.238	8180
549.303	7361
549.367	8742
549.431	8853
549.495	8347
549.559	7986
549.623	8660
549.687	9271
549.751	12957
549.815	12666
549.879	10856
549.943	8484
550.007	9760
550.071	9461
550.135	11898
550.199	11521
550.263	9259
550.327	9944
550.391	12911
550.455	13705
550.519	9490
550.582	10722
550.646	10434
550.710	16401
550.774	10327
550.838	9870
550.901	9803
550.965	11543
551.029	10818
551.093	13051
551.156	13952
551.220	22727
551.284	38350
551.347	20084
551.411	24449
551.475	51922
551.538	19981
551.602	10560
551.666	9593
551.729	9407
551.793	9529
551.856	10229
551.920	10105
551.983	10358
552.047	9000
552.110	9346
552.174	9462
552.237	9183
552.301	8861
552.364	8927
552.428	9139
552.491	7927
552.554	9596
552.618	9482
552.681	9734
552.745	9785
552.808	12713
552.871	17103
552.934	14606
552.998	11198
553.061	12112
553.124	11669
553.187	11262
553.251	12051
553.314	13783
553.377	13922
553.440	17286
553.503	38318
553.567	130447
553.630	55152
553.693	12500
553.756	11284
553.819	9329
553.882	9029
553.945	8246
554.008	8240
554.071	8456
554.134	8112
554.197	7782
554.260	8662
554.323	8438
554.386	9050
554.449	8300
554.512	9232
554.575	7565
554.638	8566
554.701	8101
554.764	8431
554.827	8716
554.889	8988
554.952	7112
555.015	7213
555.078	7671
555.141	9200
555.203	7996
555.266	6412
555.329	7775
555.391	8386
555.454	7130
555.517	8595
555.580	6897
555.642	7137
555.705	6691
555.768	7787
555.830	7855
555.893	8565
555.955	6966
556.018	7357
556.080	7420
556.143	7897
556.206	6721
556.268	8100
556.330	8130
556.393	8622
556.455	6584
556.518	10291
556.580	14580
556.643	8328
556.705	7184
556.767	6229
556.830	8163
556.892	7577
556.955	10410
557.017	12216
557.079	7599
557.142	7775
557.204	7343
557.266	12961
557.328	17328
557.391	9375
557.453	6926
557.515	7336
557.577	7017
557.639	10377
557.701	6726
557.764	5946
557.826	6587
557.888	8098
557.950	7393
558.012	6661
558.074	8200
558.136	9184
558.198	17886
558.260	16704
558.322	7912
558.384	8086
558.446	9451
558.508	9424
558.570	11532
558.632	16019
558.694	27682
558.756	22577
558.818	24948
558.880	89463
558.942	66425
559.003	21246
559.065	18663
559.127	10222
559.189	9363
559.251	8695
559.312	9718
559.374	15033
559.436	43903
559.498	53886
559.559	12650
559.621	10073
559.683	10053
559.744	12019
559.806	21724
559.868	48265
559.929	23051
559.991	12139
560.052	11061
560.114	17042
560.176	20938
560.237	12892
560.299	22567
560.360	15511
560.422	8845
560.483	9492
560.545	8238
560.606	7921
560.667	7703
560.729	8793
560.790	7669
560.852	7017
560.913	8100
560.974	8089
561.036	7716
561.097	8316
561.158	7416
561.220	9383
561.281	7335
561.342	8740
561.403	9453
561.465	11312
561.526	17316
561.587	33988
561.648	17510
561.709	10438
561.771	8804
561.832	9282
561.893	8266
561.954	8543
562.015	8104
562.076	8928
562.137	7729
562.198	8411
562.259	8344
562.320	8749
562.381	8396
562.442	11197
562.503	11868
562.564	9638
562.625	8382
562.686	8297
562.747	8393
562.808	9696
562.869	8035
562.930	10306
562.991	9911
563.051	10157
563.112	8965
563.173	9301
563.234	8177
563.294	8424
563.355	8167
563.416	9697
563.477	9225
563.537	8156
563.598	9415
563.659	9355
563.720	8872
563.780	9676
563.841	9140
563.901	9495
563.962	9598
564.023	9234
564.083	9756
564.144	8569
564.204	9631
564.265	10412
564.325	9994
564.386	15655
564.446	21506
564.507	12375
564.567	9305
564.628	9804
564.688	8821
564.749	9677
564.809	10204
564.869	12054
564.930	11509
564.990	10293
565.050	8611
565.111	9358
565.171	9194
565.231	10026
565.292	9501
565.352	9405
565.412	9808
565.472	10208
565.532	10444
565.593	10959
565.653	9196
565.713	10373
565.773	11475
565.833	11848
565.893	15699
565.953	12905
566.013	11365
566.074	12369
566.134	14139
566.194	18992
566.254	23515
566.314	19076
566.374	15008
566.434	14916
566.494	14416
566.554	15202
566.614	15104
566.673	16536
566.733	17273
566.793	18404
566.853	18912
566.913	19920
566.973	19821
567.033	20938
567.092	20579
567.152	20439
567.212	19923
567.272	21449
567.331	22032
567.391	23317
567.451	24127
567.511	26404
567.570	28147
567.630	24024
567.690	20411
567.749	21994
567.809	22905
567.868	26613
567.928	28619
567.988	33303
568.047	39220
568.107	45819
568.166	56637
568.226	79048
568.285	115614
568.345	125103
568.404	110446
568.464	96949
568.523	90546
568.582	89447
568.642	92414
568.701	105231
568.761	130759
568.820	185295
568.879	225121
568.939	199106
568.998	160262
569.057	127756
569.116	105110
569.176	84785
569.235	71770
569.294	61421
569.353	52296
569.413	46901
569.472	41343
569.531	37389
569.590	32398
569.649	30583
569.708	26921
569.767	24654
569.827	24794
569.886	24814
569.945	20484
570.004	19206
570.063	18693
570.122	18102
570.181	17547
570.240	17208
570.299	18072
570.358	17248
570.417	15157
570.475	13734
570.534	13593
570.593	14006
570.652	12010
570.711	14152
570.770	12727
570.829	13996
570.887	12900
570.946	13243
571.005	11647
571.064	10771
571.122	10756
571.181	12560
571.240	11373
571.299	11119
571.357	10694
571.416	12123
571.475	10648
571.533	13208
571.592	10167
571.650	10620
571.709	10114
571.768	9979
571.826	9464
571.885	9408
571.943	9619
572.002	9344
572.060	10040
572.119	9109
572.177	8347
572.236	8751
572.294	7920
572.352	8756
572.411	8912
572.469	8690
572.528	8537
572.586	8170
572.644	9381
572.703	11533
572.761	9338
572.819	9585
572.877	8223
572.936	8317
572.994	7827
573.052	7993
573.110	8291
573.169	8705
573.227	7773
573.285	7997
573.343	7609
573.401	8867
573.459	8158
573.517	8634
573.576	6984
573.634	8102
573.692	7766
573.750	8511
573.808	7484
573.866	8403
573.924	9546
573.982	10685
574.040	8943
574.098	8189
574.155	7655
574.213	8138
574.271	6767
574.329	7447
574.387	6387
574.445	7841
574.503	7693
574.560	7099
574.618	7013
574.676	6731
574.734	6082
574.792	7122
574.849	6646
574.907	7055
574.965	6271
575.022	7336
575.080	6857
575.138	7944
575.195	6870
575.253	7420
575.311	7603
575.368	7540
575.426	6819
575.483	7948
575.541	6499
575.598	7741
575.656	7612
575.713	8325
575.771	6815
575.828	6773
575.886	6897
575.943	8117
576.001	7684
576.058	7320
576.115	8260
576.173	7650
576.230	9532
576.287	10247
576.345	10081
576.402	8198
576.459	8045
576.517	8560
576.574	9096
576.631	8853
576.688	8280
576.746	8822
576.803	7348
576.860	8755
576.917	8073
576.974	7837
577.031	7919
577.089	8176
577.146	8045
577.203	9127
577.260	8572
577.317	9376
577.374	9622
577.431	9579
577.488	9177
577.545	9298
577.602	8556
577.659	9503
577.716	8789
577.773	10328
577.830	8971
577.886	9475
577.943	9145
578.000	8881
578.057	8534
578.114	10764
578.171	10928
578.227	14818
578.284	15383
578.341	13876
578.398	12373
578.454	10985
578.511	11525
578.568	11698
578.625	10002
578.681	8652
578.738	8590
578.794	9371
578.851	9124
578.908	8947
578.964	9236
579.021	10007
579.077	8313
579.134	9463
579.190	9068
579.247	9129
579.303	8708
579.360	8822
579.416	8046
579.473	8425
579.529	8058
579.586	8529
579.642	8258
579.698	9809
579.755	9654
579.811	10758
579.867	10164
579.924	9954
579.980	10009
580.036	12842
580.093	13053
580.149	18132
580.205	21756
580.261	21268
580.317	16321
580.374	14164
580.430	13072
580.486	13475
580.542	11806
580.598	12089
580.619	11775
580.654	11217
580.692	11113
580.710	11040
580.765	10098
580.767	10051
580.823	11186
580.838	10998
580.879	10455
580.911	10890
580.935	11171
580.984	10264
580.991	10118
581.047	10950
581.057	11017
581.103	11249
581.130	12015
581.159	12819
581.203	13178
581.215	13222
581.270	14904
581.276	14743
581.326	12892
581.349	13322
581.382	13932
581.422	13146
581.438	12792
581.494	12635
581.494	12653
581.550	12190
581.567	12603
581.606	13474
581.640	13250
581.661	13077
581.713	13863
581.717	13900
581.773	12893
581.786	12877
581.829	12858
581.859	13149
581.885	13336
581.932	14385
581.940	14551
581.996	14075
582.004	14235
582.052	14856
582.077	14346
582.107	13795
582.150	14511
582.163	14694
582.219	15319
582.223	15360
582.274	15592
582.296	15218
582.330	14737
582.368	16368
582.386	16985
582.441	15926
582.441	15907
582.497	17628
582.514	17796
582.552	18215
582.587	18921
582.608	19142
582.659	18592
582.663	18551
582.719	18711
582.732	18700
582.774	18638
582.805	19142
582.830	19576
582.877	20684
582.885	20848
582.941	20689
582.950	20747
582.996	21292
583.023	22155
583.052	23184
583.095	23953
583.107	24320
583.162	28924
583.168	29250
583.218	31843
583.240	31986
583.273	31109
583.313	29835
583.328	29307
583.384	29080
583.385	29019
583.439	27768
583.458	27923
583.494	28147
583.531	27598
583.549	27534
583.603	27956
583.605	27964
583.660	28051
583.676	28231
583.715	28903
583.748	29166
583.770	29552
583.820	30439
583.825	30514
583.881	30828
583.893	30937
583.936	31417
583.965	31402
583.991	31397
584.038	32314
584.046	32519
584.101	32306
584.110	32590
584.156	34469
584.183	34971
584.211	35465
584.255	35508
584.266	35570
584.321	36104
584.328	36162
584.376	36646
584.400	37218
584.431	38446
584.472	39112
584.486	39372
584.541	40579
584.545	40601
584.596	42121
584.617	42348
584.651	42657
584.689	43557
584.706	44170
584.761	45505
584.762	45454
584.816	47525
584.834	47852
584.871	48775
584.906	49658
584.926	50141
584.978	50919
584.980	51056
585.035	53052
585.051	53450
585.090	54890
585.123	55960
585.145	56903
585.195	58561
585.200	58844
585.254	61693
585.267	62051
585.309	64331
585.340	66479
585.364	68009
585.412	69310
585.419	69532
585.473	70094
585.484	70072
585.528	71668
585.556	72858
585.583	75281
585.628	79849
585.637	81512
585.692	91493
585.700	93581
585.747	110748
585.772	116235
585.801	111034
585.845	96923
585.856	94519
585.910	88720
585.917	87819
585.965	88092
585.989	88539
586.019	90596
586.061	92335
586.074	93265
586.128	96853
586.133	96826
586.183	99783
586.205	101077
586.237	103127
586.277	104433
586.292	105701
586.346	110707
586.349	110625
586.401	114608
586.421	115767
586.455	118245
586.493	120872
586.509	123831
586.564	132466
586.565	132355
586.618	148608
586.637	153540
586.672	157328
586.709	154452
586.727	152246
586.781	149973
586.781	150441
586.835	155245
586.853	156767
586.889	162064
586.925	166160
586.944	169353
586.996	175952
586.998	176738
587.052	185356
587.068	187467
587.106	194398
587.140	199090
587.161	203189
587.212	212515
587.215	213843
587.269	226510
587.284	229410
587.323	240114
587.356	247341
587.377	253245
587.427	264887
587.431	266916
587.485	283567
587.499	287132
587.539	302148
587.571	311893
587.593	321104
587.643	339009
587.648	342343
587.702	367622
587.715	372673
587.755	395956
587.786	410681
587.810	425012
587.858	452819
587.864	458327
587.917	496295
587.930	503717
587.971	540282
588.001	563976
588.025	588935
588.073	633963
588.079	643059
588.133	706690
588.145	718503
588.187	780734
588.217	820370
588.241	863994
588.288	943653
588.295	959893
588.348	1071056
588.360	1091598
588.402	1199004
588.431	1267503
588.456	1341707
588.503	1475788
588.510	1501546
588.564	1673803
588.575	1704953
588.617	1857415
588.646	1955119
588.671	2040403
588.718	2189864
588.725	2212227
588.778	2336392
588.789	2354056
588.832	2327962
588.861	2286644
588.886	2145436
588.932	1829301
588.939	1786474
588.993	1389254
589.004	1322855
589.047	1664828
589.075	1906074
589.100	2118621
589.147	2455380
589.154	2473161
589.207	2536281
589.218	2542062
589.261	2507415
589.290	2479326
589.314	2479454
589.361	2470593
589.368	2480020
589.421	2506778
589.433	2505828
589.475	2428804
589.504	2353810
589.528	2165023
589.576	1733939
589.582	1743465
589.635	1824850
589.647	1845529
589.689	2231756
589.718	2465498
589.742	2464917
589.790	2428065
589.795	2414895
589.849	2216230
589.861	2163802
589.902	2001810
589.932	1871085
589.955	1788324
590.004	1593896
590.009	1584542
590.062	1415284
590.075	1368404
590.115	1265510
590.146	1176776
590.168	1136429
590.218	1031949
590.222	1029794
590.275	945276
590.289	919381
590.328	870182
590.360	823178
590.381	803015
590.431	744331
590.435	744586
590.488	693693
590.503	676437
590.541	649278
590.574	620728
590.594	609772
590.645	572029
590.647	573281
590.700	538809
590.716	526018
590.753	511686
590.787	494066
590.806	487611
590.859	461424
590.859	463207
590.912	443312
590.930	435003
590.965	424165
591.001	409204
591.018	405634
591.071	389392
591.072	387443
591.124	377527
591.143	371649
591.177	365303
591.214	355003
591.230	353621
591.283	343591
591.285	341585
591.336	330484
591.356	323935
591.389	318613
591.427	309021
591.442	308439
591.495	300857
591.498	298883
591.547	292119
591.569	287119
591.600	284020
591.640	276712
591.653	276310
591.706	269253
591.711	267207
591.759	264999
591.782	261985
591.811	260877
591.853	256158
591.864	256204
591.917	250378
591.924	248307
591.969	243239
591.995	238560
592.022	237891
592.066	233725
592.075	234214
592.127	230308
592.137	228475
592.180	229884
592.208	229006
592.233	227064
592.279	220047
592.285	220294
592.338	213480
592.350	210885
592.390	208141
592.421	204338
592.443	204295
592.491	200992
592.495	201818
592.548	199697
592.562	198131
592.600	197090
592.633	194411
592.653	193966
592.704	189238
592.705	190277
592.775	187007
592.846	181999
592.916	181225
592.987	177052
593.058	173329
593.128	167419
593.199	164927
593.270	160471
593.341	157839
593.411	154631
593.482	152527
593.553	149799
593.623	146903
593.694	144506
593.764	143599
593.835	141096
593.906	136932
593.976	135029
594.047	135205
594.117	136422
594.188	138310
594.258	128815
594.329	125539
594.399	122833
594.470	121878
594.540	120608
594.611	119323
594.681	117205
594.751	115274
594.822	114941
594.892	116531
594.963	116987
595.033	115929
595.103	113813
595.174	113947
595.244	119306
595.314	133011
595.384	116354
595.455	107193
595.525	106757
595.595	108614
595.665	105083
595.736	104940
595.806	103193
595.876	103286
595.946	100480
596.016	99608
596.087	99964
596.157	100773
596.227	99254
596.297	99599
596.367	100483
596.437	101579
596.507	105660
596.577	116939
596.647	104747
596.717	97571
596.787	95188
596.857	96471
596.927	94494
596.997	95558
597.067	94389
597.137	99499
597.207	101165
597.277	95634
597.347	95042
597.417	93460
597.487	92275
597.557	94194
597.626	93739
597.696	94054
597.766	98109
597.836	104900
597.906	100227
597.975	89692
598.045	88154
598.115	88075
598.185	87757
598.254	89662
598.324	90840
598.394	91557
598.464	91842
598.533	88977
598.603	87373
598.672	87274
598.742	87986
598.812	87278
598.881	86028
598.951	85756
599.020	84696
599.090	84561
599.159	85814
599.229	84858
599.299	82708
599.368	84148
599.437	83434
599.507	83110
599.576	83413
599.646	84879
599.715	89744
599.785	83483
599.854	82208
599.924	85149
599.993	85123
600.062	84232
600.132	83291
600.201	84003
600.270	86424
600.340	86380
600.409	85637
600.478	85645
600.547	84909
600.617	86124
600.686	85541
600.755	84071
600.824	81682
600.894	82391
600.963	82347
601.032	79783
601.101	80644
601.170	80670
601.239	80043
601.308	82335
601.378	82424
601.447	82384
601.516	81479
601.585	84355
601.654	84425
601.723	84255
601.792	83149
601.861	87764
601.930	93071
601.999	93846
602.068	86678
602.137	85350
602.206	87407
602.275	87457
602.343	89657
602.412	90169
602.481	86961
602.550	86230
602.619	87224
602.688	88206
602.756	86971
602.825	87522
602.894	85475
602.963	87230
603.032	87111
603.100	87882
603.169	85464
603.238	87245
603.307	86511
603.375	83956
603.444	86721
603.513	85706
603.581	83759
603.650	86342
603.719	83206
603.787	77266
603.856	76314
603.924	77919
603.993	81201
604.061	79724
604.130	80402
604.198	81322
604.267	81980
604.335	81089
604.404	81254
604.472	83032
604.541	82930
604.609	83102
604.678	85685
604.746	85991
604.815	88792
604.883	87157
604.951	84187
605.020	85334
605.088	84772
605.156	80438
605.225	79785
605.293	78572
605.361	80407
605.429	80016
605.498	81112
605.566	80327
605.634	79948
605.702	82486
605.771	80005
605.839	82972
605.907	78017
605.975	79287
606.043	80084
606.111	76779
606.180	80228
606.248	86042
606.316	89591
606.384	83409
606.452	81623
606.520	72793
606.588	70152
606.656	64590
606.724	63918
606.792	62359
606.860	60378
606.928	58630
606.996	56575
607.064	56435
607.132	56089
607.200	56099
607.267	58691
607.335	57925
607.403	57814
607.471	59781
607.539	58513
607.607	58063
607.674	55312
607.742	55657
607.810	56001
607.878	56202
607.946	55540
608.013	56209
608.081	56460
608.149	57850
608.216	55622
608.284	57436
608.352	56371
608.419	58495
608.487	62791
608.555	63190
608.622	56166
608.690	56753
608.757	58643
608.825	58553
608.893	58866
608.960	61125
609.028	65923
609.095	64798
609.163	62896
609.230	55507
609.298	55099
609.365	53307
609.432	54990
609.500	57295
609.567	60597
609.635	64535
609.702	64876
609.769	64975
609.837	64296
609.904	61122
609.971	60364
610.039	65568
610.106	76848
610.173	107827
610.241	197378
610.308	316074
610.375	266732
610.442	118253
610.509	73867
610.577	62211
610.644	59114
610.711	58665
610.778	58142
610.845	58684
610.912	60140
610.980	64395
611.047	76753
611.114	78068
611.181	60364
611.248	56215
611.315	57054
611.382	56899
611.449	56988
611.516	57705
611.583	57085
611.650	56876
611.717	58079
611.784	59079
611.851	59102
611.918	62596
611.984	67010
612.051	75382
612.118	109092
612.185	219997
612.252	316390
612.319	111335
612.386	70622
612.452	64704
612.519	63704
612.586	69045
612.653	70444
612.719	61961
612.786	61605
612.853	58352
612.919	55348
612.986	57978
613.053	56885
613.120	55155
613.186	53673
613.253	54617
613.319	52747
613.386	54038
613.453	52950
613.519	57539
613.586	59041
613.652	71826
613.719	66839
613.785	63866
613.852	56038
613.918	54665
613.985	55152
614.051	62118
614.118	81867
614.184	110992
614.250	66307
614.317	54361
614.383	54400
614.449	53282
614.516	53372
614.582	54254
614.648	54888
614.715	53743
614.781	53657
614.847	56366
614.914	57304
614.980	58483
615.046	57558
615.112	57227
615.179	62075
615.245	70770
615.311	86921
615.377	139039
615.443	223975
615.509	177847
615.575	108809
615.642	82617
615.708	76446
615.774	77615
615.840	86235
615.906	103752
615.972	148130
616.038	272057
616.104	462041
616.170	487354
616.236	565150
616.302	224221
616.368	111380
616.434	91337
616.500	78643
616.565	75428
616.631	76619
616.697	74533
616.763	71623
616.829	74927
616.895	92420
616.961	110799
617.026	91453
617.092	68113
617.158	62822
617.224	61389
617.289	60375
617.355	59427
617.421	60270
617.487	60959
617.552	57564
617.618	55537
617.684	53872
617.749	57275
617.815	54099
617.880	54542
617.946	54551
618.012	55963
618.077	57489
618.143	55445
618.208	55798
618.274	58245
618.339	58900
618.405	57789
618.470	54761
618.536	56572
618.601	59616
618.667	61705
618.732	58111
618.798	56446
618.863	54574
618.928	55423
618.994	56822
619.059	57960
619.124	64884
619.190	65740
619.255	56661
619.320	55975
619.386	55003
619.451	54437
619.516	53946
619.581	54337
619.647	55302
619.712	55531
619.777	55418
619.842	54172
619.907	56353
619.972	55249
620.038	55662
620.103	56407
620.168	53610
620.233	53533
620.298	53390
620.363	52603
620.428	53697
620.493	54479
620.558	53566
620.623	54821
620.688	53824
620.753	54522
620.818	53920
620.883	54751
620.948	53668
621.013	54305
621.078	54704
621.143	55856
621.207	56814
621.272	56441
621.337	58489
621.402	60024
621.467	63413
621.532	74333
621.596	66398
621.661	61792
621.726	59336
621.791	59556
621.855	60457
621.920	63094
621.985	62888
622.049	63815
622.114	63590
622.179	63871
622.243	65916
622.308	67408
622.373	65153
622.437	66476
622.502	64154
622.566	62829
622.631	63356
622.695	65462
622.760	63970
622.824	64551
622.889	64451
622.953	66477
623.018	71305
623.082	82862
623.147	67956
623.211	64867
623.276	62610
623.340	64083
623.404	60695
623.469	61645
623.533	61253
623.597	60332
623.662	60148
623.726	60961
623.790	58853
623.854	58883
623.919	60037
623.983	59281
624.047	60029
624.111	58643
624.176	58450
624.240	61418
624.304	66378
624.368	60498
624.432	58239
624.496	59168
624.560	59954
624.625	62181
624.689	60035
624.753	59616
624.817	57519
624.881	57796
624.945	55181
625.009	55868
625.073	56008
625.137	56895
625.201	61870
625.265	66526
625.329	58205
625.393	57241
625.456	56989
625.520	56817
625.584	58990
625.648	62984
625.712	71378
625.776	112053
625.839	155276
625.903	115759
625.967	59177
626.031	66605
626.095	96120
626.158	76601
626.222	52045
626.286	49468
626.349	49892
626.413	48892
626.477	50475
626.540	49519
626.604	47119
626.668	48707
626.731	46939
626.795	48980
626.858	50304
626.922	48563
626.986	47910
627.049	46424
627.113	46940
627.176	45210
627.240	46069
627.303	46228
627.366	46673
627.430	47070
627.493	46478
627.557	47433
627.620	47699
627.684	46811
627.747	46538
627.810	46620
627.874	44640
627.937	43446
628.000	44986
628.064	47295
628.127	42661
628.190	42994
628.253	43746
628.317	42675
628.380	42815
628.443	42991
628.506	43076
628.569	41851
628.632	40148
628.696	39791
628.759	41442
628.822	40640
628.885	39525
628.948	39789
629.011	39768
629.074	40398
629.137	39480
629.200	38736
629.263	41018
629.326	39379
629.389	37513
629.452	39092
629.515	39566
629.578	38517
629.641	39138
629.704	40179
629.767	41556
629.830	40162
629.892	38992
629.955	38591
630.018	39284
630.081	38130
630.144	41486
630.207	40707
630.269	39939
630.332	38880
630.395	40181
630.458	37322
630.520	35886
630.583	36617
630.646	35279
630.708	34918
630.771	35254
630.834	36325
630.896	35434
630.959	34701
631.021	33815
631.084	35156
631.146	35362
631.209	37773
631.272	35750
631.334	34780
631.397	33651
631.459	33809
631.522	34078
631.584	34570
631.646	35208
631.709	33941
631.771	36521
631.834	36838
631.896	34851
631.958	32987
632.021	32898
632.083	32911
632.145	33988
632.208	33647
632.270	32751
632.332	32148
632.395	31903
632.457	34023
632.519	32800
632.581	32719
632.643	31395
632.706	33085
632.768	30909
632.830	31810
632.892	30519
632.954	31942
633.016	33058
633.078	31200
633.141	31452
633.203	31549
633.265	31773
633.327	31013
633.389	31511
633.451	32679
633.513	34328
633.575	35344
633.637	32781
633.698	33449
633.760	32171
633.822	31815
633.884	30529
633.946	30245
634.008	30689
634.070	32528
634.132	34137
634.193	35900
634.255	30393
634.317	30342
634.379	29585
634.441	30522
634.502	30139
634.564	28854
634.626	27978
634.687	30256
634.749	29295
634.811	29639
634.873	27354
634.934	28786
634.996	28463
635.057	29394
635.119	27946
635.181	29141
635.242	28171
635.304	27143
635.365	28881
635.427	28668
635.488	28779
635.550	27796
635.611	28182
635.673	28182
635.734	29262
635.796	29758
635.857	28884
635.918	28558
635.980	29121
636.041	29196
636.102	28886
636.164	28806
636.225	28705
636.286	27566
636.348	28317
636.409	27089
636.470	26789
636.531	27761
636.593	27670
636.654	30176
636.715	26627
636.776	25504
636.838	25707
636.899	26814
636.960	26363
637.021	26808
637.082	25297
637.143	26431
637.204	25131
637.265	25347
637.326	25270
637.387	25447
637.448	24687
637.509	24818
637.570	24978
637.631	25671
637.692	25014
637.753	24417
637.814	23824
637.875	24395
637.936	24984
637.997	24806
638.058	24541
638.119	25611
638.179	24108
638.240	24150
638.301	25020
638.362	24106
638.423	24660
638.483	24679
638.544	23346
638.605	24917
638.666	22602
638.726	24287
638.787	24593
638.848	24441
638.908	23374
638.969	24131
639.030	24435
639.090	22708
639.151	22910
639.211	24278
639.272	25280
639.332	30295
639.393	30511
639.453	23788
639.514	22831
639.574	22196
639.635	22396
639.695	22735
639.756	21771
639.816	23326
639.877	22685
639.937	26474
639.997	33302
640.058	26758
640.118	22855
640.178	22934
640.239	21690
640.299	21809
640.359	21825
640.420	22053
640.480	20930
640.540	21746
640.600	20693
640.661	22546
640.721	20828
640.781	24631
640.841	24157
640.901	23398
640.961	21329
641.021	21549
641.082	22162
641.142	24655
641.202	25501
641.262	20972
641.322	20939
641.382	21092
641.442	21606
641.502	21007
641.562	21259
641.622	20977
641.682	21280
641.742	20902
641.802	20508
641.861	21644
641.921	20901
641.981	21983
642.041	21619
642.101	23215
642.161	23856
642.221	20133
642.280	19507
642.340	18563
642.400	18875
642.460	21105
642.519	20407
642.579	20289
642.639	20139
642.698	19648
642.758	22349
642.818	20429
642.877	20812
642.937	21344
642.997	20494
643.056	24748
643.116	23222
643.175	21799
643.235	18560
643.294	20608
643.354	20886
643.414	21259
643.473	21124
643.532	21965
643.592	23149
643.651	26738
643.711	32395
643.770	47601
643.830	82353
643.889	219987
643.948	172449
644.008	33162
644.067	23227
644.126	20511
644.186	19931
644.245	19844
644.304	17868
644.363	19407
644.423	18785
644.482	18554
644.541	18431
644.600	17935
644.659	20056
644.719	19242
644.778	21461
644.837	23172
644.896	28745
644.955	47461
645.014	48895
645.073	26765
645.132	22012
645.191	20011
645.250	19825
645.309	18816
645.368	18431
645.427	19267
645.486	19270
645.545	24062
645.604	21298
645.663	18069
645.722	17754
645.781	17961
645.840	18669
645.898	18413
645.957	20555
646.016	21928
646.075	28843
646.134	40821
646.192	72392
646.251	181647
646.310	88112
646.369	24263
646.427	19886
646.486	18115
646.545	17497
646.603	18269
646.662	18287
646.721	17503
646.779	16555
646.838	15850
646.896	17302
646.955	18182
647.014	18369
647.072	21354
647.131	30621
647.189	37328
647.248	17761
647.306	16884
647.365	17239
647.423	16145
647.481	17113
647.540	15297
647.598	16680
647.657	16068
647.715	15994
647.773	15822
647.832	15395
647.890	15462
647.948	16295
648.007	17147
648.065	15359
648.123	16156
648.181	18002
648.240	18546
648.298	22018
648.356	17543
648.414	16888
648.472	16356
648.531	17818
648.589	16088
648.647	15952
648.705	15877
648.763	16212
648.821	15825
648.879	15256
648.937	17436
648.995	16188
649.053	16285
649.111	17636
649.169	20411
649.227	25264
649.285	32023
649.343	66066
649.401	94608
649.459	35314
649.516	37128
649.574	22707
649.632	28034
649.690	44769
649.748	31155
649.806	25570
649.863	43183
649.921	36109
649.979	34952
650.037	18845
650.094	15336
650.152	15530
650.210	14855
650.268	15736
650.325	15444
650.383	16183
650.440	15036
650.498	15092
650.556	14382
650.613	14246
650.671	14669
650.728	13648
650.786	14809
650.843	15282
650.901	13539
650.958	14780
651.016	14537
651.073	14475
651.131	14277
651.188	13855
651.246	15121
651.303	14169
651.360	14022
651.418	12893
651.475	14793
651.532	13209
651.590	14089
651.647	14217
651.704	13633
651.762	14201
651.819	14078
651.876	13855
651.933	13846
651.990	14155
652.048	13428
652.105	13334
652.162	13702
652.219	13512
652.276	13572
652.333	14177
652.390	12388
652.448	14047
652.505	13391
652.562	13909
652.619	15420
652.676	18163
652.733	25613
652.790	16346
652.847	12025
652.904	13429
652.961	13067
653.017	12687
653.074	13250
653.131	13477
653.188	12324
653.245	12534
653.302	12596
653.359	12675
653.415	13538
653.472	12493
653.529	13305
653.586	12642
653.642	13019
653.699	12868
653.756	11953
653.813	12372
653.869	12818
653.926	12193
653.983	12015
654.039	12347
654.096	12523
654.152	13693
654.209	12174
654.266	11751
654.322	11736
654.379	14491
654.435	14298
654.492	13427
654.548	14474
654.605	19304
654.661	18297
654.717	12906
654.774	13505
654.830	12994
654.887	12531
654.943	13162
655.000	13942
655.056	13116
655.112	13237
655.168	12045
655.225	13896
655.281	14174
655.337	12859
655.394	17071
655.450	19384
655.506	15575
655.562	16552
655.618	20338
655.675	13600
655.731	12704
655.787	12850
655.843	12657
655.899	11845
655.955	12697
656.011	12584
656.067	11723
656.123	12790
656.179	13264
656.235	13094
656.291	12306
656.347	13590
656.403	12388
656.459	13167
656.515	13310
656.571	13595
656.627	13436
656.683	12407
656.739	14071
656.795	13230
656.850	12445
656.906	13590
656.962	13505
657.018	12753
657.074	11488
657.129	13016
657.185	13038
657.241	12856
657.297	13507
657.352	13192
657.408	11871
657.464	13972
657.519	13245
657.575	12491
657.630	11487
657.686	11772
657.742	11529
657.797	12856
657.853	11838
657.908	13586
657.964	12351
658.019	12135
658.075	12333
658.130	12590
658.186	11580
658.241	12485
658.297	11025
658.352	11052
658.407	12776
658.463	11347
658.518	12072
658.573	12533
658.629	11402
658.684	11696
658.739	12302
658.795	10681
658.850	11512
658.905	11502
658.960	11973
659.016	11812
659.071	10837
659.126	11962
659.181	11832
659.236	13892
659.291	16174
659.346	14466
659.401	13762
659.457	14875
659.512	18324
659.567	18269
659.622	12536
659.677	11979
659.732	11515
659.787	11746
659.842	12054
659.897	14105
659.952	12844
660.007	10800
660.061	11419
660.116	11461
660.171	11423
660.226	11279
660.281	11336
660.336	10536
660.391	11595
660.445	10886
660.500	12297
660.555	11821
660.610	10235
660.664	13084
660.719	11255
660.774	11602
660.828	11866
660.883	12384
660.938	11565
660.992	10035
661.047	11302
661.101	11121
661.156	10513
661.211	11807
661.265	10741
661.320	10550
661.374	11072
661.429	11515
661.483	11510
661.538	11216
661.592	10483
661.647	10915
661.701	12252
661.755	12379
661.810	11604
661.864	11618
661.919	11259
661.973	11716
662.027	11473
662.081	10754
662.136	11074
662.190	10882
662.244	11695
662.299	12033
662.353	10851
662.407	11132
662.461	10893
662.515	12132
662.569	12236
662.624	13071
662.678	10933
662.732	11385
662.786	11231
662.840	11704
662.894	12269
662.948	10133
663.002	10824
663.056	11131
663.110	10887
663.164	10589
663.218	11094
663.272	11110
663.326	11101
663.380	10610
663.434	12054
663.488	11198
663.542	11604
663.595	12056
663.649	10127
663.703	12078
663.757	10689
663.811	11557
663.864	10902
663.918	10518
663.972	9783
664.026	11322
664.079	10019
664.133	11549
664.187	10549
664.240	10821
664.294	10599
664.348	11366
664.401	11376
664.455	11470
664.508	9661
664.562	11437
664.615	10569
664.669	10488
664.722	10073
664.776	9993
664.829	10842
664.883	11435
664.936	10986
664.990	11963
665.043	10861
665.097	11246
665.150	13329
665.203	12471
665.257	11600
665.310	12447
665.363	11214
665.417	11663
665.470	12183
665.523	11406
665.576	11728
665.630	11496
665.683	11420
665.736	12126
665.789	11770
665.842	11294
665.895	10821
665.949	12065
666.002	10489
666.055	11163
666.108	11886
666.161	12130
666.214	11881
666.267	12257
666.320	12219
666.373	12993
666.426	11383
666.479	10591
666.532	10882
666.585	11408
666.638	12809
666.691	11997
666.744	12420
666.796	12624
666.849	11847
666.902	12195
666.955	11127
667.008	10959
667.060	10638
667.113	10496
667.166	10498
667.219	10887
667.271	10904
667.324	10786
667.377	11153
667.430	11774
667.482	12752
667.535	14685
667.587	12207
667.640	12103
667.693	11556
667.745	13334
667.798	15267
667.850	12774
667.903	11543
667.955	11562
668.008	11221
668.060	12770
668.113	13272
668.165	13457
668.218	13190
668.270	12222
668.322	11930
668.375	12060
668.427	11393
668.479	12041
668.532	11653
668.584	12397
668.636	11731
668.689	12201
668.741	11758
668.793	11950
668.845	12334
668.898	12760
668.950	11413
669.002	11809
669.054	11438
669.106	11056
669.158	13286
669.211	12880
669.263	12975
669.315	12775
669.367	15151
669.419	15157
669.471	14074
669.523	12907
669.575	14780
669.627	15460
669.679	13726
669.731	12597
669.783	13483
669.835	13225
669.886	13032
669.938	14132
669.990	12188
670.042	13997
670.094	14660
670.146	15506
670.197	15997
670.249	18568
670.301	22484
670.353	26565
670.404	34534
670.456	46152
670.508	67130
670.560	102255
670.611	161386
670.663	268775
670.715	490950
670.766	909685
670.818	802812
670.869	241146
670.921	82744
670.972	49546
671.024	36682
671.075	27778
671.127	24750
671.178	20426
671.230	18427
671.281	16933
671.333	15873
671.384	15323
671.436	15679
671.487	15781
671.538	14729
671.590	15517
671.641	15978
671.692	15094
671.744	19131
671.795	22064
671.846	16840
671.897	14250
671.949	13320
672.000	12621
672.051	12444
672.102	13719
672.153	11573
672.204	11779
672.256	12209
672.307	11527
672.358	12394
672.409	12214
672.460	11120
672.511	11137
672.562	11129
672.613	12423
672.664	11069
672.715	10575
672.766	10980
672.817	11316
672.868	10119
672.919	11265
672.970	10189
673.021	11556
673.071	10495
673.122	10604
673.173	10555
673.224	10210
673.275	10455
673.326	10422
673.376	10447
673.427	9567
673.478	9860
673.528	10628
673.579	9634
673.630	10956
673.680	10330
673.731	10168
673.782	10215
673.832	10367
673.883	10872
673.934	8952
673.984	9715
674.035	9480
674.085	9528
674.136	10372
674.186	10141
674.237	11470
674.287	12274
674.338	12956
674.388	10592
674.438	9812
674.489	9566
674.539	10107
674.589	9985
674.640	10714
674.690	10506
674.740	9531
674.791	11327
674.841	9863
674.891	11000
674.942	10344
674.992	9261
675.042	9590
675.092	9305
675.142	9343
675.193	8623
675.243	9198
675.293	9042
675.343	10349
675.393	9399
675.443	10850
675.493	9179
675.543	9319
675.593	10001
675.643	10250
675.693	9784
675.743	9897
675.793	10032
675.843	8919
675.893	9410
675.943	9648
675.993	8916
676.043	9564
676.093	10147
676.142	9081
676.192	8978
676.242	8651
676.292	8036
676.341	8706
676.391	9676
676.441	8565
676.491	9042
676.540	8873
676.590	8241
676.640	9093
676.689	8250
676.739	7948
676.789	8520
676.838	6989
676.888	8673
676.937	8942
676.987	8600
677.037	7969
677.086	8550
677.136	8765
677.185	8544
677.235	8404
677.284	7629
677.333	8605
677.383	8152
677.432	7747
677.482	7340
677.531	7846
677.580	7449
677.630	7906
677.679	7865
677.728	8190
677.778	8020
677.827	7790
677.876	8552
677.925	6934
677.975	7226
678.024	8697
678.073	7960
678.122	8397
678.171	8525
678.220	8318
678.269	8528
678.319	9193
678.368	8335
678.417	8728
678.466	8373
678.515	9063
678.564	8350
678.613	9329
678.662	8361
678.711	8417
678.760	9330
678.809	8330
678.857	8107
678.906	8836
678.955	8247
679.004	8277
679.053	7815
679.102	8526
679.151	8509
679.199	8254
679.248	7823
679.297	8239
679.346	8142
679.394	7871
679.443	8290
679.492	8531
679.540	8045
679.589	8295
679.638	8247
679.686	7661
679.735	7111
679.784	8028
679.832	7526
679.881	8164
679.929	6941
679.978	7171
680.026	7386
680.075	7253
680.123	6552
680.172	7648
680.220	6641
680.268	8048
680.317	6460
680.365	7491
680.414	7281
680.462	7383
680.510	7366
680.559	7738
680.607	7259
680.655	7656
680.703	7009
680.752	8271
680.800	6881
680.848	6764
680.896	7354
680.945	6840
680.993	7162
681.041	6906
681.089	6603
681.137	6545
681.185	6054
681.233	7601
681.258	6978
681.281	6367
681.329	7758
681.377	7102
681.380	7122
681.425	7087
681.473	7549
681.502	7563
681.521	7540
681.569	8238
681.617	7344
681.624	7357
681.665	7256
681.713	8208
681.745	7937
681.761	7781
681.809	7737
681.857	8386
681.867	8236
681.904	7628
681.952	7564
681.989	7972
682.000	8067
682.048	7922
682.096	8108
682.111	7952
682.143	7559
682.191	7448
682.233	8081
682.239	8151
682.286	7363
682.334	6910
682.354	7152
682.382	7466
682.430	8224
682.476	8288
682.477	8270
682.525	7461
682.572	7279
682.598	7485
682.620	7613
682.667	7214
682.715	7905
682.720	7947
682.763	8256
682.810	7767
682.841	7807
682.857	7769
682.905	7896
682.952	7548
682.963	7408
683.000	6892
683.047	8602
683.085	8887
683.095	8920
683.142	7744
683.190	7708
683.206	7896
683.237	8229
683.284	7576
683.328	7729
683.332	7728
683.379	7668
683.426	7293
683.449	7505
683.473	7659
683.521	8601
683.568	7581
683.571	7592
683.615	7535
683.662	8341
683.693	8194
683.709	8091
683.757	8574
683.804	7866
683.814	8000
683.851	8380
683.898	8637
683.936	8190
683.945	8069
683.992	8948
684.039	8771
684.057	8922
684.086	9087
684.133	8813
684.179	8907
684.180	8897
684.227	8492
684.274	9291
684.300	8818
684.321	8382
684.368	8259
684.415	8621
684.422	8648
684.462	8808
684.509	8136
684.543	8965
684.556	9240
684.603	8657
684.649	8275
684.665	8550
684.696	9085
684.743	8715
684.786	9314
684.790	9354
684.837	9159
684.883	9884
684.908	9930
684.930	10008
684.977	10462
685.023	9996
685.029	9983
685.070	9549
685.117	9444
685.150	9529
685.164	9601
685.210	10148
685.257	11004
685.272	10869
685.303	10518
685.350	9817
685.393	10638
685.396	10689
685.443	10690
685.490	10454
685.514	10639
685.536	10843
685.583	10907
685.629	10301
685.636	10327
685.675	10186
685.722	10037
685.757	10022
685.768	10069
685.815	10434
685.861	10634
685.878	10583
685.908	10469
685.954	11185
686.000	10633
686.000	10619
686.047	10773
686.093	11124
686.121	11939
686.139	12401
686.185	11213
686.232	11258
686.242	11134
686.278	10649
686.324	10469
686.363	11032
686.370	11119
686.416	10727
686.463	10659
686.484	10661
686.509	10726
686.555	11007
686.601	10634
686.606	10637
686.647	10561
686.693	10618
686.727	10343
686.739	10277
686.785	10829
686.831	10714
686.848	10903
686.877	11241
686.923	11226
686.969	11245
686.969	11243
687.015	10992
687.061	11276
687.090	10817
687.107	10602
687.153	10946
687.199	11039
687.211	11047
687.245	10995
687.291	11068
687.332	11242
687.336	11282
687.382	11136
687.428	11787
687.453	11451
687.474	10980
687.520	11622
687.565	11435
687.574	11243
687.611	10930
687.657	11517
687.695	11849
687.702	11841
687.748	12495
687.794	12364
687.816	12252
687.839	12234
687.885	12156
687.931	11535
687.937	11627
687.976	11953
688.022	11467
688.058	11654
688.067	11792
688.113	11748
688.158	12029
688.179	12022
688.204	11806
688.249	11199
688.295	12191
688.300	12159
688.340	12251
688.386	12563
688.421	12616
688.431	12618
688.477	12077
688.522	12942
688.542	12767
688.567	12454
688.613	12476
688.658	12219
688.663	12190
688.703	12097
688.749	12173
688.784	12397
688.794	12508
688.839	12691
688.884	12224
688.905	12316
688.930	12289
688.975	12449
689.020	12444
689.026	12405
689.065	12293
689.110	12259
689.146	12357
689.155	12399
689.201	12115
689.246	12456
689.267	12333
689.291	12242
689.336	12829
689.381	12469
689.388	12507
689.426	12820
689.471	12823
689.509	12860
689.516	12861
689.561	12554
689.606	12915
689.630	12885
689.651	12796
689.696	13022
689.741	12472
689.750	12453
689.785	12739
689.830	13120
689.871	13241
689.875	13246
689.920	13141
689.965	13182
689.992	13282
690.010	13346
690.054	13418
690.099	13284
690.112	13203
690.144	13205
690.189	13413
690.233	13488
690.233	13502
690.278	13473
690.323	13832
690.354	13728
690.367	13786
690.412	14252
690.457	14905
690.474	15071
690.501	15267
690.546	14935
690.590	15353
690.595	15371
690.635	15956
690.680	16617
690.716	17277
690.724	17674
690.769	19935
690.813	22271
690.836	23198
690.857	24956
690.902	28992
690.946	34562
690.957	35940
690.991	47670
691.035	64729
691.077	85140
691.080	86371
691.124	103055
691.168	109905
691.198	114771
691.213	106722
691.257	85124
691.301	64597
691.318	56982
691.346	50582
691.390	40061
691.434	29870
691.439	28712
691.478	26016
691.522	23175
691.559	20538
691.567	20370
691.611	19900
691.655	18897
691.680	18247
691.699	17964
691.743	17723
691.787	16754
691.800	16641
691.831	16687
691.875	16726
691.919	16645
691.921	16609
691.964	16325
692.008	16740
692.041	16423
692.052	16381
692.096	16513
692.139	16711
692.162	16731
692.183	16623
692.227	16312
692.271	16110
692.282	15989
692.315	15943
692.359	16259
692.402	15962
692.403	15985
692.447	15989
692.490	16065
692.523	16340
692.534	16493
692.578	16786
692.622	16957
692.643	16951
692.666	16748
692.709	16603
692.753	16686
692.763	16524
692.797	16479
692.840	16392
692.884	16784
692.884	16814
692.928	17008
692.971	17021
693.004	17232
693.015	17433
693.059	17910
693.102	18321
693.124	18391
693.146	18335
693.189	18576
693.233	18673
693.245	18672
693.276	19528
693.320	20885
693.363	21977
693.365	22001
693.407	24022
693.450	25235
693.485	26999
693.493	27879
693.537	31576
693.580	35734
693.605	38182
693.624	42529
693.667	52924
693.710	64033
693.725	68100
693.753	90384
693.797	126430
693.840	167056
693.845	171513
693.883	203269
693.926	227676
693.966	248974
693.970	244345
694.013	194914
694.056	146643
694.086	113929
694.099	106891
694.142	83986
694.185	61254
694.206	50598
694.229	47298
694.272	40708
694.315	34212
694.326	32473
694.358	30453
694.401	27845
694.444	25097
694.446	24912
694.487	24017
694.530	23202
694.566	22390
694.573	22264
694.616	21243
694.659	20163
694.686	19492
694.702	19368
694.745	18947
694.787	18457
694.806	18241
694.830	18377
694.873	18568
694.916	18601
694.926	18597
694.959	18359
695.002	17860
695.044	17554
695.046	17505
695.087	17646
695.130	17789
695.166	17685
695.172	17727
695.215	17969
695.258	18097
695.286	18347
695.301	18369
695.343	17872
695.386	17723
695.406	17486
695.428	17304
695.471	17184
695.514	16829
695.526	16745
695.556	17130
695.599	17524
695.641	17847
695.646	17844
695.684	17687
695.726	17637
695.766	17466
695.769	17472
695.811	17024
695.854	16521
695.886	16243
695.896	16333
695.938	16281
695.981	16418
696.005	16379
696.023	16359
696.065	16348
696.108	16465
696.125	16441
696.150	16797
696.192	17240
696.235	17578
696.245	17686
696.277	17741
696.319	17674
696.361	17641
696.365	17597
696.404	18188
696.446	18840
696.485	19384
696.488	19408
696.530	19027
696.572	18906
696.604	18527
696.614	18476
696.656	18325
696.698	18007
696.724	17888
696.740	17850
696.783	17482
696.825	17293
696.844	17111
696.867	17169
696.909	17197
696.951	17247
696.964	17211
696.992	17237
697.034	17253
697.076	17333
697.083	17281
697.118	17174
697.160	17039
697.202	17048
697.203	17008
697.244	17013
697.286	16848
697.323	16757
697.327	16796
697.369	16745
697.411	16721
697.442	16635
697.453	16722
697.494	16930
697.536	17110
697.562	17275
697.578	17301
697.620	17102
697.661	16897
697.682	16803
697.703	16836
697.744	16831
697.786	16772
697.801	16720
697.828	17031
697.869	17384
697.911	17791
697.921	17867
697.952	17790
697.994	17506
698.035	17277
698.040	17204
698.077	17037
698.118	16870
698.160	16644
698.160	16603
698.201	16915
698.243	17199
698.279	17395
698.284	17417
698.325	17265
698.367	17081
698.399	16893
698.408	16931
698.449	16925
698.491	16920
698.518	16867
698.532	16979
698.573	17219
698.614	17455
698.638	17536
698.656	17558
698.697	17523
698.738	17489
698.757	17424
698.779	17488
698.820	17554
698.862	17596
698.877	17571
698.903	17568
698.944	17497
698.985	17429
698.996	17369
699.026	17721
699.067	18154
699.116	18629
699.235	18549
699.354	17360
699.474	18030
699.593	18613
699.713	18216
699.832	17421
699.951	18752
700.070	17704
700.190	17316
700.309	17611
700.428	17346
700.547	18638
700.667	17004
700.786	18030
700.905	17836
701.024	16105
701.143	17366
701.262	16045
701.381	15875
701.500	16956
701.619	17032
701.738	16585
701.857	16422
701.976	16514
702.095	16159
702.214	16752
702.333	16950
702.452	17247
702.571	16067
702.690	16452
702.809	16335
702.928	15709
703.047	16276
703.165	17048
703.284	15889
703.403	15916
703.522	16742
703.640	16247
703.759	17154
703.878	18879
703.997	17156
704.115	16326
704.234	15625
704.353	16042
704.471	15764
704.590	15718
704.708	15796
704.827	15840
704.946	15720
705.064	16674
705.183	16181
705.301	16634
705.420	21314
705.538	23066
705.656	20582
705.775	19361
705.893	25660
706.012	43352
706.130	24010
706.249	20058
706.367	19724
706.485	19113
706.604	19645
706.722	19440
706.840	19784
706.958	21352
707.077	20548
707.195	18675
707.313	18882
707.431	18816
707.549	17478
707.668	18034
707.786	17399
707.904	17960
708.022	17714
708.140	17067
708.258	17254
708.376	17895
708.494	17626
708.612	18494
708.730	21347
708.848	25242
708.966	21624
709.084	21665
709.202	20785
709.320	22118
709.438	21775
709.556	21175
709.674	20702
709.791	21585
709.909	21356
710.027	20608
710.145	20901
710.263	21124
710.380	19969
710.498	20930
710.616	19892
710.733	19448
710.851	20090
710.969	20551
711.086	19843
711.204	20352
711.322	19106
711.439	19404
711.557	19768
711.674	19048
711.792	19223
711.909	20428
712.027	22574
712.144	20232
712.262	18674
712.379	19910
712.497	23265
712.614	28762
712.732	24902
712.849	22546
712.966	21985
713.084	24687
713.201	23502
713.318	23837
713.436	23672
713.553	23007
713.670	23385
713.787	22830
713.905	24055
714.022	21749
714.139	21386
714.256	22282
714.373	22769
714.490	23890
714.608	25740
714.725	43093
714.842	87452
714.959	31494
715.076	22203
715.193	20428
715.310	19470
715.427	20653
715.544	19987
715.661	20223
715.778	20102
715.895	22024
716.011	21855
716.128	21615
716.245	20236
716.362	20742
716.479	21716
716.596	20764
716.713	20592
716.829	19235
716.946	19960
717.063	19756
717.180	19614
717.296	18820
717.413	19116
717.530	18818
717.646	19298
717.763	19482
717.880	18274
717.996	17736
718.113	18671
718.229	17639
718.346	17161
718.462	16989
718.579	18076
718.695	20263
718.812	20522
718.928	19305
719.045	19301
719.161	18094
719.277	17442
719.394	17989
719.510	16998
719.626	17560
719.743	19491
719.859	19208
719.975	19002
720.092	22608
720.208	39492
720.324	28180
720.440	18008
720.557	17964
720.673	19451
720.789	22935
720.905	31285
721.021	30908
721.137	17977
721.253	18090
721.369	17569
721.486	17311
721.602	19872
721.718	18262
721.834	16365
721.950	16220
722.066	16308
722.181	16244
722.297	16520
722.413	15800
722.529	16128
722.645	15493
722.761	15866
722.877	15306
722.993	15714
723.108	16630
723.224	15859
723.340	16491
723.456	15321
723.571	15075
723.687	15102
723.803	14883
723.918	14753
724.034	14828
724.150	15752
724.265	14703
724.381	17850
724.497	25004
724.612	16354
724.728	15477
724.843	14198
724.959	14728
725.074	17730
725.190	23303
725.305	15670
725.421	13902
725.536	14473
725.651	13216
725.767	14929
725.882	13219
725.997	12779
726.113	14032
726.228	13809
726.343	14104
726.459	13476
726.574	13098
726.689	13623
726.804	13014
726.920	14208
727.035	13256
727.150	14023
727.265	12615
727.380	14048
727.495	13520
727.610	13443
727.725	13005
727.841	14930
727.956	18928
728.071	25130
728.186	13016
728.301	12489
728.416	12822
728.531	13235
728.645	12571
728.760	12576
728.875	12581
728.990	12836
729.105	13101
729.220	12463
729.335	13370
729.449	12834
729.564	12447
729.679	11531
729.794	12353
729.908	12124
730.023	12887
730.138	12216
730.253	11603
730.367	12216
730.482	12245
730.596	11853
730.711	12582
730.826	13015
730.940	11470
731.055	11873
731.169	12652
731.284	11582
731.398	11140
731.513	12805
731.627	12357
731.742	11728
731.856	13910
731.970	11803
732.085	11434
732.199	12955
732.313	12529
732.428	13649
732.542	18770
732.656	21723
732.771	13091
732.885	11617
732.999	11967
733.113	11480
733.227	11562
733.342	11912
733.456	11897
733.570	11187
733.684	11507
733.798	11084
733.912	11159
734.026	10317
734.140	11227
734.254	10062
734.368	12911
734.482	16436
734.596	12670
734.710	10489
734.824	10952
734.938	10493
735.052	11433
735.166	12008
735.280	11630
735.393	10799
735.507	10652
735.621	11981
735.735	13257
735.849	12777
735.962	10729
736.076	10559
736.190	12065
736.303	10911
736.417	14332
736.531	12182
736.644	11103
736.758	10999
736.872	10534
736.985	10403
737.099	10814
737.212	10368
737.326	10476
737.439	10183
737.553	10078
737.666	10636
737.780	10719
737.893	10318
738.007	10348
738.120	10221
738.233	9596
738.347	10193
738.460	10586
738.573	10490
738.687	10300
738.800	10890
738.913	10693
739.026	11153
739.140	10230
739.253	11491
739.366	11108
739.479	9960
739.592	9641
739.705	10236
739.818	10523
739.932	10717
740.045	10980
740.158	9466
740.271	11078
740.384	10976
740.497	10204
740.610	11350
740.723	10850
740.836	11341
740.949	10923
741.062	11554
741.174	11527
741.287	10780
741.400	10103
741.513	10557
741.626	10510
741.739	10912
741.851	10283
741.964	10078
742.077	9928
742.189	10358
742.302	10989
742.415	11260
742.527	10702
742.640	10019
742.753	10973
742.865	10640
742.978	10124
743.090	9820
743.203	10156
743.316	10463
743.428	10289
743.541	10342
743.653	9954
743.766	10579
743.878	10461
743.990	10532
744.103	12256
744.215	10689
744.327	10698
744.440	11274
744.552	12116
744.664	11249
744.777	10633
744.889	9654
745.001	10428
745.113	9366
745.226	9667
745.338	10612
745.450	10907
745.562	10509
745.674	10588
745.786	10161
745.898	10867
746.010	10636
746.122	10515
746.234	10100
746.347	10349
746.459	9954
746.570	10977
746.682	10040
746.794	11712
746.906	11482
747.018	10149
747.130	10171
747.242	9867
747.354	10234
747.466	10735
747.577	10115
747.689	10021
747.801	11080
747.913	9267
748.024	10026
748.136	10030
748.248	10540
748.359	11224
748.471	10432
748.583	10128
748.694	10317
748.806	12433
748.918	12143
749.029	11229
749.141	10145
749.252	11298
749.364	10665
749.475	11973
749.587	12499
749.698	11659
749.809	10369
749.921	10670
750.032	10350
750.144	10105
750.255	10631
750.366	10324
750.478	10075
750.589	11382
750.700	11005
750.811	11216
750.923	11464
751.034	12406
751.145	14207
751.256	11149
751.367	11695
751.479	11382
751.590	10660
751.701	11097
751.812	11076
751.923	10682
752.034	11279
752.145	10680
752.256	10928
752.367	11219
752.478	11095
752.589	10952
752.700	11011
752.811	11162
752.922	11494
753.032	11251
753.143	12311
753.254	11079
753.365	11918
753.476	11877
753.586	11799
753.697	11993
753.808	11347
753.919	11555
754.029	11131
754.140	11394
754.251	12298
754.361	11924
754.472	12502
754.582	11342
754.693	12076
754.804	12432
754.914	11837
755.025	12234
755.135	11402
755.246	12175
755.356	12552
755.466	12224
755.577	12725
755.687	13139
755.798	12255
755.908	12758
756.018	13012
756.129	12933
756.239	12408
756.349	13320
756.460	13406
756.570	12985
756.680	13609
756.790	14191
756.900	13216
757.011	13622
757.121	14110
757.231	14204
757.341	14251
757.451	13922
757.561	14362
757.671	13856
757.781	13476
757.891	14722
758.001	14540
758.111	14917
758.221	15371
758.331	14637
758.441	15059
758.551	15540
758.661	16812
758.771	15990
758.880	16539
758.990	16305
759.100	16447
759.210	17549
759.320	18261
759.429	17767
759.539	18189
759.649	18504
759.758	18699
759.868	19394
759.978	18674
760.087	19167
760.197	19360
760.307	19900
760.416	20882
760.526	21555
760.635	20691
760.745	21349
760.854	20912
760.964	22139
761.073	23105
761.182	23385
761.292	24003
761.401	24729
761.511	25083
761.620	25114
761.729	25690
761.839	27630
761.948	27640
762.057	27867
762.166	29350
762.276	29195
762.385	30910
762.494	32170
762.603	32882
762.712	33818
762.822	35565
762.931	36733
763.040	38231
763.149	38437
763.258	41989
763.367	44320
763.476	45060
763.585	47365
763.694	49410
763.803	52780
763.912	56514
764.021	58697
764.130	61621
764.238	65983
764.347	72118
764.456	76137
764.565	82248
764.674	89375
764.783	97405
764.891	108562
765.000	120733
765.109	137116
765.217	156791
765.326	179347
765.435	212829
765.543	254598
765.652	311018
765.761	396351
765.869	510145
765.978	692590
766.086	956586
766.195	1329016
766.303	1696853
766.412	1533597
766.520	1187669
766.629	1691961
766.737	1542211
766.846	1132824
766.954	815971
767.062	604905
767.171	464520
767.279	361238
767.387	289768
767.496	239895
767.604	204597
767.712	177192
767.820	156783
767.928	142849
768.037	131799
768.145	123830
768.253	117867
768.361	113532
768.469	112385
768.577	113149
768.685	117011
768.793	123139
768.901	133247
769.009	150980
769.117	180604
769.225	225563
769.333	297766
769.441	420290
769.549	638636
769.657	1024107
769.765	1489301
769.873	1344471
769.981	1420259
770.088	1320308
770.196	860310
770.304	568650
770.412	400989
770.519	302305
770.627	238348
770.735	191487
770.842	160691
770.950	136994
771.058	119599
771.165	105642
771.273	93668
771.380	85039
771.488	77127
771.595	69924
771.703	65346
771.810	61862
771.918	56699
772.025	53423
772.133	50201
772.240	47463
772.348	45018
772.455	43009
772.562	40283
772.670	38489
772.777	36435
772.884	35901
772.991	33718
773.099	33212
773.206	31308
773.313	31412
773.420	29368
773.528	28343
773.635	26810
773.742	27386
773.849	26649
773.956	24756
774.063	25017
774.170	24203
774.277	24223
774.384	23285
774.491	23043
774.598	22462
774.705	21319
774.812	21432
774.919	21340
775.026	21463
775.133	20458
775.239	19778
775.346	19131
775.453	18431
775.560	18881
775.667	18518
775.773	18770
775.880	18613
775.987	17202
776.093	17524
776.200	16106
776.307	17348
776.413	15857
776.520	15882
776.627	15369
776.733	16052
776.840	14560
776.946	14615
777.053	15228
777.159	16641
777.266	16192
777.372	16396
777.478	15672
777.585	14824
777.691	13606
777.798	13317
777.904	13425
778.010	14509
778.117	14779
778.223	13028
778.329	12246
778.435	12480
778.542	12563
778.648	12984
778.754	12095
778.860	12820
778.966	12825
779.072	11819
779.178	12944
779.284	12062
779.391	12664
779.497	14193
779.603	17097
779.708	25200
779.815	47891
779.920	138146
780.026	413482
780.132	172497
780.238	28465
780.344	17199
780.450	15636
780.556	13437
780.661	12633
780.767	11055
780.873	10837
780.979	10042
781.085	10725
781.190	9983
781.296	10159
781.402	10572
781.507	9594
781.613	9141
781.719	8491
781.824	9303
781.930	8981
782.035	8722
782.141	9868
782.246	9639
782.352	8706
782.457	9210
782.563	8775
782.668	8449
782.773	8491
782.879	8186
782.984	9022
783.090	9561
783.195	8318
783.300	9399
783.405	7834
783.511	8066
783.616	7783
783.721	7903
783.826	8357
783.932	8760
784.037	8647
784.142	8093
784.247	7452
784.352	7981
784.457	6929
784.562	8248
784.667	7486
784.772	7478
784.877	7586
784.982	7573
785.087	6955
785.192	7131
785.297	7771
785.402	6938
785.507	7338
785.611	7139
785.716	7071
785.821	6444
785.926	7182
786.031	7125
786.135	6985
786.240	7657
786.345	6626
786.450	6890
786.554	7142
786.659	5878
786.763	6636
786.868	6510
786.973	6363
787.077	6185
787.182	6202
787.286	6487
787.391	5779
787.495	5487
787.600	5860
787.704	6557
787.809	5881
787.913	5916
788.017	6325
788.122	6360
788.226	4539
788.330	5886
788.435	5851
788.539	5863
788.643	5729
788.747	6093
788.852	5859
788.956	6356
789.060	5670
789.164	5484
789.268	5651
789.372	5639
789.476	6244
789.580	5618
789.684	5432
789.788	5565
789.892	5739
789.996	6530
790.100	5844
790.204	5438
790.308	5622
790.412	6089
790.516	6423
790.620	6549
790.724	6351
790.828	6376
790.931	5827
791.035	6300
791.139	5888
791.242	5471
791.346	6223
791.450	5761
791.554	5609
791.657	4897
791.761	5884
791.864	5879
791.968	5695
792.072	5559
792.175	5601
792.279	5290
792.382	4809
792.486	6343
792.589	4952
792.693	5249
792.796	4281
792.899	5859
793.003	4558
793.106	5555
793.209	5014
793.313	5757
793.416	4418
793.519	5408
793.623	5655
793.726	5695
793.829	7254
793.932	5746
794.035	4733
794.138	5918
794.242	6708
794.345	8361
794.448	14330
794.551	25533
794.654	75864
794.757	236600
794.860	109960
794.963	15366
795.066	7700
795.169	7355
795.272	6567
795.375	6096
795.477	6153
795.580	5067
795.683	4247
795.786	4804
795.889	3674
795.991	4691
796.094	4328
796.197	4207
796.300	4662
796.402	4798
796.505	5018
796.608	4052
796.710	4638
796.813	4203
796.915	4329
797.018	4138
797.120	4645
797.223	3356
797.326	5092
797.428	3967
797.530	4121
797.633	3944
797.735	4540
797.838	5322
797.940	5669
798.042	3739
798.145	4907
798.247	4290
798.349	4372
798.452	3983
798.554	4097
798.656	3690
798.758	4643
798.860	4398
798.962	3680
799.065	3939
799.167	3261
799.269	4528
799.371	4138
799.473	4541
799.575	3694
799.677	4156
799.779	4433
799.881	4072
799.983	5105
800.085	4077
800.187	3007
800.289	3815
800.390	3197
800.492	4263
800.594	3767
800.696	3732
800.798	3315
800.899	3004
801.001	3888
801.103	3055
801.205	3808
801.306	3606
801.408	3475
801.509	4152
801.611	3089
801.713	4194
801.814	2856
801.916	3232
802.017	3546
802.119	2342
802.220	4605
802.322	2776
802.423	5093
802.525	3804
802.626	3488
802.727	3474
802.829	3722
802.930	3409
803.031	3958
803.133	2833
803.234	3130
803.335	2872
803.436	2762
803.538	2846
803.639	2698
803.740	3408
803.841	2569
803.942	3307
804.043	3182
804.144	2149
804.245	3176
804.346	3170
804.447	3563
804.548	3450
804.649	3857
804.750	4107
804.851	3072
804.952	3313
805.053	3252
805.154	2801
805.255	3516
805.355	3089
805.456	3593
805.557	3202
805.658	1505
805.758	2602
805.859	3258
805.960	2622
806.061	2547
806.161	2417
806.262	2800
806.362	2912
806.463	2707
806.564	2954
806.664	2874
806.765	2950
806.865	3785
806.966	3606
807.066	2656
807.166	3170
807.267	2419
807.367	2897
807.468	3159
807.568	2845
807.668	3464
807.769	3426
807.869	2712
807.969	3157
808.069	2892
808.170	3109
808.270	2761
808.370	2423
808.470	3020
808.570	1829
808.670	2944
808.770	2804
808.870	2616
808.970	2387
809.070	2547
809.170	2356
809.271	2416
809.370	2473
809.470	2731
809.570	1561
809.670	1817
809.770	2194
809.870	2967
809.970	1979
810.070	1955
810.169	2941
810.269	2040
810.369	2425
810.469	2526
810.568	3061
810.668	1943
810.768	1956
810.867	2205
810.967	2222
811.066	2429
811.166	3139
811.265	3573
811.365	2504
811.464	2035
811.564	2332
811.663	3253
811.763	2533
811.862	2678
811.962	3211
812.061	3482
812.160	2334
812.260	3787
812.359	2762
812.458	3661
812.557	5714
812.657	8713
812.756	8399
812.855	3230
812.954	2878
813.053	2790
813.153	2567
813.252	2899
813.351	3290
813.450	2537
813.549	2585
813.648	2704
813.747	2615
813.846	2765
813.945	3386
814.044	2814
814.143	3450
814.242	3253
814.341	2726
814.439	2856
814.538	3400
814.637	3211
814.736	3299
814.835	3501
814.933	3294
815.032	3412
815.131	3325
815.229	3745
815.328	3949
815.427	3919
815.525	4616
815.624	4440
815.722	4552
815.821	3942
815.919	4692
816.018	4296
816.116	5424
816.215	5357
816.313	5257
816.412	4827
816.510	5646
816.609	6336
816.707	5873
816.805	6541
816.904	5587
817.002	7079
817.100	7905
817.198	8739
817.296	9988
817.395	11789
817.493	13583
817.591	15420
817.689	19859
817.787	27219
817.885	38691
817.983	63034
818.081	114768
818.179	232854
818.277	490252
818.375	643861
818.473	377543
818.571	167609
818.669	93535
818.767	69139
818.865	61406
818.963	66581
819.061	82693
819.158	122144
819.256	207744
819.354	387280
819.452	704867
819.549	718182
819.647	437958
819.745	226650
819.842	127804
819.940	82104
820.038	57349
820.135	43401
820.233	33751
820.330	26621
820.428	22714
820.525	18585
820.623	16261
820.720	14003
820.818	13054
820.915	11916
821.012	10481
821.110	9160
821.207	8538
821.304	8072
821.402	7947
821.499	7903
821.596	8013
821.693	7100
821.791	6670
821.888	5599
821.985	6530
822.082	6420
822.179	5977
822.276	5687
822.373	4391
822.470	4360
822.567	3843
822.664	3420
822.761	4844
822.858	2793
822.955	3545
823.052	3781
823.149	3150
823.246	3022
823.343	3726
823.440	3463
823.536	3435
823.633	2497
823.730	3155
823.827	2759
823.923	3757
824.020	4402
824.117	2830
824.213	2318
824.310	3610
824.407	2067
824.503	2917
824.600	2803
824.696	2400
824.793	2675
824.889	2218
824.986	1460
825.082	1323
825.179	2347
825.275	2743
825.371	1851
825.468	2949
825.564	2163
825.660	2295
825.757	2451
825.853	2292
825.949	2252
826.045	3118
826.142	2337
826.238	2527
826.334	2289
826.430	1368
826.526	2741
826.622	2351
826.718	2027
826.814	1721
826.910	1724
827.006	2579
827.102	2454
827.198	898
827.294	1297
827.390	1563
827.486	1670
827.582	1216
827.678	1144
827.774	1684
827.869	1066
827.965	2689
828.061	1243
828.157	1593
828.252	1363
828.348	1657
828.444	1933
828.539	557
828.635	1454
828.731	2238
828.826	717
828.922	1734
829.017	867
829.113	1558
829.208	2465
829.304	744
829.399	1958
829.495	1255
829.590	1394
829.685	645
829.781	1643
829.876	798
829.971	818
830.066	1497
830.162	761
830.257	583
830.352	922
830.447	1522
830.543	1898
830.638	706
830.733	2281
830.828	1033
830.923	516
831.018	990
831.113	1241
831.208	519
831.303	1293
831.398	1177
831.493	1004
831.588	1674
831.683	764
831.778	1515
831.873	556
831.967	1672
832.062	473
832.157	490
832.252	1247
832.346	1111
832.441	207
832.536	1505
832.631	1919
832.725	3410
832.820	1367
832.914	795
833.009	850
833.104	1239
833.198	2076
833.293	1539
833.387	1495
833.482	1996
833.576	1245
833.670	1673
833.765	913
833.859	1163
833.954	1264
834.048	994
834.142	1300
834.237	1272
834.331	995
834.425	1386
834.519	513
834.613	1798
834.708	794
834.802	1585
834.896	1462
834.990	976
835.084	1316
835.178	1338
835.272	661
835.366	969
835.460	1488
835.554	1690
835.648	1000
835.742	1326
835.836	993
835.930	752
836.024	1955
836.117	1157
836.211	1031
836.305	1594
836.399	2205
836.493	1684
836.586	1301
836.680	685
836.774	478
836.867	1514
836.961	1076
837.055	258
837.148	977
837.242	1780
837.335	723
837.429	843
837.522	764
837.616	1209
837.709	995
837.803	1804
837.896	651
837.989	398
838.083	1533
838.176	2006
838.269	2381
838.363	2301
838.456	210
838.549	1303
838.642	1795
838.735	2840
838.829	2782
838.922	1065
839.015	1483
839.108	370
839.201	209
839.294	1066
839.387	843
839.480	574
839.573	1356
839.666	1558
839.759	2018
839.852	1012
839.945	600
840.038	1293
840.131	1155
840.223	1137
840.316	1511
840.409	1166
840.502	1116
840.594	1016
840.687	560
840.780	2176
840.873	807
840.965	1092
841.058	1007
841.150	1914
841.243	2122
841.336	977
841.428	377
841.521	457
841.613	546
841.706	1085
841.798	982
841.890	1148
841.983	304
842.075	1591
842.167	849
842.260	1025
842.352	1258
842.444	959
842.537	1113
842.629	3881
842.721	2984
842.813	1544
842.905	-321
842.997	434
843.090	1107
843.182	2141
843.274	2142
843.366	3494
843.458	6665
843.550	8909
843.642	2557
843.734	1292
843.826	933
843.918	1784
844.009	1019
844.101	841
844.193	313
844.285	657
844.377	1065
844.469	1432
844.560	1786
844.652	1031
844.744	963
844.835	1155
844.927	882
845.019	956
845.110	755
845.202	864
845.293	548
845.385	-157
845.476	48
845.568	835
845.659	413
845.751	1227
845.842	798
845.934	595
846.025	1203
846.116	914
846.208	1389
846.299	1040
846.390	988
846.482	1559
846.573	649
846.664	1200
846.755	1271
846.846	2209
846.937	829
847.029	695
847.120	522
847.211	524
847.302	1514
847.393	-58
847.484	1148
847.575	493
847.666	126
847.757	773
847.847	591
847.938	1354
848.029	176
848.120	524
848.211	444
848.302	221
848.392	8
848.483	382
848.574	303
848.664	1110
848.755	1480
848.846	228
848.936	859
849.027	792
849.118	1313
849.208	1029
849.299	953
849.389	1150
849.480	1274
849.570	881
849.661	1094
849.751	1961
849.841	1186
849.932	772
850.022	-129
850.112	13
850.203	592
850.293	513
850.383	672
850.474	-230
850.564	-66
850.654	886
850.744	486
850.834	909
850.924	385
851.014	632
851.104	867
851.194	734
851.284	567
851.374	693
851.464	927
851.554	546
851.644	1142
851.734	1283
851.824	1653
851.914	3958
852.004	6568
852.094	11319
852.183	4272
852.273	908
852.363	825
852.452	928
852.542	517
852.632	342
852.721	874
852.811	-19
852.901	937
852.990	798
853.080	644
853.169	1051
853.259	595
853.348	680
853.438	859
853.527	57
853.617	377
853.706	956
853.795	1209
853.885	1742
853.974	3317
854.063	4816
854.152	8558
854.242	8352
854.331	2448
854.420	526
854.509	627
854.598	597
854.687	242
854.777	480
854.866	147
854.955	1146
855.044	777
855.133	310
855.222	273
855.311	190
855.400	18
855.488	730
855.577	459
855.666	153
855.755	1286
855.844	1373
855.933	983
856.021	1287
856.110	436
856.199	-57
856.288	66
856.376	310
856.465	-669
856.554	355
856.642	16
856.731	705
856.819	324
856.908	142
856.996	1
857.085	109
857.173	-123
857.262	281
857.350	1320
857.438	-55
857.527	879
857.615	233
857.703	494
857.792	802
857.880	-102
857.968	-131
858.056	139
858.145	158
858.233	373
858.321	92
858.409	676
858.497	447
858.585	270
858.673	940
858.761	235
858.849	518
858.937	466
859.025	537
859.113	1009
859.201	-328
859.289	949
859.377	322
859.465	882
859.552	-299
859.640	405
859.728	1121
859.816	417
859.903	155
859.991	-381
860.079	124
860.166	302
860.254	599
860.342	628
860.429	-304
860.517	840
860.604	-360
860.692	728
860.779	368
860.867	452
860.954	-102
861.042	479
861.129	1182
861.216	152
861.304	-107
861.391	178
861.478	522
861.565	827
861.653	481
861.740	382
861.827	386
861.914	168
862.001	87
862.089	257
862.176	-146
862.263	134
862.350	234
862.437	91
862.524	-612
862.611	600
862.698	502
862.785	460
862.871	852
862.958	-219
863.045	448
863.132	382
863.219	94
863.306	-716
863.392	1304
863.479	56
863.566	101
863.652	332
863.739	-465
863.826	473
863.912	207
863.999	-401
864.086	362
864.172	171
864.259	535
864.345	725
864.432	718
864.518	138
864.604	-367
864.691	-96
864.777	-252
864.863	765
864.950	606
865.036	-258
865.122	-217
865.209	1130
865.295	262
865.381	1290
865.467	-237
865.553	642
865.639	727
865.726	-108
865.812	1003
865.898	1286
865.984	2397
866.070	3084
866.156	6750
866.242	3479
866.328	271
866.414	255
866.499	866
866.585	176
866.671	334
866.757	504
866.843	642
866.928	640
867.014	-314
867.100	782
867.186	136
867.271	647
867.357	741
867.442	566
867.528	1203
867.614	751
867.699	249
867.785	431
867.870	497
867.956	283
868.041	1644
868.127	744
868.212	583
868.297	1119
868.383	1031
868.468	713
868.553	939
868.639	1556
868.724	2220
868.809	3332
868.894	1072
868.979	190
869.065	44
869.150	71
869.235	21
869.320	-438
869.405	202
869.490	-368
869.575	271
869.660	-84
869.745	-68
869.830	150
869.915	539
870.000	455
870.085	702
870.169	661
870.254	367
870.339	586
870.424	658
870.509	107
870.593	-597
870.678	-443
870.763	262
870.847	-318
870.932	-234
871.016	207
871.101	623
871.186	-308
871.270	197
871.355	-263
871.439	197
871.523	-200
871.608	282
871.692	-49
871.777	247
871.861	-97
871.945	-524
872.030	-42
872.114	276
872.198	94
872.282	-303
872.367	-492
872.451	395
872.535	201
872.619	-183
872.703	675
872.787	597
872.871	119
872.955	-93
873.039	-336
873.123	364
873.207	336
873.291	159
873.375	131
873.459	195
873.543	-682
873.627	-753
873.711	-509
873.794	19
873.878	-447
873.962	-975
874.045	502
874.129	17
874.137	-26
874.213	-452
874.245	-277
874.296	2
874.352	-179
874.380	-265
874.460	7
874.464	17
874.547	-660
874.568	-599
874.631	-393
874.676	-52
874.714	217
874.784	-116
874.798	-180
874.881	1074
874.892	945
874.965	36
874.999	13
875.048	19
875.107	-303
875.131	-463
875.215	109
875.215	109
875.298	-413
875.323	-293
875.381	-64
875.430	-94
875.465	-55
875.538	212
875.548	237
875.631	51
875.646	-30
875.714	-399
875.753	-430
875.798	-483
875.861	-525
875.881	-527
875.964	3
875.968	13
876.047	128
876.076	134
876.130	263
876.183	378
876.213	364
876.291	470
876.296	482
876.379	-51
876.398	17
876.462	293
876.506	16
876.545	-293
876.613	231
876.628	361
876.711	215
876.721	252
876.794	519
876.828	473
876.877	364
876.935	332
876.960	344
877.043	172
877.043	172
877.125	308
877.150	294
877.208	192
877.258	73
877.291	43
877.365	-178
877.374	-211
877.456	406
877.472	372
877.539	219
877.579	-15
877.622	-184
877.687	-66
877.704	-80
877.787	530
877.794	474
877.869	-39
877.901	191
877.952	469
878.008	441
878.034	568
878.115	450
878.117	441
878.199	-1
878.222	46
878.282	157
878.329	103
878.364	217
878.437	247
878.447	204
878.529	-480
878.544	-372
878.611	216
878.651	179
878.694	190
878.758	77
878.776	36
878.858	133
878.865	125
878.941	175
878.972	97
879.023	-239
879.078	63
879.105	296
879.185	-271
879.187	-285
879.269	-190
879.292	-167
879.351	-72
879.399	-109
879.433	-91
879.506	188
879.516	240
879.598	43
879.613	141
879.680	339
879.720	300
879.762	286
879.827	-134
879.844	-235
879.926	-286
879.933	-289
880.007	-190
880.040	102
880.089	316
880.147	23
880.171	33
880.253	241
880.254	241
880.335	170
880.360	355
880.417	872
880.467	999
880.499	1212
880.574	2652
880.580	2702
880.662	1404
880.680	1105
880.744	275
880.787	618
880.825	908
880.893	186
880.907	71
880.989	-108
881.000	-83
881.070	401
881.106	591
881.152	626
881.213	731
881.233	655
881.315	-75
881.319	-102
881.396	8
881.426	9
881.478	47
881.532	534
881.559	780
881.639	618
881.641	603
881.722	373
881.745	168
881.803	-163
881.852	155
881.885	420
881.958	111
881.966	94
882.047	443
882.064	451
882.129	390
882.171	427
882.210	296
882.277	502
882.291	639
882.372	733
882.383	737
882.454	-17
882.489	-316
882.535	-298
882.596	-584
882.616	-608
882.697	186
882.702	220
882.778	554
882.808	503
882.859	138
882.914	-167
882.940	-241
883.020	-180
883.021	-178
883.102	77
883.127	51
883.183	129
883.233	244
883.264	249
883.339	726
883.345	764
883.426	273
883.445	387
883.507	469
883.551	317
883.587	452
883.657	636
883.668	578
883.749	141
883.763	54
883.830	49
883.869	198
883.910	312
883.975	224
883.991	236
884.072	720
884.081	694
884.152	-23
884.187	-102
884.233	180
884.292	434
884.314	369
884.394	-170
884.398	-186
884.475	-48
884.504	-41
884.555	-58
884.610	50
884.636	86
884.716	163
884.716	164
884.797	36
884.821	-1
884.877	65
884.927	126
884.958	165
885.033	144
885.038	151
885.118	373
885.139	393
885.199	-0
885.244	-123
885.279	254
885.350	803
885.359	724
885.439	29
885.456	-106
885.520	266
885.561	469
885.600	264
885.667	-116
885.680	-50
885.760	504
885.773	575
885.840	325
885.878	143
885.920	324
885.984	645
886.000	616
886.080	509
886.089	498
886.160	88
886.195	-142
886.240	80
886.300	380
886.320	355
886.400	270
886.406	260
886.480	91
886.511	69
886.560	168
886.616	-17
886.640	-85
886.720	170
886.722	169
886.800	479
886.827	665
886.879	275
886.932	-293
886.959	-87
887.038	541
887.039	539
887.119	212
887.143	151
887.198	597
887.248	888
887.278	802
887.354	731
887.358	708
887.437	-21
887.459	-141
887.517	267
887.564	413
887.596	396
887.669	508
887.676	477
887.755	109
887.774	-12
887.835	289
887.880	581
887.914	452
887.985	131
887.994	173
888.073	484
888.090	574
888.153	-253
888.195	-856
888.232	-561
888.300	38
888.311	31
888.391	-11
888.405	-29
888.470	476
888.510	796
888.549	758
888.615	780
888.628	682
888.708	-11
888.720	-111
888.787	17
888.825	80
888.866	251
888.930	530
888.945	500
889.024	358
889.035	340
889.103	300
889.140	274
889.182	491
889.245	798
889.261	750
889.340	556
889.349	532
889.419	240
889.454	97
889.498	220
889.559	408
889.577	338
889.656	48
889.664	26
889.735	344
889.768	501
889.814	487
889.873	472
889.978	334
890.083	-444
890.187	493
890.292	226
890.397	36
890.501	172
890.606	422
890.710	14
890.815	360
890.919	22
891.024	723
891.128	420
891.233	-280
891.337	141
891.442	715
891.546	-125
891.650	-55
891.755	69
891.859	1322
891.963	-6
892.068	1016
892.172	-178
892.276	184
892.380	493
892.484	146
892.589	-593
892.693	867
892.797	-348
892.901	-187
893.005	-541
893.109	155
893.213	587
893.317	346
893.421	-15
893.525	215
893.629	591
893.733	782
893.837	-56
893.941	1083
894.045	561
894.148	-262
894.252	902
894.356	528
894.460	133
894.564	305
894.667	-260
894.771	-255
894.875	-14
894.978	475
895.082	-865
895.186	257
895.289	715
895.393	432
895.496	323
895.600	420
895.703	317
895.807	-179
895.910	-58
896.014	612
896.117	-216
896.221	189
896.324	384
896.427	195
896.531	686
896.634	612
896.737	-82
896.840	334
896.944	-943
897.047	433
897.150	30
897.253	-312
897.356	495
897.460	-252
897.563	231
897.666	238
897.769	-503
897.872	958
897.975	-444
898.078	473
898.181	-469
898.284	204
898.387	242
898.490	-78
898.593	445
898.695	14
898.798	368
898.901	265
899.004	636
899.107	455
899.209	50
899.312	310
899.415	-47
899.518	250
899.620	177
899.723	567
899.826	24
899.928	260
900.031	-878
900.133	182
900.236	-51
900.338	-29
900.441	190
900.543	249
900.646	-180
900.748	140
900.851	386
900.953	-115
901.055	-579
901.158	-63
901.260	331
901.362	-8
901.465	164
901.567	-143
901.669	267
901.771	177
901.873	-248
901.976	45
902.078	337
902.180	110
902.282	120
902.384	-169
902.486	-104
902.588	438
902.690	-245
902.792	95
902.894	-252
902.996	699
903.098	230
903.200	806
903.302	-442
903.404	692
903.505	-65
903.607	-1024
903.709	598
903.811	83
903.913	134
904.014	-464
904.116	-286
904.218	415
904.319	1027
904.421	313
904.523	392
904.624	-341
904.726	85
904.827	727
904.929	553
905.030	142
905.132	-415
905.233	-563
905.335	574
905.436	-35
905.537	34
905.639	361
905.740	-308
905.841	-529
905.943	323
906.044	121
906.145	233
906.247	-895
906.348	-412
906.449	-520
906.550	-542
906.651	558
906.752	-480
906.854	39
906.955	-293
907.056	-358
907.157	-745
907.258	468
907.359	-143
907.460	521
907.561	-159
907.662	247
907.762	-426
907.863	-34
907.964	-324
908.065	958
908.166	-555
908.267	-240
908.367	-545
908.468	-125
908.569	-470
908.670	182
908.770	-668
908.871	237
908.971	-939
909.072	670
909.173	-896
909.273	301
909.374	5
909.474	150
909.575	-408
909.675	-529
909.776	-458
909.876	569
909.977	-410
910.077	220
910.177	-650
910.278	-19
910.378	60
910.478	-189
910.579	-450
910.679	35
910.779	-887
910.879	702
910.980	-364
911.080	-412
911.180	-818
911.280	-363
911.380	-766
911.480	3
911.580	-362
911.680	217
911.780	-138
911.880	-379
911.980	-501
912.080	-172
912.180	-336
912.280	279
912.380	-800
912.480	116
912.580	99
912.679	-246
912.779	-118
912.879	200
912.979	-1103
913.078	-235
913.178	-650
913.278	-30
913.377	-641
913.477	-980
913.577	123
913.676	614
913.776	114
913.875	-408
913.975	-618
914.074	684
914.174	-449
914.273	-229
914.373	-380
914.472	99
914.572	-831
914.671	-641
914.770	-271
914.870	97
914.969	-661
915.068	-414
915.167	-96
915.267	-430
915.366	-135
915.465	174
915.564	-197
915.663	-215
915.763	-30
915.862	356
915.961	-135
916.060	134
916.159	45
916.258	-267
916.357	-40
916.456	1274
916.555	207
916.654	-263
916.752	-885
916.851	486
916.950	-291
917.049	3
917.148	-317
917.247	772
917.345	-476
917.444	-486
917.543	14
917.642	607
917.740	-308
917.839	-943
917.937	-213
918.036	486
918.135	99
918.233	441
918.332	150
918.430	-241
918.529	-379
918.627	94
918.726	-835
918.824	-46
918.923	-410
919.021	-894
919.119	-807
919.218	-397
919.316	-398
919.414	-206
919.512	-230
919.611	-548
919.709	-489
919.807	-90
919.905	275
920.003	-440
920.102	-269
920.200	-729
920.298	-583
920.396	181
920.494	-103
920.592	-515
920.690	-667
920.788	411
920.886	-631
920.984	264
921.082	-379
921.180	-32
921.277	-496
921.375	-634
921.473	-1011
921.571	120
921.669	-112
921.766	-191
921.864	-296
921.962	-1
922.060	-82
922.157	748
922.255	284
922.352	605
922.450	-294
922.548	-213
922.645	-245
922.743	249
922.840	511
922.938	557
923.035	687
923.133	316
923.230	-407
923.327	-184
923.425	3
923.522	78
923.619	-588
923.717	-419
923.814	-447
923.911	-325
924.008	493
924.106	356
924.203	-74
924.300	55
924.397	-200
924.494	278
924.591	-911
924.688	-98
924.786	-249
924.883	-246
924.979	-511
925.077	-615
925.173	295
925.270	-574
925.367	-209
925.464	664
925.561	-388
925.658	202
925.755	581
925.852	433
925.948	-18
926.045	570
926.142	-631
926.239	726
926.335	390
926.432	1163
926.529	-307
926.625	863
926.722	97
926.818	-347
926.915	-498
927.011	-146
927.108	-1184
927.204	-607
927.301	-804
927.397	-6
927.494	-267
927.590	228
927.687	-247
927.783	-206
927.879	-494
927.976	-408
928.072	-1225
928.168	-690
928.264	-499
928.361	-435
928.457	-145
928.553	-385
928.649	-826
928.745	-208
928.841	-847
928.937	-475
929.033	-490
929.129	554
929.225	-738
929.321	-220
929.417	-443
929.513	-5
929.609	-225
929.705	-335
929.801	-574
929.897	-558
929.993	-211
930.089	530
930.184	-260
930.280	-167
930.376	-134
930.471	-731
930.567	-800
930.663	-305
930.758	-868
930.854	-260
930.950	-927
931.045	-24
931.141	-719
931.236	770
931.332	-672
931.427	-227
931.523	-2
931.618	-210
931.714	-40
931.809	-323
931.905	-436
932.000	148
932.095	-409
932.191	-157
932.286	-901
932.381	37
932.476	-565
932.572	-562
932.667	-456
932.762	-396
932.857	-780
932.952	-719
933.047	-785
933.142	-115
933.237	-832
933.332	-390
933.427	-825
933.522	-349
933.617	-45
933.712	-405
933.807	-914
933.902	-208
933.997	-1197
934.092	-675
934.187	-495
934.282	-482
934.376	-1300
934.471	529
934.566	-269
934.661	-282
934.755	-1072
934.850	-10
934.945	-699
935.039	-14
935.134	-490
935.228	-694
935.323	-610
935.417	-34
935.512	-55
935.606	-732
935.701	-744
935.795	197
935.890	-778
935.984	470
936.079	-269
936.173	-570
936.267	-372
936.362	-60
936.456	36
936.550	-87
936.644	-204
936.738	-1037
936.833	-446
936.927	402
937.021	-824
937.115	-21
937.209	-449
937.303	78
937.397	-361
937.491	-401
937.585	-232
937.679	-859
937.773	-501
937.867	-257
937.961	-521
938.055	-545
938.149	-371
938.243	129
938.337	91
938.430	130
938.524	-469
938.618	-654
938.712	553
938.805	-198
938.899	-712
938.993	175
939.086	-618
939.180	506
939.274	1072
939.367	749
939.461	-937
939.554	-277
939.648	-889
939.741	-525
939.835	-553
939.928	90
940.022	-283
940.115	-855
940.208	-531
940.302	485
940.395	-593
940.488	358
940.582	-1093
940.675	-292
940.768	-528
940.861	-626
940.954	-945
941.048	-359
941.141	-849
941.234	-733
941.327	-218
941.420	570
941.513	-678
941.606	-252
941.699	-521
941.792	207
941.885	-301
941.978	-226
942.071	-437
942.164	-1
942.257	-910
942.349	-779
942.442	-739
942.535	-756
942.628	-565
942.721	-196
942.813	-1233
942.906	-312
942.999	-1078
943.091	-368
943.184	-252
943.277	-459
943.369	-944
943.462	50
943.554	-682
943.647	-443
943.739	-78
943.832	-856
943.924	-1016
944.017	384
944.109	-1233
944.201	407
944.294	-263
944.386	123
944.478	-1135
944.571	67
944.663	-703
944.755	122
944.847	-1038
944.940	-760
945.032	-575
945.124	-488
945.216	-107
945.308	44
945.400	-857
945.492	-215
945.584	-1170
945.676	-496
945.768	-905
945.860	-461
945.952	-1046
946.044	-285
946.136	-1140
946.228	132
946.320	-640
946.412	31
946.503	-689
946.595	-677
946.687	-527
946.779	-220
946.870	-184
946.962	-708
947.054	-1254
947.145	45
947.237	-568
947.329	602
947.420	-678
947.512	-381
947.603	-675
947.695	482
947.786	-341
947.878	-966
947.969	-729
948.061	-1295
948.152	-1036
948.243	-653
948.335	-964
948.426	-198
948.517	-734
948.609	-670
948.700	-745
948.791	-1090
948.882	-232
948.973	-412
949.065	-293
949.156	-356
949.247	-1663
949.338	-497
949.429	-758
949.520	426
949.611	-396
949.702	-213
949.793	-475
949.884	-232
949.975	-688
950.066	-1219
950.157	-745
950.247	-941
950.338	-472
950.429	-621
950.520	-742
950.611	-123
950.701	-914
950.792	-525
950.883	-909
950.973	200
951.064	-10
951.155	-215
951.245	-274
951.336	-65
951.427	-1117
951.517	-234
951.608	-484
951.698	-20
951.788	-810
951.879	-1139
951.969	-706
952.060	-499
952.150	-1084
952.240	-358
952.331	-1616
952.421	165
952.511	-1048
952.602	-496
952.692	-720
952.782	-998
952.872	-1465
952.962	-583
953.052	-712
953.143	-1325
953.233	-607
953.323	-846
953.413	-203
953.503	-473
953.593	-1102
953.683	-204
953.773	-797
953.863	262
953.953	-727
954.042	-338
954.132	-904
954.222	-555
954.312	-870
954.402	34
954.492	-741
954.581	-499
954.671	-1122
954.761	-347
954.850	598
954.940	-268
955.030	-1065
955.119	-303
955.209	-1159
955.298	-761
955.388	-565
955.477	499
955.567	-607
955.656	-360
955.746	-183
955.835	-129
955.925	-670
956.014	-490
956.103	-775
956.193	-367
956.282	-869
956.371	-279
956.461	-635
956.550	-324
956.639	-1209
956.728	-461
956.817	-576
956.906	-685
956.995	65
957.085	104
957.174	-482
957.263	155
957.352	-1569
957.441	-975
957.530	-667
957.619	2
957.708	-1041
957.796	-231
957.885	-247
957.974	-180
958.063	37
958.152	-1134
958.241	-1008
958.329	-161
958.418	-405
958.507	-282
958.596	163
958.684	-593
958.773	-81
958.861	-303
958.950	-677
959.039	203
959.127	-548
959.216	-1099
959.304	332
959.393	-84
959.481	-303
959.570	-116
959.658	-991
959.746	705
959.835	372
959.923	870
960.011	-149
960.100	12
960.188	-493
960.276	-637
960.365	-1078
960.453	413
960.541	-1441
960.629	-439
960.717	-564
960.805	-427
960.893	495
960.981	-241
961.069	-74
961.158	207
961.245	-718
961.333	181
961.421	-1033
961.509	333
961.597	-108
961.685	-269
961.773	-599
961.861	-972
961.949	-697
962.036	-925
962.124	-804
962.212	-959
962.299	-819
962.387	-273
962.475	-1079
962.562	-450
962.650	-760
962.738	37
962.825	-1085
962.913	-522
963.000	-434
963.088	-551
963.175	-954
963.263	-304
963.350	-1037
963.438	534
963.525	-864
963.612	107
963.700	51
963.787	1725
963.874	1757
963.962	581
964.049	-941
964.136	-473
964.223	-941
964.310	-334
964.398	-783
964.485	-48
964.572	-1378
964.659	105
964.746	-612
964.833	249
964.920	-736
965.007	-185
965.094	-1161
965.181	-731
965.268	-677
965.355	-983
965.441	-267
965.528	-407
965.615	-402
965.702	-94
965.789	-377
965.875	-151
965.962	-501
966.049	-305
966.136	-329
966.222	-508
966.309	-733
966.395	-338
966.482	341
966.569	-547
966.655	-529
966.742	-988
966.828	-730
966.915	-824
967.001	-1045
967.087	54
967.174	-179
967.260	-275
967.347	-415
967.433	83
967.519	1170
967.605	-40
967.692	-519
967.778	-462
967.864	-914
967.950	191
968.036	-1399
968.123	-272
968.209	-859
968.295	-794
968.381	-294
968.467	-33
968.553	-1562
968.639	342
968.725	-614
968.811	248
968.897	-254
968.983	573
969.069	-754
969.154	-181
969.240	-556
969.326	209
969.412	-686
969.497	-198
969.583	-663
969.669	307
969.755	-969
969.840	-391
969.926	-68
970.012	-407
970.097	-199
970.183	-628
970.268	-325
970.354	-443
970.439	-739
970.525	565
970.610	-72
970.696	349
970.781	-729
970.866	-1140
970.952	-599
971.037	-936
971.122	-754
971.208	-576
971.293	-922
971.378	-819
971.463	-1171
971.549	-116
971.634	-1068
971.719	-91
971.804	-510
971.889	199
971.974	-1267
972.059	401
972.144	-329
972.229	-533
972.314	-144
972.399	-491
972.484	-370
972.569	459
972.654	-375
972.739	-171
972.824	329
972.908	-420
972.993	-839
973.078	70
973.163	-969
973.247	-536
973.332	-1330
973.417	119
973.501	-1142
973.586	-221
973.671	-925
973.755	-456
973.840	-669
973.924	288
974.009	-597
974.093	-767
974.178	-216
974.262	89
974.346	104
974.431	-500
974.515	-783
974.600	-566
974.684	-41
974.768	-578
974.852	-45
974.937	-382
975.021	-432
975.105	194
975.189	-481
975.273	-73
975.358	-1573
975.442	-766
975.526	-873
975.610	-435
975.694	-1099
975.778	-6
975.862	-836
975.946	-839
976.030	-545
976.114	-315
976.198	-386
976.281	-299
976.365	-963
976.449	-339
976.533	-218
976.617	-1062
976.700	-518
976.784	-40
976.868	-315
976.951	-60
977.035	198
977.119	-592
977.202	-564
977.286	30
977.369	-783
977.453	-767
977.536	-238
977.620	-288
977.703	-1278
977.787	-1235
977.870	-1182
977.953	-872
978.037	-1024
978.120	215
978.203	-805
978.287	-50
978.370	-720
978.453	-570
978.536	-620
978.620	-339
978.703	-612
978.786	-315
978.869	-605
978.952	-1394
979.035	-313
979.118	-1179
979.201	-668
979.284	-504
979.367	-1005
979.450	-1004
979.533	-570
979.616	10
979.699	-1359
979.782	-215
979.865	-566
979.948	-544
980.030	-1202
980.113	-249
980.196	-424
980.279	442
980.361	-1595
980.444	-730
980.526	-529
980.609	-228
980.692	-857
980.774	-599
980.857	-1581
980.939	-463
981.022	-1517
981.104	-1150
981.187	-739
981.269	129
981.352	-1149
981.434	-782
981.516	-976
981.599	-342
981.681	-663
981.763	-234
981.846	-982
981.928	-788
982.010	-691
982.092	-757
982.174	-1027
982.256	-885
982.339	-762
982.421	-1240
982.503	-1676
982.585	-407
982.667	-1916
982.749	-641
982.831	-1355
982.913	-1298
982.995	353
983.077	-1613
983.158	-386
983.240	-1054
983.322	-1040
983.404	-298
983.486	-1926
983.568	-1107
983.649	-1363
983.731	-996
983.813	-1830
983.894	-548
983.976	-1258
984.058	-1129
984.139	-502
984.221	-1284
984.302	-684
984.384	-878
984.465	-2069
984.547	-322
984.628	-1411
984.710	555
984.791	-909
984.872	-1269
984.954	-1349
985.035	-370
985.116	-1764
985.198	-1015
985.279	-1347
985.360	-618
985.441	-1272
985.522	-211
985.604	-1100
985.685	-1228
985.766	-517
985.847	-532
985.928	-1635
986.009	-1231
986.090	-1298
986.171	-357
986.252	-1034
986.333	-1227
986.414	-1204
986.495	-503
986.576	-1300
986.656	-849
986.737	-713
986.818	-1644
986.899	-1840
986.980	-611
987.060	-958
987.141	-1097
987.222	-994
987.302	-587
987.383	-1589
987.464	-999
987.544	-1317
987.625	-1135
987.705	-872
987.786	-1505
987.866	-1001
987.947	-1303
988.027	-1636
988.108	-1280
988.188	-1150
988.268	-954
988.349	-1602
988.429	-636
988.509	-1865
988.589	-1303
988.670	-1832
988.750	-213
988.830	-1585
988.910	-486
988.990	-1584
989.070	-930
989.151	-1395
989.231	-1688
989.311	-1035
989.391	-849
989.471	-1034
989.551	-1253
989.631	-2011
989.711	-812
989.791	-1552
989.870	-1272
989.950	-816
990.030	-1079
990.110	-1517
990.190	-1235
990.269	-960
990.349	-984
990.429	-1191
990.509	-869
990.588	-1879
990.668	-781
990.747	-1614
990.827	-1744
990.907	-450
990.986	-911
991.066	-1792
991.145	-1475
991.225	-885
991.304	-617
991.383	-1681
991.463	-1233
991.542	-1288
991.622	-1208
991.701	-1963
991.780	-1090
991.859	-1134
991.939	-1158
992.018	-2116
992.097	-1228
992.176	-739
992.256	-824
992.335	-1496
992.414	-955
992.493	-1714
992.572	-1264
992.651	-1694
992.730	-1642
992.809	-1345
992.888	-938
992.967	-1531
993.046	-696
993.125	-2083
993.203	-1159
993.282	-1086
993.361	-898
993.440	-1037
993.519	-1317
993.597	-2111
993.676	-1304
993.755	-1371
993.834	-1795
993.912	-1876
993.991	-513
994.069	-1283
994.148	-1285
994.226	-1687
994.305	-827
994.384	-2116
994.462	-427
994.540	-1836
994.619	-359
994.697	-536
994.776	-746
994.854	-1348
994.932	-715
995.011	-1933
995.089	-838
995.167	-1455
995.245	-988
995.324	-2010
995.402	-754
995.480	-1649
995.558	-733
995.636	-1197
995.714	-1035
995.792	-699
995.870	-1910
995.948	-1249
996.026	-735
996.104	-2380
996.182	-877
996.260	-552
996.338	-1062
996.416	-1880
996.494	-1609
996.572	-1624
996.649	-788
996.727	-1682
996.805	-565
996.883	-1109
996.960	-1050
997.038	-1607
997.116	-1794
997.193	-932
997.271	-206
997.348	-2334
997.426	-1211
997.504	-1159
997.581	-1090
997.658	-1015
997.736	-1313
997.813	-1381
997.891	-981
997.968	-1168
998.046	-1233
998.123	-1618
998.200	-1590
998.277	-2189
998.355	-1087
998.432	-1200
998.509	-914
998.586	-1208
998.663	-951
998.741	-1465
998.818	-1236
998.895	-993
998.972	-894
999.049	-887
999.126	-1276
999.203	-696
999.280	-529
999.357	-1641
999.434	-791
999.511	-1152
999.587	-959
999.664	-1416
999.741	-345
999.818	-1776
999.895	-1655
999.971	-1239
1000.048	-1358
1000.125	-521
1000.202	-1820
1000.278	-1396
1000.355	-1704
1000.431	-1332
1000.508	-1855
1000.584	-2059
1000.661	-372
1000.738	-1772
1000.814	-1238
1000.890	-1681
1000.967	-807
1001.043	-1360
1001.120	-1402
1001.196	-1162
1001.272	-1437
1001.349	-1366
1001.425	-1056
1001.501	-1282
1001.577	-1752
1001.654	-1065
1001.730	-1079
1001.806	-1743
1001.882	-1464
1001.958	-667
1002.034	-742
1002.110	-1731
1002.186	-1610
1002.262	-1332
1002.338	-1197
1002.414	-1390
1002.490	-1274
1002.566	-1670
1002.642	-1610
1002.718	-827
1002.794	-1444
1002.870	-1268
1002.945	-1458
1003.021	-1363
1003.097	-1191
1003.173	-1566
1003.248	-1327
1003.324	-832
1003.400	-106
1003.475	-2336
1003.551	-720
1003.626	-1345
1003.702	-1462
1003.777	-1730
1003.853	-822
1003.928	-975
1004.004	-1327
1004.079	-903
1004.155	-771
1004.230	-1230
1004.305	-809
1004.381	-1594
1004.456	-119
1004.531	-1593
1004.607	-620
1004.682	-1154
1004.757	-1932
1004.832	-1955
1004.907	-1697
1004.982	-1172
1005.057	-1149
1005.133	-1636
1005.208	-935
1005.283	-1354
1005.358	-1331
1005.433	-1445
1005.508	-1656
1005.583	-2056
1005.657	-1280
1005.732	-596
1005.807	-1379
1005.882	-2148
1005.957	-361
1006.032	-882
1006.106	-1502
1006.181	-651
1006.256	-713
1006.331	-1000
1006.405	-1492
1006.480	-1534
1006.554	-600
1006.629	-1363
1006.704	-529
1006.778	-1298
1006.853	-770
1006.927	-1170
1007.002	-1632
1007.076	-1605
1007.150	-1265
1007.225	-1454
1007.299	-588
1007.373	-2285
1007.448	-1112
1007.522	-1587
1007.596	-420
1007.671	-2296
1007.745	-665
1007.819	-2297
1007.893	-1458
1007.967	-1161
1008.041	-1512
1008.115	-1072
1008.190	-1371
1008.264	-1258
1008.338	-1074
1008.412	-1759
1008.486	-1358
1008.560	-1630
1008.633	-561
1008.707	-1414
1008.781	-958
1008.855	-2005
1008.929	-802
1009.003	-1109
1009.076	-1923
1009.150	-1154
1009.224	-1464
1009.298	-651
1009.371	-1491
1009.445	-848
1009.519	-731
1009.592	-1765
1009.666	-1356
1009.739	-1257
1009.813	-1435
1009.886	-315
1009.960	-2177
1010.033	-1481
1010.107	-1635
1010.180	-1263
1010.253	-1425
1010.327	-1751
1010.400	-935
1010.473	-1529
1010.547	-713
1010.620	-1550
1010.693	-1371
1010.766	-1381
1010.840	-1330
1010.913	-597
1010.986	-1272
1011.059	-1323
1011.132	-995
1011.205	-1109
1011.278	-655
1011.351	-1089
1011.424	-517
1011.497	-2126
1011.570	-1353
1011.643	-1805
1011.716	-1197
1011.789	-1751
1011.862	-1739
1011.934	-1385
1012.007	-2375
1012.080	-1217
1012.153	-417
1012.225	-1158
1012.298	-1659
1012.371	-1895
1012.443	-693
1012.516	-2313
1012.588	-1144
1012.661	-1586
1012.733	-661
1012.806	-880
1012.879	-1275
1012.951	-1031
1013.023	-2025
1013.096	-2146
1013.168	-1825
1013.241	-1191
1013.313	-732
1013.385	-1455
1013.458	-871
1013.530	-1427
1013.602	-1487
1013.674	-939
1013.746	-889
1013.819	-1820
1013.891	-885
1013.963	-1887
1014.035	-1088
1014.107	-1171
1014.179	-1368
1014.251	-1322
1014.323	-321
1014.395	-1651
1014.467	-1418
1014.539	-1017
1014.611	-648
1014.683	-658
1014.754	-1179
1014.826	-1969
1014.898	-1085
1014.970	-1889
1015.042	-1403
1015.113	-1204
1015.185	-1151
1015.257	-1719
1015.328	-1807
1015.400	-1278
1015.471	-1267
1015.543	-1639
1015.615	-1065
1015.686	-1695
1015.757	-1286
1015.829	-1197
1015.901	-1157
1015.972	-1594
1016.043	-1737
1016.115	-1019
1016.186	-1232
1016.257	-1357
1016.328	-1113
1016.400	-1436
1016.471	-612
1016.542	-1443
1016.613	-1407
1016.685	-2244
1016.756	-1337
1016.827	-1279
1016.898	-1840
1016.969	-546
1017.040	-919
1017.111	-1823
1017.182	-1646
1017.253	-1601
1017.324	-1628
1017.395	-1605
1017.466	-869
1017.537	-1597
1017.608	-919
1017.678	-2355
1017.749	-2395
1017.820	-1959
1017.891	-1955
1017.961	-1499
1018.032	-1374
1018.103	-1041
1018.173	-1842
1018.244	-1925
1018.315	-2155
1018.385	-1543
1018.456	-1783
1018.526	-1494
1018.597	-1249
1018.667	-1484
1018.738	-1247
1018.808	-1069
1018.878	-1658
1018.949	-1222
1019.019	-913
1019.089	-1242
1019.160	-1121
1019.230	-1661
1019.300	-1427
1019.371	-2437
1019.441	-1101
1019.511	-2077
1019.581	-1270
1019.651	-1603
1019.721	-834
1019.791	-1460
1019.861	-1053
1019.931	-2084
1020.001	-1527
1020.071	-1858
1020.141	-1671
1020.211	-1582
1020.281	-1224
1020.351	-1869
1020.421	-1377
1020.491	-1104
1020.560	-1487
1020.630	-2169
1020.700	-1498
1020.770	-1467
1020.839	-1632
1020.909	-1107
1020.979	-1501
1021.048	-1877
1021.118	-1410
1021.187	-1533
1021.257	-2176
1021.326	-2167
1021.396	-1823
1021.465	-1245
1021.535	-2136
1021.604	-1024
1021.674	-2158
1021.743	-1922
1021.812	-1289
1021.882	-2225
1021.951	-1372
1022.020	-1749
1022.089	-2105
1022.159	-1683
1022.228	-1415
1022.297	-1581
1022.366	-1232
1022.435	-2048
1022.504	-1497
1022.573	-1678
1022.642	-1420
1022.711	-1911
1022.781	-590
1022.849	-1888
1022.918	-1031
1022.987	-2174
1023.056	-1286
1023.125	-2000
1023.194	-1862
1023.263	-2359
1023.331	-2012
1023.400	-2276
1023.469	-2159
1023.538	-1833
1023.606	-1535
1023.675	-996
1023.744	-1271
1023.812	-2045
1023.881	-1842
1023.949	-1202
1024.018	-1323
1024.086	-1613
1024.155	-1447
1024.223	-1599
1024.292	-1155
1024.360	-1635
1024.429	-1865
1024.497	-2035
1024.565	-1629
1024.634	-2264
1024.702	-1201
1024.770	-2220
1024.838	-2189
1024.907	-1503
1024.975	-1449
1025.043	-1502
1025.111	-2290
1025.179	-1842
1025.247	-1959
1025.315	-1693
1025.383	-1333
1025.451	-2024
1025.519	-2123
1025.587	-1668
1025.655	-1632
1025.723	-1621
1025.791	-515
1025.859	-1897
1025.927	-2347
1025.995	-2325
1026.062	-1893
1026.130	-1232
1026.198	-1785
1026.266	-1672
1026.333	-798
1026.401	-1799
1026.469	-944
1026.536	-1382
1026.604	-2248
1026.671	-2202
1026.739	-1228
1026.806	-2114
1026.874	-2226
1026.941	-1994
1027.009	-2189
1027.076	-1684
1027.144	-1393
1027.211	-1119
1027.278	-1514
1027.345	-1834
1027.413	-1389
1027.480	-1673
1027.547	-1533
1027.614	-1948
1027.682	-1243
1027.749	-2076
1027.816	-1185
1027.883	-2131
1027.950	-1301
1028.017	-1643
1028.084	-1092
1028.151	-2559
1028.218	-1863
1028.285	-1271
1028.352	-1417
1028.419	-1595
1028.486	-1360
1028.553	-1785
1028.619	-1984
1028.686	-1803
1028.753	-1377
1028.820	-1672
1028.886	-977
1028.953	-1330
1029.020	-1120
1029.086	-1950
1029.153	-1861
1029.220	-1954
1029.286	-1720
1029.353	-2397
1029.419	-1542
1029.486	-1783
1029.552	-1350
1029.619	-1821
1029.685	-1677
1029.751	-2488
1029.818	-375
1029.884	-2229
1029.951	-932
1030.017	-2023
1030.083	-2084
1030.149	-1526
1030.216	-1971
1030.282	-1733
1030.348	-1693
1030.414	-1804
1030.480	-1703
1030.546	-1638
1030.612	-1328
1030.678	-2227
1030.744	-1321
1030.810	-1563
1030.876	-1271
1030.942	-2242
1031.008	-2648
1031.074	-1800
1031.140	-915
1031.206	-2091
1031.272	-1869
1031.337	-2075
1031.403	-1605
1031.469	-2257
1031.534	-1612
1031.600	-1433
1031.666	-1681
1031.731	-1780
1031.797	-1520
1031.863	-2280
1031.928	-1601
1031.994	-1964
1032.059	-1757
1032.125	-2241
1032.190	-1370
1032.256	-2184
1032.321	-1717
1032.386	-2440
1032.452	-1914
1032.517	-1926
1032.582	-1160
1032.647	-1996
1032.713	-1670
1032.778	-1035
1032.843	-2069
1032.908	-1819
1032.974	-1534
1033.039	-2195
1033.104	-1241
1033.169	-2557
1033.234	-1152
1033.299	-2196
1033.364	-1498
1033.429	-2007
1033.494	-1246
1033.559	-851
1033.624	-1451
1033.688	-2052
1033.753	-1359
1033.818	-1725
1033.883	-1263
1033.948	-1504
1034.013	-1179
1034.077	-2089
1034.142	-1801
1034.207	-2214
1034.271	-1930
1034.336	-1402
1034.400	-1756
1034.465	-1591
1034.530	-1925
1034.594	-2038
1034.658	-956
1034.723	-2340
1034.787	-1426
1034.852	-1772
1034.916	-1625
1034.981	-3028
1035.045	-1457
1035.109	-1897
1035.173	-1363
1035.238	-2165
1035.302	-1280
1035.366	-2376
1035.430	-1679
1035.495	-2061
1035.559	-1314
1035.623	-1492
1035.687	-1790
1035.751	-2132
1035.815	-2095
1035.879	-2650
1035.943	-1552
1036.007	-1935
1036.071	-2374
1036.135	-2480
1036.198	-1775
1036.262	-1637
1036.326	-1056
1036.390	-2503
1036.454	-2130
1036.517	-2103
1036.581	-1726
1036.645	-1397
1036.709	-674
1036.772	-1086
1036.836	-1407
1036.900	-1726
1036.963	-1557
1037.026	-2480
1037.090	-1360
1037.154	-1723
1037.217	-1942
1037.280	-1839
1037.344	-1019
1037.407	-1909
1037.471	-1861
1037.534	-1675
1037.597	-2037
1037.661	-764
1037.724	-1997
1037.787	-2037
1037.850	-1554
1037.913	-2120
1037.977	-1204
1038.040	-2568
1038.103	-1640
1038.166	-2267
1038.229	-1645
1038.292	-2249
1038.355	-2488
1038.418	-2960
1038.481	-1723
1038.544	-2507
1038.607	-1571
1038.670	-2004
1038.732	-1917
1038.795	-2360
1038.858	-2159
1038.921	-2525
1038.984	-1935
1039.046	-1958
1039.109	-1417
1039.172	-1623
1039.234	-2035
1039.297	-1932
1039.360	-1874
1039.422	-2405
1039.485	-1749
1039.547	-2144
1039.610	-2042
1039.672	-2196
1039.734	-1886
1039.797	-2474
1039.859	-2165
1039.922	-2296
1039.984	-2442
1040.046	-2040
1040.109	-1251
1040.171	-1996
1040.233	-2192
1040.295	-2399
1040.358	-2252
1040.420	-2006
1040.482	-1861
1040.544	-1565
1040.606	-1748
1040.668	-1552
1040.730	-2058
1040.792	-2223
1040.854	-1638
1040.916	-2031
1040.978	-2046
1041.040	-1974
1041.102	-1259
1041.164	-2609
1041.225	-1846
1041.287	-2293
1041.349	-1803
1041.411	-1374
1041.472	-1488
1041.534	-1863
1041.596	-2065
1041.657	-1909
1041.719	-1961
1041.781	-1951
1041.842	-2245
1041.904	-2100
1041.965	-1985
1042.027	-2408
1042.088	-2264
1042.150	-2438
1042.211	-2305
1042.272	-1602
1042.334	-1842
1042.395	-2523
1042.456	-1709
1042.518	-1184
1042.579	-1805
1042.640	-2127
1042.701	-2165
1042.763	-2107
1042.824	-2046
1042.885	-2889
1042.946	-2008
1043.007	-2432
1043.068	-1787
1043.129	-2549
1043.190	-2401
1043.251	-2720
1043.312	-2333
1043.373	-1476
1043.434	-1955
1043.495	-1920
1043.556	-1364
1043.616	-1913
1043.677	-1923
1043.738	-2299
1043.799	-1480
1043.859	-1927
1043.920	-1655
1043.981	-2631
1044.041	-2274
1044.102	-2227
1044.162	-1836
1044.223	-2235
1044.284	-1690
1044.344	-2171
1044.405	-2133
1044.465	-2206
1044.525	-2392
1044.586	-2312
1044.646	-2285
1044.707	-2054
1044.767	-1736
1044.827	-2350
1044.887	-2073
1044.948	-2075
1045.008	-2230
1045.068	-2562
1045.128	-1568
1045.188	-1885
1045.249	-1701
1045.309	-2576
1045.369	-1070
1045.429	-2587
1045.489	-1280
1045.549	-2434
1045.609	-1202
1045.669	-2130
1045.729	-1689
1045.789	-1973
1045.848	-1772
1045.908	-1864
1045.968	-2058
1046.028	-1781
1046.088	-1351
1046.147	-1970
1046.207	-1918
1046.267	-1688
1046.326	-1379
1046.386	-1588
1046.446	-748
1046.505	-1988
1046.565	-840
1046.624	-1551
1046.684	-1064
1046.743	-1711
1046.803	-1047
1046.862	-1253
1046.922	0
