'Start Wavelength	183.907
'End Wavelength	1046.922
'Gate Delay	5.000
'Gate Width (ms)	1.050
'Laser Output Level	0.000
'X Position	0.000
'Y Position	0.000
'Z Position	0.000
'Grid Point Number	1.000
'Shot Number	100.000
183.907	-146.000
183.977	-425.000
184.047	753
184.116	-29
184.186	453
184.256	-650
184.325	27
184.395	96
184.465	482
184.534	-526
184.604	104
184.674	312
184.743	524
184.813	-253
184.883	272
184.952	-558
185.022	152
185.092	-503
185.161	479
185.231	-599
185.301	560
185.370	269
185.440	108
185.509	-12
185.579	647
185.649	589
185.718	501
185.788	743
185.857	223
185.927	-401
185.996	545
186.066	-331
186.136	-55
186.205	-552
186.275	685
186.344	-353
186.414	-221
186.483	-666
186.553	576
186.622	-47
186.692	496
186.761	-9
186.831	586
186.900	24
186.970	496
187.039	-232
187.109	469
187.178	-545
187.248	-662
187.317	-90
187.387	-113
187.456	-534
187.526	913
187.595	-364
187.664	243
187.734	361
187.803	565
187.873	34
187.942	-28
188.012	427
188.081	220
188.150	264
188.220	257
188.289	-591
188.358	604
188.428	112
188.497	452
188.567	-12
188.636	38
188.705	-133
188.775	-135
188.844	-87
188.913	865
188.983	-276
189.052	116
189.121	53
189.191	530
189.260	594
189.329	-146
189.399	39
189.468	302
189.537	16
189.606	643
189.676	-60
189.745	-161
189.814	29
189.883	351
189.953	465
190.022	538
190.091	588
190.161	1585
190.230	459
190.299	476
190.368	19
190.437	959
190.507	295
190.576	10
190.645	200
190.714	-95
190.783	252
190.853	680
190.922	505
190.991	-193
191.060	-46
191.129	109
191.198	-888
191.268	554
191.337	16
191.406	-116
191.475	132
191.544	712
191.613	159
191.682	-125
191.752	-247
191.821	107
191.890	148
191.959	131
192.028	-285
192.097	792
192.166	-235
192.235	461
192.304	6
192.373	161
192.442	84
192.511	764
192.580	-250
192.650	447
192.719	-131
192.788	41
192.857	195
192.926	1015
192.995	-40
193.064	863
193.133	565
193.202	682
193.271	395
193.340	651
193.409	43
193.478	967
193.547	26
193.615	129
193.684	74
193.753	99
193.822	20
193.891	-291
193.960	-47
194.029	365
194.098	261
194.167	332
194.236	199
194.305	84
194.374	-166
194.443	663
194.512	307
194.580	77
194.649	-372
194.718	169
194.787	-384
194.856	-473
194.925	581
194.994	-9
195.062	-215
195.131	1091
195.200	-247
195.269	726
195.338	245
195.407	1148
195.475	520
195.544	52
195.613	-180
195.682	608
195.751	244
195.819	1048
195.888	-18
195.957	365
196.026	421
196.094	1038
196.163	-95
196.232	643
196.301	-369
196.369	798
196.438	124
196.507	152
196.576	222
196.644	1131
196.713	422
196.782	60
196.850	438
196.919	482
196.988	164
197.056	12
197.125	-486
197.194	467
197.262	-704
197.331	81
197.400	-350
197.468	800
197.537	589
197.606	1017
197.674	324
197.743	1345
197.812	-317
197.880	1416
197.949	-7
198.017	1176
198.086	862
198.155	1150
198.223	508
198.292	1979
198.360	817
198.429	429
198.497	-278
198.566	1085
198.635	1054
198.703	930
198.772	266
198.840	2466
198.909	989
198.977	821
199.046	-44
199.114	644
199.183	204
199.251	263
199.320	-844
199.388	113
199.457	-594
199.525	-2
199.594	-198
199.662	-396
199.731	-364
199.799	1030
199.867	-631
199.936	100
200.004	397
200.073	813
200.141	-195
200.210	985
200.278	-73
200.346	311
200.415	-5
200.483	776
200.552	246
200.620	358
200.688	-127
200.757	16
200.825	152
200.893	422
200.962	-75
201.030	161
201.098	-455
201.167	347
201.235	126
201.303	777
201.372	-413
201.440	655
201.508	109
201.577	447
201.645	-177
201.713	341
201.781	-154
201.850	951
201.918	-376
201.986	-64
202.055	-93
202.123	150
202.191	-139
202.259	353
202.327	52
202.396	466
202.464	-75
202.532	166
202.600	893
202.669	1209
202.737	499
202.805	637
202.873	444
202.941	554
203.009	200
203.078	821
203.146	-132
203.214	955
203.282	-515
203.350	419
203.418	237
203.487	427
203.555	578
203.623	-25
203.691	-107
203.759	165
203.827	-294
203.895	116
203.963	76
204.031	535
204.099	-31
204.168	217
204.236	-583
204.304	947
204.372	563
204.440	480
204.508	-625
204.576	684
204.644	-430
204.712	192
204.780	-338
204.848	484
204.916	-288
204.984	989
205.052	639
205.120	567
205.188	30
205.256	206
205.324	-413
205.392	796
205.460	225
205.528	396
205.596	5
205.664	448
205.732	-430
205.799	2229
205.867	1930
205.935	376
206.003	568
206.071	708
206.139	-634
206.207	996
206.275	288
206.343	691
206.411	-344
206.478	864
206.546	93
206.614	-110
206.682	-283
206.750	494
206.818	-526
206.885	-23
206.953	-143
207.021	628
207.089	-453
207.157	716
207.225	280
207.292	347
207.360	-12
207.428	-49
207.496	259
207.563	731
207.631	914
207.699	79
207.767	24
207.834	180
207.902	14
207.970	965
208.038	-652
208.105	-139
208.173	125
208.241	-24
208.309	162
208.376	563
208.444	1165
208.512	391
208.579	-286
208.647	582
208.715	-110
208.782	453
208.850	182
208.918	208
208.985	-436
209.053	502
209.120	553
209.188	373
209.256	55
209.323	67
209.391	385
209.459	688
209.526	-390
209.594	454
209.661	722
209.729	387
209.796	-141
209.864	859
209.932	-755
209.999	1066
210.067	679
210.134	434
210.202	-309
210.269	1352
210.337	-156
210.404	271
210.472	383
210.539	763
210.607	-63
210.674	1060
210.742	-91
210.809	491
210.877	164
210.944	546
211.012	517
211.079	1346
211.146	22
211.214	414
211.281	315
211.349	832
211.416	656
211.484	374
211.551	-76
211.618	1258
211.686	253
211.753	366
211.821	36
211.888	567
211.955	281
212.023	-256
212.090	48
212.157	1376
212.225	-470
212.292	1953
212.359	3294
212.427	8896
212.494	2734
212.561	1841
212.629	260
212.696	552
212.763	1061
212.831	661
212.898	774
212.965	822
213.032	136
213.100	263
213.167	467
213.234	1083
213.301	-286
213.369	749
213.436	247
213.503	1277
213.570	-189
213.638	584
213.705	34
213.772	708
213.839	402
213.906	1155
213.973	413
214.041	918
214.108	10
214.175	1565
214.242	-562
214.309	720
214.376	222
214.444	766
214.511	707
214.578	1054
214.645	701
214.712	1154
214.779	433
214.846	615
214.913	32
214.980	1558
215.048	522
215.115	1026
215.182	635
215.249	686
215.316	822
215.383	710
215.450	-53
215.517	755
215.584	513
215.651	-461
215.718	296
215.785	1187
215.852	563
215.919	1055
215.986	623
216.053	405
216.120	227
216.187	572
216.254	777
216.321	1107
216.388	314
216.455	330
216.522	313
216.589	1389
216.656	2029
216.722	1513
216.789	1118
216.856	1374
216.923	593
216.990	1530
217.057	341
217.124	1447
217.191	757
217.258	1551
217.324	2084
217.391	2124
217.458	984
217.525	1073
217.592	284
217.659	880
217.725	944
217.792	1909
217.859	1240
217.926	-78
217.993	160
218.059	724
218.126	-167
218.193	1389
218.260	-185
218.327	-184
218.393	268
218.460	1121
218.527	-217
218.594	585
218.660	995
218.727	2317
218.794	-343
218.860	994
218.927	307
218.994	662
219.061	352
219.127	1141
219.194	1597
219.261	1264
219.327	-610
219.394	-211
219.461	185
219.527	769
219.594	1089
219.661	936
219.727	101
219.794	1518
219.860	179
219.927	735
219.994	939
220.060	2366
220.127	-140
220.193	925
220.260	648
220.326	2222
220.393	2516
220.460	3790
220.526	1624
220.593	1137
220.659	1119
220.726	2293
220.792	4911
220.859	2493
220.925	4061
220.992	7020
221.058	6114
221.125	6446
221.191	4874
221.258	1142
221.324	1013
221.391	493
221.457	725
221.524	1244
221.590	1375
221.657	6329
221.723	2592
221.789	4317
221.856	1565
221.922	1717
221.989	970
222.055	958
222.121	471
222.188	732
222.254	308
222.321	945
222.387	320
222.453	962
222.520	335
222.586	926
222.652	22
222.719	267
222.785	825
222.851	488
222.918	-609
222.984	502
223.050	-164
223.116	467
223.183	1080
223.249	185
223.315	8
223.382	648
223.448	629
223.514	-216
223.580	-420
223.647	509
223.713	102
223.779	485
223.845	-98
223.911	685
223.978	-758
224.044	221
224.110	150
224.176	901
224.242	259
224.309	-221
224.375	-84
224.441	700
224.507	-682
224.573	673
224.639	20
224.705	192
224.772	-221
224.838	741
224.904	788
224.970	261
225.036	78
225.102	61
225.168	396
225.234	658
225.300	605
225.366	562
225.432	31
225.499	508
225.565	493
225.631	154
225.697	504
225.763	1478
225.829	1151
225.895	722
225.961	1139
226.027	1906
226.093	1322
226.159	1109
226.225	2026
226.291	6278
226.357	8096
226.423	3163
226.489	1757
226.554	1658
226.620	1289
226.686	1703
226.752	2302
226.818	4945
226.884	12815
226.950	8256
227.016	2907
227.082	2400
227.148	1164
227.214	2000
227.279	371
227.345	647
227.411	189
227.477	594
227.543	558
227.609	2013
227.674	710
227.740	619
227.806	95
227.872	476
227.938	281
228.003	1641
228.069	6
228.135	511
228.201	188
228.267	537
228.332	936
228.398	807
228.464	160
228.530	452
228.595	-172
228.661	260
228.727	1559
228.792	1402
228.858	1069
228.924	888
228.990	945
229.055	395
229.121	1490
229.187	496
229.252	32
229.318	311
229.384	120
229.449	1153
229.515	-600
229.581	-155
229.646	1575
229.712	1490
229.777	2329
229.843	1696
229.909	1015
229.974	1253
230.040	821
230.105	1161
230.171	633
230.236	1443
230.302	2225
230.368	2122
230.433	851
230.499	431
230.564	590
230.630	1286
230.695	243
230.761	1222
230.826	16
230.892	1254
230.957	787
231.023	504
231.088	46
231.154	243
231.219	816
231.284	1730
231.350	967
231.415	933
231.481	-79
231.546	873
231.612	494
231.677	483
231.742	-306
231.808	820
231.873	668
231.939	659
232.004	1170
232.069	2132
232.135	880
232.200	17
232.265	482
232.331	572
232.396	667
232.461	291
232.527	150
232.592	299
232.657	-14
232.723	2013
232.788	462
232.853	772
232.918	-617
232.984	777
233.049	-91
233.114	1459
233.179	439
233.245	3189
233.310	2247
233.375	932
233.440	416
233.506	553
233.571	457
233.636	370
233.701	-34
233.766	2891
233.832	2020
233.897	1240
233.962	506
234.027	629
234.092	699
234.157	760
234.222	151
234.288	2345
234.353	6244
234.418	5482
234.483	1695
234.548	1701
234.613	842
234.678	1405
234.743	2038
234.808	6744
234.873	3043
234.938	2343
235.004	541
235.069	1235
235.134	643
235.199	1615
235.264	394
235.329	435
235.394	583
235.459	774
235.524	285
235.589	703
235.654	466
235.719	839
235.784	716
235.849	1546
235.913	2772
235.978	3474
236.043	2874
236.108	2009
236.173	1325
236.238	1407
236.303	366
236.368	310
236.433	2113
236.498	4215
236.563	1854
236.627	4719
236.692	16663
236.757	8785
236.822	3818
236.887	3733
236.952	2264
237.017	2197
237.081	2104
237.146	2185
237.211	6247
237.276	18901
237.341	23863
237.405	9109
237.470	3170
237.535	3112
237.600	1483
237.664	1112
237.729	903
237.794	2794
237.859	3056
237.923	3322
237.988	992
238.053	3031
238.118	2156
238.182	9290
238.247	6595
238.312	3367
238.376	2235
238.441	874
238.506	2419
238.570	608
238.635	1080
238.700	1510
238.764	780
238.829	4553
238.893	3053
238.958	1968
239.023	1408
239.087	851
239.152	259
239.216	784
239.281	838
239.346	1004
239.410	836
239.475	2164
239.539	9536
239.604	5001
239.668	1462
239.733	992
239.797	-247
239.862	2208
239.926	5950
239.991	1908
240.055	420
240.120	960
240.184	618
240.249	748
240.313	-69
240.378	1187
240.442	5429
240.507	6795
240.571	1603
240.635	4531
240.700	3383
240.764	1248
240.829	664
240.893	565
240.957	914
241.022	5662
241.086	7120
241.151	2125
241.215	236
241.279	2727
241.344	3892
241.408	1740
241.472	542
241.537	969
241.601	1248
241.665	1079
241.730	769
241.794	1106
241.858	851
241.922	827
241.987	514
242.051	791
242.115	366
242.179	300
242.244	-231
242.308	1673
242.372	802
242.436	1745
242.501	797
242.565	1058
242.629	-752
242.693	1236
242.757	195
242.822	609
242.886	983
242.950	864
243.014	470
243.078	1422
243.142	828
243.206	1797
243.271	1190
243.335	1447
243.399	1924
243.463	11481
243.527	23083
243.591	5055
243.655	1996
243.719	1646
243.783	1352
243.847	3091
243.911	3186
243.975	3767
244.040	1637
244.104	2014
244.168	1093
244.232	1958
244.296	2213
244.360	3334
244.424	997
244.488	1394
244.552	998
244.615	826
244.679	636
244.743	1692
244.807	473
244.871	894
244.935	546
244.999	684
245.063	1219
245.127	1588
245.191	2005
245.255	1756
245.319	978
245.383	564
245.446	1168
245.510	1027
245.574	1078
245.638	1070
245.702	595
245.766	3474
245.829	1687
245.893	1890
245.957	770
246.021	1804
246.085	948
246.149	2291
246.212	6645
246.276	8165
246.340	2564
246.404	1102
246.467	2039
246.531	2693
246.595	2277
246.659	2250
246.722	1440
246.786	2316
246.850	2390
246.913	3614
246.977	900
247.041	1005
247.104	1212
247.168	2599
247.232	6083
247.295	11530
247.359	3442
247.423	3220
247.486	3652
247.550	2868
247.614	1657
247.677	2854
247.741	1627
247.804	1790
247.868	1362
247.932	6292
247.995	9275
248.059	2302
248.122	1003
248.186	2838
248.249	5170
248.313	19653
248.376	15246
248.440	9170
248.503	2230
248.567	3384
248.630	4434
248.694	5899
248.757	8769
248.821	18188
248.884	8842
248.948	10549
249.011	14205
249.075	22273
249.138	14759
249.202	5592
249.265	3340
249.328	6318
249.392	2533
249.455	3515
249.519	1887
249.582	2946
249.645	5696
249.709	3713
249.772	3098
249.835	2103
249.899	1561
249.962	2325
250.025	1328
250.089	8970
250.152	7563
250.215	4109
250.279	1901
250.342	3333
250.405	2377
250.468	2346
250.532	3002
250.595	7386
250.658	31211
250.721	34238
250.785	9477
250.848	6374
250.911	3375
250.974	3122
251.038	6709
251.101	11175
251.164	4698
251.227	4904
251.290	4936
251.354	9326
251.417	41249
251.480	25454
251.543	23440
251.606	70972
251.669	33365
251.732	13589
251.795	15228
251.859	18654
251.922	41251
251.985	15686
252.048	6899
252.111	6011
252.174	5731
252.237	11872
252.300	20705
252.363	28460
252.426	50023
252.489	15397
252.552	8162
252.615	6836
252.678	7863
252.741	17859
252.804	26451
252.867	51411
252.930	23526
252.993	12304
253.056	8221
253.119	5366
253.182	4114
253.245	7704
253.308	4744
253.371	4983
253.434	4567
253.497	5003
253.559	10335
253.622	5694
253.685	7476
253.748	5454
253.811	3163
253.874	5785
253.937	2990
254.000	3748
254.062	7022
254.125	9286
254.188	8023
254.251	6077
254.314	3141
254.376	6948
254.439	5682
254.502	5035
254.565	7494
254.628	11006
254.690	5610
254.753	2984
254.816	2469
254.878	3422
254.941	8462
255.004	6844
255.067	2757
255.129	2650
255.192	531
255.255	1802
255.317	1620
255.380	920
255.443	515
255.505	703
255.568	469
255.631	1268
255.693	1357
255.756	880
255.819	959
255.881	1037
255.944	1346
256.006	895
256.069	1205
256.132	1681
256.194	1875
256.257	5907
256.319	4336
256.382	3150
256.444	2079
256.507	847
256.569	589
256.632	1676
256.694	2728
256.757	11326
256.819	21303
256.882	6462
256.944	2827
257.007	3002
257.069	1992
257.132	2054
257.194	1691
257.257	1467
257.319	716
257.381	1881
257.444	7374
257.506	31798
257.569	21210
257.631	7983
257.693	5371
257.756	2648
257.818	2268
257.880	1678
257.943	991
258.005	1588
258.067	1167
258.130	892
258.192	1663
258.254	4173
258.317	1449
258.379	1598
258.441	6236
258.503	5114
258.566	10081
258.628	8144
258.690	1036
258.753	1817
258.815	3415
258.877	837
258.939	709
259.001	1212
259.064	1089
259.126	1693
259.188	2599
259.250	1256
259.312	1181
259.375	3331
259.437	1417
259.499	984
259.561	611
259.623	1517
259.685	1049
259.747	2212
259.809	10201
259.872	14214
259.934	25711
259.996	13903
260.058	2792
260.120	1723
260.182	885
260.244	1392
260.306	908
260.368	1256
260.430	382
260.492	2885
260.554	3343
260.616	3256
260.678	11942
260.740	11825
260.802	2311
260.864	2086
260.926	578
260.988	2113
261.050	1173
261.112	4740
261.174	16030
261.236	8834
261.298	2427
261.359	7603
261.421	7760
261.483	1789
261.545	1466
261.607	1065
261.669	1237
261.731	5066
261.793	8290
261.854	1494
261.916	1347
261.978	1419
262.040	1251
262.102	1683
262.164	3351
262.225	2499
262.287	945
262.349	4079
262.411	1505
262.472	1799
262.534	4757
262.596	7738
262.658	1221
262.719	1174
262.781	2280
262.843	8225
262.904	1757
262.966	2406
263.028	2982
263.090	23725
263.151	35845
263.213	9564
263.275	3729
263.336	2816
263.398	1475
263.459	799
263.521	1170
263.583	4395
263.644	1420
263.706	1317
263.767	-744
263.829	599
263.891	-150
263.952	366
264.014	-608
264.075	1570
264.137	2656
264.198	1515
264.260	-593
264.321	785
264.383	3289
264.444	5721
264.506	405
264.567	1327
264.629	2348
264.690	3388
264.752	857
264.813	1069
264.875	-226
264.936	963
264.998	651
265.059	696
265.120	-11
265.182	2434
265.243	12857
265.305	7049
265.366	1397
265.427	1455
265.489	522
265.550	-106
265.611	605
265.673	1292
265.734	-44
265.795	755
265.857	-390
265.918	489
265.979	3863
266.040	21512
266.102	9502
266.163	4286
266.224	1796
266.286	1279
266.347	-454
266.408	1211
266.469	1372
266.530	952
266.592	137
266.653	2743
266.714	2317
266.775	183
266.836	-357
266.898	50
266.959	8
267.020	-121
267.081	-34
267.142	349
267.203	478
267.264	-40
267.326	1460
267.387	749
267.448	-459
267.509	462
267.570	424
267.631	992
267.692	-834
267.753	802
267.814	-181
267.875	3791
267.936	3554
267.997	2272
268.058	1351
268.119	147
268.180	538
268.241	-8
268.302	-229
268.363	367
268.424	346
268.485	772
268.546	215
268.607	479
268.668	103
268.729	544
268.790	369
268.851	935
268.912	3101
268.972	3442
269.033	910
269.094	349
269.155	881
269.216	826
269.277	-260
269.338	336
269.398	946
269.459	638
269.520	1344
269.581	2400
269.642	1406
269.702	630
269.763	508
269.824	394
269.885	920
269.945	1748
270.006	-303
270.067	392
270.128	-156
270.188	53
270.249	-429
270.310	390
270.370	197
270.431	607
270.492	75
270.553	1365
270.613	2167
270.674	4908
270.734	1042
270.795	631
270.856	1674
270.916	1385
270.977	432
271.038	1293
271.098	658
271.159	2255
271.219	1078
271.280	1467
271.340	141
271.401	2091
271.462	3204
271.522	2601
271.583	509
271.643	993
271.704	520
271.764	1801
271.825	4405
271.885	19987
271.946	18400
272.006	5764
272.066	13375
272.127	15923
272.187	3332
272.248	2270
272.308	3041
272.369	13622
272.429	4477
272.489	4598
272.550	2525
272.610	4626
272.671	2624
272.731	4078
272.791	4801
272.852	2563
272.912	2102
272.972	1532
273.033	1133
273.093	1541
273.153	2114
273.214	1684
273.274	1275
273.334	10388
273.394	15042
273.455	4974
273.515	7246
273.575	12862
273.635	4182
273.696	10503
273.756	16105
273.816	5414
273.876	2739
273.936	12072
273.997	12768
274.057	2546
274.117	2117
274.177	5520
274.237	22758
274.297	15992
274.358	11294
274.418	14758
274.478	7076
274.538	2944
274.598	3362
274.658	15343
274.718	14080
274.778	4398
274.838	2830
274.898	10103
274.958	21686
275.018	19806
275.078	9187
275.138	4161
275.198	1882
275.258	1940
275.318	1902
275.378	3992
275.438	4269
275.498	3661
275.558	14458
275.618	20136
275.678	10154
275.738	7355
275.798	3692
275.858	1717
275.918	288
275.978	2218
276.038	876
276.098	1317
276.157	4169
276.217	9240
276.277	3296
276.337	2403
276.397	922
276.457	1672
276.517	398
276.576	460
276.636	445
276.696	2447
276.756	6757
276.815	3660
276.875	1076
276.935	2436
276.995	1435
277.055	1334
277.114	438
277.174	3032
277.234	7933
277.293	2739
277.353	583
277.413	508
277.472	1199
277.532	1365
277.592	2621
277.651	7453
277.711	9486
277.771	4173
277.830	15261
277.890	8947
277.950	10825
278.009	24682
278.069	6459
278.128	9654
278.188	9527
278.248	5228
278.307	12799
278.367	5547
278.426	1642
278.486	1684
278.545	1425
278.605	974
278.664	823
278.724	2388
278.783	9074
278.843	18517
278.902	3691
278.962	2363
279.021	2325
279.081	4229
279.140	2724
279.199	2348
279.259	2482
279.318	2786
279.378	3900
279.437	8760
279.496	27319
279.556	91978
279.615	45771
279.675	11615
279.734	8118
279.793	13056
279.853	14192
279.912	5275
279.971	3141
280.031	3640
280.090	6484
280.149	9251
280.208	12989
280.268	68238
280.327	44982
280.386	10097
280.445	9503
280.505	7264
280.564	3547
280.623	3295
280.682	5400
280.742	7067
280.801	2367
280.860	2061
280.919	1359
280.978	1873
281.037	820
281.097	474
281.156	1509
281.215	2264
281.274	2131
281.333	14117
281.392	6333
281.451	2215
281.510	959
281.569	631
281.628	659
281.688	1697
281.747	2023
281.806	1307
281.865	218
281.924	581
281.983	-212
282.042	1083
282.101	586
282.160	796
282.219	294
282.278	1433
282.337	5457
282.396	2518
282.454	1310
282.513	3371
282.572	8515
282.631	3811
282.690	783
282.749	473
282.808	1638
282.867	1541
282.926	748
282.985	979
283.043	-340
283.102	457
283.161	1289
283.220	5801
283.279	9777
283.338	3426
283.396	1721
283.455	2283
283.514	1337
283.573	2976
283.631	1737
283.690	2387
283.749	677
283.808	4179
283.866	3273
283.925	1938
283.984	1548
284.043	2479
284.101	2023
284.160	1675
284.219	1429
284.277	2124
284.336	4007
284.395	14642
284.453	8868
284.512	3270
284.570	4412
284.629	3522
284.688	3226
284.746	3115
284.805	3685
284.863	5590
284.922	5644
284.981	7509
285.039	11487
285.098	22757
285.156	57134
285.215	123644
285.273	95571
285.332	47105
285.390	25805
285.449	17356
285.507	11206
285.566	9006
285.624	6342
285.683	5884
285.741	3208
285.799	3986
285.858	2534
285.916	3899
285.975	1944
286.033	1612
286.091	1331
286.150	1395
286.208	1895
286.267	2487
286.325	2155
286.383	4116
286.442	2535
286.500	944
286.558	1142
286.616	1276
286.675	2491
286.733	2554
286.791	1911
286.850	2936
286.908	2666
286.966	5091
287.024	2012
287.083	1313
287.141	744
287.199	1984
287.257	2592
287.315	2121
287.374	2720
287.432	6108
287.490	3505
287.548	2839
287.606	1640
287.664	1994
287.723	1788
287.781	2978
287.839	1554
287.897	2622
287.955	3073
288.013	6173
288.071	17691
288.129	74492
288.187	147628
288.245	53213
288.303	18750
288.361	11224
288.419	8477
288.477	5951
288.535	4155
288.593	3722
288.651	2384
288.709	2619
288.767	1510
288.825	1396
288.883	970
288.941	1740
288.999	913
289.057	1217
289.115	706
289.173	893
289.231	791
289.289	1056
289.346	1409
289.404	1836
289.462	2527
289.520	3089
289.578	1836
289.636	1049
289.694	638
289.751	1172
289.809	743
289.867	1610
289.925	1997
289.983	2473
290.040	992
290.098	745
290.156	749
290.214	1225
290.271	573
290.329	848
290.387	148
290.444	1373
290.502	246
290.560	1017
290.617	1330
290.675	810
290.733	455
290.790	1793
290.848	700
290.906	1849
290.963	687
291.021	1683
291.078	778
291.136	1891
291.194	6663
291.251	10879
291.309	3206
291.366	1485
291.424	700
291.481	1244
291.539	874
291.596	820
291.654	-97
291.711	1375
291.769	1870
291.826	3304
291.884	633
291.941	489
291.999	740
292.056	1204
292.114	638
292.171	881
292.228	896
292.286	1252
292.343	3387
292.401	3621
292.458	1814
292.515	1588
292.573	2097
292.630	2623
292.687	1045
292.745	2039
292.802	2213
292.859	7757
292.917	13019
292.974	6198
293.031	1642
293.089	1846
293.146	1240
293.203	868
293.260	1084
293.318	1304
293.375	1969
293.432	1918
293.489	1218
293.546	1299
293.604	2878
293.661	12032
293.718	24238
293.775	11284
293.832	4756
293.889	3230
293.947	3017
294.004	2487
294.061	2062
294.118	7333
294.175	12726
294.232	13674
294.289	5413
294.346	3514
294.403	4714
294.460	3211
294.517	1476
294.574	1675
294.631	897
294.688	3707
294.745	9994
294.802	30061
294.859	23482
294.916	9959
294.973	4669
295.030	4289
295.087	3976
295.144	3219
295.201	2025
295.258	2858
295.315	3726
295.372	14115
295.429	19093
295.486	8859
295.542	5646
295.599	12655
295.656	16608
295.713	15481
295.770	17536
295.827	7048
295.883	4030
295.940	3530
295.997	5337
296.054	5119
296.111	2529
296.167	2794
296.224	1226
296.281	1832
296.338	1699
296.394	2341
296.451	3000
296.508	10999
296.564	15283
296.621	13059
296.678	28405
296.734	31040
296.791	11963
296.848	7421
296.904	7107
296.961	15412
297.018	22983
297.074	15299
297.131	6603
297.187	6197
297.244	8245
297.301	29402
297.357	38139
297.414	13800
297.470	6041
297.527	4342
297.583	3423
297.640	3454
297.696	2862
297.753	2309
297.809	1982
297.866	1602
297.922	1506
297.979	1538
298.035	2858
298.092	4731
298.148	13105
298.204	12234
298.261	6290
298.317	15253
298.374	30145
298.430	16777
298.486	7772
298.543	5496
298.599	5108
298.656	6892
298.712	10433
298.768	20850
298.824	14265
298.881	5600
298.937	2652
298.993	3051
299.050	3902
299.106	4349
299.162	3009
299.218	3453
299.275	2906
299.331	4010
299.387	9993
299.443	27547
299.500	22091
299.556	8423
299.612	4333
299.668	3684
299.724	2891
299.780	3328
299.837	3271
299.893	6713
299.949	20039
300.005	21195
300.061	21723
300.117	33482
300.173	15978
300.229	9227
300.285	9460
300.341	9944
300.397	4994
300.453	3966
300.510	2931
300.566	3276
300.622	3760
300.678	7162
300.734	14727
300.790	20773
300.845	25102
300.901	14746
300.957	17710
301.013	13670
301.069	6419
301.125	4679
301.181	4489
301.237	4003
301.293	2984
301.349	3176
301.405	1831
301.461	3059
301.516	3904
301.572	4639
301.628	6055
301.684	6159
301.740	10669
301.796	13907
301.851	10732
301.907	17074
301.963	19401
302.019	36262
302.074	76934
302.130	68570
302.186	33341
302.242	15619
302.297	9581
302.353	9960
302.409	16755
302.464	15423
302.520	14167
302.576	29410
302.631	29710
302.687	16118
302.743	8258
302.798	5231
302.854	3686
302.910	5184
302.965	5206
303.021	8701
303.076	8149
303.132	11312
303.187	12394
303.243	6943
303.299	4808
303.354	4204
303.410	2883
303.465	3100
303.521	2445
303.576	4512
303.632	5084
303.687	11465
303.743	26731
303.798	20772
303.853	9167
303.909	5202
303.964	5284
304.020	7670
304.075	10908
304.130	10233
304.186	15505
304.241	15588
304.297	12659
304.352	7613
304.358	7240
304.407	4221
304.449	4192
304.463	4185
304.518	4296
304.539	4548
304.573	4957
304.629	5347
304.630	5441
304.684	9828
304.720	16869
304.739	20486
304.794	27232
304.811	23516
304.850	14398
304.902	6882
304.905	6408
304.960	4695
304.992	4567
305.015	4471
305.071	3939
305.083	3983
305.126	4166
305.173	3078
305.181	2894
305.236	2819
305.264	3234
305.292	3685
305.347	4109
305.354	4059
305.402	3703
305.445	4618
305.457	4887
305.512	5759
305.535	5961
305.567	6179
305.622	6030
305.626	6317
305.678	11911
305.716	21441
305.733	25196
305.788	27009
305.807	24522
305.843	19837
305.897	26295
305.898	26373
305.953	23572
305.988	17019
306.008	13194
306.063	7391
306.078	6785
306.118	5559
306.168	4016
306.173	3899
306.228	3612
306.259	3314
306.283	3041
306.338	3049
306.349	2984
306.393	2807
306.440	4181
306.448	4406
306.503	3333
306.530	3844
306.558	4802
306.613	8679
306.620	9474
306.668	14992
306.711	20038
306.723	20875
306.778	17120
306.801	13838
306.833	9436
306.888	5148
306.892	4956
306.943	3446
306.982	3529
306.997	3562
307.052	2724
307.072	2902
307.107	3421
307.162	3394
307.163	3415
307.217	5504
307.253	5947
307.272	5906
307.327	6692
307.343	6280
307.381	5194
307.434	5569
307.436	5690
307.491	9599
307.524	13921
307.546	15997
307.600	17506
307.614	16319
307.655	10924
307.704	5623
307.710	5290
307.765	5975
307.795	6639
307.819	7647
307.874	12274
307.885	12177
307.929	9666
307.975	9166
307.984	9391
308.038	12433
308.065	16746
308.093	25642
308.148	50546
308.156	56949
308.202	99321
308.246	119365
308.257	115906
308.312	67477
308.336	49081
308.366	37680
308.421	24382
308.426	23373
308.475	15424
308.517	11006
308.530	10030
308.585	7872
308.607	7679
308.639	7517
308.694	6783
308.697	6867
308.748	10786
308.787	14603
308.803	14846
308.857	12525
308.877	11484
308.912	10044
308.967	9376
308.967	9398
309.021	11311
309.058	14495
309.076	17725
309.130	31758
309.148	38112
309.185	67452
309.238	121227
309.239	121824
309.293	149459
309.328	144171
309.348	123022
309.402	61052
309.418	45592
309.457	32044
309.508	19816
309.511	19297
309.566	15395
309.598	14134
309.620	14502
309.674	17023
309.688	17837
309.729	17181
309.778	14692
309.783	14363
309.837	11272
309.868	9958
309.892	10811
309.946	14967
309.959	16637
310.001	24210
310.049	29747
310.055	28872
310.109	18594
310.139	12627
310.163	9966
310.218	5708
310.229	5184
310.272	4420
310.319	3562
310.326	3422
310.381	2886
310.409	2779
310.435	2566
310.489	1832
310.499	1762
310.543	2180
310.589	2747
310.598	2736
310.652	2441
310.679	2421
310.706	2147
310.760	1363
310.769	1292
310.814	1486
310.859	1584
310.868	1511
310.923	1330
310.948	1110
310.977	1285
311.031	2006
311.038	2092
311.085	1886
311.128	1692
311.139	1699
311.193	1756
311.218	1761
311.247	1715
311.301	1777
311.308	1782
311.356	1690
311.398	1662
311.410	1621
311.464	1412
311.488	1304
311.518	1354
311.572	1610
311.578	1644
311.626	2263
311.668	2849
311.680	2807
311.734	2533
311.758	2446
311.788	2263
311.842	1927
311.847	1911
311.896	2112
311.937	2291
311.950	2351
312.004	2702
312.027	2850
312.058	2379
312.112	1595
312.117	1531
312.165	1509
312.207	1524
312.297	2083
312.386	1514
312.476	1891
312.566	3227
312.656	1819
312.745	1767
312.835	934
312.925	1192
313.015	1503
313.104	1665
313.194	1185
313.284	1630
313.374	1848
313.463	1843
313.553	1284
313.643	1101
313.732	1273
313.822	767
313.912	1420
314.001	1567
314.091	1411
314.180	2389
314.270	1994
314.360	2180
314.449	1781
314.539	961
314.628	431
314.718	1185
314.808	1877
314.897	1080
314.987	744
315.076	1938
315.166	2221
315.255	2238
315.345	1935
315.434	2421
315.524	1232
315.613	2188
315.703	1950
315.792	2240
315.881	2093
315.971	1627
316.060	3022
316.150	5206
316.239	5763
316.328	2932
316.418	1062
316.507	1356
316.597	1683
316.686	1881
316.775	1918
316.865	6504
316.954	1459
317.043	1002
317.133	1079
317.222	1715
317.311	643
317.400	295
317.490	1428
317.579	1902
317.668	1901
317.757	1479
317.847	2627
317.936	2988
318.025	4608
318.114	3026
318.203	1350
318.293	3227
318.382	5768
318.471	5044
318.560	6775
318.649	12504
318.738	4096
318.828	1370
318.917	2812
319.006	2633
319.095	7185
319.184	16399
319.273	12005
319.362	7323
319.451	2263
319.540	2404
319.629	4248
319.718	8600
319.807	3923
319.896	5966
319.985	21581
320.074	11292
320.163	2236
320.252	4386
320.341	2562
320.430	2145
320.519	3470
320.608	2707
320.697	2378
320.786	1060
320.875	2222
320.964	3654
321.053	4889
321.142	6360
321.230	8486
321.319	5105
321.408	12192
321.497	6210
321.586	5331
321.675	5484
321.764	6365
321.852	3301
321.941	6741
322.030	6392
322.119	4248
322.207	14534
322.296	9710
322.385	4494
322.474	4778
322.562	15220
322.651	10779
322.740	5001
322.829	8561
322.917	8585
323.006	5133
323.095	4133
323.183	3266
323.272	4765
323.361	8180
323.449	27949
323.538	12224
323.626	16833
323.715	13889
323.804	4563
323.892	14619
323.981	11422
324.069	2969
324.158	7542
324.246	9304
324.335	2839
324.424	4940
324.512	2277
324.601	2033
324.689	5698
324.778	10237
324.866	6033
324.954	2114
325.043	2023
325.131	3147
325.220	6519
325.308	7389
325.397	5462
325.485	3909
325.574	1338
325.662	1062
325.750	820
325.839	412
325.927	1532
326.015	1402
326.104	1884
326.192	4056
326.280	1717
326.369	1420
326.457	1276
326.545	3062
326.634	2007
326.722	640
326.810	993
326.898	1128
326.987	1151
327.075	2784
327.163	3694
327.251	2408
327.340	2246
327.428	4084
327.516	1194
327.604	720
327.692	1498
327.781	1150
327.869	2703
327.957	1456
328.045	1999
328.133	1468
328.221	1220
328.309	644
328.397	1187
328.485	1353
328.574	2150
328.662	7604
328.750	5976
328.838	1545
328.926	1322
329.014	1075
329.102	1989
329.190	3669
329.278	3413
329.366	1124
329.454	801
329.542	1004
329.630	1179
329.718	834
329.806	1094
329.893	1628
329.981	1624
330.069	2783
330.157	11639
330.245	37205
330.333	23004
330.421	3459
330.509	3027
330.597	9803
330.684	8576
330.772	2223
330.860	2195
330.948	2761
331.036	2067
331.123	503
331.211	515
331.299	1613
331.387	1683
331.475	4591
331.562	1930
331.650	685
331.738	1315
331.825	1025
331.913	955
332.001	779
332.089	1032
332.176	2167
332.264	7160
332.352	6816
332.439	1715
332.527	1213
332.614	1302
332.702	1496
332.790	1139
332.877	2473
332.965	7933
333.052	2258
333.140	1181
333.228	4776
333.315	1621
333.403	1210
333.490	3808
333.578	4156
333.665	4239
333.753	3489
333.840	911
333.928	1208
334.015	4548
334.103	6544
334.190	24266
334.278	7972
334.365	2215
334.452	407
334.540	589
334.627	937
334.715	2253
334.802	5275
334.889	25670
334.977	38081
335.064	4139
335.151	1299
335.239	1066
335.326	2667
335.413	8669
335.501	17327
335.588	3336
335.675	627
335.762	924
335.850	2425
335.937	2360
336.024	6133
336.111	28557
336.199	14324
336.286	2052
336.373	1189
336.460	602
336.547	1656
336.635	1477
336.722	1104
336.809	872
336.896	2170
336.983	6559
337.070	15365
337.157	25860
337.245	18938
337.332	18463
337.419	1703
337.506	1082
337.593	782
337.680	4288
337.767	13897
337.854	5080
337.941	4477
338.028	6151
338.115	3024
338.202	2612
338.289	5230
338.376	19307
338.463	9182
338.550	6869
338.637	9868
338.724	3517
338.811	6077
338.898	1884
338.984	295
339.071	881
339.158	1015
339.245	4817
339.332	3873
339.419	2627
339.506	4309
339.593	1152
339.679	849
339.766	393
339.853	1069
339.940	3697
340.027	472
340.113	1794
340.200	1753
340.287	1630
340.374	1408
340.460	3876
340.547	1333
340.634	2214
340.720	9386
340.807	7703
340.894	976
340.980	1171
341.067	423
341.154	627
341.240	1310
341.327	5119
341.414	2398
341.500	2002
341.587	1372
341.674	1175
341.760	2587
341.847	4117
341.933	1635
342.020	136
342.106	300
342.193	1211
342.279	2378
342.366	1400
342.452	3141
342.539	2055
342.625	3556
342.712	11695
342.798	4952
342.885	2078
342.971	470
343.058	12
343.144	455
343.230	809
343.317	89
343.403	669
343.490	449
343.576	552
343.662	1075
343.749	1448
343.835	1978
343.921	4176
344.008	25211
344.094	75973
344.180	19672
344.267	4435
344.353	12698
344.439	18102
344.525	6146
344.612	3125
344.698	1681
344.784	1425
344.870	1213
344.957	825
345.043	1775
345.129	1206
345.215	2645
345.301	1533
345.387	496
345.474	574
345.560	168
345.646	1562
345.732	916
345.818	888
345.904	1223
345.990	1340
346.076	626
346.162	2581
346.249	1341
346.335	535
346.421	1035
346.507	4922
346.593	24715
346.679	7468
346.765	1094
346.851	679
346.937	474
347.023	1272
347.108	814
347.194	793
347.280	438
347.366	714
347.452	5427
347.538	28331
347.624	22312
347.710	16307
347.796	2475
347.882	981
347.967	156
348.053	1449
348.139	473
348.225	-30
348.311	220
348.397	306
348.482	778
348.568	1468
348.654	310
348.740	319
348.825	406
348.911	2311
348.997	10343
349.083	30094
349.168	5358
349.254	913
349.340	792
349.425	550
349.511	960
349.597	1795
349.682	3214
349.768	12968
349.854	8577
349.939	725
350.025	284
350.110	455
350.196	405
350.282	284
350.367	918
350.453	1343
350.538	2154
350.624	742
350.709	1108
350.795	546
350.880	448
350.966	1063
351.051	1181
351.137	1907
351.222	876
351.308	3441
351.393	11669
351.479	3746
351.564	346
351.649	1063
351.735	606
351.820	268
351.906	1212
351.991	1217
352.076	5616
352.162	12895
352.247	2397
352.332	1551
352.418	2218
352.503	3883
352.588	14099
352.673	16307
352.759	3094
352.844	1398
352.929	593
353.014	1980
353.100	865
353.185	1225
353.270	3066
353.355	4307
353.441	1145
353.526	1537
353.611	3088
353.696	4241
353.781	2935
353.866	952
353.952	1328
354.037	3146
354.122	7208
354.207	7924
354.292	2849
354.377	1291
354.462	244
354.547	1102
354.632	587
354.717	1084
354.802	876
354.887	407
354.972	511
355.057	303
355.142	-32
355.227	1239
355.312	1552
355.397	4960
355.482	12811
355.567	7707
355.652	4362
355.737	4575
355.822	13817
355.907	16568
355.991	2332
356.076	1227
356.161	1083
356.246	634
356.331	754
356.416	4266
356.501	26168
356.585	41117
356.670	5350
356.755	2561
356.840	2643
356.924	15422
357.009	76703
357.094	38873
357.179	5495
357.263	2607
357.348	2984
357.433	2720
357.517	2214
357.602	2155
357.687	1648
357.771	1981
357.856	8133
357.941	6975
358.025	13523
358.110	77293
358.195	48455
358.279	6356
358.364	3002
358.448	8882
358.533	28458
358.617	23472
358.702	21768
358.787	10215
358.871	3378
358.956	3117
359.040	1147
359.125	1225
359.209	721
359.294	3438
359.378	6535
359.462	4014
359.547	1918
359.631	1266
359.716	986
359.800	744
359.885	1230
359.969	1357
360.053	656
360.138	1360
360.222	1065
360.306	3298
360.391	2432
360.475	3859
360.559	12068
360.644	10622
360.728	8750
360.812	12840
360.896	50258
360.981	20984
361.065	9114
361.149	2220
361.233	1834
361.318	766
361.402	218
361.486	2274
361.570	1500
361.654	1909
361.739	4644
361.823	24180
361.907	56820
361.991	11301
362.075	2934
362.159	7465
362.243	5604
362.327	2435
362.411	2402
362.495	1939
362.580	855
362.664	195
362.748	458
362.832	341
362.916	574
363.000	3583
363.084	20358
363.168	60899
363.252	16120
363.336	3467
363.420	3820
363.503	13608
363.587	21424
363.671	4139
363.755	1593
363.839	3524
363.923	1048
364.007	3074
364.091	4417
364.175	3236
364.258	22363
364.342	14526
364.426	3564
364.510	2000
364.594	4151
364.677	5765
364.761	37723
364.845	38368
364.929	7575
365.013	5662
365.096	4045
365.180	6498
365.264	4489
365.347	26257
365.431	14647
365.515	2080
365.598	891
365.682	917
365.766	1437
365.849	2336
365.933	791
366.017	2313
366.100	1071
366.184	44
366.267	1136
366.351	682
366.435	83
366.518	164
366.602	405
366.685	650
366.769	620
366.852	1444
366.936	4037
367.019	2390
367.103	1089
367.186	2333
367.270	179
367.353	-970
367.436	528
367.520	715
367.603	1233
367.687	1822
367.770	3510
367.853	3585
367.937	7679
368.020	20484
368.104	4787
368.187	2808
368.270	4651
368.353	4443
368.437	4667
368.520	12664
368.603	8792
368.687	9344
368.770	24431
368.853	6613
368.936	3085
369.020	3353
369.103	1333
369.186	1198
369.269	267
369.352	2117
369.436	3937
369.519	2303
369.602	619
369.685	1081
369.768	1215
369.851	1219
369.934	560
370.018	900
370.101	3427
370.184	2951
370.267	1099
370.350	2434
370.433	4979
370.516	17668
370.599	26389
370.682	5564
370.765	9829
370.848	13331
370.931	30198
371.014	13186
371.097	1600
371.180	1577
371.263	361
371.346	87
371.429	376
371.511	949
371.594	2188
371.677	3677
371.760	3781
371.843	3912
371.926	22074
372.009	71962
372.091	24451
372.174	9282
372.257	29274
372.340	14984
372.423	5211
372.505	6148
372.588	2761
372.671	5719
372.754	27258
372.836	18282
372.919	5263
373.002	14110
373.085	4527
373.167	2858
373.250	9395
373.332	28269
373.415	36421
373.498	94562
373.580	39096
373.663	32211
373.746	61899
373.828	14278
373.911	4009
373.993	3635
374.076	11632
374.159	15074
374.241	6253
374.324	21505
374.406	18273
374.489	19515
374.571	75092
374.654	36316
374.736	10698
374.819	41645
374.901	60289
374.983	77548
375.066	15037
375.148	3019
375.231	8905
375.313	23168
375.395	9335
375.478	1773
375.560	1153
375.643	2477
375.725	8194
375.807	51203
375.890	48660
375.972	14980
376.054	6322
376.136	9128
376.219	5387
376.301	10645
376.383	46711
376.465	22380
376.548	7551
376.630	9328
376.712	34689
376.794	21729
376.877	1910
376.959	697
377.041	863
377.123	2054
377.205	3084
377.287	883
377.369	287
377.452	43
377.534	329
377.616	1085
377.698	-383
377.780	387
377.862	685
377.944	1191
378.026	161
378.108	796
378.190	139
378.272	366
378.354	-386
378.436	76
378.518	725
378.600	4421
378.682	6050
378.764	13743
378.846	14314
378.928	2709
379.010	3755
379.091	2889
379.173	407
379.255	-6
379.337	948
379.419	4591
379.501	22344
379.583	11723
379.664	1574
379.746	4539
379.828	12686
379.910	20692
379.991	21578
380.073	3414
380.155	1284
380.237	1578
380.318	-169
380.400	358
380.482	890
380.564	4987
380.645	4029
380.727	3550
380.809	2442
380.890	1622
380.972	438
381.053	1270
381.135	1031
381.217	3143
381.298	15460
381.380	8454
381.461	5847
381.543	29286
381.624	52457
381.706	10885
381.787	2879
381.869	3301
381.951	10876
382.032	67209
382.113	51637
382.195	9183
382.276	3788
382.358	7853
382.439	31857
382.521	36943
382.602	68183
382.684	28402
382.765	36726
382.846	39527
382.928	37773
383.009	25072
383.090	12546
383.172	43920
383.253	95862
383.334	38681
383.416	47351
383.497	30123
383.578	6817
383.659	10309
383.741	34979
383.822	130819
383.903	86502
383.984	26732
384.066	54617
384.147	39969
384.228	7390
384.309	4604
384.390	1680
384.471	1708
384.553	1667
384.634	4233
384.715	4005
384.796	1945
384.877	1903
384.958	11148
385.039	18892
385.120	6880
385.201	2757
385.282	2460
385.363	1708
385.444	2487
385.525	3684
385.606	22135
385.687	27133
385.768	4952
385.849	3710
385.930	23988
386.011	62196
386.092	19270
386.173	3245
386.254	1185
386.335	1163
386.416	1238
386.496	6377
386.577	15609
386.658	5210
386.739	2408
386.820	1839
386.901	820
386.981	1343
387.062	777
387.143	1716
387.224	12081
387.304	14822
387.385	3526
387.466	1262
387.547	1933
387.627	1301
387.708	3594
387.789	22772
387.869	41633
387.950	12339
388.031	1336
388.111	-523
388.192	2360
388.273	5030
388.353	2885
388.434	1704
388.514	3658
388.595	27872
388.676	44979
388.756	18201
388.837	12607
388.917	9814
388.998	831
389.078	661
389.159	1009
389.239	419
389.320	1856
389.400	1173
389.480	3829
389.561	14845
389.641	10459
389.722	1619
389.802	3575
389.883	4750
389.963	18884
390.043	15124
390.124	3837
390.204	3480
390.284	14801
390.365	12015
390.445	8266
390.525	28767
390.605	35148
390.686	10463
390.766	2895
390.846	780
390.927	514
391.007	-52
391.087	602
391.167	298
391.247	449
391.328	1357
391.408	2991
391.488	1866
391.568	61
391.648	1299
391.728	2180
391.808	1343
391.888	2652
391.969	6212
392.049	14456
392.129	5800
392.209	4057
392.289	18956
392.369	10868
392.449	4381
392.529	2955
392.609	1722
392.689	2438
392.769	15827
392.849	18279
392.929	6544
393.009	20462
393.089	17807
393.169	4662
393.248	6867
393.328	59517
393.408	95168
393.488	19245
393.568	2830
393.648	2148
393.728	558
393.807	640
393.887	1868
393.967	790
394.047	1692
394.127	2077
394.206	5092
394.286	20910
394.366	124980
394.446	181026
394.525	41676
394.605	7280
394.685	3828
394.764	6654
394.844	11890
394.924	10591
395.003	3319
395.083	1839
395.163	1556
395.242	1429
395.322	2133
395.402	441
395.481	2049
395.561	2435
395.640	14168
395.720	11681
395.799	14770
395.879	16680
395.958	9148
396.038	30203
396.117	165291
396.197	238667
396.276	63880
396.356	14179
396.435	7598
396.515	4933
396.594	2502
396.673	4570
396.753	11123
396.832	61052
396.912	67381
396.991	19561
397.070	3978
397.150	982
397.229	208
397.308	73
397.388	-227
397.467	961
397.546	-81
397.625	-881
397.705	1389
397.784	998
397.863	-309
397.942	134
398.022	81
398.101	1731
398.180	13545
398.259	8284
398.338	1519
398.417	1037
398.497	-236
398.576	703
398.655	-755
398.734	235
398.813	84
398.892	1750
398.971	14827
399.050	10436
399.129	-291
399.208	-196
399.287	506
399.366	-283
399.445	92
399.524	422
399.603	-1360
399.682	482
399.761	3439
399.840	15663
399.919	16991
399.998	2212
400.077	-606
400.156	-1141
400.235	768
400.313	-395
400.392	8
400.471	5206
400.550	13059
400.629	3578
400.708	-248
400.786	867
400.865	787
400.944	2370
401.023	1758
401.102	489
401.180	-386
401.259	-245
401.338	-355
401.416	9
401.495	-241
401.574	-52
401.652	-281
401.731	360
401.810	-409
401.888	-455
401.967	-812
402.046	-174
402.124	-133
402.203	687
402.281	370
402.360	613
402.438	2176
402.517	2219
402.596	-267
402.674	-481
402.753	-825
402.831	119
402.910	-498
402.988	422
403.066	5552
403.145	4322
403.223	2066
403.302	3592
403.380	3918
403.459	1972
403.537	325
403.615	-115
403.694	-1690
403.772	404
403.850	-214
403.929	-904
404.007	-888
404.085	253
404.164	-759
404.242	-364
404.320	1596
404.398	9744
404.477	11328
404.555	40273
404.633	50819
404.711	12350
404.789	5251
404.868	861
404.946	-1174
405.024	-201
405.102	-726
405.180	-1225
405.258	-1157
405.336	-184
405.415	-988
405.493	792
405.571	621
405.649	-1263
405.727	-1522
405.805	838
405.883	-275
405.961	-55
406.039	-123
406.117	-780
406.195	416
406.273	4392
406.351	33295
406.429	28043
406.507	2876
406.585	415
406.663	-550
406.740	239
406.818	-169
406.896	48
406.974	312
407.052	741
407.130	14061
407.208	33668
407.285	7957
407.363	390
407.441	248
407.519	-1016
407.596	98
407.674	878
407.752	2139
407.830	4220
407.907	1333
407.985	204
408.063	-31
408.141	-682
408.218	28
408.296	-749
408.373	-651
408.451	-176
408.529	-196
408.606	-563
408.684	-491
408.762	-983
408.839	-987
408.917	-1391
408.994	-720
409.072	-1020
409.149	-996
409.227	-196
409.304	-1296
409.382	-423
409.459	-1133
409.537	-865
409.614	-623
409.692	-1186
409.769	-1299
409.846	-312
409.924	-292
410.001	-1089
410.079	-909
410.156	-353
410.233	-565
410.311	-1053
410.388	-855
410.465	-110
410.543	-1184
410.620	-237
410.697	-1377
410.775	-652
410.852	-1145
410.929	107
411.006	84
411.083	-820
411.161	99
411.238	742
411.315	-414
411.392	-322
411.469	-292
411.547	-18
411.624	-948
411.701	-989
411.778	-997
411.855	1068
411.932	84
412.009	-381
412.086	-802
412.163	-922
412.240	-1155
412.317	-183
412.394	-231
412.471	-199
412.548	-1392
412.625	-1195
412.702	-1058
412.779	508
412.856	732
412.933	-865
413.010	-594
413.087	-384
413.164	3796
413.241	10381
413.318	1608
413.395	1090
413.471	17
413.548	567
413.625	-407
413.702	-627
413.779	-1014
413.855	-1121
413.932	-1600
414.009	-1682
414.086	-1195
414.162	-659
414.239	-469
414.316	3879
414.393	14905
414.469	6747
414.546	63
414.623	-620
414.699	-1270
414.776	-247
414.853	-603
414.929	120
415.006	-118
415.082	-483
415.159	-658
415.236	-802
415.312	-1085
415.389	65
415.465	717
415.542	-205
415.618	-1067
415.695	577
415.771	-580
415.848	-272
415.924	-453
416.000	143
416.077	-828
416.153	-1533
416.230	-1690
416.306	-1694
416.383	-349
416.459	-387
416.535	-2029
416.612	-1889
416.688	-1177
416.764	-527
416.841	-1384
416.917	-999
416.993	-938
417.069	-126
417.146	-413
417.222	1313
417.298	32
417.374	-815
417.451	-565
417.527	-518
417.603	-1318
417.679	464
417.755	-376
417.831	-1905
417.908	-965
417.984	-703
418.060	-1956
418.136	142
418.212	927
418.288	-391
418.364	-1032
418.440	-799
418.516	-161
418.592	-597
418.668	983
418.744	3143
418.820	3812
418.896	-646
418.972	-1160
419.048	-1359
419.124	510
419.200	553
419.276	-1129
419.352	-764
419.428	-588
419.504	-756
419.579	-479
419.655	-306
419.731	-1049
419.807	1590
419.883	4394
419.959	4490
420.034	874
420.110	-441
420.186	6344
420.262	9300
420.337	806
420.413	-321
420.489	-39
420.565	-178
420.640	-1853
420.716	-304
420.792	-1576
420.867	-294
420.943	-1562
421.019	-509
421.094	-381
421.170	-170
421.245	-2133
421.321	-579
421.397	-1597
421.472	-462
421.548	210
421.623	-208
421.699	-384
421.774	-344
421.850	-1290
421.925	271
422.001	-337
422.076	-1022
422.152	-1201
422.227	-33
422.302	190
422.378	-388
422.453	512
422.529	2770
422.604	15302
422.679	61176
422.755	37531
422.830	6345
422.905	690
422.981	-857
423.056	-837
423.131	-508
423.207	-1287
423.282	-444
423.357	1214
423.432	499
423.508	-446
423.583	1620
423.658	3293
423.733	355
423.808	-194
423.883	273
423.959	10
424.034	-952
424.109	-925
424.184	-1547
424.259	-1502
424.334	-681
424.409	-1595
424.484	-1344
424.559	-682
424.634	-1657
424.709	-438
424.784	441
424.859	-406
424.934	-824
425.009	3666
425.084	10917
425.159	4928
425.234	309
425.309	-1552
425.384	-34
425.459	2832
425.534	455
425.609	-1433
425.683	-839
425.758	-1408
425.833	-530
425.908	-610
425.983	1187
426.058	9814
426.132	7125
426.207	121
426.282	125
426.357	-440
426.431	-972
426.506	-45
426.581	-549
426.655	-43
426.730	-848
426.805	-580
426.879	-128
426.954	-787
427.029	49
427.103	6473
427.178	29638
427.253	20561
427.327	1386
427.402	-191
427.476	2730
427.551	2519
427.625	22
427.700	-536
427.774	-1260
427.849	-710
427.923	-1022
427.998	-1625
428.072	-1592
428.147	-600
428.221	932
428.296	3995
428.370	864
428.444	-937
428.519	102
428.593	531
428.667	1652
428.742	1281
428.816	2266
428.890	2408
428.965	6446
429.039	4147
429.113	2364
429.188	699
429.262	-390
429.336	-436
429.410	3568
429.485	3322
429.559	997
429.633	1125
429.707	-365
429.781	-606
429.855	3220
429.930	9583
430.004	7775
430.078	12005
430.152	12878
430.226	5455
430.300	5592
430.374	183
430.448	358
430.522	1866
430.596	12596
430.670	12891
430.744	11113
430.818	34393
430.892	13844
430.966	480
431.040	132
431.114	-2096
431.188	-1124
431.262	-1023
431.336	-1104
431.410	-29
431.484	2278
431.557	3530
431.631	-10
431.705	-945
431.779	-914
431.853	1308
431.927	680
432.000	-371
432.074	-1742
432.148	-160
432.222	-188
432.295	-763
432.369	-1358
432.443	-343
432.516	6252
432.590	31579
432.664	21080
432.737	1648
432.811	-823
432.885	-621
432.958	-661
433.032	-1363
433.106	-1500
433.179	-1812
433.253	-914
433.326	-1087
433.400	-627
433.473	-700
433.547	-1598
433.620	-1095
433.694	-183
433.767	672
433.841	-1080
433.914	-1061
433.988	-1423
434.061	-1333
434.134	-1632
434.208	-1095
434.281	-906
434.355	-1108
434.428	-953
434.501	-1189
434.575	-794
434.648	-1476
434.721	-788
434.795	-1969
434.868	-1112
434.941	-1173
435.014	-1282
435.088	-1336
435.161	-778
435.234	-538
435.307	314
435.381	-970
435.454	-1242
435.527	-1506
435.600	-1654
435.673	-1149
435.746	-824
435.819	-982
435.892	-1268
435.966	-832
436.039	-2059
436.112	-1617
436.185	-1213
436.258	-1615
436.331	-1534
436.404	-1043
436.477	-1059
436.550	-1583
436.623	-1114
436.696	-1858
436.769	-690
436.842	-1510
436.915	-1273
436.987	-686
437.060	69
437.133	-1540
437.206	-1549
437.279	-1099
437.352	-1221
437.425	-864
437.498	-334
437.570	854
437.643	362
437.716	-729
437.789	-1312
437.861	-420
437.934	1864
438.007	2674
438.080	-605
438.152	-575
438.225	-20
438.298	9021
438.370	51726
438.443	38214
438.516	7398
438.588	536
438.661	-814
438.734	-1105
438.806	-370
438.879	-82
438.951	-422
439.024	873
439.096	44
439.169	-383
439.241	-537
439.314	-1223
439.386	-1011
439.459	-494
439.531	276
439.604	482
439.676	184
439.749	-1399
439.821	-1269
439.893	-1408
439.966	-1256
440.038	-1134
440.110	-232
440.183	-1028
440.255	-1257
440.327	-83
440.400	2051
440.472	22888
440.544	32818
440.617	5227
440.689	645
440.761	541
440.833	2335
440.905	1675
440.978	-443
441.050	-915
441.122	-846
441.194	-1411
441.266	-1209
441.338	-1043
441.411	-272
441.483	3890
441.555	16264
441.627	5683
441.699	5
441.771	-338
441.843	-936
441.915	-1013
441.987	-1220
442.059	-1567
442.131	-1010
442.203	-440
442.275	270
442.347	-339
442.419	-487
442.491	-120
442.563	487
442.635	1090
442.706	2480
442.778	5076
442.850	1479
442.922	-659
442.994	-812
443.066	-305
443.137	342
443.209	-371
443.281	-1088
443.353	-160
443.425	322
443.496	2072
443.568	4415
443.640	859
443.711	-596
443.783	-1612
443.855	-694
443.926	-977
443.998	-1234
444.070	-942
444.141	-631
444.213	-149
444.285	1043
444.356	-89
444.428	322
444.499	-729
444.571	-1259
444.642	-1524
444.714	-936
444.785	-19
444.857	676
444.928	1352
445.000	2194
445.071	668
445.143	1928
445.214	285
445.285	425
445.357	2807
445.428	4986
445.500	8119
445.571	10373
445.642	5072
445.714	1387
445.785	5791
445.856	2138
445.928	514
445.999	312
446.070	-350
446.141	531
446.213	578
446.284	-190
446.355	-744
446.426	-1315
446.497	-1458
446.569	406
446.640	798
446.711	1631
446.782	-51
446.853	-402
446.924	-661
446.995	-422
447.066	-404
447.138	173
447.209	52
447.280	-1137
447.351	-1772
447.422	-1409
447.493	-919
447.564	-10
447.635	388
447.706	-122
447.777	-936
447.847	-1003
447.918	-1645
447.989	-1054
448.060	-116
448.131	1413
448.202	1965
448.273	1144
448.344	257
448.414	-981
448.485	-1366
448.556	-514
448.627	-964
448.698	-831
448.768	-1634
448.839	-970
448.910	-157
448.981	1046
449.051	-636
449.122	-835
449.193	-1527
449.263	-1066
449.334	-1156
449.405	-470
449.475	1167
449.546	1199
449.616	627
449.687	1425
449.758	-481
449.828	-919
449.899	-958
449.969	-995
450.040	-544
450.110	-504
450.181	-355
450.251	-318
450.322	-1222
450.392	-853
450.463	-1102
450.533	-1029
450.604	-50
450.674	-1869
450.744	-657
450.815	-1021
450.885	-1117
450.955	-190
451.026	-1503
451.096	-1050
451.166	-733
451.237	-303
451.307	3574
451.377	3441
451.447	-495
451.518	-851
451.588	-1401
451.658	-1041
451.728	-628
451.799	2159
451.869	7270
451.939	2895
452.009	-356
452.079	-1038
452.149	-1061
452.219	-684
452.289	3238
452.360	5718
452.430	1538
452.500	-114
452.570	-520
452.640	252
452.710	825
452.780	4905
452.850	4874
452.920	5319
452.990	3302
453.060	146
453.129	144
453.199	893
453.269	2951
453.339	19394
453.409	35883
453.479	25848
453.549	36177
453.619	44123
453.688	30588
453.758	7147
453.828	556
453.898	-404
453.968	-658
454.037	115
454.087	-439
454.107	-722
454.168	-460
454.177	-486
454.247	-395
454.249	-357
454.316	-772
454.330	-582
454.386	74
454.411	994
454.456	1460
454.492	3678
454.525	5272
454.574	4132
454.595	3741
454.655	391
454.665	-158
454.734	2044
454.736	2159
454.804	3036
454.817	4421
454.873	7127
454.898	8679
454.943	9940
454.979	7778
455.013	6399
455.060	3258
455.082	2453
455.141	4235
455.152	4538
455.221	9457
455.222	9857
455.291	17938
455.303	19039
455.360	22983
455.384	28243
455.430	30718
455.465	28890
455.499	27437
455.546	18334
455.569	13517
455.627	9316
455.638	8824
455.707	3727
455.708	3774
455.777	1607
455.789	1812
455.846	2449
455.869	2398
455.916	2340
455.950	2396
455.985	2283
456.031	2158
456.054	1912
456.112	2221
456.124	2296
456.193	2141
456.193	2089
456.262	2436
456.274	2646
456.332	3210
456.355	3563
456.401	3391
456.436	3037
456.470	2815
456.516	2414
456.540	2209
456.597	2612
456.609	2659
456.678	2339
456.678	2296
456.747	1908
456.759	2015
456.817	2357
456.840	2485
456.886	2546
456.920	2706
456.955	2926
457.001	3191
457.024	3384
457.082	3874
457.093	3978
457.162	5681
457.163	5743
457.232	5588
457.243	5565
457.301	4564
457.324	4080
457.370	3753
457.405	3709
457.439	3689
457.485	3660
457.508	3650
457.566	4193
457.577	4292
457.646	5112
457.647	5163
457.715	5885
457.727	6182
457.784	6083
457.808	5799
457.853	6131
457.889	6886
457.922	7237
457.969	7452
457.991	7600
458.050	8597
458.060	8459
458.129	7158
458.130	7205
458.198	7612
458.211	7512
458.267	6320
458.292	5915
458.336	5574
458.372	5233
458.405	5448
458.453	6256
458.474	6952
458.533	9486
458.543	9836
458.611	12348
458.614	12494
458.680	9982
458.694	9466
458.749	7793
458.775	6743
458.818	5930
458.855	5767
458.887	5957
458.936	6192
458.955	6177
459.016	6386
459.024	6444
459.093	7559
459.097	7609
459.162	8012
459.177	8231
459.230	9339
459.257	10192
459.299	10971
459.338	11239
459.368	11911
459.418	13383
459.437	12425
459.499	9135
459.505	9077
459.574	8712
459.579	8732
459.643	8319
459.659	8217
459.711	8828
459.740	9186
459.780	9648
459.820	10305
459.849	10584
459.900	10780
459.917	10806
459.981	11669
459.986	11636
460.054	11088
460.061	11080
460.123	11411
460.141	11470
460.191	13365
460.222	14776
460.260	16470
460.302	18263
460.328	16578
460.382	13369
460.397	13350
460.462	12474
460.465	12483
460.534	13681
460.543	13828
460.602	24495
460.623	28507
460.671	46132
460.703	58480
460.739	53735
460.783	48625
460.808	39105
460.864	14055
460.876	13635
460.944	11789
460.945	11765
461.013	11713
461.024	11775
461.081	12688
461.104	13144
461.150	12524
461.184	12051
461.218	11893
461.264	11404
461.286	11421
461.345	11701
461.355	11771
461.423	12223
461.425	12238
461.491	12114
461.505	12193
461.559	17910
461.585	20584
461.628	34040
461.665	45835
461.696	52254
461.745	64319
461.764	54530
461.825	21076
461.832	20728
461.901	14864
461.905	14601
461.969	14012
461.985	14003
462.037	13199
462.065	12619
462.105	13501
462.145	14620
462.173	19047
462.225	27240
462.241	30684
462.305	44769
462.310	43632
462.378	26300
462.385	24198
462.446	17204
462.465	14795
462.514	15006
462.545	15695
462.582	15754
462.625	15739
462.650	15351
462.705	14354
462.718	14567
462.785	15757
462.786	15834
462.854	19873
462.865	20569
462.922	25958
462.945	28194
462.990	22630
463.025	17897
463.058	16492
463.104	14334
463.126	14212
463.184	14224
463.194	14415
463.262	15585
463.264	15617
463.330	15908
463.344	15994
463.398	16950
463.424	17294
463.466	17679
463.504	18208
463.533	18189
463.583	17754
463.601	18049
463.663	19308
463.669	19759
463.737	24731
463.743	25165
463.805	32453
463.823	34526
463.873	49912
463.903	59202
463.940	66402
463.982	74808
464.008	60512
464.062	29604
464.076	27997
464.142	18940
464.144	18930
464.211	18390
464.221	18321
464.279	17896
464.301	17816
464.347	19147
464.381	20024
464.414	21510
464.461	23659
464.482	25243
464.540	29181
464.550	28692
464.617	25007
464.620	24843
464.685	25241
464.699	25279
464.753	30025
464.779	32315
464.820	34306
464.859	36213
464.888	35882
464.938	34893
464.956	34842
465.018	34431
465.023	34114
465.091	29336
465.098	28801
465.158	30193
465.177	30544
465.226	30078
465.257	29741
465.293	30390
465.336	30904
465.361	32742
465.416	36902
465.428	38199
465.495	44736
465.496	44947
465.563	65809
465.575	69286
465.631	88762
465.654	97050
465.698	66550
465.734	40939
465.765	37234
465.813	31094
465.833	30811
465.893	30097
465.900	30278
465.968	31447
465.972	31477
466.035	32046
466.052	32093
466.102	33233
466.131	33747
466.170	34062
466.210	34352
466.237	34784
466.290	35296
466.304	35780
466.369	37668
466.372	37814
466.439	39749
466.449	39946
466.506	42077
466.528	42774
466.573	49445
466.607	54320
466.641	72991
466.687	98626
466.708	111057
466.766	144851
466.775	136346
466.842	70199
466.845	66907
466.909	52012
466.925	48288
466.977	46987
467.004	46230
467.044	47065
467.083	47704
467.111	50482
467.163	55367
467.178	57340
467.242	64935
467.245	64779
467.312	58461
467.321	57488
467.379	54190
467.400	52813
467.446	54576
467.480	55636
467.559	52183
467.638	47819
467.717	47579
467.796	50112
467.875	53249
467.955	50688
468.034	55849
468.113	104468
468.192	167411
468.271	67105
468.350	40590
468.429	38964
468.508	39318
468.588	36729
468.667	39222
468.746	40198
468.825	39368
468.904	37064
468.983	38917
469.062	53206
469.141	68501
469.220	38818
469.299	35514
469.378	38865
469.456	45586
469.535	43601
469.614	40809
469.693	40775
469.772	45760
469.851	60079
469.930	50866
470.009	36744
470.088	37709
470.166	38455
470.245	42520
470.324	47255
470.403	45711
470.482	39484
470.560	37142
470.639	37738
470.718	43490
470.797	38216
470.875	37646
470.954	47303
471.033	56175
471.111	33252
471.190	31189
471.269	30095
471.347	31803
471.426	32273
471.505	36366
471.583	39828
471.662	38906
471.740	34504
471.819	34389
471.898	32693
471.976	33353
472.055	32308
472.133	35329
472.212	41406
472.290	45408
472.369	34369
472.447	31381
472.526	29720
472.604	32071
472.683	32723
472.761	34900
472.839	32532
472.918	31405
472.996	31698
473.075	34926
473.153	34578
473.231	29904
473.310	34073
473.388	36420
473.466	32294
473.545	36072
473.623	44371
473.701	46384
473.780	32897
473.858	31581
473.936	31887
474.014	32321
474.093	33142
474.171	41998
474.249	56984
474.327	46287
474.405	29550
474.484	29501
474.562	30759
474.640	31249
474.718	32732
474.796	35145
474.874	33219
474.952	31447
475.030	32325
475.108	33201
475.187	35434
475.265	38752
475.343	39177
475.421	41407
475.499	35601
475.577	35797
475.655	37521
475.733	58347
475.811	99157
475.889	96650
475.966	75437
476.044	31572
476.122	30594
476.200	32992
476.278	31786
476.356	29090
476.434	29839
476.512	30681
476.590	33540
476.667	35020
476.745	28454
476.823	30079
476.901	29091
476.979	29364
477.056	29308
477.134	30440
477.212	30099
477.290	29091
477.367	27098
477.445	26001
477.523	27058
477.601	27176
477.678	27168
477.756	31566
477.834	34462
477.911	27014
477.989	27140
478.066	25829
478.144	29531
478.222	29124
478.299	29142
478.377	31888
478.454	25771
478.532	25082
478.609	27189
478.687	29961
478.764	26335
478.842	27164
478.919	29587
478.997	29482
479.074	25180
479.152	28501
479.229	34895
479.307	28325
479.384	24401
479.461	23903
479.539	24672
479.616	29955
479.694	27114
479.771	26906
479.848	27865
479.926	35161
480.003	40335
480.080	26136
480.157	23511
480.235	24487
480.312	25219
480.389	25787
480.467	35771
480.544	48002
480.621	31142
480.698	27286
480.775	29972
480.853	31031
480.930	27117
481.007	27642
481.084	28330
481.161	30485
481.238	29909
481.315	24639
481.392	23517
481.470	25389
481.547	24888
481.624	25728
481.701	24529
481.778	25978
481.855	27260
481.932	33899
482.009	55959
482.086	48405
482.163	25794
482.240	25520
482.317	30809
482.393	30632
482.470	23792
482.547	24316
482.624	23613
482.701	25989
482.778	25555
482.855	23055
482.932	22097
483.009	22802
483.085	23264
483.162	28409
483.239	28773
483.316	24228
483.393	21964
483.469	23367
483.546	25644
483.623	28975
483.699	23671
483.776	25666
483.853	29979
483.930	36816
484.006	72050
484.083	143721
484.160	85070
484.236	120964
484.313	100931
484.389	75896
484.466	64875
484.543	61981
484.619	62336
484.696	61568
484.772	66437
484.849	69557
484.925	62111
485.002	59733
485.078	61931
485.155	66481
485.231	58184
485.308	57896
485.384	59900
485.461	63393
485.537	90860
485.614	119422
485.690	62718
485.766	57081
485.843	57860
485.919	71811
485.995	82798
486.072	54843
486.148	52209
486.224	51675
486.301	51850
486.377	59116
486.453	65186
486.530	59902
486.606	71013
486.682	84841
486.758	87802
486.835	107601
486.911	81561
486.987	117368
487.063	129667
487.139	161166
487.215	127298
487.292	71703
487.368	56009
487.444	59716
487.520	67680
487.596	62898
487.672	57041
487.748	66730
487.824	88570
487.900	66932
487.976	54661
488.052	56438
488.128	73743
488.204	66289
488.280	53619
488.356	57534
488.432	90442
488.508	159009
488.584	73664
488.660	50953
488.736	52746
488.812	53170
488.888	64724
488.964	75327
489.039	129947
489.115	222887
489.191	166395
489.267	56586
489.343	51385
489.418	46789
489.494	45120
489.570	43450
489.646	46315
489.722	44685
489.797	46739
489.873	54123
489.949	107643
490.024	112966
490.100	45247
490.176	43575
490.251	48398
490.327	62868
490.403	46075
490.478	40929
490.554	36381
490.629	39052
490.705	36851
490.781	41312
490.856	39442
490.932	46054
491.007	43384
491.083	46111
491.158	41972
491.234	46992
491.309	82366
491.385	100866
491.460	45673
491.536	43037
491.611	42830
491.686	44188
491.762	54918
491.837	85831
491.913	155772
491.988	184164
492.063	294044
492.139	101722
492.214	59637
492.289	37262
492.365	33390
492.440	40212
492.515	39670
492.590	41250
492.666	34150
492.741	38498
492.816	57752
492.891	41839
492.967	35303
493.042	32157
493.117	37467
493.192	38592
493.267	51038
493.342	136120
493.418	245525
493.493	65146
493.568	31680
493.643	32957
493.718	37239
493.793	48011
493.868	58827
493.943	43363
494.018	34498
494.093	31456
494.168	31674
494.243	30135
494.318	29344
494.393	28873
494.468	29962
494.543	28142
494.618	31469
494.693	33208
494.768	27692
494.842	32712
494.917	27999
494.992	31346
495.067	30151
495.142	29541
495.217	32338
495.292	31261
495.366	35809
495.441	44822
495.516	54120
495.591	63727
495.665	145325
495.740	429374
495.815	254959
495.890	56418
495.964	41546
496.039	43316
496.114	40913
496.188	39387
496.263	43092
496.338	40003
496.412	44152
496.487	50524
496.561	50371
496.636	55825
496.710	47999
496.785	48633
496.860	54740
496.934	49909
497.009	48942
497.083	51331
497.158	52605
497.232	58975
497.307	68437
497.381	64521
497.455	67786
497.530	85852
497.604	75634
497.679	76470
497.753	95879
497.827	127832
497.902	124626
497.976	135677
498.050	180841
498.125	535171
498.199	757654
498.273	185520
498.348	140345
498.422	128715
498.496	121275
498.570	114601
498.645	96041
498.719	91684
498.793	93358
498.867	109914
498.941	130060
499.016	206079
499.090	650695
499.164	338248
499.238	68827
499.312	55889
499.386	64161
499.460	60341
499.534	51812
499.609	58109
499.683	76935
499.757	76930
499.831	98401
499.905	370136
499.979	500676
500.053	90630
500.127	84987
500.201	70695
500.275	48806
500.349	45928
500.422	49669
500.496	62236
500.570	108304
500.644	209708
500.718	490327
500.792	152899
500.866	44678
500.940	51107
501.013	47001
501.087	43231
501.161	68401
501.235	91239
501.309	124732
501.382	355669
501.456	429802
501.530	92038
501.603	144560
501.677	78274
501.751	35783
501.825	39146
501.898	52676
501.972	155848
502.046	138302
502.119	42555
502.193	67092
502.266	182046
502.340	115625
502.413	69174
502.487	163516
502.561	106407
502.634	44316
502.708	33116
502.781	31460
502.855	26791
502.928	23873
503.002	24631
503.075	24253
503.149	25755
503.222	27239
503.295	30377
503.369	35489
503.442	43809
503.516	93240
503.589	296356
503.662	245498
503.736	69812
503.809	131552
503.882	134807
503.956	143150
504.029	172435
504.102	60850
504.175	56417
504.249	32166
504.322	29129
504.395	32095
504.468	24964
504.542	26023
504.615	21878
504.688	21282
504.761	21297
504.834	25546
504.907	29381
504.980	52412
505.053	31247
505.127	34471
505.200	40010
505.273	34869
505.346	26525
505.419	22242
505.492	20440
505.565	18916
505.638	18000
505.711	19651
505.784	19788
505.857	18321
505.930	19250
506.003	20704
506.076	21985
506.149	25664
506.221	36380
506.294	30326
506.367	52525
506.440	199324
506.513	153456
506.586	37323
506.659	26692
506.731	21622
506.804	23903
506.877	34622
506.950	27635
507.022	19884
507.095	24112
507.168	31417
507.241	21931
507.313	18903
507.386	21241
507.459	26831
507.531	22450
507.604	19620
507.677	20137
507.749	18230
507.822	22473
507.894	41587
507.967	58886
508.040	37352
508.112	30971
508.185	29512
508.257	27155
508.330	39288
508.402	31607
508.475	28076
508.547	28912
508.620	26815
508.692	39259
508.765	31246
508.837	24988
508.909	23815
508.982	23859
509.054	25692
509.127	25938
509.199	23207
509.271	23887
509.344	21708
509.416	23658
509.488	23192
509.560	23859
509.633	25293
509.705	28753
509.777	27940
509.849	36290
509.922	32013
509.994	27790
510.066	26689
510.138	28915
510.210	46258
510.283	47532
510.355	39772
510.427	34534
510.499	32934
510.571	33072
510.643	31056
510.715	42254
510.787	46394
510.859	31156
510.931	33930
511.003	44314
511.076	46009
511.148	31196
511.219	30449
511.291	38156
511.363	49511
511.435	31592
511.507	28140
511.579	28537
511.651	27917
511.723	27355
511.795	26892
511.867	27140
511.939	29321
512.010	47335
512.082	48140
512.154	29015
512.226	28814
512.298	35287
512.369	56712
512.441	44333
512.513	40122
512.585	35413
512.656	32953
512.728	37181
512.800	31033
512.871	28944
512.943	28703
513.015	28680
513.086	28750
513.158	31817
513.230	31173
513.301	38394
513.373	43061
513.444	32380
513.516	27860
513.588	28342
513.659	29272
513.731	34035
513.802	32117
513.874	45794
513.945	94919
514.016	47864
514.088	27297
514.159	29654
514.231	35092
514.302	51760
514.374	39780
514.445	36464
514.516	54048
514.588	53444
514.659	34408
514.730	55287
514.802	49573
514.873	46583
514.944	51120
515.016	46706
515.087	47354
515.158	47912
515.229	67752
515.301	48780
515.372	67995
515.443	60439
515.514	47994
515.585	37454
515.656	33141
515.728	30262
515.799	27856
515.870	29236
515.941	29068
516.012	30049
516.083	34978
516.154	39925
516.225	43278
516.296	43520
516.367	39559
516.438	43192
516.509	53207
516.580	65708
516.651	120695
516.722	475001
516.793	361806
516.864	77317
516.935	69447
517.006	73392
517.077	91270
517.148	164994
517.219	385608
517.289	933159
517.360	345326
517.431	140266
517.502	47084
517.573	39982
517.643	38960
517.714	42494
517.785	43387
517.856	41783
517.926	47536
517.997	54297
518.068	66399
518.138	85696
518.209	106187
518.280	248927
518.350	1079372
518.421	720255
518.492	101702
518.562	53913
518.633	45701
518.703	39324
518.774	37828
518.845	42742
518.915	44946
518.986	42109
519.056	45609
519.127	71685
519.197	104062
519.268	217419
519.338	190831
519.408	50500
519.479	56156
519.549	48109
519.620	31476
519.690	27333
519.760	27448
519.831	25907
519.901	31156
519.971	24287
520.042	27121
520.112	30556
520.182	32726
520.253	41213
520.323	30615
520.393	37996
520.463	67072
520.534	42354
520.604	87969
520.674	49890
520.744	39563
520.814	85353
520.885	99744
520.955	64723
521.025	240955
521.095	148829
521.165	31952
521.235	29294
521.305	26393
521.375	24538
521.445	26571
521.515	31720
521.585	35702
521.655	42141
521.725	29817
521.795	31281
521.865	24729
521.935	31275
522.005	33497
522.075	24006
522.145	24495
522.215	26527
522.285	34785
522.355	41203
522.424	69506
522.494	77717
522.564	45256
522.634	57320
522.704	186053
522.774	111880
522.843	28828
522.913	25347
522.983	30587
523.053	28822
523.122	27014
523.192	31593
523.262	80805
523.331	127944
523.401	33876
523.471	21991
523.540	22604
523.610	20764
523.680	19216
523.749	19971
523.819	22705
523.888	26319
523.958	19569
524.027	19959
524.097	22445
524.166	21239
524.236	22798
524.305	23489
524.375	20326
524.444	19731
524.514	21521
524.583	21989
524.653	25813
524.722	27655
524.791	22829
524.861	20107
524.930	20107
524.999	20829
525.069	27392
525.138	24143
525.207	27593
525.277	22056
525.346	21657
525.415	20264
525.484	19876
525.554	22123
525.623	22322
525.692	18779
525.761	19603
525.830	18435
525.900	18419
525.969	22212
526.038	24962
526.107	24010
526.176	37704
526.245	40541
526.314	35340
526.383	42367
526.452	42754
526.522	51549
526.591	82971
526.660	95365
526.729	60834
526.797	49483
526.867	82846
526.935	378994
527.004	402072
527.073	165179
527.142	33444
527.211	24228
527.280	23108
527.349	28386
527.418	18726
527.487	19562
527.555	17445
527.624	17536
527.693	15942
527.762	17744
527.831	17218
527.899	17190
527.968	17145
528.037	18436
528.106	21042
528.174	34060
528.243	32671
528.312	32511
528.380	56409
528.449	25457
528.518	17513
528.586	15476
528.655	16342
528.723	15919
528.792	16503
528.861	17577
528.929	15946
528.998	15977
529.066	15429
529.135	14511
529.203	15086
529.272	14338
529.340	15662
529.409	16695
529.477	14919
529.545	18955
529.614	21856
529.682	21232
529.751	26037
529.819	25240
529.887	20549
529.956	16439
530.024	16064
530.092	14650
530.161	16521
530.229	26929
530.297	21411
530.365	15266
530.434	12939
530.502	14565
530.570	14416
530.638	13268
530.707	17021
530.775	18076
530.843	15119
530.911	14606
530.979	14511
531.047	13868
531.115	15155
531.183	15278
531.252	15386
531.320	15229
531.388	15357
531.456	15883
531.524	13024
531.592	16034
531.660	16998
531.728	15610
531.796	15055
531.864	14516
531.932	16572
532.000	16485
532.067	17892
532.135	18558
532.203	20968
532.271	23285
532.339	31287
532.407	75042
532.475	68633
532.542	33920
532.610	33201
532.678	40376
532.746	93920
532.814	374761
532.881	132409
532.949	28038
533.017	20439
533.084	18626
533.152	17203
533.220	16689
533.287	20385
533.355	18477
533.423	15330
533.490	16169
533.558	16192
533.625	18605
533.693	20247
533.761	20082
533.828	20737
533.896	21773
533.963	32912
534.031	47218
534.098	55325
534.166	38488
534.233	23158
534.300	23103
534.368	23775
534.435	22081
534.503	20660
534.570	22530
534.637	20819
534.705	18883
534.772	18111
534.840	19563
534.907	24427
534.974	31579
535.041	18895
535.109	20736
535.176	17358
535.243	16481
535.310	16762
535.378	18121
535.445	14550
535.512	15960
535.579	16000
535.646	15955
535.714	17186
535.781	21347
535.848	22111
535.915	22886
535.982	26325
536.049	25586
536.116	25416
536.183	22516
536.250	21965
536.317	23019
536.384	24400
536.451	29243
536.518	31590
536.585	25376
536.652	28327
536.719	34815
536.786	32754
536.853	28212
536.920	35177
536.987	49993
537.053	49333
537.120	146738
537.187	204636
537.254	27724
537.321	19906
537.388	19295
537.454	17244
537.521	16934
537.588	16530
537.654	18018
537.721	20879
537.788	20424
537.855	17810
537.921	18303
537.988	18835
538.055	18383
538.121	18300
538.188	19888
538.254	25630
538.321	44500
538.388	35008
538.454	19538
538.521	17787
538.587	17960
538.654	15817
538.720	17540
538.787	16348
538.853	17532
538.920	20150
538.986	22149
539.053	20031
539.119	19849
539.185	19823
539.252	21081
539.318	30510
539.385	28563
539.451	24421
539.517	25224
539.583	27641
539.650	42066
539.716	142589
539.782	60147
539.849	21922
539.915	21169
539.981	20253
540.047	23385
540.114	22793
540.180	22816
540.246	23698
540.312	27608
540.378	45016
540.444	51062
540.510	45447
540.576	152856
540.643	75192
540.709	21855
540.775	19929
540.841	20065
540.907	24404
540.973	38679
541.039	33590
541.105	33734
541.171	22497
541.237	19979
541.303	20314
541.369	23351
541.435	27020
541.500	39554
541.566	30832
541.632	19932
541.698	16633
541.764	17076
541.830	17396
541.896	16603
541.961	18585
542.027	19001
542.093	17804
542.159	20969
542.224	20811
542.290	29042
542.356	39127
542.421	46843
542.487	29039
542.553	22983
542.618	24904
542.684	23340
542.750	22138
542.815	26129
542.881	34311
542.947	111029
543.012	127681
543.078	24269
543.143	20429
543.209	21065
543.274	22182
543.340	23361
543.405	40755
543.471	95746
543.536	29601
543.602	19289
543.667	18700
543.732	17347
543.798	17428
543.863	18011
543.928	17051
543.994	16327
544.059	17109
544.124	17750
544.190	18067
544.255	17844
544.320	19213
544.386	21530
544.451	25574
544.516	30327
544.581	31168
544.646	62013
544.712	147929
544.777	38509
544.842	24246
544.907	24891
544.972	21952
545.037	21691
545.102	23186
545.168	23575
545.233	24025
545.298	25856
545.363	28236
545.428	32038
545.493	41802
545.558	103082
545.623	61604
545.688	25450
545.753	23017
545.818	21764
545.883	22162
545.947	22271
546.012	22738
546.077	24686
546.142	23714
546.207	23040
546.272	26869
546.337	28857
546.401	24793
546.466	23252
546.531	21151
546.596	22546
546.661	22746
546.725	23041
546.790	19589
546.855	20760
546.919	20162
546.984	20835
547.049	20570
547.113	23193
547.178	21231
547.243	22739
547.307	22878
547.372	24145
547.436	30082
547.501	21403
547.565	21225
547.630	25741
547.695	27251
547.759	26954
547.823	26685
547.888	21500
547.952	20838
548.017	21688
548.081	24036
548.146	30065
548.210	28961
548.274	21277
548.339	20579
548.403	19933
548.468	19458
548.532	19304
548.596	20578
548.660	20598
548.725	21613
548.789	23291
548.853	27637
548.917	23024
548.982	27478
549.046	31598
549.110	20636
549.174	20402
549.238	19632
549.303	18972
549.367	20988
549.431	19706
549.495	20180
549.559	20184
549.623	20013
549.687	21808
549.751	35226
549.815	27207
549.879	22591
549.943	20242
550.007	22855
550.071	23069
550.135	30237
550.199	27328
550.263	22097
550.327	23444
550.391	29577
550.455	25580
550.519	22186
550.582	24433
550.646	29218
550.710	37103
550.774	23488
550.838	22193
550.901	22122
550.965	23821
551.029	24299
551.093	26281
551.156	29880
551.220	49743
551.284	66541
551.347	33085
551.411	56006
551.475	87775
551.538	28805
551.602	20732
551.666	20690
551.729	19188
551.793	21045
551.856	21654
551.920	20994
551.983	22323
552.047	19708
552.110	20442
552.174	19623
552.237	20698
552.301	20881
552.364	20038
552.428	19432
552.491	19816
552.554	21975
552.618	21257
552.681	22350
552.745	23058
552.808	28547
552.871	39547
552.934	33150
552.998	25133
553.061	25211
553.124	25808
553.187	25885
553.251	28321
553.314	30294
553.377	31781
553.440	41098
553.503	102051
553.567	251568
553.630	65359
553.693	25933
553.756	22852
553.819	20612
553.882	20412
553.945	19335
554.008	19454
554.071	18062
554.134	18826
554.197	18536
554.260	18566
554.323	20356
554.386	19875
554.449	18998
554.512	18539
554.575	17126
554.638	19085
554.701	19620
554.764	17367
554.827	17899
554.889	17102
554.952	16867
555.015	17280
555.078	16922
555.141	17011
555.203	16999
555.266	17432
555.329	17393
555.391	17937
555.454	17768
555.517	20212
555.580	16166
555.642	17127
555.705	16812
555.768	17474
555.830	17618
555.893	17062
555.955	16763
556.018	17654
556.080	17493
556.143	17580
556.206	17638
556.268	18675
556.330	18914
556.393	19348
556.455	19016
556.518	24271
556.580	27857
556.643	19513
556.705	17608
556.767	17277
556.830	18706
556.892	20372
556.955	28677
557.017	27040
557.079	19192
557.142	17591
557.204	20667
557.266	35407
557.328	39629
557.391	18993
557.453	17617
557.515	17966
557.577	20152
557.639	22073
557.701	17344
557.764	15337
557.826	16331
557.888	17700
557.950	16933
558.012	15346
558.074	16637
558.136	20029
558.198	27537
558.260	23025
558.322	19112
558.384	18847
558.446	20966
558.508	21481
558.570	24939
558.632	36838
558.694	63252
558.756	37945
558.818	39376
558.880	99038
558.942	53791
559.003	29535
559.065	25182
559.127	18228
559.189	18522
559.251	20517
559.312	19040
559.374	24984
559.436	55403
559.498	49283
559.559	19419
559.621	19681
559.683	20729
559.744	25929
559.806	39327
559.868	55502
559.929	28548
559.991	21551
560.052	22025
560.114	28991
560.176	28876
560.237	24865
560.299	35032
560.360	24722
560.422	19022
560.483	20276
560.545	19747
560.606	19288
560.667	17832
560.729	18539
560.790	18280
560.852	18392
560.913	18685
560.974	18465
561.036	17760
561.097	19165
561.158	19916
561.220	20374
561.281	20447
561.342	21275
561.403	23691
561.465	27052
561.526	47211
561.587	78587
561.648	35029
561.709	22027
561.771	19553
561.832	20465
561.893	20911
561.954	19515
562.015	19028
562.076	20015
562.137	19326
562.198	20419
562.259	19768
562.320	20532
562.381	22302
562.442	26927
562.503	27565
562.564	20677
562.625	20502
562.686	21276
562.747	21521
562.808	22012
562.869	20362
562.930	24249
562.991	23765
563.051	23499
563.112	21154
563.173	20275
563.234	19312
563.294	20405
563.355	19637
563.416	20467
563.477	20665
563.537	21090
563.598	21899
563.659	21563
563.720	21205
563.780	21832
563.841	23413
563.901	21384
563.962	20509
564.023	20378
564.083	21378
564.144	21765
564.204	21816
564.265	23105
564.325	23789
564.386	33468
564.446	38775
564.507	23031
564.567	22527
564.628	22464
564.688	21888
564.749	21884
564.809	23604
564.869	27160
564.930	24386
564.990	21693
565.050	21495
565.111	23498
565.171	22666
565.231	21698
565.292	24011
565.352	22636
565.412	22372
565.472	24347
565.532	25966
565.593	25330
565.653	24110
565.713	25535
565.773	26382
565.833	28499
565.893	34533
565.953	29292
566.013	26559
566.074	28394
566.134	31806
566.194	40807
566.254	45948
566.314	38466
566.374	33777
566.434	32519
566.494	34041
566.554	34730
566.614	36741
566.673	37059
566.733	39340
566.793	42593
566.853	43746
566.913	43249
566.973	44267
567.033	44934
567.092	45124
567.152	44850
567.212	44624
567.272	46243
567.331	48138
567.391	50708
567.451	50566
567.511	55049
567.570	58246
567.630	47989
567.690	44858
567.749	46472
567.809	49931
567.868	54536
567.928	61804
567.988	70945
568.047	81094
568.107	96289
568.166	120557
568.226	158668
568.285	215396
568.345	229089
568.404	209457
568.464	192876
568.523	182082
568.582	181782
568.642	191024
568.701	213813
568.761	259651
568.820	344668
568.879	395602
568.939	356494
568.998	300769
569.057	250581
569.116	206410
569.176	174461
569.235	147640
569.294	128347
569.353	110800
569.413	98070
569.472	88546
569.531	78995
569.590	70669
569.649	65505
569.708	59877
569.767	55807
569.827	56981
569.886	51374
569.945	44948
570.004	43616
570.063	40219
570.122	39421
570.181	39497
570.240	38332
570.299	38147
570.358	37662
570.417	33074
570.475	30911
570.534	30507
570.593	30194
570.652	29883
570.711	30883
570.770	27581
570.829	28176
570.887	27505
570.946	29330
571.005	26320
571.064	25165
571.122	25200
571.181	26260
571.240	26067
571.299	23460
571.357	23263
571.416	24494
571.475	24667
571.533	26980
571.592	22334
571.650	22484
571.709	21580
571.768	20987
571.826	21847
571.885	20375
571.943	19804
572.002	21783
572.060	21755
572.119	20868
572.177	19946
572.236	19726
572.294	18836
572.352	18785
572.411	18952
572.469	19069
572.528	19362
572.586	19723
572.644	20051
572.703	24750
572.761	22207
572.819	19730
572.877	18894
572.936	18484
572.994	18106
573.052	16668
573.110	17695
573.169	19548
573.227	16931
573.285	17147
573.343	17368
573.401	17783
573.459	17743
573.517	16684
573.576	16750
573.634	16784
573.692	17266
573.750	18792
573.808	17497
573.866	18648
573.924	20060
573.982	21063
574.040	18732
574.098	17658
574.155	16868
574.213	16102
574.271	14910
574.329	16947
574.387	16199
574.445	16157
574.503	16345
574.560	15621
574.618	16524
574.676	15611
574.734	16186
574.792	16547
574.849	16143
574.907	15392
574.965	15540
575.022	14903
575.080	15689
575.138	16069
575.195	16662
575.253	15661
575.311	16450
575.368	16769
575.426	15355
575.483	15863
575.541	15328
575.598	16372
575.656	15725
575.713	16632
575.771	15264
575.828	16107
575.886	15877
575.943	17055
576.001	17311
576.058	17426
576.115	17530
576.173	19325
576.230	20767
576.287	21769
576.345	21109
576.402	17780
576.459	16837
576.517	17007
576.574	18191
576.631	18294
576.688	17832
576.746	17306
576.803	16345
576.860	17276
576.917	17688
576.974	17147
577.031	17078
577.089	17681
577.146	17463
577.203	17406
577.260	17666
577.317	18662
577.374	19269
577.431	18749
577.488	18465
577.545	17228
577.602	18134
577.659	18768
577.716	18306
577.773	20887
577.830	19799
577.886	18954
577.943	18953
578.000	19396
578.057	20117
578.114	21257
578.171	22476
578.227	26593
578.284	29114
578.341	27580
578.398	24576
578.454	22781
578.511	22857
578.568	22914
578.625	21065
578.681	19346
578.738	18071
578.794	18148
578.851	17683
578.908	18822
578.964	20008
579.021	19750
579.077	19285
579.134	19131
579.190	18758
579.247	17654
579.303	18169
579.360	18217
579.416	18224
579.473	17691
579.529	17557
579.586	17767
579.642	18907
579.698	19614
579.755	20131
579.811	19885
579.867	21866
579.924	21784
579.980	22445
580.036	24706
580.093	27875
580.149	34874
580.205	41596
580.261	40436
580.317	33607
580.374	30118
580.430	28248
580.486	26870
580.542	24850
580.598	22802
580.619	22746
580.654	22682
580.692	22218
580.710	22042
580.765	21974
580.767	22005
580.823	21077
580.838	21115
580.879	21332
580.911	20898
580.935	20639
580.984	20080
580.991	20037
581.047	20849
581.057	20893
581.103	21210
581.130	21768
581.159	22430
581.203	23356
581.215	23629
581.270	24535
581.276	24244
581.326	21782
581.349	21862
581.382	22054
581.422	21997
581.438	22009
581.494	21864
581.494	21835
581.550	21212
581.567	21210
581.606	21297
581.640	21222
581.661	21207
581.713	20732
581.717	20717
581.773	19801
581.786	20017
581.829	20763
581.859	20156
581.885	19716
581.932	20525
581.940	20691
581.996	20199
582.004	20194
582.052	20254
582.077	19855
582.107	19412
582.150	20611
582.163	20977
582.219	19888
582.223	19852
582.274	19758
582.296	19829
582.330	19913
582.368	21597
582.386	22380
582.441	20016
582.441	20025
582.497	20781
582.514	21115
582.552	22005
582.587	21953
582.608	21883
582.659	21795
582.663	21793
582.719	21148
582.732	20954
582.774	20489
582.805	20882
582.830	21248
582.877	22040
582.885	22159
582.941	21127
582.950	21347
582.996	22651
583.023	23515
583.052	24398
583.095	24215
583.107	24189
583.162	27319
583.168	27507
583.218	29226
583.240	28594
583.273	27634
583.313	26699
583.328	26325
583.384	25116
583.385	25070
583.439	23528
583.458	23277
583.494	23059
583.531	22673
583.549	22403
583.603	23230
583.605	23254
583.660	21989
583.676	21973
583.715	22041
583.748	22479
583.770	22683
583.820	22326
583.825	22298
583.881	22476
583.893	22446
583.936	22234
583.965	22146
583.991	21980
584.038	21949
584.046	21986
584.101	22368
584.110	22428
584.156	22233
584.183	22183
584.211	22371
584.255	22560
584.266	22531
584.321	21955
584.328	22026
584.376	22534
584.400	22586
584.431	22537
584.472	22466
584.486	22514
584.541	22525
584.545	22584
584.596	22786
584.617	22886
584.651	23203
584.689	23228
584.706	23144
584.761	24135
584.762	24157
584.816	24033
584.834	24411
584.871	24891
584.906	24632
584.926	24431
584.978	24316
584.980	24288
585.035	25227
585.051	25224
585.090	25203
585.123	26019
585.145	26312
585.195	25882
585.200	25835
585.254	26923
585.267	27183
585.309	28430
585.340	30394
585.364	31552
585.412	30664
585.419	30408
585.473	27829
585.484	27798
585.528	27741
585.556	28596
585.583	29468
585.628	30081
585.637	30218
585.692	33889
585.700	34706
585.747	39092
585.772	39157
585.801	37687
585.845	32281
585.856	31119
585.910	31057
585.917	31062
585.965	30784
585.989	31057
586.019	31258
586.061	31552
586.074	31507
586.128	32336
586.133	32463
586.183	33374
586.205	33977
586.237	34458
586.277	34675
586.292	34651
586.346	35226
586.349	35325
586.401	35382
586.421	35669
586.455	36091
586.493	38265
586.509	39139
586.564	41524
586.565	41783
586.618	49348
586.637	51260
586.672	52809
586.709	46735
586.727	43217
586.781	42441
586.781	42314
586.835	42389
586.853	42578
586.889	42874
586.925	43894
586.944	44348
586.996	45967
586.998	45849
587.052	47150
587.068	47894
587.106	49287
587.140	50419
587.161	50438
587.212	52348
587.215	52272
587.269	53390
587.284	54226
587.323	55782
587.356	57548
587.377	58307
587.427	61805
587.431	61799
587.485	63832
587.499	65051
587.539	67326
587.571	69308
587.593	70435
587.643	75161
587.648	75215
587.702	79202
587.715	80695
587.755	84305
587.786	87989
587.810	89903
587.858	96133
587.864	96354
587.917	103950
587.930	106558
587.971	113491
588.001	119789
588.025	123840
588.073	134423
588.079	134990
588.133	148602
588.145	152852
588.187	165272
588.217	177428
588.241	185979
588.288	206392
588.295	207983
588.348	236343
588.360	244360
588.402	270247
588.431	293031
588.456	309386
588.503	350466
588.510	354465
588.564	407947
588.575	423314
588.617	474450
588.646	518970
588.671	556626
588.718	643124
588.725	655479
588.778	782377
588.789	809966
588.832	959252
588.861	1042873
588.886	1156086
588.932	1325501
588.939	1334303
588.993	1387767
589.004	1431231
589.047	1388984
589.075	1374273
589.100	1284382
589.147	1015874
589.154	990530
589.207	789542
589.218	754865
589.261	675750
589.290	642855
589.314	627974
589.361	633270
589.368	635879
589.421	715261
589.433	737370
589.475	891661
589.504	987926
589.528	1106164
589.576	1290087
589.582	1275276
589.635	1240332
589.647	1239269
589.689	1018853
589.718	807166
589.742	702004
589.790	488878
589.795	471212
589.849	357266
589.861	337104
589.902	282017
589.932	252028
589.955	228921
590.004	191446
590.009	186299
590.062	158330
590.075	153664
590.115	135862
590.146	126056
590.168	117963
590.218	106303
590.222	104193
590.275	93286
590.289	91570
590.328	83982
590.360	79864
590.381	75876
590.431	70527
590.435	69350
590.488	62686
590.503	61964
590.541	58096
590.574	55729
590.594	53406
590.645	50198
590.647	49449
590.700	45729
590.716	45268
590.753	42680
590.787	41257
590.806	39778
590.859	37915
590.859	37405
590.912	35176
590.930	35006
590.965	32942
591.001	31682
591.018	30782
591.071	29574
591.072	29965
591.124	27918
591.143	27682
591.177	26494
591.214	26048
591.230	25385
591.283	24822
591.285	25138
591.336	24580
591.356	25045
591.389	24160
591.427	23482
591.442	22758
591.495	21427
591.498	21639
591.547	20024
591.569	19761
591.600	18947
591.640	18556
591.653	18188
591.706	17998
591.711	18249
591.759	17121
591.782	16984
591.811	16926
591.853	17636
591.864	17211
591.917	16155
591.924	16260
591.969	14932
591.995	14708
592.022	14366
592.066	14346
592.075	14040
592.127	13756
592.137	13956
592.180	14637
592.208	15440
592.233	14402
592.279	13028
592.285	12686
592.338	11836
592.350	11870
592.390	10949
592.421	10634
592.443	10650
592.491	11412
592.495	11176
592.548	10876
592.562	11003
592.600	10135
592.633	9790
592.653	9530
592.704	9367
592.705	9414
592.775	9358
592.846	8951
592.916	9518
592.987	9527
593.058	9498
593.128	9244
593.199	8360
593.270	8469
593.341	8544
593.411	8390
593.482	9070
593.553	8503
593.623	7463
593.694	7899
593.764	8392
593.835	8381
593.906	7688
593.976	7837
594.047	7156
594.117	7709
594.188	10143
594.258	7324
594.329	6163
594.399	7014
594.470	6535
594.540	7306
594.611	6355
594.681	6363
594.751	7347
594.822	7440
594.892	7994
594.963	7177
595.033	7317
595.103	6864
595.174	6799
595.244	8764
595.314	12519
595.384	9675
595.455	6183
595.525	5850
595.595	6333
595.665	6226
595.736	6890
595.806	7181
595.876	5940
595.946	5720
596.016	5195
596.087	6244
596.157	5993
596.227	6201
596.297	5949
596.367	6190
596.437	6169
596.507	8089
596.577	10607
596.647	8727
596.717	5666
596.787	6250
596.857	6055
596.927	5987
596.997	6167
597.067	6284
597.137	7588
597.207	6440
597.277	5982
597.347	6033
597.417	5674
597.487	5565
597.557	6402
597.626	5517
597.696	6017
597.766	6651
597.836	9019
597.906	9092
597.975	5880
598.045	5629
598.115	5463
598.185	5355
598.254	5823
598.324	6456
598.394	6754
598.464	7142
598.533	5727
598.603	5070
598.672	5461
598.742	6280
598.812	5896
598.881	5376
598.951	5482
599.020	5618
599.090	5421
599.159	4926
599.229	5104
599.299	5054
599.368	4734
599.437	4800
599.507	4139
599.576	5613
599.646	5473
599.715	6144
599.785	5122
599.854	5062
599.924	6627
599.993	5736
600.062	5053
600.132	5827
600.201	5193
600.270	5580
600.340	5968
600.409	5042
600.478	5356
600.547	4605
600.617	5211
600.686	5249
600.755	4788
600.824	5380
600.894	5978
600.963	4681
601.032	4397
601.101	4856
601.170	4901
601.239	5492
601.308	5773
601.378	4652
601.447	4585
601.516	4051
601.585	4987
601.654	5093
601.723	4175
601.792	4248
601.861	5409
601.930	6594
601.999	6730
602.068	4854
602.137	4715
602.206	4750
602.275	5005
602.343	5332
602.412	7141
602.481	5620
602.550	4461
602.619	5113
602.688	3926
602.756	4414
602.825	4659
602.894	4484
602.963	3799
603.032	4519
603.100	3467
603.169	4777
603.238	4664
603.307	4282
603.375	4212
603.444	3808
603.513	4120
603.581	4306
603.650	4243
603.719	3911
603.787	3881
603.856	4444
603.924	4317
603.993	3960
604.061	3503
604.130	4005
604.198	5240
604.267	3564
604.335	4242
604.404	4021
604.472	4205
604.541	4449
604.609	4347
604.678	3801
604.746	4221
604.815	4266
604.883	3641
604.951	3739
605.020	4164
605.088	4707
605.156	4123
605.225	3098
605.293	4131
605.361	3984
605.429	3682
605.498	4562
605.566	5121
605.634	5005
605.702	4016
605.771	3542
605.839	4633
605.907	4092
605.975	4519
606.043	4448
606.111	3534
606.180	4003
606.248	4608
606.316	6804
606.384	5012
606.452	6381
606.520	6818
606.588	6515
606.656	4054
606.724	3845
606.792	3892
606.860	3422
606.928	3238
606.996	3556
607.064	3153
607.132	3576
607.200	3000
607.267	3882
607.335	3174
607.403	3929
607.471	3163
607.539	3560
607.607	3612
607.674	3745
607.742	3622
607.810	4117
607.878	5245
607.946	3732
608.013	4062
608.081	3456
608.149	3591
608.216	3636
608.284	4205
608.352	3453
608.419	3691
608.487	5487
608.555	5241
608.622	4055
608.690	2534
608.757	3428
608.825	3524
608.893	4054
608.960	5129
609.028	6313
609.095	6145
609.163	5877
609.230	2700
609.298	3620
609.365	4058
609.432	3517
609.500	3781
609.567	3712
609.635	5035
609.702	3991
609.769	4719
609.837	3811
609.904	4351
609.971	4303
610.039	5194
610.106	5923
610.173	8647
610.241	19006
610.308	34479
610.375	39427
610.442	12827
610.509	6042
610.577	4841
610.644	3703
610.711	3643
610.778	4150
610.845	4153
610.912	4596
610.980	3915
611.047	5823
611.114	6490
611.181	4095
611.248	3585
611.315	3991
611.382	3336
611.449	3939
611.516	3929
611.583	3073
611.650	3458
611.717	3919
611.784	4214
611.851	3401
611.918	4717
611.984	4964
612.051	5072
612.118	6965
612.185	17535
612.252	25560
612.319	6458
612.386	4762
612.452	4203
612.519	3839
612.586	5570
612.653	5783
612.719	4426
612.786	3770
612.853	4531
612.919	3089
612.986	3508
613.053	3910
613.120	3227
613.186	2903
613.253	3215
613.319	2772
613.386	3520
613.453	4021
613.519	4427
613.586	4833
613.652	11105
613.719	9537
613.785	9311
613.852	5096
613.918	3439
613.985	3140
614.051	6952
614.118	16233
614.184	31963
614.250	9217
614.317	3604
614.383	3238
614.449	3306
614.516	3370
614.582	3342
614.648	3094
614.715	3387
614.781	4548
614.847	3421
614.914	4055
614.980	3573
615.046	3718
615.112	4286
615.179	4585
615.245	4594
615.311	6430
615.377	10934
615.443	17886
615.509	11118
615.575	6267
615.642	4535
615.708	4956
615.774	5437
615.840	5902
615.906	7927
615.972	10947
616.038	22402
616.104	39997
616.170	36583
616.236	45897
616.302	14511
616.368	6901
616.434	5567
616.500	5356
616.565	5443
616.631	5195
616.697	4882
616.763	4255
616.829	5613
616.895	7183
616.961	8996
617.026	6988
617.092	4053
617.158	4127
617.224	3928
617.289	3952
617.355	3691
617.421	4755
617.487	4112
617.552	3055
617.618	2946
617.684	3032
617.749	4608
617.815	3701
617.880	3200
617.946	4082
618.012	3902
618.077	3151
618.143	3784
618.208	3437
618.274	3640
618.339	3826
618.405	3053
618.470	3752
618.536	3648
618.601	4788
618.667	4080
618.732	4264
618.798	4174
618.863	3704
618.928	3796
618.994	4845
619.059	4831
619.124	6977
619.190	7609
619.255	3936
619.320	3882
619.386	2885
619.451	3491
619.516	4118
619.581	3574
619.647	3986
619.712	3771
619.777	3717
619.842	3752
619.907	3407
619.972	4850
620.038	3900
620.103	3656
620.168	3159
620.233	3334
620.298	3659
620.363	2994
620.428	3902
620.493	3401
620.558	3764
620.623	3260
620.688	3540
620.753	2413
620.818	3109
620.883	3257
620.948	3729
621.013	3889
621.078	3034
621.143	3061
621.207	4714
621.272	4056
621.337	4429
621.402	4779
621.467	5019
621.532	7101
621.596	6174
621.661	5362
621.726	4560
621.791	4179
621.855	4513
621.920	4858
621.985	4315
622.049	5904
622.114	5118
622.179	4851
622.243	3774
622.308	4957
622.373	4639
622.437	4672
622.502	4422
622.566	4338
622.631	3886
622.695	4834
622.760	4841
622.824	4807
622.889	4094
622.953	5502
623.018	7862
623.082	13327
623.147	5824
623.211	4753
623.276	4810
623.340	4022
623.404	4077
623.469	3829
623.533	4245
623.597	3828
623.662	3767
623.726	4699
623.790	4165
623.854	4354
623.919	4362
623.983	3591
624.047	4335
624.111	3456
624.176	3992
624.240	4299
624.304	5977
624.368	4661
624.432	4338
624.496	3995
624.560	4273
624.625	5423
624.689	5076
624.753	3966
624.817	3869
624.881	3663
624.945	4736
625.009	3197
625.073	3987
625.137	4604
625.201	5004
625.265	8423
625.329	4618
625.393	3608
625.456	4812
625.520	4124
625.584	5338
625.648	5604
625.712	8400
625.776	16789
625.839	29572
625.903	20050
625.967	4753
626.031	7273
626.095	13846
626.158	9783
626.222	4019
626.286	3797
626.349	4295
626.413	2776
626.477	4327
626.540	4106
626.604	3246
626.668	2942
626.731	3045
626.795	3474
626.858	3640
626.922	2870
626.986	2911
627.049	2272
627.113	2957
627.176	3565
627.240	2525
627.303	3470
627.366	3315
627.430	2803
627.493	3643
627.557	2888
627.620	2861
627.684	2831
627.747	2805
627.810	2763
627.874	3041
627.937	1353
628.000	2621
628.064	2993
628.127	2236
628.190	2514
628.253	3295
628.317	2423
628.380	2918
628.443	2740
628.506	3382
628.569	2722
628.632	2996
628.696	2101
628.759	2031
628.822	2166
628.885	2004
628.948	2989
629.011	2563
629.074	3120
629.137	1736
629.200	2218
629.263	3317
629.326	2112
629.389	2121
629.452	2652
629.515	2856
629.578	2425
629.641	3005
629.704	2179
629.767	2655
629.830	2041
629.892	1852
629.955	2714
630.018	3735
630.081	2825
630.144	5166
630.207	3734
630.269	3324
630.332	3172
630.395	3224
630.458	2236
630.520	1944
630.583	2059
630.646	2152
630.708	1938
630.771	2028
630.834	2465
630.896	2165
630.959	2566
631.021	2052
631.084	2137
631.146	2301
631.209	3500
631.272	2510
631.334	2807
631.397	1935
631.459	1739
631.522	2463
631.584	2587
631.646	1666
631.709	2564
631.771	3647
631.834	3472
631.896	1973
631.958	1713
632.021	1893
632.083	1548
632.145	2664
632.208	2131
632.270	2320
632.332	1824
632.395	1596
632.457	1522
632.519	2350
632.581	2414
632.643	1764
632.706	1884
632.768	1950
632.830	1447
632.892	1841
632.954	1408
633.016	1796
633.078	1979
633.141	2023
633.203	1642
633.265	1614
633.327	1840
633.389	1480
633.451	2361
633.513	2564
633.575	3352
633.637	3053
633.698	2834
633.760	2224
633.822	2278
633.884	2405
633.946	876
634.008	2011
634.070	1820
634.132	1317
634.193	2295
634.255	1888
634.317	760
634.379	2172
634.441	1714
634.502	880
634.564	1334
634.626	1260
634.687	1897
634.749	1673
634.811	1197
634.873	1177
634.934	1542
634.996	1481
635.057	1724
635.119	1207
635.181	1263
635.242	2252
635.304	536
635.365	2332
635.427	1347
635.488	1738
635.550	668
635.611	1377
635.673	731
635.734	1696
635.796	1368
635.857	1579
635.918	1660
635.980	1405
636.041	1045
636.102	1554
636.164	1137
636.225	1223
636.286	1505
636.348	1965
636.409	1251
636.470	798
636.531	1582
636.593	891
636.654	2065
636.715	1232
636.776	1055
636.838	1571
636.899	1284
636.960	859
637.021	1189
637.082	743
637.143	867
637.204	1407
637.265	294
637.326	1240
637.387	1422
637.448	463
637.509	1344
637.570	1021
637.631	911
637.692	1403
637.753	712
637.814	1020
637.875	639
637.936	1185
637.997	1069
638.058	1479
638.119	1732
638.179	783
638.240	596
638.301	969
638.362	922
638.423	1200
638.483	1586
638.544	575
638.605	991
638.666	594
638.726	995
638.787	1406
638.848	110
638.908	300
638.969	1540
639.030	492
639.090	865
639.151	1614
639.211	1346
639.272	2158
639.332	3491
639.393	4275
639.453	641
639.514	1269
639.574	1621
639.635	494
639.695	1477
639.756	637
639.816	1317
639.877	1356
639.937	4423
639.997	6111
640.058	4528
640.118	948
640.178	1072
640.239	626
640.299	802
640.359	1155
640.420	819
640.480	1121
640.540	1288
640.600	2
640.661	1199
640.721	112
640.781	1909
640.841	1905
640.901	1504
640.961	1384
641.021	910
641.082	1289
641.142	2779
641.202	3118
641.262	564
641.322	1451
641.382	678
641.442	1400
641.502	931
641.562	987
641.622	718
641.682	472
641.742	1363
641.802	1110
641.861	1179
641.921	868
641.981	1306
642.041	2217
642.101	2345
642.161	1525
642.221	812
642.280	618
642.340	649
642.400	784
642.460	869
642.519	493
642.579	1137
642.639	787
642.698	-172
642.758	1591
642.818	676
642.877	674
642.937	890
642.997	1358
643.056	2346
643.116	2765
643.175	1199
643.235	458
643.294	628
643.354	1607
643.414	815
643.473	926
643.532	1015
643.592	282
643.651	802
643.711	2205
643.770	3221
643.830	6467
643.889	18317
643.948	16089
644.008	1777
644.067	781
644.126	785
644.186	181
644.245	1369
644.304	261
644.363	1448
644.423	534
644.482	539
644.541	669
644.600	-437
644.659	925
644.719	157
644.778	1047
644.837	14
644.896	1472
644.955	2822
645.014	2211
645.073	1305
645.132	1046
645.191	530
645.250	341
645.309	1218
645.368	419
645.427	1106
645.486	55
645.545	1394
645.604	1257
645.663	39
645.722	452
645.781	680
645.840	518
645.898	539
645.957	1179
646.016	524
646.075	2271
646.134	2401
646.192	4966
646.251	14791
646.310	7462
646.369	1181
646.427	1323
646.486	109
646.545	909
646.603	1384
646.662	490
646.721	691
646.779	28
646.838	-321
646.896	1214
646.955	1316
647.014	703
647.072	905
647.131	1690
647.189	2167
647.248	254
647.306	694
647.365	643
647.423	36
647.481	1229
647.540	-1076
647.598	772
647.657	889
647.715	885
647.773	243
647.832	779
647.890	-81
647.948	408
648.007	844
648.065	-11
648.123	71
648.181	1450
648.240	616
648.298	773
648.356	789
648.414	1015
648.472	644
648.531	474
648.589	378
648.647	-149
648.705	316
648.763	600
648.821	535
648.879	359
648.937	518
648.995	468
649.053	407
649.111	323
649.169	1832
649.227	1618
649.285	1409
649.343	5775
649.401	8667
649.459	5485
649.516	9027
649.574	2827
649.632	5753
649.690	13304
649.748	5897
649.806	1258
649.863	4587
649.921	3648
649.979	1188
650.037	1191
650.094	-204
650.152	652
650.210	346
650.268	244
650.325	674
650.383	266
650.440	-766
650.498	724
650.556	288
650.613	442
650.671	-333
650.728	-65
650.786	116
650.843	305
650.901	-1354
650.958	280
651.016	342
651.073	-350
651.131	615
651.188	-210
651.246	1546
651.303	-667
651.360	650
651.418	21
651.475	1043
651.532	-299
651.590	788
651.647	569
651.704	456
651.762	97
651.819	-178
651.876	-487
651.933	429
651.990	590
652.048	380
652.105	21
652.162	421
652.219	403
652.276	-173
652.333	1017
652.390	123
652.448	365
652.505	150
652.562	215
652.619	-66
652.676	976
652.733	1654
652.790	1000
652.847	-307
652.904	621
652.961	-905
653.017	58
653.074	157
653.131	506
653.188	-432
653.245	-97
653.302	291
653.359	-285
653.415	-99
653.472	-194
653.529	-164
653.586	-245
653.642	228
653.699	121
653.756	-841
653.813	-335
653.869	477
653.926	-13
653.983	-25
654.039	863
654.096	195
654.152	398
654.209	-97
654.266	1222
654.322	564
654.379	562
654.435	424
654.492	-451
654.548	449
654.605	1746
654.661	2346
654.717	380
654.774	203
654.830	549
654.887	908
654.943	168
655.000	496
655.056	462
655.112	480
655.168	-663
655.225	678
655.281	893
655.337	-64
655.394	1438
655.450	1206
655.506	874
655.562	1468
655.618	2980
655.675	664
655.731	542
655.787	-343
655.843	699
655.899	223
655.955	536
656.011	581
656.067	196
656.123	1462
656.179	830
656.235	1729
656.291	1143
656.347	1680
656.403	72
656.459	450
656.515	314
656.571	1101
656.627	589
656.683	59
656.739	919
656.795	-130
656.850	383
656.906	-88
656.962	905
657.018	-681
657.074	-166
657.129	319
657.185	418
657.241	-98
657.297	-270
657.352	110
657.408	-580
657.464	113
657.519	-588
657.575	-1050
657.630	-244
657.686	-235
657.742	-833
657.797	-1
657.853	266
657.908	859
657.964	-519
658.019	-847
658.075	-389
658.130	457
658.186	-1108
658.241	526
658.297	-741
658.352	-712
658.407	426
658.463	-204
658.518	484
658.573	-462
658.629	-1299
658.684	-413
658.739	-269
658.795	-858
658.850	200
658.905	-969
658.960	-32
659.016	-821
659.071	-300
659.126	206
659.181	-167
659.236	1025
659.291	2441
659.346	1372
659.401	276
659.457	967
659.512	587
659.567	734
659.622	-307
659.677	-439
659.732	351
659.787	-64
659.842	-164
659.897	605
659.952	776
660.007	-39
660.061	-500
660.116	-922
660.171	-1009
660.226	-199
660.281	-110
660.336	-410
660.391	-173
660.445	411
660.500	630
660.555	-119
660.610	-926
660.664	428
660.719	-484
660.774	-18
660.828	143
660.883	-294
660.938	510
660.992	-91
661.047	-382
661.101	-42
661.156	271
661.211	49
661.265	-150
661.320	-468
661.374	95
661.429	-137
661.483	-281
661.538	-209
661.592	-815
661.647	-245
661.701	-505
661.755	-758
661.810	-210
661.864	-452
661.919	46
661.973	-272
662.027	-328
662.081	-584
662.136	-1355
662.190	-148
662.244	35
662.299	-136
662.353	-447
662.407	-273
662.461	-585
662.515	283
662.569	-23
662.624	607
662.678	-392
662.732	582
662.786	-909
662.840	546
662.894	-463
662.948	35
663.002	-362
663.056	-147
663.110	-1243
663.164	-222
663.218	967
663.272	-172
663.326	42
663.380	-464
663.434	310
663.488	-761
663.542	-520
663.595	110
663.649	-634
663.703	838
663.757	263
663.811	108
663.864	-708
663.918	-249
663.972	-305
664.026	552
664.079	-54
664.133	800
664.187	-581
664.240	-524
664.294	-237
664.348	-198
664.401	335
664.455	761
664.508	-873
664.562	65
664.615	-345
664.669	-825
664.722	-891
664.776	-600
664.829	-70
664.883	330
664.936	-380
664.990	-130
665.043	143
665.097	28
665.150	244
665.203	16
665.257	90
665.310	-419
665.363	158
665.417	456
665.470	2
665.523	-659
665.576	-432
665.630	-476
665.683	-638
665.736	26
665.789	51
665.842	-300
665.895	-175
665.949	33
666.002	-396
666.055	-137
666.108	49
666.161	-334
666.214	32
666.267	194
666.320	903
666.373	133
666.426	-385
666.479	-243
666.532	-373
666.585	276
666.638	872
666.691	-179
666.744	1
666.796	-196
666.849	670
666.902	260
666.955	-90
667.008	-370
667.060	-668
667.113	-150
667.166	439
667.219	-2
667.271	-1
667.324	-340
667.377	-112
667.430	271
667.482	-1136
667.535	973
667.587	264
667.640	756
667.693	7
667.745	935
667.798	2206
667.850	422
667.903	354
667.955	-352
668.008	352
668.060	407
668.113	-763
668.165	256
668.218	697
668.270	-268
668.322	-162
668.375	-396
668.427	258
668.479	7
668.532	-379
668.584	-116
668.636	-119
668.689	-53
668.741	-726
668.793	236
668.845	35
668.898	205
668.950	-179
669.002	-157
669.054	-964
669.106	-1312
669.158	89
669.211	-45
669.263	208
669.315	316
669.367	541
669.419	-95
669.471	791
669.523	1209
669.575	1259
669.627	917
669.679	504
669.731	-294
669.783	539
669.835	744
669.886	1029
669.938	209
669.990	177
670.042	-463
670.094	450
670.146	72
670.197	710
670.249	1599
670.301	1087
670.353	2761
670.404	3313
670.456	5589
670.508	9267
670.560	16723
670.611	28562
670.663	52142
670.715	101101
670.766	268626
670.818	258694
670.869	51715
670.921	11231
670.972	6674
671.024	3938
671.075	3108
671.127	2136
671.178	800
671.230	1316
671.281	1511
671.333	470
671.384	677
671.436	522
671.487	623
671.538	723
671.590	-120
671.641	929
671.692	468
671.744	758
671.795	1859
671.846	781
671.897	18
671.949	825
672.000	562
672.051	588
672.102	720
672.153	-556
672.204	459
672.256	-531
672.307	216
672.358	229
672.409	523
672.460	563
672.511	-509
672.562	-142
672.613	-325
672.664	247
672.715	400
672.766	25
672.817	-29
672.868	15
672.919	-100
672.970	262
673.021	264
673.071	-299
673.122	333
673.173	295
673.224	215
673.275	245
673.326	-233
673.376	170
673.427	-494
673.478	109
673.528	286
673.579	-270
673.630	-192
673.680	112
673.731	10
673.782	-223
673.832	-386
673.883	477
673.934	-358
673.984	-278
674.035	-919
674.085	-362
674.136	-37
674.186	78
674.237	-185
674.287	-378
674.338	1070
674.388	-1063
674.438	-494
674.489	382
674.539	-301
674.589	-135
674.640	30
674.690	265
674.740	-535
674.791	325
674.841	312
674.891	-92
674.942	136
674.992	-188
675.042	-161
675.092	-49
675.142	34
675.193	-277
675.243	305
675.293	-102
675.343	-557
675.393	514
675.443	4
675.493	-167
675.543	-324
675.593	325
675.643	178
675.693	-162
675.743	-102
675.793	533
675.843	-350
675.893	470
675.943	257
675.993	-292
676.043	-121
676.093	-95
676.142	-655
676.192	-194
676.242	184
676.292	-313
676.341	-686
676.391	-887
676.441	-18
676.491	-254
676.540	-374
676.590	-329
676.640	-532
676.689	-636
676.739	-501
676.789	-711
676.838	-363
676.888	130
676.937	-786
676.987	-243
677.037	-126
677.086	-817
677.136	-795
677.185	-53
677.235	13
677.284	-1212
677.333	-685
677.383	-293
677.432	-914
677.482	26
677.531	-479
677.580	-69
677.630	-229
677.679	-654
677.728	-648
677.778	-1333
677.827	-400
677.876	-376
677.925	-949
677.975	-156
678.024	-129
678.073	-753
678.122	214
678.171	-528
678.220	-44
678.269	-144
678.319	-144
678.368	-618
678.417	-294
678.466	-387
678.515	-40
678.564	-226
678.613	-46
678.662	-256
678.711	-545
678.760	18
678.809	51
678.857	-169
678.906	-336
678.955	-681
679.004	238
679.053	-321
679.102	-333
679.151	-403
679.199	-370
679.248	-584
679.297	-773
679.346	-609
679.394	-940
679.443	-1
679.492	260
679.540	-22
679.589	-472
679.638	-415
679.686	261
679.735	-815
679.784	235
679.832	-699
679.881	-1007
679.929	-405
679.978	-414
680.026	-983
680.075	115
680.123	-740
680.172	-606
680.220	-890
680.268	-939
680.317	-770
680.365	-1268
680.414	-574
680.462	-998
680.510	-343
680.559	-579
680.607	-921
680.655	-607
680.703	-670
680.752	-597
680.800	-904
680.848	-750
680.896	-663
680.945	-194
680.993	153
681.041	-365
681.089	-601
681.137	-648
681.185	-1179
681.233	131
681.258	-146
681.281	-421
681.329	-127
681.377	-406
681.380	-387
681.425	-274
681.473	-525
681.502	-415
681.521	-364
681.569	512
681.617	-483
681.624	-502
681.665	-727
681.713	-335
681.745	-247
681.761	-226
681.809	-356
681.857	-310
681.867	-324
681.904	-410
681.952	-453
681.989	-339
682.000	-319
682.048	-479
682.096	-60
682.111	-165
682.143	-432
682.191	-123
682.233	56
682.239	69
682.286	462
682.334	14
682.354	-51
682.382	-162
682.430	-71
682.476	27
682.477	20
682.525	71
682.572	299
682.598	235
682.620	162
682.667	104
682.715	-217
682.720	-197
682.763	-145
682.810	387
682.841	232
682.857	132
682.905	483
682.952	774
682.963	658
683.000	211
683.047	-346
683.085	557
683.095	781
683.142	693
683.190	180
683.206	187
683.237	204
683.284	176
683.328	798
683.332	842
683.379	901
683.426	17
683.449	601
683.473	1166
683.521	734
683.568	220
683.571	268
683.615	750
683.662	632
683.693	595
683.709	544
683.757	425
683.804	834
683.814	803
683.851	711
683.898	329
683.936	696
683.945	783
683.992	639
684.039	800
684.057	870
684.086	966
684.133	948
684.179	1154
684.180	1150
684.227	1114
684.274	1343
684.300	1208
684.321	1118
684.368	1041
684.415	1661
684.422	1642
684.462	1313
684.509	786
684.543	581
684.556	555
684.603	1531
684.649	1217
684.665	1018
684.696	520
684.743	1157
684.786	754
684.790	719
684.837	1178
684.883	1625
684.908	1427
684.930	1232
684.977	1509
685.023	2045
685.029	2039
685.070	1899
685.117	1046
685.150	1102
685.164	1103
685.210	1408
685.257	1778
685.272	1729
685.303	1733
685.350	1358
685.393	1522
685.396	1522
685.443	1959
685.490	2373
685.514	2174
685.536	1974
685.583	2128
685.629	2142
685.636	2093
685.675	1755
685.722	2067
685.757	1757
685.768	1661
685.815	2148
685.861	2231
685.878	2312
685.908	2474
685.954	1985
686.000	2368
686.000	2370
686.047	1936
686.093	2275
686.121	2416
686.139	2581
686.185	2810
686.232	2917
686.242	2881
686.278	2374
686.324	2659
686.363	2503
686.370	2504
686.416	2097
686.463	1938
686.484	2152
686.509	2448
686.555	2428
686.601	2123
686.606	2171
686.647	2524
686.693	1887
686.727	1901
686.739	1893
686.785	2159
686.831	2212
686.848	1978
686.877	1619
686.923	1961
686.969	2212
686.969	2213
687.015	2206
687.061	2024
687.090	2026
687.107	2047
687.153	2214
687.199	2759
687.211	2724
687.245	2623
687.291	2578
687.332	2556
687.336	2547
687.382	3001
687.428	2570
687.453	2734
687.474	2838
687.520	2360
687.565	2324
687.574	2324
687.611	2364
687.657	1522
687.695	2013
687.702	2144
687.748	2471
687.794	2908
687.816	2900
687.839	2741
687.885	2818
687.931	2639
687.937	2610
687.976	2523
688.022	2833
688.058	2632
688.067	2610
688.113	2842
688.158	3198
688.179	3317
688.204	3335
688.249	2702
688.295	3034
688.300	3016
688.340	3085
688.386	3323
688.421	3377
688.431	3370
688.477	3173
688.522	3061
688.542	3121
688.567	3195
688.613	3136
688.658	3289
688.663	3248
688.703	2946
688.749	3262
688.784	2901
688.794	2829
688.839	3063
688.884	3349
688.905	3243
688.930	3068
688.975	3004
689.020	2981
689.026	2936
689.065	2693
689.110	3146
689.146	3059
689.155	3046
689.201	2998
689.246	3487
689.267	3396
689.291	3287
689.336	3504
689.381	3313
689.388	3243
689.426	2909
689.471	3303
689.509	2957
689.516	2905
689.561	3229
689.606	3160
689.630	3289
689.651	3409
689.696	3237
689.741	3500
689.750	3517
689.785	3667
689.830	3406
689.871	3758
689.875	3784
689.920	3729
689.965	3716
689.992	3353
690.010	3123
690.054	3410
690.099	2986
690.112	3101
690.144	3433
690.189	3369
690.233	3036
690.233	3042
690.278	3448
690.323	3714
690.354	3575
690.367	3530
690.412	3913
690.457	4115
690.474	3933
690.501	3686
690.546	4406
690.590	4553
690.595	4542
690.635	4359
690.680	4335
690.716	4365
690.724	4430
690.769	4674
690.813	4767
690.836	4924
690.857	5303
690.902	6497
690.946	6778
690.957	7015
690.991	9307
691.035	11706
691.077	15477
691.080	15776
691.124	19947
691.168	23324
691.198	25447
691.213	23925
691.257	20075
691.301	15881
691.318	14281
691.346	12845
691.390	10434
691.434	7874
691.439	7593
691.478	6593
691.522	5820
691.559	4909
691.567	4951
691.611	5083
691.655	5047
691.680	5298
691.699	5389
691.743	5157
691.787	5136
691.800	4971
691.831	4530
691.875	4561
691.919	4695
691.921	4661
691.964	4178
692.008	4406
692.041	4599
692.052	4708
692.096	4493
692.139	4916
692.162	5111
692.183	5174
692.227	4969
692.271	4754
692.282	4710
692.315	4576
692.359	4737
692.402	4148
692.403	4157
692.447	4678
692.490	4906
692.523	5053
692.534	5106
692.578	5292
692.622	5116
692.643	5117
692.666	4910
692.709	4647
692.753	4478
692.763	4387
692.797	4568
692.840	4703
692.884	4886
692.884	4899
692.928	4964
692.971	5085
693.004	5147
693.015	5170
693.059	5192
693.102	4985
693.124	5014
693.146	5091
693.189	5069
693.233	5257
693.245	5235
693.276	5427
693.320	5611
693.363	6002
693.365	6000
693.407	6303
693.450	6579
693.485	6591
693.493	6722
693.537	7547
693.580	8369
693.605	8846
693.624	9597
693.667	11647
693.710	13177
693.725	13761
693.753	17808
693.797	24446
693.840	31610
693.845	32391
693.883	41286
693.926	50228
693.966	57993
693.970	57002
694.013	46310
694.056	35328
694.086	27719
694.099	25941
694.142	20317
694.185	14775
694.206	11914
694.229	11100
694.272	9801
694.315	8597
694.326	8205
694.358	7900
694.401	7624
694.444	7282
694.446	7240
694.487	6975
694.530	6760
694.566	6645
694.573	6636
694.616	6173
694.659	6168
694.686	6017
694.702	6013
694.745	5897
694.787	5883
694.806	5839
694.830	5732
694.873	5531
694.916	5100
694.926	4991
694.959	4998
695.002	5228
695.044	5473
695.046	5466
695.087	5456
695.130	5321
695.166	5154
695.172	5167
695.215	5160
695.258	5222
695.286	5312
695.301	5323
695.343	5147
695.386	5072
695.406	5013
695.428	4947
695.471	4766
695.514	4585
695.526	4524
695.556	4633
695.599	4806
695.641	4998
695.646	4989
695.684	4909
695.726	4809
695.766	4802
695.769	4825
695.811	4956
695.854	4845
695.886	4903
695.896	4975
695.938	5283
695.981	5504
696.005	5629
696.023	5574
696.065	5367
696.108	5078
696.125	4938
696.150	4890
696.192	4993
696.235	4867
696.245	4865
696.277	5211
696.319	5470
696.361	5803
696.365	5825
696.404	5909
696.446	5782
696.485	5727
696.488	5733
696.530	5499
696.572	5337
696.604	5186
696.614	5273
696.656	5576
696.698	5837
696.724	6067
696.740	6083
696.783	5831
696.825	5758
696.844	5752
696.867	5777
696.909	5569
696.951	5393
696.964	5348
696.992	5322
697.034	5159
697.076	5149
697.083	5094
697.118	5144
697.160	5437
697.202	5558
697.203	5545
697.244	5363
697.286	5165
697.323	4981
697.327	5017
697.369	5148
697.411	5426
697.442	5455
697.453	5463
697.494	5518
697.536	5631
697.562	5628
697.578	5706
697.620	5919
697.661	6122
697.682	6192
697.703	6098
697.744	5892
697.786	5706
697.801	5587
697.828	5838
697.869	6283
697.911	6729
697.921	6801
697.952	6481
697.994	6098
698.035	5707
698.040	5639
698.077	5685
698.118	5704
698.160	5742
698.160	5723
698.201	5569
698.243	5360
698.279	5176
698.284	5228
698.325	5545
698.367	5862
698.399	6069
698.408	6056
698.449	5899
698.491	5792
698.518	5671
698.532	5731
698.573	5889
698.614	6018
698.638	6084
698.656	6025
698.697	5838
698.738	5622
698.757	5511
698.779	5654
698.820	5901
698.862	6131
698.877	6203
698.903	6187
698.944	6121
698.985	6059
698.996	6024
699.026	6248
699.067	6536
699.116	6860
699.235	5425
699.354	6203
699.474	5440
699.593	6255
699.713	6562
699.832	6066
699.951	5810
700.070	6905
700.190	6443
700.309	5443
700.428	5867
700.547	6987
700.667	4999
700.786	5590
700.905	6071
701.024	5730
701.143	5931
701.262	5616
701.381	4706
701.500	5569
701.619	5251
701.738	6182
701.857	5321
701.976	5191
702.095	4919
702.214	5520
702.333	5414
702.452	6138
702.571	5128
702.690	5155
702.809	4608
702.928	4873
703.047	5611
703.165	5986
703.284	4721
703.403	4957
703.522	5101
703.640	6219
703.759	5746
703.878	7309
703.997	6893
704.115	4782
704.234	4808
704.353	5092
704.471	5089
704.590	4924
704.708	5074
704.827	4481
704.946	4440
705.064	4611
705.183	5741
705.301	4983
705.420	6259
705.538	7235
705.656	4893
705.775	6660
705.893	7997
706.012	18506
706.130	9226
706.249	5978
706.367	6000
706.485	6908
706.604	5973
706.722	5142
706.840	6566
706.958	7395
707.077	5702
707.195	5718
707.313	5517
707.431	4878
707.549	4779
707.668	5317
707.786	5219
707.904	6063
708.022	4989
708.140	5212
708.258	4737
708.376	5355
708.494	5785
708.612	5861
708.730	5741
708.848	7849
708.966	6875
709.084	7382
709.202	5800
709.320	6148
709.438	6369
709.556	6406
709.674	6595
709.791	6562
709.909	6695
710.027	6892
710.145	6198
710.263	5824
710.380	5954
710.498	6092
710.616	5091
710.733	5857
710.851	5263
710.969	6958
711.086	5774
711.204	6408
711.322	6043
711.439	5086
711.557	5991
711.674	5533
711.792	5648
711.909	5935
712.027	6220
712.144	6396
712.262	5498
712.379	4927
712.497	6312
712.614	8827
712.732	7915
712.849	6971
712.966	6275
713.084	8120
713.201	8000
713.318	6915
713.436	6210
713.553	6579
713.670	6440
713.787	6399
713.905	7778
714.022	6900
714.139	5832
714.256	7094
714.373	6025
714.490	7218
714.608	7516
714.725	11040
714.842	27038
714.959	10935
715.076	5467
715.193	6369
715.310	5465
715.427	5583
715.544	6105
715.661	5667
715.778	5758
715.895	6680
716.011	5447
716.128	5879
716.245	5040
716.362	6227
716.479	7652
716.596	6460
716.713	5798
716.829	5512
716.946	5294
717.063	6008
717.180	4817
717.296	5009
717.413	4319
717.530	5407
717.646	5118
717.763	5477
717.880	5117
717.996	4734
718.113	5109
718.229	4868
718.346	4664
718.462	4665
718.579	5005
718.695	7845
718.812	11053
718.928	6816
719.045	6932
719.161	4994
719.277	4978
719.394	4584
719.510	5251
719.626	3718
719.743	4894
719.859	5713
719.975	4070
720.092	5180
720.208	10250
720.324	9218
720.440	4663
720.557	4842
720.673	6341
720.789	10683
720.905	14025
721.021	18874
721.137	4674
721.253	4651
721.369	4235
721.486	5131
721.602	6190
721.718	5815
721.834	3785
721.950	4312
722.066	3974
722.181	4448
722.297	4333
722.413	4566
722.529	4365
722.645	4620
722.761	3398
722.877	4798
722.993	3792
723.108	3492
723.224	3638
723.340	3830
723.456	3562
723.571	4157
723.687	3890
723.803	3964
723.918	3854
724.034	4467
724.150	3560
724.265	3956
724.381	4585
724.497	11304
724.612	5836
724.728	3357
724.843	2926
724.959	3892
725.074	4700
725.190	10999
725.305	5857
725.421	3879
725.536	3091
725.651	3636
725.767	3395
725.882	3530
725.997	3341
726.113	3501
726.228	3371
726.343	3120
726.459	3074
726.574	3415
726.689	3531
726.804	3306
726.920	2417
727.035	3538
727.150	2847
727.265	3048
727.380	3175
727.495	3078
727.610	3414
727.725	3301
727.841	3170
727.956	4267
728.071	8745
728.186	4001
728.301	2501
728.416	3559
728.531	3096
728.645	3518
728.760	3608
728.875	3725
728.990	3720
729.105	3610
729.220	2504
729.335	3940
729.449	3437
729.564	2661
729.679	2344
729.794	2691
729.908	2856
730.023	3803
730.138	2427
730.253	2962
730.367	3115
730.482	2369
730.596	2987
730.711	2799
730.826	3339
730.940	2490
731.055	2084
731.169	3117
731.284	2172
731.398	2535
731.513	2971
731.627	3382
731.742	3056
731.856	3594
731.970	2310
732.085	2991
732.199	2189
732.313	2456
732.428	3472
732.542	4161
732.656	5533
732.771	2536
732.885	2003
732.999	2710
733.113	2908
733.227	2508
733.342	2205
733.456	2233
733.570	2182
733.684	2408
733.798	2081
733.912	2017
734.026	2559
734.140	2180
734.254	1966
734.368	2349
734.482	5829
734.596	2333
734.710	2738
734.824	2618
734.938	1796
735.052	2204
735.166	2164
735.280	3160
735.393	2943
735.507	2879
735.621	2607
735.735	3973
735.849	5224
735.962	3035
736.076	2411
736.190	2577
736.303	2507
736.417	4791
736.531	3176
736.644	2069
736.758	2926
736.872	2324
736.985	1726
737.099	1967
737.212	2064
737.326	1417
737.439	1670
737.553	2196
737.666	2789
737.780	2092
737.893	2110
738.007	2307
738.120	2138
738.233	2190
738.347	894
738.460	2130
738.573	2821
738.687	2537
738.800	2979
738.913	2194
739.026	2632
739.140	1864
739.253	1988
739.366	2110
739.479	1942
739.592	2011
739.705	1855
739.818	2743
739.932	1602
740.045	2062
740.158	1867
740.271	2516
740.384	1963
740.497	2116
740.610	1957
740.723	2342
740.836	2320
740.949	2698
741.062	2700
741.174	2883
741.287	2252
741.400	2293
741.513	2138
741.626	2043
741.739	1717
741.851	2334
741.964	2059
742.077	1727
742.189	1806
742.302	2333
742.415	2934
742.527	2573
742.640	2089
742.753	1906
742.865	1650
742.978	1965
743.090	1582
743.203	1623
743.316	1641
743.428	1549
743.541	1641
743.653	2439
743.766	1567
743.878	2151
743.990	1498
744.103	3177
744.215	2691
744.327	2214
744.440	2181
744.552	2328
744.664	3815
744.777	1990
744.889	2210
745.001	2033
745.113	1149
745.226	1300
745.338	1892
745.450	1896
745.562	1643
745.674	1223
745.786	1489
745.898	1085
746.010	1567
746.122	1288
746.234	917
746.347	1422
746.459	944
746.570	1588
746.682	1795
746.794	2588
746.906	2723
747.018	2247
747.130	2124
747.242	1579
747.354	953
747.466	2116
747.577	1884
747.689	1664
747.801	1980
747.913	1405
748.024	106
748.136	1257
748.248	1272
748.359	1584
748.471	1245
748.583	1239
748.694	1259
748.806	2507
748.918	2239
749.029	1913
749.141	1364
749.252	2328
749.364	1344
749.475	2876
749.587	4321
749.698	2020
749.809	753
749.921	1446
750.032	868
750.144	1273
750.255	1419
750.366	2175
750.478	743
750.589	1673
750.700	1082
750.811	2212
750.923	2137
751.034	3195
751.145	6880
751.256	2584
751.367	1963
751.479	1086
751.590	1062
751.701	893
751.812	1184
751.923	1140
752.034	1640
752.145	1002
752.256	1232
752.367	1763
752.478	581
752.589	1150
752.700	1574
752.811	659
752.922	1031
753.032	2112
753.143	1674
753.254	1329
753.365	1503
753.476	1119
753.586	997
753.697	1397
753.808	1837
753.919	1326
754.029	885
754.140	1220
754.251	1577
754.361	1418
754.472	1804
754.582	1090
754.693	1495
754.804	1333
754.914	528
755.025	1000
755.135	1210
755.246	1294
755.356	1040
755.466	1566
755.577	958
755.687	1758
755.798	1374
755.908	909
756.018	1123
756.129	1528
756.239	677
756.349	1673
756.460	1823
756.570	1749
756.680	1262
756.790	1217
756.900	2319
757.011	1715
757.121	1396
757.231	2013
757.341	1741
757.451	1161
757.561	1520
757.671	460
757.781	1607
757.891	1182
758.001	733
758.111	2176
758.221	1817
758.331	1887
758.441	2004
758.551	2086
758.661	2703
758.771	2446
758.880	2036
758.990	2194
759.100	1500
759.210	1534
759.320	1743
759.429	1693
759.539	1912
759.649	2050
759.758	2303
759.868	1999
759.978	1982
760.087	2271
760.197	1341
760.307	2224
760.416	1580
760.526	2573
760.635	2296
760.745	1830
760.854	2157
760.964	2327
761.073	2077
761.182	2508
761.292	2609
761.401	2263
761.511	2263
761.620	1880
761.729	2584
761.839	2827
761.948	3273
762.057	3391
762.166	2863
762.276	2783
762.385	3539
762.494	2834
762.603	2709
762.712	3304
762.822	2854
762.931	3340
763.040	3925
763.149	4014
763.258	3443
763.367	4633
763.476	3970
763.585	5615
763.694	5301
763.803	4618
763.912	5202
764.021	5687
764.130	5934
764.238	6440
764.347	6164
764.456	6727
764.565	6781
764.674	7856
764.783	7799
764.891	9635
765.000	9885
765.109	11561
765.217	12161
765.326	15031
765.435	17728
765.543	21888
765.652	26310
765.761	33840
765.869	45015
765.978	63074
766.086	94171
766.195	152004
766.303	261692
766.412	431772
766.520	425869
766.629	433500
766.737	269076
766.846	150837
766.954	93402
767.062	64790
767.171	46405
767.279	35970
767.387	27464
767.496	22842
767.604	19087
767.712	16172
767.820	14758
767.928	13349
768.037	11490
768.145	11744
768.253	10824
768.361	9246
768.469	10302
768.577	10069
768.685	10553
768.793	11385
768.901	12036
769.009	13388
769.117	15607
769.225	19800
769.333	25351
769.441	37172
769.549	59795
769.657	107140
769.765	217979
769.873	385823
769.981	378448
770.088	241652
770.196	107441
770.304	60482
770.412	40337
770.519	29298
770.627	23104
770.735	16750
770.842	13265
770.950	12101
771.058	9892
771.165	8557
771.273	8092
771.380	8619
771.488	7289
771.595	6782
771.703	5402
771.810	5585
771.918	5278
772.025	4501
772.133	4064
772.240	4420
772.348	4475
772.455	3395
772.562	4601
772.670	4220
772.777	2952
772.884	2823
772.991	2835
773.099	3491
773.206	2430
773.313	3545
773.420	3203
773.528	2772
773.635	2598
773.742	2921
773.849	2677
773.956	2078
774.063	2022
774.170	2400
774.277	2461
774.384	2241
774.491	2038
774.598	2468
774.705	2127
774.812	2669
774.919	2364
775.026	2687
775.133	2036
775.239	2158
775.346	2044
775.453	1973
775.560	1412
775.667	1954
775.773	1123
775.880	2520
775.987	1076
776.093	2188
776.200	1866
776.307	1454
776.413	1986
776.520	1093
776.627	1386
776.733	1833
776.840	1325
776.946	2075
777.053	1221
777.159	4045
777.266	3363
777.372	4160
777.478	3804
777.585	2936
777.691	1888
777.798	1493
777.904	1819
778.010	1676
778.117	3311
778.223	1982
778.329	1293
778.435	1833
778.542	1529
778.648	1400
778.754	539
778.860	937
778.966	329
779.072	1243
779.178	831
779.284	745
779.391	1179
779.497	1372
779.603	1993
779.708	1889
779.815	3882
779.920	12749
780.026	47687
780.132	40637
780.238	3364
780.344	2530
780.450	1163
780.556	1203
780.661	1248
780.767	1518
780.873	1014
780.979	259
781.085	451
781.190	1116
781.296	1230
781.402	1044
781.507	369
781.613	934
781.719	313
781.824	1427
781.930	1205
782.035	1054
782.141	1027
782.246	534
782.352	-201
782.457	1117
782.563	-496
782.668	549
782.773	727
782.879	1431
782.984	397
783.090	1165
783.195	706
783.300	1631
783.405	380
783.511	686
783.616	1146
783.721	849
783.826	46
783.932	550
784.037	540
784.142	1246
784.247	524
784.352	619
784.457	307
784.562	445
784.667	342
784.772	300
784.877	309
784.982	1266
785.087	165
785.192	1537
785.297	-53
785.402	-30
785.507	386
785.611	-54
785.716	1034
785.821	364
785.926	124
786.031	813
786.135	295
786.240	660
786.345	-256
786.450	708
786.554	333
786.659	1029
786.763	70
786.868	385
786.973	458
787.077	285
787.182	65
787.286	362
787.391	-482
787.495	472
787.600	158
787.704	389
787.809	746
787.913	31
788.017	-171
788.122	1292
788.226	587
788.330	7
788.435	-582
788.539	594
788.643	264
788.747	575
788.852	310
788.956	-155
789.060	593
789.164	-182
789.268	478
789.372	507
789.476	219
789.580	506
789.684	-390
789.788	611
789.892	-129
789.996	573
790.100	319
790.204	715
790.308	323
790.412	1188
790.516	-399
790.620	324
790.724	285
790.828	677
790.931	186
791.035	1331
791.139	-289
791.242	-479
791.346	903
791.450	622
791.554	-350
791.657	-380
791.761	722
791.864	364
791.968	-290
792.072	350
792.175	252
792.279	285
792.382	179
792.486	456
792.589	-917
792.693	459
792.796	-27
792.899	745
793.003	-536
793.106	70
793.209	519
793.313	-182
793.416	-475
793.519	217
793.623	269
793.726	1277
793.829	1706
793.932	689
794.035	55
794.138	670
794.242	217
794.345	-48
794.448	1225
794.551	2185
794.654	8048
794.757	24256
794.860	23221
794.963	2310
795.066	-98
795.169	1256
795.272	408
795.375	-233
795.477	171
795.580	428
795.683	-1142
795.786	942
795.889	-664
795.991	-138
796.094	58
796.197	144
796.300	-265
796.402	-436
796.505	-227
796.608	279
796.710	402
796.813	-36
796.915	-87
797.018	239
797.120	243
797.223	-328
797.326	333
797.428	97
797.530	-171
797.633	-611
797.735	480
797.838	600
797.940	1530
798.042	327
798.145	-373
798.247	36
798.349	-369
798.452	754
798.554	148
798.656	-562
798.758	578
798.860	-42
798.962	-881
799.065	-955
799.167	-617
799.269	39
799.371	-344
799.473	273
799.575	-101
799.677	376
799.779	144
799.881	116
799.983	976
800.085	75
800.187	-406
800.289	349
800.390	354
800.492	-978
800.594	-137
800.696	-263
800.798	-427
800.899	-81
801.001	-415
801.103	-672
801.205	-300
801.306	-1143
801.408	-926
801.509	178
801.611	-516
801.713	130
801.814	-829
801.916	72
802.017	-518
802.119	-689
802.220	-293
802.322	-1469
802.423	-483
802.525	-71
802.626	254
802.727	-926
802.829	-605
802.930	-1827
803.031	502
803.133	198
803.234	-291
803.335	-391
803.436	-136
803.538	-996
803.639	-629
803.740	-566
803.841	-1174
803.942	-220
804.043	-216
804.144	-104
804.245	-637
804.346	-1154
804.447	-1122
804.548	313
804.649	661
804.750	412
804.851	-352
804.952	285
805.053	-483
805.154	-1149
805.255	-287
805.355	-513
805.456	-317
805.557	-669
805.658	-663
805.758	-811
805.859	-567
805.960	-516
806.061	-543
806.161	-587
806.262	-697
806.362	204
806.463	192
806.564	-834
806.664	-79
806.765	-840
806.865	-352
806.966	-432
807.066	60
807.166	-66
807.267	-100
807.367	-1191
807.468	13
807.568	-812
807.668	-363
807.769	-596
807.869	145
807.969	-798
808.069	-285
808.170	-939
808.270	-751
808.370	180
808.470	-290
808.570	-131
808.670	-550
808.770	-691
808.870	-1286
808.970	256
809.070	-787
809.170	-797
809.271	-631
809.370	-680
809.470	-853
809.570	383
809.670	-96
809.770	-510
809.870	-299
809.970	-485
810.070	-698
810.169	-351
810.269	-1126
810.369	346
810.469	-996
810.568	-309
810.668	-822
810.768	-606
810.867	-873
810.967	-659
811.066	-898
811.166	-438
811.265	-205
811.365	-1157
811.464	-698
811.564	-229
811.663	-719
811.763	-548
811.862	-411
811.962	-159
812.061	-813
812.160	-441
812.260	-643
812.359	-622
812.458	-626
812.557	1756
812.657	2454
812.756	2459
812.855	45
812.954	754
813.053	-267
813.153	-259
813.252	-1259
813.351	-525
813.450	-881
813.549	-1063
813.648	-39
813.747	-56
813.846	-601
813.945	-622
814.044	-889
814.143	-460
814.242	-646
814.341	-180
814.439	-717
814.538	-193
814.637	-554
814.736	-251
814.835	223
814.933	-355
815.032	-28
815.131	40
815.229	-245
815.328	652
815.427	-338
815.525	-294
815.624	23
815.722	-26
815.821	-609
815.919	179
816.018	-327
816.116	465
816.215	268
816.313	-137
816.412	601
816.510	525
816.609	118
816.707	837
816.805	653
816.904	-460
817.002	671
817.100	1099
817.198	1596
817.296	949
817.395	2169
817.493	2618
817.591	2343
817.689	3617
817.787	6170
817.885	8582
817.983	14692
818.081	27866
818.179	64066
818.277	153304
818.375	299940
818.473	170944
818.571	52269
818.669	24847
818.767	17980
818.865	15994
818.963	15971
819.061	20150
819.158	31465
819.256	56346
819.354	117437
819.452	265610
819.549	402219
819.647	206876
819.745	72777
819.842	35356
819.940	21351
820.038	14447
820.135	11342
820.233	7982
820.330	5607
820.428	5134
820.525	3781
820.623	2636
820.720	2420
820.818	2203
820.915	1437
821.012	1825
821.110	1185
821.207	978
821.304	936
821.402	1531
821.499	1224
821.596	1525
821.693	1542
821.791	543
821.888	350
821.985	1415
822.082	2154
822.179	2046
822.276	915
822.373	845
822.470	-143
822.567	80
822.664	30
822.761	-167
822.858	141
822.955	340
823.052	502
823.149	-41
823.246	-497
823.343	-307
823.440	310
823.536	-528
823.633	-633
823.730	593
823.827	-474
823.923	-577
824.020	658
824.117	-743
824.213	-1006
824.310	790
824.407	-833
824.503	181
824.600	-828
824.696	-1045
824.793	256
824.889	-1052
824.986	-924
825.082	-582
825.179	-880
825.275	-874
825.371	-682
825.468	-321
825.564	-1208
825.660	-7
825.757	-415
825.853	329
825.949	-329
826.045	-494
826.142	-926
826.238	-527
826.334	-754
826.430	-690
826.526	165
826.622	-359
826.718	-173
826.814	-168
826.910	4
827.006	-664
827.102	-648
827.198	-98
827.294	-1669
827.390	-630
827.486	395
827.582	-271
827.678	-953
827.774	-41
827.869	-963
827.965	-141
828.061	-919
828.157	-177
828.252	-716
828.348	-1366
828.444	103
828.539	-440
828.635	-503
828.731	-695
828.826	-1188
828.922	-463
829.017	-1012
829.113	-595
829.208	-1159
829.304	-752
829.399	-234
829.495	-740
829.590	-1144
829.685	-708
829.781	-886
829.876	-696
829.971	-1195
830.066	-1140
830.162	-337
830.257	-1242
830.352	-1280
830.447	3
830.543	-481
830.638	-1244
830.733	-978
830.828	-860
830.923	-185
831.018	-1128
831.113	-1318
831.208	-869
831.303	-797
831.398	-544
831.493	-1254
831.588	-735
831.683	-1001
831.778	-906
831.873	-455
831.967	-864
832.062	-1078
832.157	-1316
832.252	-266
832.346	-641
832.441	-633
832.536	-468
832.631	-256
832.725	2252
832.820	200
832.914	-409
833.009	-732
833.104	-536
833.198	-643
833.293	-416
833.387	-1110
833.482	-226
833.576	-1604
833.670	-1088
833.765	-1226
833.859	-1030
833.954	-351
834.048	-827
834.142	-1279
834.237	-1427
834.331	-625
834.425	-1331
834.519	-1476
834.613	352
834.708	-856
834.802	-451
834.896	-1513
834.990	-913
835.084	-977
835.178	-576
835.272	-883
835.366	-620
835.460	-671
835.554	-1471
835.648	-847
835.742	-876
835.836	-729
835.930	-1484
836.024	-544
836.117	-495
836.211	-272
836.305	-466
836.399	-243
836.493	-346
836.586	-536
836.680	-1149
836.774	-520
836.867	-7
836.961	-1664
837.055	-489
837.148	-827
837.242	-833
837.335	-469
837.429	-891
837.522	-1632
837.616	-1136
837.709	-752
837.803	-259
837.896	-471
837.989	-1117
838.083	-389
838.176	-96
838.269	-269
838.363	-352
838.456	-543
838.549	-214
838.642	-709
838.735	596
838.829	2325
838.922	-417
839.015	-1558
839.108	-1565
839.201	-1361
839.294	-571
839.387	-575
839.480	-728
839.573	-654
839.666	561
839.759	-608
839.852	-861
839.945	-356
840.038	-349
840.131	-1129
840.223	-615
840.316	-39
840.409	-443
840.502	-1348
840.594	-197
840.687	-950
840.780	-425
840.873	-902
840.965	-360
841.058	-1203
841.150	-138
841.243	-363
841.336	-613
841.428	-539
841.521	-875
841.613	-1052
841.706	122
841.798	-941
841.890	-567
841.983	-1294
842.075	-143
842.167	-423
842.260	-1171
842.352	-1105
842.444	-890
842.537	-664
842.629	1038
842.721	718
842.813	-927
842.905	-1198
842.997	-650
843.090	-1327
843.182	-1072
843.274	-206
843.366	2168
843.458	3412
843.550	5346
843.642	1552
843.734	-687
843.826	-43
843.918	75
844.009	-449
844.101	-348
844.193	-1359
844.285	-771
844.377	-249
844.469	-631
844.560	-280
844.652	-475
844.744	-161
844.835	-299
844.927	-1537
845.019	-394
845.110	-107
845.202	-508
845.293	-1145
845.385	-835
845.476	-739
845.568	-254
845.659	-1169
845.751	-1089
845.842	-1198
845.934	-971
846.025	-1323
846.116	-307
846.208	-831
846.299	-1082
846.390	-702
846.482	-1490
846.573	-554
846.664	-276
846.755	-357
846.846	259
846.937	-693
847.029	-1351
847.120	-1537
847.211	-1653
847.302	-688
847.393	-1128
847.484	-960
847.575	-939
847.666	-1191
847.757	-570
847.847	-1349
847.938	-294
848.029	-1447
848.120	-597
848.211	-1913
848.302	-1273
848.392	-962
848.483	-711
848.574	-1219
848.664	-710
848.755	-1408
848.846	-1153
848.936	-1708
849.027	-1246
849.118	-619
849.208	-1266
849.299	-470
849.389	-667
849.480	-374
849.570	-1295
849.661	-538
849.751	-394
849.841	-37
849.932	-1369
850.022	-1212
850.112	-626
850.203	-844
850.293	-712
850.383	-1096
850.474	-1054
850.564	-867
850.654	-280
850.744	-1050
850.834	-412
850.924	-275
851.014	-496
851.104	-911
851.194	-1348
851.284	-1207
851.374	-698
851.464	-775
851.554	-1053
851.644	-1226
851.734	-526
851.824	-641
851.914	-819
852.004	163
852.094	-189
852.183	58
852.273	-552
852.363	-175
852.452	-1408
852.542	-714
852.632	-1548
852.721	-857
852.811	-507
852.901	-666
852.990	-636
853.080	-1126
853.169	-1341
853.259	-1308
853.348	-591
853.438	-1694
853.527	-636
853.617	-949
853.706	-843
853.795	-97
853.885	-95
853.974	1066
854.063	3072
854.152	5154
854.242	5745
854.331	-391
854.420	-726
854.509	-1033
854.598	-121
854.687	-662
854.777	-915
854.866	-1189
854.955	-1199
855.044	-1162
855.133	-561
855.222	-895
855.311	-1093
855.400	-978
855.488	-598
855.577	-1565
855.666	-747
855.755	-1290
855.844	-760
855.933	-1550
856.021	-1067
856.110	-882
856.199	-1493
856.288	-1956
856.376	-604
856.465	-507
856.554	-1014
856.642	-315
856.731	-1352
856.819	-1671
856.908	-633
856.996	-1288
857.085	-1002
857.173	-1427
857.262	-733
857.350	-1274
857.438	-623
857.527	-729
857.615	-1433
857.703	-1415
857.792	-911
857.880	-1598
857.968	-1029
858.056	-1343
858.145	-757
858.233	-1358
858.321	-1838
858.409	-537
858.497	-1038
858.585	-1124
858.673	-975
858.761	-900
858.849	-726
858.937	-1003
859.025	-967
859.113	-1133
859.201	-1459
859.289	-533
859.377	-706
859.465	-431
859.552	-715
859.640	-1227
859.728	-994
859.816	-1474
859.903	-88
859.991	-2001
860.079	-23
860.166	-1362
860.254	-59
860.342	-1035
860.429	-1224
860.517	-1373
860.604	-1202
860.692	-1421
860.779	-316
860.867	-1307
860.954	-603
861.042	-1276
861.129	-1080
861.216	-821
861.304	-763
861.391	-1631
861.478	-886
861.565	-952
861.653	-539
861.740	-1522
861.827	-995
861.914	-658
862.001	-1165
862.089	-877
862.176	-1258
862.263	-1661
862.350	-960
862.437	-1421
862.524	-815
862.611	-1100
862.698	-681
862.785	-690
862.871	-628
862.958	-669
863.045	-1287
863.132	-1079
863.219	-1635
863.306	-1520
863.392	-641
863.479	-1682
863.566	-614
863.652	-1911
863.739	-1213
863.826	-1512
863.912	-625
863.999	-1921
864.086	-358
864.172	-893
864.259	-949
864.345	-894
864.432	-1608
864.518	-1687
864.604	-626
864.691	-1176
864.777	-714
864.863	-833
864.950	-567
865.036	-1764
865.122	-584
865.209	-1528
865.295	-1076
865.381	-892
865.467	-800
865.553	-1491
865.639	-985
865.726	-939
865.812	368
865.898	-281
865.984	910
866.070	1113
866.156	3690
866.242	1497
866.328	-431
866.414	-1529
866.499	-1150
866.585	-1081
866.671	-1459
866.757	-1148
866.843	-509
866.928	-1405
867.014	-1509
867.100	-874
867.186	-934
867.271	-987
867.357	-458
867.442	-616
867.528	-371
867.614	-792
867.699	-817
867.785	-209
867.870	-621
867.956	-514
868.041	85
868.127	-812
868.212	58
868.297	-296
868.383	-185
868.468	-815
868.553	416
868.639	-713
868.724	332
868.809	2935
868.894	737
868.979	-1396
869.065	-729
869.150	-1929
869.235	-1582
869.320	-1861
869.405	-1114
869.490	-1315
869.575	-1427
869.660	-1615
869.745	-945
869.830	-1612
869.915	-1530
870.000	-972
870.085	-394
870.169	-782
870.254	-793
870.339	-1120
870.424	-1558
870.509	-1433
870.593	-273
870.678	-1716
870.763	-1766
870.847	-1179
870.932	-1594
871.016	-813
871.101	-1394
871.186	-977
871.270	-1433
871.355	-1198
871.439	-578
871.523	-2036
871.608	-1256
871.692	-1198
871.777	-231
871.861	-1694
871.945	-730
872.030	-783
872.114	-1679
872.198	-1439
872.282	-1322
872.367	-1119
872.451	-215
872.535	-1107
872.619	-889
872.703	-1907
872.787	-1592
872.871	-1140
872.955	-1315
873.039	-1788
873.123	-1798
873.207	-1549
873.291	-843
873.375	-1112
873.459	-1408
873.543	-1137
873.627	-921
873.711	-551
873.794	-1066
873.878	-1149
873.962	-2045
874.045	-1274
874.129	-531
874.137	-572
874.213	-978
874.245	-955
874.296	-914
874.352	-1200
874.380	-1345
874.460	-1229
874.464	-1225
874.547	-1298
874.568	-1223
874.631	-1019
874.676	-1193
874.714	-1332
874.784	-986
874.798	-915
874.881	-443
874.892	-495
874.965	-873
874.999	-859
875.048	-869
875.107	-681
875.131	-595
875.215	-530
875.215	-529
875.298	-638
875.323	-853
875.381	-1358
875.430	-1005
875.465	-733
875.538	-444
875.548	-416
875.631	-1251
875.646	-1237
875.714	-1155
875.753	-1100
875.798	-1005
875.861	-1047
875.881	-1071
875.964	-325
875.968	-394
876.047	-1537
876.076	-1197
876.130	-611
876.183	-975
876.213	-1182
876.291	-269
876.296	-211
876.379	-578
876.398	-759
876.462	-1217
876.506	-802
876.545	-503
876.613	-1339
876.628	-1522
876.711	-1142
876.721	-1155
876.794	-1195
876.828	-1290
876.877	-1374
876.935	-782
876.960	-578
877.043	-1021
877.043	-1021
877.125	-795
877.150	-888
877.208	-1029
877.258	-613
877.291	-382
877.365	-112
877.374	-79
877.456	-301
877.472	-234
877.539	-28
877.579	-271
877.622	-439
877.687	-411
877.704	-392
877.787	-734
877.794	-752
877.869	-1167
877.901	-1009
877.952	-657
878.008	-724
878.034	-759
878.115	-358
878.117	-347
878.199	-937
878.222	-702
878.282	-189
878.329	-292
878.364	-356
878.437	-882
878.447	-944
878.529	-402
878.544	-433
878.611	-658
878.651	-888
878.694	-1102
878.758	-590
878.776	-462
878.858	-697
878.865	-708
878.941	-708
878.972	-655
879.023	-579
879.078	-361
879.105	-298
879.185	-870
879.187	-874
879.269	-570
879.292	-426
879.351	-275
879.399	-426
879.433	-530
879.506	-622
879.516	-608
879.598	-466
879.613	-458
879.680	-372
879.720	-398
879.762	-617
879.827	-993
879.844	-1014
879.926	-589
879.933	-544
880.007	-583
880.040	-743
880.089	-515
880.147	-260
880.171	-312
880.253	-210
880.254	-211
880.335	201
880.360	499
880.417	851
880.467	809
880.499	1156
880.574	2698
880.580	2717
880.662	2110
880.680	1716
880.744	354
880.787	-251
880.825	-476
880.893	-629
880.907	-676
880.989	-602
881.000	-598
881.070	-568
881.106	-526
881.152	-304
881.213	-88
881.233	-89
881.315	-265
881.319	-281
881.396	-298
881.426	-413
881.478	-827
881.532	-571
881.559	-343
881.639	-554
881.641	-556
881.722	-105
881.745	-252
881.803	-559
881.852	-348
881.885	-337
881.958	-553
881.966	-562
882.047	-110
882.064	-272
882.129	-682
882.171	-375
882.210	-131
882.277	-264
882.291	-238
882.372	523
882.383	517
882.454	-247
882.489	-525
882.535	-603
882.596	-793
882.616	-762
882.697	-242
882.702	-227
882.778	-339
882.808	-387
882.859	-344
882.914	-595
882.940	-678
883.020	-181
883.021	-173
883.102	-31
883.127	-88
883.183	-275
883.233	-194
883.264	-177
883.339	-287
883.345	-285
883.426	-317
883.445	-259
883.507	215
883.551	232
883.587	31
883.657	116
883.668	166
883.749	-66
883.763	-66
883.830	-51
883.869	-132
883.910	-274
883.975	-1
883.991	78
884.072	-383
884.081	-382
884.152	-209
884.187	-235
884.233	-112
884.292	480
884.314	508
884.394	-206
884.398	-224
884.475	81
884.504	170
884.555	237
884.610	204
884.636	66
884.716	-326
884.716	-322
884.797	-437
884.821	-459
884.877	-282
884.927	-57
884.958	-73
885.033	-43
885.038	-20
885.118	259
885.139	237
885.199	-171
885.244	-255
885.279	-128
885.350	-58
885.359	-26
885.439	284
885.456	304
885.520	405
885.561	528
885.600	264
885.667	-153
885.680	-99
885.760	256
885.773	255
885.840	31
885.878	30
885.920	-56
885.984	-278
886.000	-204
886.080	85
886.089	137
886.160	445
886.195	489
886.240	238
886.300	-29
886.320	-14
886.400	105
886.406	93
886.480	100
886.511	158
886.560	237
886.616	379
886.640	485
886.720	547
886.722	548
886.800	164
886.827	-48
886.879	150
886.932	342
886.959	177
887.038	-176
887.039	-164
887.119	266
887.143	467
887.198	290
887.248	-93
887.278	-36
887.354	356
887.358	351
887.437	-47
887.459	-111
887.517	675
887.564	1252
887.596	1094
887.669	697
887.676	670
887.755	328
887.774	204
887.835	198
887.880	265
887.914	207
887.985	92
887.994	99
888.073	-93
888.090	-69
888.153	105
888.195	135
888.232	364
888.300	754
888.311	724
888.391	509
888.405	455
888.470	531
888.510	576
888.549	542
888.615	538
888.628	555
888.708	514
888.720	521
888.787	486
888.825	389
888.866	447
888.930	606
888.945	638
889.024	740
889.035	746
889.103	451
889.140	293
889.182	414
889.245	610
889.261	568
889.340	273
889.349	242
889.419	736
889.454	965
889.498	795
889.559	541
889.577	537
889.656	517
889.664	514
889.735	351
889.768	271
889.814	663
889.873	1180
889.978	-205
890.083	522
890.187	608
890.292	-83
890.397	641
890.501	379
890.606	155
890.710	667
890.815	757
890.919	1383
891.024	572
891.128	356
891.233	279
891.337	477
891.442	21
891.546	983
891.650	-176
891.755	485
891.859	1181
891.963	716
892.068	-299
892.172	597
892.276	628
892.380	941
892.484	702
892.589	980
892.693	231
892.797	1109
892.901	820
893.005	666
893.109	-316
893.213	720
893.317	441
893.421	941
893.525	60
893.629	649
893.733	769
893.837	402
893.941	513
894.045	1620
894.148	268
894.252	1158
894.356	1920
894.460	1080
894.564	334
894.667	1492
894.771	-361
894.875	348
894.978	-518
895.082	527
895.186	-72
895.289	785
895.393	601
895.496	66
895.600	-19
895.703	507
895.807	572
895.910	884
896.014	-362
896.117	374
896.221	364
896.324	189
896.427	884
896.531	-147
896.634	492
896.737	548
896.840	268
896.944	450
897.047	331
897.150	318
897.253	188
897.356	576
897.460	476
897.563	523
897.666	264
897.769	48
897.872	-68
897.975	-276
898.078	-376
898.181	319
898.284	569
898.387	616
898.490	-306
898.593	905
898.695	354
898.798	829
898.901	143
899.004	1044
899.107	547
899.209	618
899.312	57
899.415	234
899.518	-28
899.620	719
899.723	646
899.826	905
899.928	910
900.031	546
900.133	559
900.236	-20
900.338	680
900.441	-63
900.543	887
900.646	-154
900.748	-111
900.851	232
900.953	322
901.055	-41
901.158	750
901.260	880
901.362	396
901.465	119
901.567	809
901.669	261
901.771	-538
901.873	796
901.976	662
902.078	361
902.180	223
902.282	-24
902.384	-210
902.486	250
902.588	48
902.690	824
902.792	-279
902.894	878
902.996	470
903.098	121
903.200	848
903.302	244
903.404	364
903.505	1042
903.607	221
903.709	831
903.811	-469
903.913	231
904.014	223
904.116	417
904.218	699
904.319	747
904.421	887
904.523	692
904.624	-145
904.726	-163
904.827	134
904.929	510
905.030	-253
905.132	914
905.233	870
905.335	526
905.436	152
905.537	202
905.639	833
905.740	700
905.841	819
905.943	859
906.044	411
906.145	38
906.247	196
906.348	308
906.449	356
906.550	-228
906.651	-16
906.752	251
906.854	170
906.955	660
907.056	118
907.157	341
907.258	918
907.359	-264
907.460	364
907.561	611
907.662	302
907.762	44
907.863	-281
907.964	466
908.065	-111
908.166	298
908.267	-715
908.367	515
908.468	79
908.569	415
908.670	330
908.770	670
908.871	598
908.971	1085
909.072	368
909.173	-74
909.273	751
909.374	93
909.474	-60
909.575	898
909.675	295
909.776	679
909.876	84
909.977	-400
910.077	360
910.177	660
910.278	319
910.378	319
910.478	741
910.579	-220
910.679	41
910.779	-468
910.879	33
910.980	311
911.080	-115
911.180	505
911.280	-68
911.380	1286
911.480	24
911.580	405
911.680	546
911.780	-327
911.880	644
911.980	571
912.080	700
912.180	189
912.280	17
912.380	-188
912.480	-415
912.580	-353
912.679	-531
912.779	1087
912.879	-26
912.979	-253
913.078	-311
913.178	222
913.278	-381
913.377	644
913.477	-329
913.577	437
913.676	679
913.776	77
913.875	-236
913.975	449
914.074	93
914.174	-225
914.273	-599
914.373	387
914.472	90
914.572	-668
914.671	-28
914.770	116
914.870	371
914.969	978
915.068	53
915.167	454
915.267	108
915.366	658
915.465	762
915.564	-67
915.663	567
915.763	618
915.862	105
915.961	590
916.060	241
916.159	418
916.258	174
916.357	1109
916.456	-24
916.555	856
916.654	-727
916.752	507
916.851	79
916.950	-606
917.049	367
917.148	-42
917.247	107
917.345	181
917.444	-14
917.543	591
917.642	410
917.740	1
917.839	305
917.937	912
918.036	428
918.135	211
918.233	495
918.332	373
918.430	-70
918.529	48
918.627	322
918.726	488
918.824	-194
918.923	-463
919.021	577
919.119	763
919.218	222
919.316	13
919.414	653
919.512	-134
919.611	-164
919.709	92
919.807	-357
919.905	841
920.003	-462
920.102	390
920.200	283
920.298	14
920.396	523
920.494	67
920.592	-231
920.690	369
920.788	205
920.886	808
920.984	-124
921.082	315
921.180	-269
921.277	1291
921.375	495
921.473	750
921.571	164
921.669	846
921.766	-87
921.864	393
921.962	-265
922.060	-57
922.157	-84
922.255	-337
922.352	662
922.450	788
922.548	203
922.645	-410
922.743	-35
922.840	252
922.938	330
923.035	45
923.133	-243
923.230	584
923.327	-471
923.425	497
923.522	442
923.619	-75
923.717	-251
923.814	699
923.911	597
924.008	351
924.106	209
924.203	-272
924.300	803
924.397	708
924.494	-87
924.591	922
924.688	-506
924.786	-102
924.883	-1
924.979	-353
925.077	486
925.173	290
925.270	503
925.367	866
925.464	194
925.561	-186
925.658	116
925.755	560
925.852	-188
925.948	353
926.045	752
926.142	776
926.239	932
926.335	1059
926.432	1482
926.529	1379
926.625	1293
926.722	935
926.818	50
926.915	777
927.011	571
927.108	637
927.204	314
927.301	165
927.397	264
927.494	50
927.590	-180
927.687	-389
927.783	-136
927.879	-334
927.976	254
928.072	907
928.168	572
928.264	14
928.361	-213
928.457	723
928.553	-156
928.649	549
928.745	662
928.841	-249
928.937	-89
929.033	350
929.129	-264
929.225	511
929.321	-209
929.417	-4
929.513	-467
929.609	218
929.705	175
929.801	289
929.897	-412
929.993	236
930.089	39
930.184	171
930.280	-930
930.376	62
930.471	-600
930.567	-239
930.663	-42
930.758	174
930.854	-395
930.950	273
931.045	-188
931.141	376
931.236	237
931.332	1206
931.427	157
931.523	-284
931.618	600
931.714	-345
931.809	-73
931.905	10
932.000	-74
932.095	-231
932.191	-460
932.286	363
932.381	346
932.476	-21
932.572	59
932.667	547
932.762	-248
932.857	-330
932.952	-460
933.047	49
933.142	310
933.237	-157
933.332	-204
933.427	380
933.522	21
933.617	129
933.712	602
933.807	208
933.902	-841
933.997	-112
934.092	95
934.187	10
934.282	-664
934.376	123
934.471	-673
934.566	141
934.661	416
934.755	169
934.850	281
934.945	569
935.039	491
935.134	11
935.228	572
935.323	-117
935.417	-377
935.512	116
935.606	-818
935.701	587
935.795	148
935.890	-383
935.984	572
936.079	302
936.173	-527
936.267	-529
936.362	-20
936.456	796
936.550	-279
936.644	113
936.738	-501
936.833	-92
936.927	530
937.021	483
937.115	2
937.209	-762
937.303	-567
937.397	56
937.491	-840
937.585	414
937.679	-593
937.773	916
937.867	104
937.961	119
938.055	-67
938.149	520
938.243	618
938.337	-127
938.430	-76
938.524	995
938.618	734
938.712	1433
938.805	-181
938.899	847
938.993	-507
939.086	944
939.180	1130
939.274	2626
939.367	796
939.461	996
939.554	20
939.648	139
939.741	-329
939.835	-168
939.928	678
940.022	736
940.115	-375
940.208	-196
940.302	-863
940.395	212
940.488	-236
940.582	359
940.675	-29
940.768	645
940.861	-536
940.954	147
941.048	-722
941.141	193
941.234	-87
941.327	-515
941.420	602
941.513	310
941.606	-406
941.699	3
941.792	433
941.885	-636
941.978	-875
942.071	-289
942.164	-627
942.257	114
942.349	-357
942.442	337
942.535	-622
942.628	298
942.721	-225
942.813	17
942.906	487
942.999	-280
943.091	-185
943.184	-279
943.277	-414
943.369	639
943.462	-517
943.554	-255
943.647	-521
943.739	-1039
943.832	-23
943.924	-682
944.017	0
944.109	-94
944.201	179
944.294	-113
944.386	-80
944.478	-76
944.571	-348
944.663	-11
944.755	-98
944.847	-157
944.940	-401
945.032	489
945.124	-576
945.216	-404
945.308	-64
945.400	-134
945.492	114
945.584	-677
945.676	-990
945.768	52
945.860	-328
945.952	-283
946.044	35
946.136	11
946.228	-329
946.320	21
946.412	2
946.503	-113
946.595	85
946.687	231
946.779	-152
946.870	-143
946.962	-492
947.054	29
947.145	-391
947.237	-797
947.329	243
947.420	-740
947.512	-144
947.603	481
947.695	-336
947.786	-176
947.878	161
947.969	-539
948.061	211
948.152	-125
948.243	-482
948.335	-414
948.426	-1143
948.517	-410
948.609	-1020
948.700	-261
948.791	-171
948.882	-802
948.973	-377
949.065	-543
949.156	-956
949.247	607
949.338	-232
949.429	-229
949.520	-731
949.611	-280
949.702	-82
949.793	-522
949.884	-470
949.975	-73
950.066	-447
950.157	624
950.247	147
950.338	-757
950.429	-1340
950.520	-200
950.611	-400
950.701	-1242
950.792	-315
950.883	-50
950.973	-72
951.064	-486
951.155	62
951.245	-974
951.336	-659
951.427	-301
951.517	-8
951.608	-320
951.698	-887
951.788	-341
951.879	-1070
951.969	-135
952.060	-439
952.150	-986
952.240	-868
952.331	-798
952.421	76
952.511	-513
952.602	-829
952.692	-952
952.782	-931
952.872	-926
952.962	-24
953.052	-669
953.143	-268
953.233	186
953.323	-747
953.413	-1213
953.503	-206
953.593	-891
953.683	-606
953.773	-825
953.863	-816
953.953	-542
954.042	-250
954.132	-772
954.222	-505
954.312	-493
954.402	-460
954.492	-539
954.581	-757
954.671	-128
954.761	-874
954.850	-375
954.940	-540
955.030	-114
955.119	-942
955.209	-558
955.298	-742
955.388	-557
955.477	-582
955.567	-782
955.656	431
955.746	-223
955.835	-177
955.925	-280
956.014	-801
956.103	-230
956.193	-37
956.282	-591
956.371	-1032
956.461	-452
956.550	-56
956.639	302
956.728	-761
956.817	12
956.906	-252
956.995	-920
957.085	-161
957.174	-106
957.263	-1124
957.352	-315
957.441	-322
957.530	-840
957.619	-500
957.708	-775
957.796	-37
957.885	185
957.974	-1078
958.063	-527
958.152	-781
958.241	216
958.329	-60
958.418	-911
958.507	195
958.596	-950
958.684	-271
958.773	-138
958.861	-42
958.950	645
959.039	-617
959.127	806
959.216	922
959.304	-4
959.393	-682
959.481	438
959.570	159
959.658	7
959.746	-19
959.835	619
959.923	67
960.011	806
960.100	8
960.188	662
960.276	-975
960.365	46
960.453	-855
960.541	-362
960.629	-228
960.717	103
960.805	-182
960.893	138
960.981	-563
961.069	-606
961.158	-685
961.245	-27
961.333	-552
961.421	-154
961.509	-571
961.597	-789
961.685	-555
961.773	-782
961.861	-1548
961.949	43
962.036	-569
962.124	-651
962.212	-1381
962.299	-602
962.387	-277
962.475	-795
962.562	-634
962.650	-250
962.738	-458
962.825	-686
962.913	16
963.000	-560
963.088	-295
963.175	-1092
963.263	-636
963.350	-587
963.438	-344
963.525	-371
963.612	-807
963.700	815
963.787	1003
963.874	3070
963.962	307
964.049	169
964.136	-994
964.223	-961
964.310	-708
964.398	-598
964.485	-718
964.572	-415
964.659	-21
964.746	482
964.833	-2
964.920	-234
965.007	-737
965.094	-1188
965.181	-658
965.268	-752
965.355	-1042
965.441	-539
965.528	-982
965.615	-611
965.702	-924
965.789	-515
965.875	-132
965.962	-874
966.049	-548
966.136	-562
966.222	-1175
966.309	-582
966.395	-1113
966.482	-521
966.569	-821
966.655	-806
966.742	-713
966.828	-783
966.915	199
967.001	-546
967.087	-1158
967.174	-795
967.260	-1252
967.347	-57
967.433	118
967.519	851
967.605	691
967.692	-533
967.778	-641
967.864	-418
967.950	-1043
968.036	-1092
968.123	-331
968.209	-792
968.295	-1175
968.381	-350
968.467	-1019
968.553	-1377
968.639	-478
968.725	-726
968.811	-571
968.897	-305
968.983	-1449
969.069	-24
969.154	-1166
969.240	-477
969.326	-745
969.412	-227
969.497	-948
969.583	-1243
969.669	-656
969.755	-903
969.840	-1340
969.926	-503
970.012	-1743
970.097	-479
970.183	-991
970.268	-655
970.354	-635
970.439	400
970.525	-240
970.610	395
970.696	222
970.781	-277
970.866	-2001
970.952	-557
971.037	-1245
971.122	-194
971.208	-353
971.293	-915
971.378	-1403
971.463	-860
971.549	-293
971.634	-927
971.719	-977
971.804	-915
971.889	-714
971.974	229
972.059	-770
972.144	-1018
972.229	-1210
972.314	-1137
972.399	-303
972.484	-686
972.569	-48
972.654	-1223
972.739	356
972.824	-13
972.908	-690
972.993	-1117
973.078	-1222
973.163	-1026
973.247	-1347
973.332	-1183
973.417	-524
973.501	-1150
973.586	-753
973.671	-156
973.755	-795
973.840	-1062
973.924	-563
974.009	-814
974.093	-819
974.178	-327
974.262	-593
974.346	-58
974.431	-757
974.515	-640
974.600	-1206
974.684	-533
974.768	-887
974.852	-621
974.937	-767
975.021	-844
975.105	-758
975.189	-771
975.273	-1364
975.358	-631
975.442	-1932
975.526	-100
975.610	-1361
975.694	-1071
975.778	-1051
975.862	-815
975.946	-2397
976.030	-40
976.114	-871
976.198	-653
976.281	-1070
976.365	-1147
976.449	-1974
976.533	-1078
976.617	-1583
976.700	-233
976.784	-978
976.868	-1051
976.951	-713
977.035	-1040
977.119	-1152
977.202	-1073
977.286	-977
977.369	-594
977.453	-1418
977.536	-1071
977.620	-1323
977.703	-322
977.787	-1266
977.870	-755
977.953	-916
978.037	-1278
978.120	-1532
978.203	-1148
978.287	-135
978.370	-118
978.453	-1526
978.536	-971
978.620	-934
978.703	-824
978.786	-820
978.869	-1066
978.952	-1605
979.035	-554
979.118	-1047
979.201	-1376
979.284	-1237
979.367	-864
979.450	-695
979.533	-1468
979.616	-1031
979.699	-1358
979.782	-1016
979.865	-1172
979.948	-1511
980.030	-1256
980.113	-883
980.196	-1516
980.279	-1502
980.361	-1320
980.444	-1430
980.526	-1252
980.609	-1769
980.692	-926
980.774	-1519
980.857	-870
980.939	-1511
981.022	-603
981.104	-2119
981.187	-1191
981.269	-1975
981.352	-751
981.434	-1921
981.516	-1087
981.599	-1128
981.681	-1007
981.763	-1457
981.846	-1256
981.928	-1187
982.010	-989
982.092	-1804
982.174	-913
982.256	-904
982.339	-1324
982.421	-1279
982.503	-1038
982.585	-591
982.667	-1579
982.749	-1679
982.831	-886
982.913	-1637
982.995	-1236
983.077	-1838
983.158	-786
983.240	-2064
983.322	-78
983.404	-1579
983.486	-1608
983.568	-1262
983.649	-526
983.731	-1590
983.813	-1126
983.894	-1350
983.976	-996
984.058	-1807
984.139	-1248
984.221	-1066
984.302	-1048
984.384	-983
984.465	-2224
984.547	-1831
984.628	-1811
984.710	-1454
984.791	-793
984.872	-1328
984.954	-1275
985.035	-834
985.116	-1414
985.198	-1539
985.279	-162
985.360	-1370
985.441	-1275
985.522	-952
985.604	-898
985.685	-2300
985.766	-594
985.847	-2059
985.928	-1890
986.009	-1602
986.090	-1241
986.171	-1497
986.252	-1350
986.333	-1687
986.414	-1908
986.495	-1652
986.576	-2286
986.656	-1795
986.737	-1453
986.818	-897
986.899	-1678
986.980	-1508
987.060	-2114
987.141	-1292
987.222	-1142
987.302	-1890
987.383	-1564
987.464	-1159
987.544	-916
987.625	-1569
987.705	-656
987.786	-1896
987.866	-648
987.947	-1135
988.027	-1390
988.108	-1944
988.188	-1525
988.268	-1534
988.349	-1325
988.429	-1133
988.509	-1719
988.589	-1567
988.670	-2051
988.750	-1043
988.830	-2035
988.910	-2108
988.990	-2434
989.070	-2070
989.151	-1732
989.231	-1641
989.311	-700
989.391	-1067
989.471	-1165
989.551	-1516
989.631	-1877
989.711	-1079
989.791	-1364
989.870	-1684
989.950	-772
990.030	-2148
990.110	-1655
990.190	-1776
990.269	-1693
990.349	-1860
990.429	-592
990.509	-1666
990.588	-1380
990.668	-1817
990.747	-1517
990.827	-1777
990.907	-1012
990.986	-1735
991.066	-1164
991.145	-939
991.225	-1492
991.304	-2012
991.383	-1796
991.463	-1664
991.542	-1408
991.622	-1893
991.701	-1181
991.780	-1526
991.859	-1213
991.939	-1292
992.018	-1503
992.097	-1333
992.176	-858
992.256	-787
992.335	-1646
992.414	-803
992.493	-1595
992.572	-1273
992.651	-1469
992.730	-1862
992.809	-943
992.888	-1309
992.967	-1433
993.046	-1430
993.125	-1631
993.203	-834
993.282	-1974
993.361	-1415
993.440	-1813
993.519	-1174
993.597	-1208
993.676	-1581
993.755	-1853
993.834	-1560
993.912	-1068
993.991	-1432
994.069	-1277
994.148	-809
994.226	-1020
994.305	-2015
994.384	-1592
994.462	-461
994.540	-1260
994.619	-1870
994.697	-1259
994.776	-2335
994.854	-1244
994.932	-1521
995.011	-1430
995.089	-2200
995.167	-1363
995.245	-1472
995.324	-2445
995.402	-606
995.480	-1805
995.558	-2302
995.636	-1487
995.714	-1275
995.792	-995
995.870	-2099
995.948	-674
996.026	-1164
996.104	-1445
996.182	-1649
996.260	-1355
996.338	-2322
996.416	-1224
996.494	-1635
996.572	-786
996.649	-2038
996.727	-1901
996.805	-1338
996.883	-1508
996.960	-1522
997.038	-1819
997.116	-1313
997.193	-1833
997.271	-1883
997.348	-1549
997.426	-1380
997.504	-1865
997.581	-874
997.658	-1469
997.736	-1859
997.813	-1754
997.891	-1555
997.968	-1263
998.046	-2065
998.123	-987
998.200	-1522
998.277	-1856
998.355	-1432
998.432	-1884
998.509	-1342
998.586	-1338
998.663	-1517
998.741	-1201
998.818	-1575
998.895	-1259
998.972	-500
999.049	-1340
999.126	-1845
999.203	-966
999.280	-2101
999.357	-1665
999.434	-2760
999.511	-1030
999.587	-1174
999.664	-2518
999.741	-1507
999.818	-1562
999.895	-1021
999.971	-2059
1000.048	-1753
1000.125	-1688
1000.202	-2364
1000.278	-1236
1000.355	-1331
1000.431	-1501
1000.508	-1351
1000.584	-1574
1000.661	-1617
1000.738	-1521
1000.814	-1756
1000.890	-1016
1000.967	-1805
1001.043	-1822
1001.120	-2270
1001.196	-1583
1001.272	-1331
1001.349	-1296
1001.425	-1971
1001.501	-1166
1001.577	-1795
1001.654	-1196
1001.730	-1181
1001.806	-1189
1001.882	-1775
1001.958	-1399
1002.034	-1363
1002.110	-1611
1002.186	-1689
1002.262	-1367
1002.338	-2054
1002.414	-738
1002.490	-848
1002.566	-1929
1002.642	-2656
1002.718	-1506
1002.794	-1998
1002.870	-2294
1002.945	-2001
1003.021	-1286
1003.097	-1652
1003.173	-1017
1003.248	-1903
1003.324	-1469
1003.400	-1879
1003.475	-1236
1003.551	-1103
1003.626	-1598
1003.702	-1560
1003.777	-1374
1003.853	-2026
1003.928	-2304
1004.004	-2015
1004.079	-2109
1004.155	-1065
1004.230	-2189
1004.305	-782
1004.381	-1760
1004.456	-1625
1004.531	-1390
1004.607	-1655
1004.682	-1556
1004.757	-1646
1004.832	-1642
1004.907	-2403
1004.982	-1017
1005.057	-1634
1005.133	-1719
1005.208	-2220
1005.283	-1675
1005.358	-1088
1005.433	-1835
1005.508	-2030
1005.583	-1564
1005.657	-2269
1005.732	-1123
1005.807	-2607
1005.882	-1864
1005.957	-1843
1006.032	-1445
1006.106	-1414
1006.181	-1520
1006.256	-1387
1006.331	-2163
1006.405	-1972
1006.480	-1243
1006.554	-1565
1006.629	-1669
1006.704	-2440
1006.778	-1654
1006.853	-1907
1006.927	-1565
1007.002	-1827
1007.076	-1017
1007.150	-1891
1007.225	-1600
1007.299	-1804
1007.373	-1741
1007.448	-1855
1007.522	-1183
1007.596	-2194
1007.671	-1548
1007.745	-1240
1007.819	-2135
1007.893	-2378
1007.967	-1561
1008.041	-2494
1008.115	-1476
1008.190	-1592
1008.264	-1915
1008.338	-2127
1008.412	-2189
1008.486	-1902
1008.560	-1313
1008.633	-2443
1008.707	-1630
1008.781	-2088
1008.855	-2477
1008.929	-1995
1009.003	-2038
1009.076	-2099
1009.150	-1869
1009.224	-2253
1009.298	-1881
1009.371	-1939
1009.445	-1829
1009.519	-1910
1009.592	-3037
1009.666	-2145
1009.739	-1832
1009.813	-2403
1009.886	-991
1009.960	-2713
1010.033	-1759
1010.107	-2279
1010.180	-2852
1010.253	-2372
1010.327	-2052
1010.400	-1215
1010.473	-1856
1010.547	-1045
1010.620	-1774
1010.693	-1962
1010.766	-1734
1010.840	-1589
1010.913	-1532
1010.986	-2124
1011.059	-1586
1011.132	-1951
1011.205	-2036
1011.278	-2024
1011.351	-1558
1011.424	-2062
1011.497	-1456
1011.570	-1873
1011.643	-1946
1011.716	-1516
1011.789	-2071
1011.862	-2263
1011.934	-1829
1012.007	-2351
1012.080	-1068
1012.153	-1945
1012.225	-2103
1012.298	-2808
1012.371	-2435
1012.443	-1969
1012.516	-1884
1012.588	-1964
1012.661	-1175
1012.733	-2243
1012.806	-1188
1012.879	-1612
1012.951	-1069
1013.023	-2104
1013.096	-1376
1013.168	-1983
1013.241	-1372
1013.313	-1866
1013.385	-2660
1013.458	-1945
1013.530	-1469
1013.602	-2000
1013.674	-2097
1013.746	-2372
1013.819	-1580
1013.891	-2636
1013.963	-1986
1014.035	-3366
1014.107	-1582
1014.179	-2079
1014.251	-2330
1014.323	-2477
1014.395	-2310
1014.467	-2069
1014.539	-2616
1014.611	-2158
1014.683	-1582
1014.754	-2212
1014.826	-2050
1014.898	-1894
1014.970	-1995
1015.042	-1823
1015.113	-2143
1015.185	-2016
1015.257	-2126
1015.328	-2063
1015.400	-2572
1015.471	-1459
1015.543	-2414
1015.615	-1882
1015.686	-1950
1015.757	-2033
1015.829	-1508
1015.901	-2031
1015.972	-1939
1016.043	-2309
1016.115	-2545
1016.186	-2904
1016.257	-2767
1016.328	-1736
1016.400	-1690
1016.471	-3372
1016.542	-1393
1016.613	-2653
1016.685	-1837
1016.756	-1145
1016.827	-2569
1016.898	-1952
1016.969	-1788
1017.040	-2731
1017.111	-3199
1017.182	-1932
1017.253	-2463
1017.324	-2659
1017.395	-1752
1017.466	-2035
1017.537	-1664
1017.608	-2251
1017.678	-1714
1017.749	-2657
1017.820	-2356
1017.891	-2815
1017.961	-2932
1018.032	-2901
1018.103	-2583
1018.173	-2655
1018.244	-3021
1018.315	-3020
1018.385	-1346
1018.456	-2153
1018.526	-2397
1018.597	-2586
1018.667	-2449
1018.738	-2108
1018.808	-2508
1018.878	-2374
1018.949	-3020
1019.019	-2970
1019.089	-1871
1019.160	-2333
1019.230	-1839
1019.300	-1701
1019.371	-3071
1019.441	-2497
1019.511	-2631
1019.581	-2603
1019.651	-2464
1019.721	-2297
1019.791	-2356
1019.861	-2493
1019.931	-2651
1020.001	-2234
1020.071	-2317
1020.141	-2800
1020.211	-2236
1020.281	-2477
1020.351	-2482
1020.421	-2327
1020.491	-2396
1020.560	-2620
1020.630	-2183
1020.700	-2457
1020.770	-1823
1020.839	-2026
1020.909	-2218
1020.979	-3048
1021.048	-2688
1021.118	-2324
1021.187	-1967
1021.257	-2170
1021.326	-1727
1021.396	-2875
1021.465	-2018
1021.535	-2588
1021.604	-2596
1021.674	-2771
1021.743	-1976
1021.812	-2084
1021.882	-1638
1021.951	-2331
1022.020	-2501
1022.089	-1778
1022.159	-2398
1022.228	-2769
1022.297	-2455
1022.366	-2229
1022.435	-2235
1022.504	-2147
1022.573	-2286
1022.642	-2334
1022.711	-1903
1022.781	-2528
1022.849	-1899
1022.918	-2888
1022.987	-2254
1023.056	-3001
1023.125	-1907
1023.194	-2651
1023.263	-2232
1023.331	-2180
1023.400	-2833
1023.469	-2833
1023.538	-2375
1023.606	-2264
1023.675	-2257
1023.744	-2630
1023.812	-2561
1023.881	-2529
1023.949	-2230
1024.018	-2548
1024.086	-2397
1024.155	-2313
1024.223	-2676
1024.292	-2462
1024.360	-2453
1024.429	-2311
1024.497	-2972
1024.565	-2792
1024.634	-2477
1024.702	-2051
1024.770	-2549
1024.838	-2461
1024.907	-2444
1024.975	-2087
1025.043	-2347
1025.111	-2473
1025.179	-2600
1025.247	-2143
1025.315	-1843
1025.383	-2846
1025.451	-1944
1025.519	-2389
1025.587	-2518
1025.655	-2647
1025.723	-2192
1025.791	-1941
1025.859	-1938
1025.927	-2581
1025.995	-1912
1026.062	-2307
1026.130	-2340
1026.198	-2449
1026.266	-1447
1026.333	-1878
1026.401	-2745
1026.469	-1880
1026.536	-1750
1026.604	-2921
1026.671	-2711
1026.739	-1852
1026.806	-2286
1026.874	-2608
1026.941	-2443
1027.009	-2978
1027.076	-2368
1027.144	-2033
1027.211	-2641
1027.278	-2989
1027.345	-2209
1027.413	-2687
1027.480	-2173
1027.547	-2701
1027.614	-2515
1027.682	-2489
1027.749	-2490
1027.816	-2070
1027.883	-1808
1027.950	-2043
1028.017	-2468
1028.084	-2354
1028.151	-2823
1028.218	-2430
1028.285	-2257
1028.352	-2487
1028.419	-2761
1028.486	-2754
1028.553	-2378
1028.619	-2576
1028.686	-2557
1028.753	-3033
1028.820	-1996
1028.886	-2388
1028.953	-1712
1029.020	-2504
1029.086	-2022
1029.153	-2384
1029.220	-2215
1029.286	-2027
1029.353	-1463
1029.419	-2431
1029.486	-2494
1029.552	-2730
1029.619	-2746
1029.685	-2858
1029.751	-2133
1029.818	-1836
1029.884	-2391
1029.951	-2173
1030.017	-1889
1030.083	-2745
1030.149	-2367
1030.216	-2301
1030.282	-1506
1030.348	-1903
1030.414	-2333
1030.480	-2686
1030.546	-2224
1030.612	-1960
1030.678	-2637
1030.744	-2973
1030.810	-2191
1030.876	-2476
1030.942	-2473
1031.008	-2687
1031.074	-1927
1031.140	-2214
1031.206	-2589
1031.272	-2826
1031.337	-2183
1031.403	-2248
1031.469	-2645
1031.534	-3286
1031.600	-1174
1031.666	-2828
1031.731	-1887
1031.797	-2588
1031.863	-1742
1031.928	-2824
1031.994	-2873
1032.059	-2641
1032.125	-2531
1032.190	-2385
1032.256	-2087
1032.321	-2267
1032.386	-2580
1032.452	-2160
1032.517	-2947
1032.582	-2997
1032.647	-2016
1032.713	-2779
1032.778	-2581
1032.843	-2557
1032.908	-1601
1032.974	-2893
1033.039	-2520
1033.104	-2821
1033.169	-2549
1033.234	-2250
1033.299	-1740
1033.364	-2513
1033.429	-2305
1033.494	-2613
1033.559	-1845
1033.624	-2066
1033.688	-2328
1033.753	-2990
1033.818	-2097
1033.883	-2539
1033.948	-1910
1034.013	-2473
1034.077	-2164
1034.142	-2816
1034.207	-1650
1034.271	-2181
1034.336	-1886
1034.400	-1598
1034.465	-1347
1034.530	-1794
1034.594	-2136
1034.658	-2136
1034.723	-3133
1034.787	-2890
1034.852	-1725
1034.916	-2269
1034.981	-2342
1035.045	-1869
1035.109	-2375
1035.173	-2483
1035.238	-2147
1035.302	-2501
1035.366	-2194
1035.430	-2058
1035.495	-3203
1035.559	-2112
1035.623	-2491
1035.687	-3317
1035.751	-2146
1035.815	-2620
1035.879	-2614
1035.943	-2086
1036.007	-2356
1036.071	-2619
1036.135	-2309
1036.198	-2608
1036.262	-2327
1036.326	-3092
1036.390	-2490
1036.454	-2424
1036.517	-2730
1036.581	-2557
1036.645	-1950
1036.709	-1430
1036.772	-2611
1036.836	-2365
1036.900	-2276
1036.963	-2172
1037.026	-2747
1037.090	-2710
1037.154	-2676
1037.217	-2465
1037.280	-2489
1037.344	-1902
1037.407	-2370
1037.471	-2127
1037.534	-2603
1037.597	-3072
1037.661	-3166
1037.724	-2725
1037.787	-2386
1037.850	-2501
1037.913	-2502
1037.977	-2391
1038.040	-2362
1038.103	-1776
1038.166	-2190
1038.229	-2179
1038.292	-2426
1038.355	-2411
1038.418	-2186
1038.481	-2192
1038.544	-3188
1038.607	-2380
1038.670	-2493
1038.732	-3144
1038.795	-2625
1038.858	-2754
1038.921	-2313
1038.984	-2418
1039.046	-2925
1039.109	-3012
1039.172	-2810
1039.234	-2741
1039.297	-2055
1039.360	-2949
1039.422	-2199
1039.485	-2314
1039.547	-2233
1039.610	-2685
1039.672	-2140
1039.734	-3211
1039.797	-3105
1039.859	-1608
1039.922	-3381
1039.984	-2650
1040.046	-3243
1040.109	-3164
1040.171	-3449
1040.233	-2809
1040.295	-2877
1040.358	-2367
1040.420	-2745
1040.482	-3087
1040.544	-2896
1040.606	-2726
1040.668	-2031
1040.730	-2929
1040.792	-2208
1040.854	-2605
1040.916	-2316
1040.978	-2642
1041.040	-2384
1041.102	-2492
1041.164	-2614
1041.225	-3130
1041.287	-2476
1041.349	-3069
1041.411	-3169
1041.472	-2653
1041.534	-2387
1041.596	-3474
1041.657	-2793
1041.719	-2684
1041.781	-3262
1041.842	-3282
1041.904	-2747
1041.965	-3215
1042.027	-2594
1042.088	-2937
1042.150	-2912
1042.211	-2730
1042.272	-2589
1042.334	-2522
1042.395	-2401
1042.456	-2520
1042.518	-2166
1042.579	-2118
1042.640	-2226
1042.701	-3025
1042.763	-2031
1042.824	-3043
1042.885	-1992
1042.946	-3251
1043.007	-2402
1043.068	-2149
1043.129	-3196
1043.190	-3049
1043.251	-2875
1043.312	-2677
1043.373	-2298
1043.434	-2566
1043.495	-2933
1043.556	-2290
1043.616	-2136
1043.677	-2476
1043.738	-2601
1043.799	-2661
1043.859	-2852
1043.920	-3027
1043.981	-2096
1044.041	-2659
1044.102	-3155
1044.162	-2711
1044.223	-2641
1044.284	-2734
1044.344	-1861
1044.405	-2655
1044.465	-2553
1044.525	-2425
1044.586	-2440
1044.646	-2537
1044.707	-2289
1044.767	-2479
1044.827	-2626
1044.887	-3136
1044.948	-2162
1045.008	-2551
1045.068	-2879
1045.128	-2339
1045.188	-2082
1045.249	-2332
1045.309	-2891
1045.369	-2455
1045.429	-2868
1045.489	-2245
1045.549	-2408
1045.609	-2305
1045.669	-1984
1045.729	-2144
1045.789	-1847
1045.848	-2992
1045.908	-3013
1045.968	-2280
1046.028	-2444
1046.088	-2073
1046.147	-2025
1046.207	-2353
1046.267	-2149
1046.326	-2393
1046.386	-931
1046.446	-2275
1046.505	-1419
1046.565	-2525
1046.624	-1574
1046.684	-1521
1046.743	-1548
1046.803	-1868
1046.862	-793
1046.922	0
