'Start Wavelength	183.907
'End Wavelength	1046.922
'Gate Delay	5.000
'Gate Width (ms)	1.050
'Laser Output Level	0.000
'X Position	0.000
'Y Position	0.000
'Z Position	0.000
'Grid Point Number	1.000
'Shot Number	100.000
183.907	901.000
183.977	125.000
184.047	1181
184.116	-175
184.186	299
184.256	797
184.325	-477
184.395	-181
184.465	552
184.534	-423
184.604	204
184.674	-188
184.743	104
184.813	740
184.883	635
184.952	124
185.022	-67
185.092	-123
185.161	46
185.231	-507
185.301	-213
185.370	791
185.440	-217
185.509	20
185.579	481
185.649	-171
185.718	154
185.788	829
185.857	-226
185.927	1
185.996	-111
186.066	-47
186.136	-105
186.205	187
186.275	191
186.344	-127
186.414	-487
186.483	-1275
186.553	1051
186.622	1009
186.692	268
186.761	293
186.831	-496
186.900	34
186.970	204
187.039	64
187.109	10
187.178	-247
187.248	-118
187.317	139
187.387	-101
187.456	-64
187.526	-236
187.595	270
187.664	-658
187.734	-413
187.803	390
187.873	53
187.942	48
188.012	-131
188.081	-222
188.150	-809
188.220	79
188.289	-139
188.358	-163
188.428	319
188.497	85
188.567	705
188.636	-298
188.705	-14
188.775	94
188.844	286
188.913	-298
188.983	-19
189.052	105
189.121	524
189.191	414
189.260	762
189.329	-522
189.399	-246
189.468	55
189.537	4
189.606	237
189.676	238
189.745	-16
189.814	430
189.883	-250
189.953	-381
190.022	226
190.091	-371
190.161	489
190.230	-42
190.299	-19
190.368	195
190.437	-156
190.507	-52
190.576	-585
190.645	47
190.714	-237
190.783	-680
190.853	498
190.922	139
190.991	145
191.060	393
191.129	-619
191.198	188
191.268	-612
191.337	56
191.406	570
191.475	236
191.544	-28
191.613	320
191.682	76
191.752	111
191.821	358
191.890	9
191.959	54
192.028	-198
192.097	-146
192.166	-116
192.235	543
192.304	1238
192.373	-101
192.442	1009
192.511	-603
192.580	42
192.650	-174
192.719	-26
192.788	293
192.857	-30
192.926	-492
192.995	299
193.064	38
193.133	279
193.202	62
193.271	-86
193.340	358
193.409	130
193.478	297
193.547	-249
193.615	289
193.684	133
193.753	471
193.822	-131
193.891	-653
193.960	575
194.029	437
194.098	-222
194.167	215
194.236	304
194.305	-41
194.374	301
194.443	-332
194.512	455
194.580	98
194.649	406
194.718	-199
194.787	-67
194.856	-459
194.925	609
194.994	-665
195.062	88
195.131	315
195.200	247
195.269	-190
195.338	-563
195.407	-320
195.475	-319
195.544	6
195.613	-422
195.682	-252
195.751	526
195.819	-967
195.888	473
195.957	722
196.026	-121
196.094	-15
196.163	347
196.232	568
196.301	-334
196.369	149
196.438	529
196.507	-680
196.576	-1176
196.644	-1068
196.713	399
196.782	-298
196.850	1047
196.919	197
196.988	-768
197.056	-49
197.125	259
197.194	9
197.262	759
197.331	469
197.400	546
197.468	278
197.537	169
197.606	56
197.674	-578
197.743	-489
197.812	-8
197.880	-532
197.949	-212
198.017	454
198.086	-386
198.155	321
198.223	650
198.292	326
198.360	40
198.429	-696
198.497	-471
198.566	-496
198.635	579
198.703	421
198.772	329
198.840	140
198.909	318
198.977	87
199.046	431
199.114	616
199.183	629
199.251	-56
199.320	-275
199.388	-234
199.457	-312
199.525	-312
199.594	-49
199.662	-453
199.731	-343
199.799	-432
199.867	-322
199.936	-1096
200.004	264
200.073	524
200.141	304
200.210	-1054
200.278	-428
200.346	221
200.415	368
200.483	850
200.552	956
200.620	-220
200.688	-139
200.757	95
200.825	362
200.893	-857
200.962	-13
201.030	43
201.098	692
201.167	353
201.235	308
201.303	-587
201.372	-262
201.440	313
201.508	177
201.577	-34
201.645	27
201.713	-96
201.781	-445
201.850	-703
201.918	-297
201.986	296
202.055	252
202.123	-490
202.191	272
202.259	-77
202.327	-357
202.396	254
202.464	-151
202.532	-629
202.600	326
202.669	-212
202.737	50
202.805	-255
202.873	-342
202.941	319
203.009	323
203.078	-154
203.146	23
203.214	-713
203.282	-960
203.350	-10
203.418	358
203.487	-263
203.555	226
203.623	127
203.691	275
203.759	491
203.827	-716
203.895	102
203.963	-345
204.031	42
204.099	-805
204.168	29
204.236	230
204.304	553
204.372	-541
204.440	947
204.508	-421
204.576	-946
204.644	-109
204.712	-116
204.780	-219
204.848	-235
204.916	346
204.984	-471
205.052	-491
205.120	-157
205.188	43
205.256	-451
205.324	-278
205.392	-333
205.460	883
205.528	-48
205.596	442
205.664	-708
205.732	-209
205.799	-604
205.867	363
205.935	-475
206.003	297
206.071	-427
206.139	753
206.207	-79
206.275	238
206.343	-206
206.411	-191
206.478	476
206.546	261
206.614	-11
206.682	-341
206.750	-104
206.818	188
206.885	-32
206.953	-701
207.021	664
207.089	-686
207.157	-679
207.225	-14
207.292	-204
207.360	-176
207.428	-478
207.496	-262
207.563	-210
207.631	359
207.699	-112
207.767	-376
207.834	-543
207.902	-147
207.970	-328
208.038	-38
208.105	-1154
208.173	-18
208.241	-811
208.309	516
208.376	-149
208.444	-104
208.512	-214
208.579	-1365
208.647	-208
208.715	497
208.782	-504
208.850	110
208.918	-178
208.985	-221
209.053	-128
209.120	434
209.188	-792
209.256	259
209.323	-844
209.391	70
209.459	480
209.526	736
209.594	-561
209.661	-145
209.729	-255
209.796	-315
209.864	213
209.932	-864
209.999	770
210.067	-117
210.134	186
210.202	6
210.269	345
210.337	37
210.404	-167
210.472	-322
210.539	14
210.607	-175
210.674	-283
210.742	170
210.809	-260
210.877	89
210.944	-221
211.012	-1057
211.079	1015
211.146	-272
211.214	-111
211.281	327
211.349	-36
211.416	-76
211.484	-599
211.551	-185
211.618	-560
211.686	87
211.753	-1330
211.821	566
211.888	-617
211.955	-570
212.023	-583
212.090	-5
212.157	-325
212.225	-309
212.292	307
212.359	361
212.427	957
212.494	180
212.561	-78
212.629	-60
212.696	160
212.763	-139
212.831	-1058
212.898	674
212.965	94
213.032	-160
213.100	-236
213.167	-229
213.234	821
213.301	597
213.369	70
213.436	85
213.503	-777
213.570	231
213.638	-111
213.705	-1015
213.772	-846
213.839	-603
213.906	166
213.973	-324
214.041	-583
214.108	-82
214.175	-250
214.242	-624
214.309	204
214.376	549
214.444	-575
214.511	21
214.578	-44
214.645	-488
214.712	-105
214.779	436
214.846	-123
214.913	-103
214.980	-754
215.048	730
215.115	408
215.182	-229
215.249	-265
215.316	-383
215.383	-9
215.450	575
215.517	-952
215.584	-115
215.651	-242
215.718	24
215.785	-456
215.852	-12
215.919	599
215.986	434
216.053	-163
216.120	-1044
216.187	-224
216.254	259
216.321	-497
216.388	-605
216.455	-600
216.522	-620
216.589	-447
216.656	192
216.722	213
216.789	370
216.856	830
216.923	273
216.990	-561
217.057	-493
217.124	197
217.191	249
217.258	561
217.324	65
217.391	301
217.458	-93
217.525	109
217.592	-176
217.659	-868
217.725	-147
217.792	-193
217.859	640
217.926	-661
217.993	194
218.059	572
218.126	-617
218.193	-307
218.260	-386
218.327	-430
218.393	67
218.460	395
218.527	-764
218.594	-736
218.660	-305
218.727	-60
218.794	-1
218.860	438
218.927	177
218.994	0
219.061	-1000
219.127	-143
219.194	919
219.261	461
219.327	715
219.394	-28
219.461	-1232
219.527	-590
219.594	-363
219.661	-577
219.727	123
219.794	-93
219.860	-171
219.927	-253
219.994	-409
220.060	-239
220.127	765
220.193	370
220.260	-158
220.326	847
220.393	1164
220.460	1159
220.526	1077
220.593	222
220.659	1182
220.726	437
220.792	597
220.859	701
220.925	1072
220.992	1839
221.058	1766
221.125	1079
221.191	-190
221.258	-322
221.324	947
221.391	478
221.457	-597
221.524	-48
221.590	225
221.657	323
221.723	-240
221.789	474
221.856	293
221.922	-1079
221.989	-29
222.055	-314
222.121	-898
222.188	680
222.254	210
222.321	-111
222.387	-524
222.453	252
222.520	-1022
222.586	-441
222.652	-6
222.719	-268
222.785	383
222.851	-390
222.918	-316
222.984	-541
223.050	350
223.116	-848
223.183	7
223.249	-785
223.315	-1277
223.382	-767
223.448	-470
223.514	-789
223.580	506
223.647	-695
223.713	-425
223.779	-843
223.845	345
223.911	338
223.978	-814
224.044	-351
224.110	155
224.176	98
224.242	-91
224.309	-1404
224.375	191
224.441	-650
224.507	-1177
224.573	-1012
224.639	95
224.705	-387
224.772	-130
224.838	-986
224.904	-230
224.970	-686
225.036	-224
225.102	-1059
225.168	-641
225.234	-265
225.300	-227
225.366	-209
225.432	842
225.499	-360
225.565	-160
225.631	-132
225.697	-29
225.763	-281
225.829	354
225.895	-391
225.961	-172
226.027	-653
226.093	-192
226.159	548
226.225	769
226.291	1317
226.357	2008
226.423	1024
226.489	275
226.554	479
226.620	-318
226.686	359
226.752	1151
226.818	1480
226.884	2556
226.950	2241
227.016	682
227.082	800
227.148	-36
227.214	267
227.279	-53
227.345	-52
227.411	586
227.477	-109
227.543	736
227.609	590
227.674	575
227.740	-845
227.806	-119
227.872	-627
227.938	-9
228.003	-337
228.069	481
228.135	-1098
228.201	-309
228.267	186
228.332	-632
228.398	-1660
228.464	265
228.530	-296
228.595	-348
228.661	-1157
228.727	-760
228.792	84
228.858	200
228.924	-1744
228.990	1411
229.055	-1244
229.121	-179
229.187	-105
229.252	94
229.318	-744
229.384	355
229.449	-298
229.515	-1343
229.581	-949
229.646	1559
229.712	223
229.777	195
229.843	-293
229.909	-190
229.974	-114
230.040	-103
230.105	-704
230.171	-73
230.236	-206
230.302	98
230.368	126
230.433	-1040
230.499	-108
230.564	470
230.630	-352
230.695	-383
230.761	-497
230.826	-1503
230.892	90
230.957	-562
231.023	-398
231.088	-184
231.154	-32
231.219	-545
231.284	-1136
231.350	-242
231.415	-1229
231.481	389
231.546	-644
231.612	-172
231.677	-891
231.742	-1321
231.808	461
231.873	-503
231.939	-1920
232.004	885
232.069	-316
232.135	-560
232.200	-851
232.265	4
232.331	-649
232.396	-664
232.461	-607
232.527	-933
232.592	-872
232.657	-356
232.723	-1110
232.788	-1265
232.853	-1004
232.918	-460
232.984	-1134
233.049	-40
233.114	-1188
233.179	-268
233.245	-435
233.310	-301
233.375	-657
233.440	-91
233.506	-1221
233.571	-681
233.636	-614
233.701	137
233.766	-117
233.832	-422
233.897	-969
233.962	-1377
234.027	584
234.092	-234
234.157	-961
234.222	62
234.288	-134
234.353	-409
234.418	557
234.483	351
234.548	-22
234.613	-159
234.678	-3
234.743	-1278
234.808	883
234.873	-883
234.938	330
235.004	-143
235.069	-153
235.134	-551
235.199	278
235.264	39
235.329	-1702
235.394	179
235.459	114
235.524	-154
235.589	-116
235.654	-727
235.719	-1352
235.784	309
235.849	-897
235.913	-144
235.978	-995
236.043	213
236.108	140
236.173	-955
236.238	-376
236.303	-1321
236.368	-510
236.433	837
236.498	-528
236.563	972
236.627	935
236.692	4383
236.757	3233
236.822	788
236.887	597
236.952	613
237.017	-1199
237.081	868
237.146	-346
237.211	1378
237.276	3994
237.341	5155
237.405	2694
237.470	1703
237.535	-32
237.600	243
237.664	-375
237.729	-1112
237.794	-719
237.859	1738
237.923	109
237.988	-559
238.053	542
238.118	-248
238.182	-519
238.247	1522
238.312	-1036
238.376	-473
238.441	-1727
238.506	312
238.570	-1033
238.635	684
238.700	-568
238.764	-554
238.829	-724
238.893	-344
238.958	-47
239.023	-412
239.087	-488
239.152	-5
239.216	-704
239.281	-166
239.346	-301
239.410	253
239.475	-336
239.539	264
239.604	-668
239.668	645
239.733	-766
239.797	-429
239.862	1739
239.926	1103
239.991	518
240.055	-296
240.120	-324
240.184	-278
240.249	-364
240.313	-325
240.378	-13
240.442	381
240.507	216
240.571	509
240.635	-870
240.700	23
240.764	-912
240.829	-60
240.893	-1568
240.957	-142
241.022	531
241.086	-332
241.151	-810
241.215	-1532
241.279	-166
241.344	-604
241.408	165
241.472	-608
241.537	93
241.601	369
241.665	-818
241.730	-674
241.794	11
241.858	44
241.922	-731
241.987	-789
242.051	-175
242.115	-950
242.179	-357
242.244	-327
242.308	797
242.372	-55
242.436	-201
242.501	267
242.565	-1268
242.629	-746
242.693	516
242.757	-1247
242.822	-675
242.886	401
242.950	91
243.014	-947
243.078	46
243.142	368
243.206	-1230
243.271	-1
243.335	-1433
243.399	133
243.463	1247
243.527	2828
243.591	378
243.655	-813
243.719	-1139
243.783	501
243.847	366
243.911	813
243.975	461
244.040	-1042
244.104	917
244.168	-802
244.232	-235
244.296	860
244.360	702
244.424	-669
244.488	-253
244.552	10
244.615	-1761
244.679	-332
244.743	-965
244.807	-304
244.871	-716
244.935	-348
244.999	-1211
245.063	87
245.127	203
245.191	-670
245.255	-1249
245.319	487
245.383	-1626
245.446	433
245.510	-1128
245.574	310
245.638	243
245.702	-1484
245.766	28
245.829	627
245.893	-1103
245.957	-1069
246.021	-202
246.085	-1268
246.149	-943
246.212	1630
246.276	4
246.340	232
246.404	119
246.467	-232
246.531	-1729
246.595	140
246.659	152
246.722	-625
246.786	512
246.850	-133
246.913	-411
246.977	-1617
247.041	-6
247.104	-181
247.168	446
247.232	-691
247.295	1893
247.359	-302
247.423	-355
247.486	-20
247.550	846
247.614	-769
247.677	-52
247.741	-460
247.804	-945
247.868	85
247.932	-409
247.995	2350
248.059	-130
248.122	-977
248.186	1180
248.249	642
248.313	2634
248.376	3464
248.440	2027
248.503	149
248.567	1105
248.630	-258
248.694	1376
248.757	2941
248.821	2598
248.884	3214
248.948	756
249.011	3355
249.075	3670
249.138	3197
249.202	1448
249.265	124
249.328	701
249.392	-332
249.455	277
249.519	207
249.582	-280
249.645	735
249.709	-315
249.772	-67
249.835	151
249.899	72
249.962	-205
250.025	-204
250.089	1099
250.152	2915
250.215	-118
250.279	-651
250.342	-33
250.405	596
250.468	-608
250.532	-32
250.595	1613
250.658	1757
250.721	5066
250.785	1711
250.848	1623
250.911	-703
250.974	560
251.038	-211
251.101	1998
251.164	864
251.227	1250
251.290	-156
251.354	710
251.417	4444
251.480	3687
251.543	2991
251.606	7406
251.669	5829
251.732	2562
251.795	2169
251.859	2535
251.922	4990
251.985	2449
252.048	1196
252.111	556
252.174	-127
252.237	2166
252.300	4208
252.363	4147
252.426	7789
252.489	1811
252.552	1129
252.615	-319
252.678	753
252.741	2540
252.804	2831
252.867	6835
252.930	4558
252.993	1878
253.056	1825
253.119	239
253.182	42
253.245	162
253.308	1337
253.371	282
253.434	610
253.497	584
253.559	1787
253.622	1316
253.685	929
253.748	1280
253.811	56
253.874	919
253.937	-95
254.000	350
254.062	909
254.125	1747
254.188	2833
254.251	896
254.314	567
254.376	1111
254.439	1237
254.502	1755
254.565	573
254.628	2623
254.690	1207
254.753	-364
254.816	135
254.878	123
254.941	786
255.004	542
255.067	276
255.129	-167
255.192	-717
255.255	-1564
255.317	116
255.380	-94
255.443	-817
255.505	-486
255.568	-1450
255.631	-515
255.693	-155
255.756	-1014
255.819	108
255.881	-870
255.944	-643
256.006	-1000
256.069	-591
256.132	-241
256.194	-179
256.257	380
256.319	-781
256.382	-849
256.444	484
256.507	-43
256.569	-1070
256.632	-530
256.694	-638
256.757	2587
256.819	8690
256.882	1238
256.944	873
257.007	968
257.069	436
257.132	-240
257.194	494
257.257	-299
257.319	-420
257.381	-1140
257.444	2412
257.506	8630
257.569	9600
257.631	3407
257.693	1289
257.756	502
257.818	-143
257.880	-78
257.943	330
258.005	-922
258.067	-754
258.130	-915
258.192	-1203
258.254	-210
258.317	-405
258.379	0
258.441	-253
258.503	579
258.566	271
258.628	379
258.690	-383
258.753	628
258.815	1452
258.877	-996
258.939	-477
259.001	-407
259.064	-1106
259.126	-452
259.188	-181
259.250	-575
259.312	671
259.375	171
259.437	489
259.499	159
259.561	-326
259.623	-976
259.685	-1245
259.747	-483
259.809	-774
259.872	1100
259.934	1250
259.996	2692
260.058	385
260.120	-763
260.182	-908
260.244	-457
260.306	-384
260.368	-353
260.430	-1595
260.492	419
260.554	1267
260.616	-383
260.678	1330
260.740	442
260.802	-823
260.864	226
260.926	-1426
260.988	351
261.050	-343
261.112	509
261.174	3081
261.236	883
261.298	28
261.359	-176
261.421	-146
261.483	-791
261.545	-237
261.607	-2072
261.669	-594
261.731	-1085
261.793	221
261.854	-1111
261.916	-151
261.978	-438
262.040	-240
262.102	51
262.164	-699
262.225	46
262.287	-413
262.349	-72
262.411	62
262.472	-407
262.534	-307
262.596	-794
262.658	-578
262.719	-1317
262.781	32
262.843	-829
262.904	-168
262.966	60
263.028	-658
263.090	868
263.151	3586
263.213	1121
263.275	685
263.336	-397
263.398	-106
263.459	-1074
263.521	-780
263.583	1042
263.644	-621
263.706	-821
263.767	-655
263.829	-748
263.891	-700
263.952	-1074
264.014	-780
264.075	-1042
264.137	1687
264.198	231
264.260	-1502
264.321	-80
264.383	1138
264.444	3750
264.506	111
264.567	13
264.629	1370
264.690	1005
264.752	146
264.813	-725
264.875	-1142
264.936	-86
264.998	-1384
265.059	-1543
265.120	-52
265.182	-573
265.243	4912
265.305	4477
265.366	373
265.427	-280
265.489	-80
265.550	-1317
265.611	-1209
265.673	-459
265.734	-268
265.795	168
265.857	-1352
265.918	-1357
265.979	1263
266.040	6404
266.102	6332
266.163	1665
266.224	1398
266.286	90
266.347	-750
266.408	-1003
266.469	57
266.530	-1009
266.592	-862
266.653	29
266.714	-337
266.775	-632
266.836	-866
266.898	-1180
266.959	-440
267.020	-305
267.081	26
267.142	-1129
267.203	-948
267.264	-1649
267.326	-156
267.387	-452
267.448	-638
267.509	-574
267.570	-311
267.631	-906
267.692	-1128
267.753	-395
267.814	-1622
267.875	345
267.936	652
267.997	226
268.058	-173
268.119	-854
268.180	-680
268.241	-1089
268.302	-1003
268.363	-1279
268.424	-1175
268.485	-589
268.546	-958
268.607	-1569
268.668	-1120
268.729	-1164
268.790	-954
268.851	-936
268.912	-760
268.972	670
269.033	-573
269.094	-874
269.155	-1471
269.216	-1723
269.277	-838
269.338	-796
269.398	-751
269.459	-1290
269.520	-345
269.581	-82
269.642	-64
269.702	-597
269.763	-539
269.824	-458
269.885	-356
269.945	406
270.006	-938
270.067	-1044
270.128	-1034
270.188	-420
270.249	-985
270.310	-1518
270.370	-414
270.431	-1082
270.492	-1158
270.553	-562
270.613	-481
270.674	905
270.734	-169
270.795	-354
270.856	-332
270.916	-1511
270.977	-373
271.038	60
271.098	-484
271.159	-482
271.219	-344
271.280	-969
271.340	-627
271.401	-1066
271.462	221
271.522	-518
271.583	-852
271.643	-1514
271.704	-1267
271.764	-1157
271.825	565
271.885	4774
271.946	5218
272.006	1665
272.066	2928
272.127	4219
272.187	1208
272.248	50
272.308	-392
272.369	2126
272.429	1220
272.489	-175
272.550	199
272.610	1467
272.671	-128
272.731	-100
272.791	149
272.852	-139
272.912	-123
272.972	-687
273.033	-770
273.093	-639
273.153	98
273.214	-663
273.274	-546
273.334	1960
273.394	3751
273.455	119
273.515	1084
273.575	3958
273.635	1332
273.696	1170
273.756	2937
273.816	791
273.876	-292
273.936	225
273.997	1332
274.057	-1113
274.117	225
274.177	297
274.237	5136
274.297	3132
274.358	614
274.418	2432
274.478	2308
274.538	-787
274.598	-644
274.658	954
274.718	999
274.778	-433
274.838	-805
274.898	203
274.958	1266
275.018	2714
275.078	1308
275.138	529
275.198	-177
275.258	-952
275.318	256
275.378	877
275.438	631
275.498	55
275.558	-158
275.618	1233
275.678	1222
275.738	1370
275.798	997
275.858	-141
275.918	-1037
275.978	64
276.038	357
276.098	-645
276.157	124
276.217	3106
276.277	1488
276.337	451
276.397	-362
276.457	-35
276.517	-832
276.576	-674
276.636	-896
276.696	-268
276.756	1380
276.815	-271
276.875	-128
276.935	-676
276.995	-370
277.055	-910
277.114	-887
277.174	-379
277.234	1804
277.293	-357
277.353	-51
277.413	-912
277.472	161
277.532	-323
277.592	128
277.651	15
277.711	1391
277.771	-679
277.830	2504
277.890	1886
277.950	1396
278.009	3344
278.069	839
278.128	615
278.188	1925
278.248	914
278.307	1582
278.367	1046
278.426	-614
278.486	-1045
278.545	-701
278.605	-1332
278.664	-497
278.724	-742
278.783	731
278.843	2904
278.902	359
278.962	-638
279.021	-233
279.081	-383
279.140	-528
279.199	-349
279.259	358
279.318	524
279.378	302
279.437	881
279.496	4634
279.556	8079
279.615	5390
279.675	575
279.734	495
279.793	1437
279.853	4174
279.912	536
279.971	175
280.031	-755
280.090	1754
280.149	1045
280.208	924
280.268	5875
280.327	5332
280.386	210
280.445	685
280.505	312
280.564	-358
280.623	-666
280.682	154
280.742	933
280.801	-347
280.860	-1179
280.919	-722
280.978	-1309
281.037	-1125
281.097	-1327
281.156	-276
281.215	-1133
281.274	-887
281.333	2169
281.392	-161
281.451	-418
281.510	-1214
281.569	-985
281.628	-1260
281.688	-772
281.747	-655
281.806	-504
281.865	-1139
281.924	-1247
281.983	-1231
282.042	-1541
282.101	-644
282.160	-1195
282.219	-1312
282.278	-24
282.337	941
282.396	-269
282.454	-1174
282.513	-554
282.572	2877
282.631	551
282.690	-305
282.749	-1627
282.808	-476
282.867	-820
282.926	-1075
282.985	-1318
283.043	-1469
283.102	-866
283.161	-726
283.220	348
283.279	1960
283.338	-140
283.396	-406
283.455	-264
283.514	-452
283.573	-108
283.631	-179
283.690	-997
283.749	-795
283.808	763
283.866	1003
283.925	-1803
283.984	-518
284.043	-926
284.101	-916
284.160	-869
284.219	-1179
284.277	-1064
284.336	350
284.395	2875
284.453	1579
284.512	-135
284.570	635
284.629	496
284.688	-147
284.746	-764
284.805	607
284.863	1224
284.922	1626
284.981	1449
285.039	2930
285.098	6378
285.156	15011
285.215	17402
285.273	17210
285.332	15625
285.390	8672
285.449	5129
285.507	2930
285.566	1518
285.624	932
285.683	524
285.741	198
285.799	309
285.858	-75
285.916	-381
285.975	35
286.033	-621
286.091	-722
286.150	-451
286.208	-503
286.267	-94
286.325	-185
286.383	-32
286.442	7
286.500	-1212
286.558	-1205
286.616	-988
286.675	-507
286.733	-289
286.791	-888
286.850	-488
286.908	-452
286.966	592
287.024	351
287.083	-557
287.141	-326
287.199	-241
287.257	367
287.315	-262
287.374	-278
287.432	692
287.490	123
287.548	-814
287.606	-771
287.664	-851
287.723	-36
287.781	-223
287.839	-632
287.897	-537
287.955	-768
288.013	-222
288.071	647
288.129	6515
288.187	19546
288.245	7308
288.303	1514
288.361	451
288.419	179
288.477	-1092
288.535	-729
288.593	-846
288.651	-760
288.709	-1135
288.767	-374
288.825	-606
288.883	-530
288.941	-774
288.999	-1145
289.057	-902
289.115	-796
289.173	-1073
289.231	-60
289.289	-2082
289.346	-543
289.404	-667
289.462	39
289.520	-471
289.578	-694
289.636	-345
289.694	-780
289.751	-370
289.809	-1115
289.867	-631
289.925	-139
289.983	-852
290.040	-511
290.098	-1008
290.156	-786
290.214	-452
290.271	106
290.329	-712
290.387	-849
290.444	-720
290.502	-1501
290.560	-1476
290.617	-1345
290.675	-669
290.733	-596
290.790	-946
290.848	-260
290.906	-1192
290.963	-1080
291.021	-134
291.078	-267
291.136	-981
291.194	1392
291.251	3495
291.309	39
291.366	1
291.424	-717
291.481	-1103
291.539	-1177
291.596	-962
291.654	-1086
291.711	-704
291.769	-1010
291.826	-437
291.884	-384
291.941	-1566
291.999	-981
292.056	-519
292.114	-832
292.171	-768
292.228	125
292.286	-240
292.343	-212
292.401	485
292.458	189
292.515	-1510
292.573	-399
292.630	-323
292.687	-841
292.745	-148
292.802	67
292.859	1231
292.917	3064
292.974	677
293.031	65
293.089	-1395
293.146	-207
293.203	-1910
293.260	-623
293.318	-1049
293.375	699
293.432	-519
293.489	-585
293.546	-380
293.604	-851
293.661	558
293.718	4614
293.775	2136
293.832	593
293.889	-546
293.947	-496
294.004	-469
294.061	-541
294.118	1314
294.175	3657
294.232	4974
294.289	965
294.346	269
294.403	189
294.460	-565
294.517	-581
294.574	-488
294.631	8
294.688	-744
294.745	319
294.802	5995
294.859	9275
294.916	3077
294.973	721
295.030	163
295.087	158
295.144	196
295.201	235
295.258	-956
295.315	-146
295.372	1796
295.429	3959
295.486	1297
295.542	408
295.599	2764
295.656	7378
295.713	3314
295.770	3627
295.827	703
295.883	140
295.940	43
295.997	1192
296.054	339
296.111	-974
296.167	-418
296.224	37
296.281	-754
296.338	-106
296.394	-621
296.451	-615
296.508	740
296.564	3509
296.621	2331
296.678	5444
296.734	6727
296.791	2999
296.848	307
296.904	552
296.961	3016
297.018	4854
297.074	2579
297.131	535
297.187	-140
297.244	1256
297.301	3175
297.357	6238
297.414	2050
297.470	637
297.527	-402
297.583	315
297.640	-304
297.696	-720
297.753	674
297.809	-761
297.866	-1056
297.922	-619
297.979	-320
298.035	-205
298.092	-401
298.148	1634
298.204	2205
298.261	-66
298.317	2057
298.374	6286
298.430	3344
298.486	804
298.543	6
298.599	157
298.656	-54
298.712	1061
298.768	2876
298.824	1806
298.881	-491
298.937	93
298.993	-423
299.050	472
299.106	-560
299.162	-976
299.218	-597
299.275	-192
299.331	-452
299.387	545
299.443	4958
299.500	5684
299.556	3031
299.612	-154
299.668	324
299.724	1518
299.780	1642
299.837	556
299.893	-56
299.949	4806
300.005	5233
300.061	4691
300.117	7880
300.173	4174
300.229	1187
300.285	2010
300.341	2375
300.397	666
300.453	-363
300.510	-199
300.566	-320
300.622	-155
300.678	3780
300.734	7481
300.790	5142
300.845	4689
300.901	3222
300.957	6450
301.013	3108
301.069	683
301.125	754
301.181	-257
301.237	-747
301.293	-1012
301.349	-280
301.405	-214
301.461	-586
301.516	-173
301.572	401
301.628	1172
301.684	363
301.740	1455
301.796	2344
301.851	1531
301.907	2701
301.963	3780
302.019	5043
302.074	12510
302.130	13165
302.186	6581
302.242	2289
302.297	1682
302.353	828
302.409	2392
302.464	2198
302.520	1597
302.576	5033
302.631	6720
302.687	3626
302.743	1704
302.798	11
302.854	-115
302.910	416
302.965	747
303.021	1646
303.076	1733
303.132	2380
303.187	2955
303.243	700
303.299	796
303.354	281
303.410	-251
303.465	-163
303.521	-1072
303.576	-305
303.632	624
303.687	1234
303.743	5102
303.798	3807
303.853	1361
303.909	425
303.964	596
304.020	1315
304.075	2514
304.130	1668
304.186	4029
304.241	4895
304.297	3276
304.352	849
304.358	777
304.407	188
304.449	365
304.463	423
304.518	431
304.539	341
304.573	195
304.629	494
304.630	490
304.684	353
304.720	2554
304.739	3669
304.794	5196
304.811	4545
304.850	2909
304.902	478
304.905	324
304.960	537
304.992	266
305.015	52
305.071	778
305.083	758
305.126	695
305.173	121
305.181	23
305.236	-507
305.264	-51
305.292	442
305.347	-67
305.354	35
305.402	644
305.445	823
305.457	878
305.512	712
305.535	697
305.567	654
305.622	913
305.626	968
305.678	2274
305.716	3826
305.733	4338
305.788	6010
305.807	5444
305.843	4479
305.897	5993
305.898	6011
305.953	5540
305.988	3523
306.008	2383
306.063	1815
306.078	1471
306.118	633
306.168	122
306.173	72
306.228	-101
306.259	-193
306.283	-145
306.338	-224
306.349	-109
306.393	297
306.440	128
306.448	85
306.503	547
306.530	361
306.558	466
306.613	1959
306.620	2193
306.668	4027
306.711	6096
306.723	6260
306.778	4149
306.801	3201
306.833	2226
306.888	443
306.892	441
306.943	972
306.982	679
306.997	537
307.052	85
307.072	215
307.107	491
307.162	598
307.163	598
307.217	934
307.253	897
307.272	869
307.327	1069
307.343	1054
307.381	901
307.434	1131
307.436	1188
307.491	2763
307.524	3774
307.546	4164
307.600	5755
307.614	5291
307.655	2994
307.704	1712
307.710	1710
307.765	1177
307.795	1696
307.819	2038
307.874	2507
307.885	2422
307.929	2455
307.975	2950
307.984	3140
308.038	5173
308.065	6721
308.093	11004
308.148	22062
308.156	24201
308.202	35657
308.246	42295
308.257	41005
308.312	26456
308.336	19969
308.366	15748
308.421	9975
308.426	9484
308.475	6142
308.517	4095
308.530	3805
308.585	3047
308.607	2803
308.639	2587
308.694	2361
308.697	2377
308.748	3178
308.787	3625
308.803	3654
308.857	3547
308.877	3226
308.912	2900
308.967	3916
308.967	3919
309.021	6045
309.058	7835
309.076	9623
309.130	16081
309.148	18724
309.185	29882
309.238	48013
309.239	48187
309.293	51014
309.328	49450
309.348	44089
309.402	26076
309.418	21230
309.457	15461
309.508	9044
309.511	8866
309.566	6887
309.598	6060
309.620	6173
309.674	6538
309.688	6793
309.729	6692
309.778	5657
309.783	5561
309.837	4518
309.868	4181
309.892	5196
309.946	7786
309.959	8700
310.001	12520
310.049	15482
310.055	14931
310.109	9168
310.139	5876
310.163	4670
310.218	2336
310.229	1955
310.272	1804
310.319	1760
310.326	1736
310.381	1270
310.409	1232
310.435	1170
310.489	736
310.499	690
310.543	481
310.589	206
310.598	306
310.652	1050
310.679	1313
310.706	1252
310.760	1266
310.769	1233
310.814	1015
310.859	941
310.868	1008
310.923	1259
310.948	1388
310.977	1324
311.031	1147
311.038	1134
311.085	1181
311.128	982
311.139	1010
311.193	1330
311.218	1438
311.247	1464
311.301	1532
311.308	1530
311.356	1470
311.398	1392
311.410	1404
311.464	1408
311.488	1412
311.518	1516
311.572	1711
311.578	1724
311.626	1975
311.668	2209
311.680	2193
311.734	1993
311.758	1921
311.788	1803
311.842	1553
311.847	1523
311.896	2531
311.937	3407
311.950	3426
312.004	3422
312.027	3417
312.058	2896
312.112	1937
312.117	1836
312.165	1932
312.207	2004
312.297	3171
312.386	2086
312.476	2747
312.566	4326
312.656	2267
312.745	1779
312.835	1581
312.925	1851
313.015	1833
313.104	1890
313.194	2160
313.284	2459
313.374	2926
313.463	1611
313.553	2206
313.643	1990
313.732	2109
313.822	1278
313.912	2156
314.001	2780
314.091	1817
314.180	2725
314.270	2784
314.360	2190
314.449	1682
314.539	1928
314.628	1666
314.718	1879
314.808	2426
314.897	1683
314.987	1811
315.076	1990
315.166	2294
315.255	1899
315.345	3109
315.434	1742
315.524	2004
315.613	1757
315.703	2881
315.792	3099
315.881	4033
315.971	2042
316.060	3220
316.150	3250
316.239	3097
316.328	966
316.418	1632
316.507	1787
316.597	3267
316.686	1886
316.775	2607
316.865	3308
316.954	2073
317.043	1745
317.133	2240
317.222	905
317.311	1794
317.400	1219
317.490	2780
317.579	1869
317.668	1656
317.757	2508
317.847	3295
317.936	5556
318.025	5582
318.114	3766
318.203	3330
318.293	5061
318.382	9235
318.471	7353
318.560	9636
318.649	14495
318.738	4097
318.828	2452
318.917	2638
319.006	2865
319.095	4579
319.184	17987
319.273	11358
319.362	6254
319.451	2670
319.540	1986
319.629	4546
319.718	6941
319.807	3479
319.896	5297
319.985	22623
320.074	8632
320.163	3041
320.252	2904
320.341	3808
320.430	4212
320.519	3854
320.608	1861
320.697	3407
320.786	1959
320.875	3354
320.964	3457
321.053	4788
321.142	6320
321.230	7740
321.319	5554
321.408	13104
321.497	6343
321.586	6063
321.675	3962
321.764	5928
321.852	4018
321.941	7835
322.030	5352
322.119	5299
322.207	11856
322.296	5929
322.385	4278
322.474	5389
322.562	14754
322.651	7866
322.740	5654
322.829	7566
322.917	3833
323.006	3772
323.095	4535
323.183	3024
323.272	4249
323.361	4839
323.449	9340
323.538	4578
323.626	7277
323.715	5454
323.804	2456
323.892	5494
323.981	4797
324.069	2300
324.158	3152
324.246	3362
324.335	2756
324.424	5416
324.512	3262
324.601	3815
324.689	5642
324.778	10621
324.866	3806
324.954	1869
325.043	1362
325.131	2250
325.220	3020
325.308	3091
325.397	3829
325.485	2910
325.574	2023
325.662	1151
325.750	1653
325.839	2246
325.927	1490
326.015	2151
326.104	1371
326.192	1462
326.280	1965
326.369	1433
326.457	1665
326.545	4636
326.634	1667
326.722	1442
326.810	1374
326.898	2074
326.987	2050
327.075	3649
327.163	3660
327.251	1618
327.340	4594
327.428	8257
327.516	2265
327.604	1533
327.692	1482
327.781	1526
327.869	1866
327.957	2027
328.045	2236
328.133	1865
328.221	1051
328.309	1347
328.397	1740
328.485	2156
328.574	3575
328.662	8412
328.750	4291
328.838	1800
328.926	1619
329.014	1698
329.102	2021
329.190	4915
329.278	3570
329.366	1730
329.454	548
329.542	1362
329.630	642
329.718	1616
329.806	1792
329.893	2924
329.981	1401
330.069	2610
330.157	7675
330.245	22884
330.333	13310
330.421	2978
330.509	2351
330.597	9281
330.684	6040
330.772	2306
330.860	2358
330.948	4414
331.036	2016
331.123	1011
331.211	1339
331.299	1834
331.387	3366
331.475	6667
331.562	2009
331.650	1339
331.738	1043
331.825	1937
331.913	334
332.001	1487
332.089	1668
332.176	2096
332.264	2997
332.352	3054
332.439	2434
332.527	1812
332.614	679
332.702	564
332.790	1236
332.877	2573
332.965	2245
333.052	1012
333.140	1084
333.228	2353
333.315	1486
333.403	1723
333.490	1792
333.578	1882
333.665	2815
333.753	2141
333.840	1074
333.928	1675
334.015	1360
334.103	5789
334.190	19071
334.278	7123
334.365	2997
334.452	2734
334.540	2630
334.627	1207
334.715	3119
334.802	4005
334.889	10298
334.977	11855
335.064	4514
335.151	3089
335.239	2947
335.326	3074
335.413	10316
335.501	16101
335.588	3053
335.675	2710
335.762	2577
335.850	5803
335.937	3604
336.024	7608
336.111	18367
336.199	10838
336.286	4323
336.373	2974
336.460	1794
336.547	1471
336.635	1972
336.722	1510
336.809	1294
336.896	2009
336.983	6802
337.070	17410
337.157	21537
337.245	7457
337.332	4960
337.419	1167
337.506	1250
337.593	1481
337.680	5387
337.767	19035
337.854	5083
337.941	5768
338.028	3189
338.115	1505
338.202	2454
338.289	2646
338.376	5973
338.463	3107
338.550	10087
338.637	12267
338.724	2220
338.811	2526
338.898	1021
338.984	1533
339.071	1531
339.158	2016
339.245	4389
339.332	3445
339.419	1472
339.506	2290
339.593	187
339.679	1902
339.766	1083
339.853	1820
339.940	3375
340.027	1425
340.113	759
340.200	1984
340.287	1427
340.374	1822
340.460	3154
340.547	1687
340.634	2840
340.720	8658
340.807	5419
340.894	1408
340.980	504
341.067	1042
341.154	1899
341.240	2279
341.327	4579
341.414	2056
341.500	2337
341.587	1403
341.674	1120
341.760	3330
341.847	4536
341.933	1855
342.020	456
342.106	596
342.193	395
342.279	2824
342.366	2025
342.452	3277
342.539	1471
342.625	4285
342.712	9483
342.798	4589
342.885	1081
342.971	268
343.058	78
343.144	446
343.230	1600
343.317	1300
343.403	733
343.490	1101
343.576	509
343.662	1412
343.749	942
343.835	1394
343.921	2227
344.008	14481
344.094	34439
344.180	9499
344.267	3078
344.353	8015
344.439	8958
344.525	5365
344.612	6513
344.698	5695
344.784	3247
344.870	1670
344.957	452
345.043	2122
345.129	1229
345.215	4107
345.301	2022
345.387	1616
345.474	932
345.560	562
345.646	114
345.732	836
345.818	1688
345.904	1558
345.990	604
346.076	1175
346.162	1534
346.249	1443
346.335	814
346.421	1388
346.507	3027
346.593	12364
346.679	3559
346.765	1600
346.851	1022
346.937	474
347.023	1544
347.108	1320
347.194	1499
347.280	1498
347.366	1430
347.452	4267
347.538	15185
347.624	13203
347.710	9777
347.796	1619
347.882	1079
347.967	1866
348.053	1423
348.139	1088
348.225	804
348.311	1045
348.397	879
348.482	1595
348.568	1532
348.654	1132
348.740	2207
348.825	1352
348.911	2493
348.997	6403
349.083	14812
349.168	1611
349.254	1363
349.340	1935
349.425	408
349.511	1460
349.597	1267
349.682	2637
349.768	10473
349.854	5136
349.939	1677
350.025	826
350.110	2605
350.196	1465
350.282	830
350.367	560
350.453	1036
350.538	866
350.624	1305
350.709	2115
350.795	-596
350.880	563
350.966	1845
351.051	1269
351.137	1037
351.222	892
351.308	3212
351.393	10526
351.479	3489
351.564	1778
351.649	410
351.735	442
351.820	221
351.906	182
351.991	792
352.076	5415
352.162	10319
352.247	2144
352.332	1220
352.418	3539
352.503	4310
352.588	15102
352.673	12381
352.759	3121
352.844	1333
352.929	1190
353.014	1583
353.100	1660
353.185	2544
353.270	3092
353.355	3408
353.441	2057
353.526	791
353.611	2820
353.696	3134
353.781	2253
353.866	239
353.952	1679
354.037	2626
354.122	7531
354.207	6316
354.292	2003
354.377	1075
354.462	1533
354.547	1123
354.632	1478
354.717	2226
354.802	2390
354.887	1013
354.972	1316
355.057	243
355.142	696
355.227	1463
355.312	2132
355.397	3902
355.482	10777
355.567	4648
355.652	3987
355.737	3626
355.822	10178
355.907	9070
355.991	3005
356.076	312
356.161	1434
356.246	637
356.331	1398
356.416	1605
356.501	17344
356.585	18160
356.670	3634
356.755	3608
356.840	2759
356.924	11956
357.009	39540
357.094	18016
357.179	4086
357.263	2889
357.348	2643
357.433	2869
357.517	2974
357.602	1886
357.687	1921
357.771	2338
357.856	8478
357.941	5443
358.025	9487
358.110	42001
358.195	24339
358.279	4406
358.364	2174
358.448	7761
358.533	25226
358.617	17925
358.702	17062
358.787	6151
358.871	4133
358.956	4600
359.040	745
359.125	46
359.209	1328
359.294	4736
359.378	6662
359.462	3118
359.547	2001
359.631	319
359.716	749
359.800	867
359.885	2154
359.969	270
360.053	1851
360.138	702
360.222	1598
360.306	3193
360.391	2917
360.475	3920
360.559	10546
360.644	8074
360.728	4769
360.812	8881
360.896	25063
360.981	12524
361.065	7115
361.149	2248
361.233	2403
361.318	909
361.402	1548
361.486	1592
361.570	464
361.654	1549
361.739	3124
361.823	14970
361.907	26927
361.991	6883
362.075	4339
362.159	7609
362.243	7136
362.327	6951
362.411	11154
362.495	4010
362.580	2210
362.664	1650
362.748	1456
362.832	2970
362.916	4659
363.000	18290
363.084	35674
363.168	36637
363.252	10145
363.336	4506
363.420	3996
363.503	14082
363.587	19387
363.671	3577
363.755	2655
363.839	4888
363.923	2010
364.007	3863
364.091	4830
364.175	5355
364.258	29304
364.342	28675
364.426	40124
364.510	20549
364.594	8899
364.677	7227
364.761	21508
364.845	17769
364.929	7279
365.013	4987
365.096	4196
365.180	4165
365.264	5684
365.347	24892
365.431	12404
365.515	3064
365.598	1572
365.682	1938
365.766	2722
365.849	4175
365.933	1515
366.017	3116
366.100	2238
366.184	-12
366.267	1526
366.351	824
366.435	1185
366.518	212
366.602	726
366.685	1125
366.769	1213
366.852	3242
366.936	5550
367.019	3137
367.103	722
367.186	5937
367.270	1304
367.353	55
367.436	1529
367.520	-401
367.603	1959
367.687	1232
367.770	3608
367.853	2191
367.937	7140
368.020	12536
368.104	1959
368.187	2649
368.270	6782
368.353	5931
368.437	3499
368.520	3493
368.603	4976
368.687	6619
368.770	17282
368.853	4577
368.936	4875
369.020	5252
369.103	1238
369.186	448
369.269	623
369.352	2418
369.436	3155
369.519	2172
369.602	824
369.685	2155
369.768	521
369.851	1017
369.934	819
370.018	702
370.101	1757
370.184	3225
370.267	1821
370.350	3724
370.433	5802
370.516	11661
370.599	15176
370.682	3264
370.765	11613
370.848	13125
370.931	19204
371.014	9228
371.097	1590
371.180	1687
371.263	1736
371.346	-622
371.429	625
371.511	-349
371.594	1976
371.677	4054
371.760	6393
371.843	4566
371.926	17817
372.009	40847
372.091	16992
372.174	6654
372.257	18106
372.340	7379
372.423	5643
372.505	8377
372.588	3361
372.671	5406
372.754	18405
372.836	9612
372.919	7294
373.002	17358
373.085	5263
373.167	3759
373.250	8953
373.332	18110
373.415	24263
373.498	49600
373.580	22211
373.663	22407
373.746	33356
373.828	9343
373.911	4335
373.993	3118
374.076	14318
374.159	14666
374.241	5544
374.324	17476
374.406	11843
374.489	12798
374.571	41303
374.654	17924
374.736	7933
374.819	23068
374.901	34970
374.983	36648
375.066	8016
375.148	1976
375.231	10541
375.313	25014
375.395	10786
375.478	1413
375.560	1989
375.643	1531
375.725	6117
375.807	27227
375.890	20700
375.972	4636
376.054	4371
376.136	3595
376.219	1382
376.301	6863
376.383	24104
376.465	9812
376.548	5454
376.630	6168
376.712	21183
376.794	10790
376.877	1611
376.959	491
377.041	946
377.123	2885
377.205	5093
377.287	527
377.369	522
377.452	976
377.534	1111
377.616	141
377.698	-4
377.780	-170
377.862	643
377.944	1126
378.026	-227
378.108	1265
378.190	618
378.272	681
378.354	78
378.436	83
378.518	1178
378.600	7211
378.682	5802
378.764	11907
378.846	10817
378.928	2767
379.010	4751
379.091	3374
379.173	824
379.255	-564
379.337	597
379.419	4660
379.501	18479
379.583	7156
379.664	1221
379.746	3291
379.828	14824
379.910	17591
379.991	15735
380.073	2737
380.155	936
380.237	698
380.318	1100
380.400	46
380.482	2016
380.564	3404
380.645	3363
380.727	3662
380.809	3391
380.890	572
380.972	596
381.053	1010
381.135	1566
381.217	2503
381.298	15338
381.380	7030
381.461	3958
381.543	18737
381.624	26141
381.706	4739
381.787	2833
381.869	3220
381.951	8488
382.032	34578
382.113	27002
382.195	4207
382.276	3977
382.358	6293
382.439	20176
382.521	21585
382.602	34602
382.684	14898
382.765	26047
382.846	23770
382.928	21945
383.009	12152
383.090	7443
383.172	28023
383.253	46192
383.334	19380
383.416	27650
383.497	15060
383.578	5117
383.659	7744
383.741	24382
383.822	69216
383.903	37215
383.984	16016
384.066	38400
384.147	25198
384.228	4828
384.309	2615
384.390	2190
384.471	1293
384.553	1891
384.634	2677
384.715	3054
384.796	980
384.877	1630
384.958	10397
385.039	16441
385.120	6474
385.201	2480
385.282	2241
385.363	3608
385.444	1841
385.525	4715
385.606	15288
385.687	15148
385.768	3865
385.849	4639
385.930	18982
386.011	35825
386.092	10802
386.173	3297
386.254	1550
386.335	2779
386.416	3064
386.496	8882
386.577	14526
386.658	4766
386.739	2106
386.820	3378
386.901	985
386.981	2556
387.062	961
387.143	2385
387.224	12004
387.304	13507
387.385	5121
387.466	2004
387.547	4563
387.627	2150
387.708	3787
387.789	21431
387.869	26486
387.950	8404
388.031	2054
388.111	-352
388.192	4308
388.273	8035
388.353	3362
388.434	2191
388.514	3437
388.595	17987
388.676	27204
388.756	14149
388.837	13190
388.917	8359
388.998	-565
389.078	1963
389.159	939
389.239	301
389.320	3123
389.400	48
389.480	4098
389.561	13277
389.641	6897
389.722	2092
389.802	4078
389.883	5313
389.963	13863
390.043	9458
390.124	1301
390.204	4204
390.284	16075
390.365	9110
390.445	8196
390.525	13035
390.605	11946
390.686	8656
390.766	3107
390.846	2790
390.927	-159
391.007	-81
391.087	1749
391.167	1940
391.247	256
391.328	1367
391.408	3278
391.488	3273
391.568	-574
391.648	835
391.728	3054
391.808	2889
391.888	2535
391.969	5976
392.049	11338
392.129	6490
392.209	4855
392.289	15061
392.369	7761
392.449	7541
392.529	4345
392.609	3819
392.689	4110
392.769	11963
392.849	12162
392.929	8546
393.009	20572
393.089	15069
393.169	10397
393.248	27862
393.328	101384
393.408	116264
393.488	37232
393.568	11914
393.648	5681
393.728	4277
393.807	2100
393.887	3468
393.967	2432
394.047	3628
394.127	3744
394.206	7865
394.286	25205
394.366	90031
394.446	110776
394.525	36609
394.605	10418
394.685	6343
394.764	12404
394.844	19070
394.924	14682
395.003	5449
395.083	2262
395.163	2668
395.242	1633
395.322	2633
395.402	606
395.481	3476
395.561	5861
395.640	22532
395.720	20088
395.799	22881
395.879	20045
395.958	12488
396.038	37996
396.117	116620
396.197	136932
396.276	61649
396.356	22408
396.435	14538
396.515	9124
396.594	6775
396.673	11044
396.753	30618
396.832	96527
396.912	85463
396.991	24247
397.070	7284
397.150	2965
397.229	3562
397.308	6159
397.388	13071
397.467	6977
397.546	2319
397.625	-882
397.705	2369
397.784	2134
397.863	908
397.942	1257
398.022	1270
398.101	4263
398.180	18227
398.259	10632
398.338	2590
398.417	789
398.497	-411
398.576	1115
398.655	-412
398.734	1348
398.813	2094
398.892	3913
398.971	18800
399.050	9422
399.129	-97
399.208	-160
399.287	765
399.366	150
399.445	731
399.524	692
399.603	-465
399.682	1479
399.761	4219
399.840	18522
399.919	16131
399.998	1069
400.077	-718
400.156	-847
400.235	2140
400.313	-434
400.392	-548
400.471	6792
400.550	12798
400.629	2036
400.708	1063
400.786	15
400.865	4929
400.944	4139
401.023	3108
401.102	-842
401.180	214
401.259	-930
401.338	294
401.416	771
401.495	-640
401.574	168
401.652	17
401.731	1529
401.810	295
401.888	-853
401.967	-244
402.046	1049
402.124	1550
402.203	533
402.281	1485
402.360	1965
402.438	6776
402.517	3080
402.596	750
402.674	897
402.753	292
402.831	130
402.910	890
402.988	2507
403.066	14959
403.145	9072
403.223	5413
403.302	14289
403.380	11515
403.459	12922
403.537	4142
403.615	1883
403.694	-1308
403.772	1165
403.850	-326
403.929	-62
404.007	319
404.085	2696
404.164	1908
404.242	1360
404.320	6426
404.398	23660
404.477	22245
404.555	29949
404.633	29604
404.711	20212
404.789	13856
404.868	2975
404.946	979
405.024	451
405.102	478
405.180	-736
405.258	-1270
405.336	221
405.415	-267
405.493	1330
405.571	1700
405.649	-719
405.727	-631
405.805	1719
405.883	1295
405.961	1200
406.039	871
406.117	-619
406.195	904
406.273	3348
406.351	23877
406.429	15454
406.507	1732
406.585	194
406.663	604
406.740	670
406.818	408
406.896	-166
406.974	1236
407.052	274
407.130	12272
407.208	21623
407.285	4208
407.363	-251
407.441	820
407.519	-604
407.596	809
407.674	2702
407.752	16301
407.830	13627
407.907	4297
407.985	-404
408.063	1087
408.141	-217
408.218	1221
408.296	1286
408.373	49
408.451	511
408.529	763
408.606	-821
408.684	355
408.762	271
408.839	-63
408.917	-822
408.994	-239
409.072	-866
409.149	282
409.227	2061
409.304	1347
409.382	1757
409.459	1212
409.537	2305
409.614	2740
409.692	832
409.769	907
409.846	2569
409.924	3770
410.001	2208
410.079	1903
410.156	2655
410.233	4186
410.311	929
410.388	539
410.465	233
410.543	949
410.620	856
410.697	621
410.775	300
410.852	-813
410.929	1269
411.006	2062
411.083	162
411.161	1498
411.238	2743
411.315	484
411.392	-101
411.469	875
411.547	1702
411.624	-889
411.701	256
411.778	-35
411.855	590
411.932	743
412.009	-649
412.086	239
412.163	80
412.240	249
412.317	992
412.394	417
412.471	220
412.548	-464
412.625	-297
412.702	109
412.779	3104
412.856	3812
412.933	120
413.010	497
413.087	450
413.164	6585
413.241	11785
413.318	2403
413.395	660
413.471	1078
413.548	1024
413.625	418
413.702	-621
413.779	502
413.855	-490
413.932	-397
414.009	-1426
414.086	-382
414.162	-154
414.239	1613
414.316	6125
414.393	16570
414.469	5255
414.546	574
414.623	-1050
414.699	392
414.776	735
414.853	-626
414.929	525
415.006	998
415.082	-288
415.159	-374
415.236	-262
415.312	341
415.389	278
415.465	1015
415.542	-387
415.618	-397
415.695	977
415.771	-257
415.848	-330
415.924	88
416.000	-522
416.077	239
416.153	-1813
416.230	-646
416.306	-261
416.383	-410
416.459	-180
416.535	-363
416.612	-1010
416.688	-302
416.764	97
416.841	-280
416.917	-1245
416.993	-572
417.069	565
417.146	-238
417.222	2001
417.298	144
417.374	43
417.451	587
417.527	-568
417.603	-304
417.679	-226
417.755	220
417.831	-790
417.908	-611
417.984	-937
418.060	-432
418.136	1375
418.212	1619
418.288	111
418.364	743
418.440	-623
418.516	1041
418.592	516
418.668	2350
418.744	4114
418.820	3110
418.896	172
418.972	16
419.048	-1544
419.124	3235
419.200	253
419.276	-428
419.352	-540
419.428	169
419.504	-1071
419.579	306
419.655	54
419.731	609
419.807	1987
419.883	4287
419.959	1942
420.034	591
420.110	1035
420.186	9025
420.262	8386
420.337	260
420.413	30
420.489	495
420.565	333
420.640	-281
420.716	199
420.792	-778
420.867	706
420.943	665
421.019	1002
421.094	389
421.170	1602
421.245	87
421.321	836
421.397	667
421.472	3338
421.548	8526
421.623	7678
421.699	2931
421.774	2827
421.850	2406
421.925	3336
422.001	4610
422.076	3864
422.152	5868
422.227	7630
422.302	12030
422.378	17475
422.453	32048
422.529	64682
422.604	116897
422.679	116029
422.755	121048
422.830	81706
422.905	39530
422.981	21988
423.056	14250
423.131	10780
423.207	7577
423.282	6228
423.357	7204
423.432	4988
423.508	4805
423.583	5654
423.658	6274
423.733	2437
423.808	2803
423.883	2779
423.959	2171
424.034	1350
424.109	1759
424.184	295
424.259	543
424.334	712
424.409	423
424.484	248
424.559	420
424.634	-79
424.709	165
424.784	477
424.859	726
424.934	801
425.009	6135
425.084	11604
425.159	4152
425.234	713
425.309	135
425.384	1917
425.459	5056
425.534	1166
425.609	-405
425.683	-574
425.758	523
425.833	167
425.908	1024
425.983	1852
426.058	12155
426.132	4580
426.207	371
426.282	1357
426.357	1136
426.431	318
426.506	1014
426.581	-91
426.655	733
426.730	-417
426.805	-756
426.879	317
426.954	-10
427.029	1154
427.103	7952
427.178	22068
427.253	10355
427.327	881
427.402	1040
427.476	4869
427.551	2403
427.625	-342
427.700	625
427.774	-531
427.849	888
427.923	-1061
427.998	-659
428.072	-596
428.147	2438
428.221	8066
428.296	32720
428.370	17738
428.444	1844
428.519	1233
428.593	3302
428.667	3979
428.742	4650
428.816	4781
428.890	19082
428.965	34038
429.039	10357
429.113	5095
429.188	1959
429.262	699
429.336	527
429.410	5503
429.485	3685
429.559	3811
429.633	1981
429.707	-33
429.781	2812
429.855	19402
429.930	34715
430.004	13421
430.078	19023
430.152	20274
430.226	37425
430.300	41282
430.374	7278
430.448	2242
430.522	5088
430.596	17233
430.670	12069
430.744	27828
430.818	42758
430.892	8249
430.966	775
431.040	243
431.114	-451
431.188	-433
431.262	-627
431.336	-861
431.410	2018
431.484	4200
431.557	3617
431.631	-946
431.705	234
431.779	4720
431.853	26847
431.927	20192
432.000	1857
432.074	-132
432.148	385
432.222	-354
432.295	-174
432.369	-623
432.443	210
432.516	6457
432.590	21334
432.664	8112
432.737	-3
432.811	-1623
432.885	-1177
432.958	305
433.032	-1586
433.106	-800
433.179	-1403
433.253	-907
433.326	-1179
433.400	-362
433.473	-916
433.547	-1199
433.620	-564
433.694	330
433.767	166
433.841	-710
433.914	-719
433.988	-1071
434.061	-171
434.134	-926
434.208	-712
434.281	-1083
434.355	-425
434.428	-810
434.501	-636
434.575	-1291
434.648	-556
434.721	-1064
434.795	-669
434.868	-762
434.941	-816
435.014	-782
435.088	-402
435.161	-191
435.234	381
435.307	453
435.381	-546
435.454	1
435.527	420
435.600	308
435.673	-8
435.746	-336
435.819	-64
435.892	-399
435.966	-444
436.039	-469
436.112	-510
436.185	-1959
436.258	-917
436.331	-1455
436.404	-633
436.477	-823
436.550	-713
436.623	-800
436.696	-1491
436.769	-700
436.842	-940
436.915	-616
436.987	-570
437.060	-1465
437.133	-308
437.206	-149
437.279	-98
437.352	-1581
437.425	-651
437.498	-352
437.570	2173
437.643	1912
437.716	-218
437.789	-480
437.861	375
437.934	3824
438.007	619
438.080	-915
438.152	187
438.225	728
438.298	9069
438.370	28892
438.443	13021
438.516	3214
438.588	605
438.661	-1550
438.734	-765
438.806	-630
438.879	-276
438.951	-608
439.024	1941
439.096	-735
439.169	-389
439.241	-462
439.314	-1369
439.386	-186
439.459	-388
439.531	533
439.604	94
439.676	-319
439.749	-984
439.821	-1286
439.893	-527
439.966	-980
440.038	-136
440.110	90
440.183	-632
440.255	-514
440.327	-10
440.400	3276
440.472	18197
440.544	13040
440.617	608
440.689	1114
440.761	674
440.833	2660
440.905	1201
440.978	-680
441.050	-695
441.122	-175
441.194	-1181
441.266	-442
441.338	-864
441.411	29
441.483	5959
441.555	10407
441.627	1709
441.699	514
441.771	-63
441.843	-769
441.915	-381
441.987	-515
442.059	-760
442.131	-479
442.203	813
442.275	498
442.347	737
442.419	1697
442.491	14142
442.563	39965
442.635	16694
442.706	6455
442.778	5446
442.850	76
442.922	-598
442.994	-743
443.066	820
443.137	1178
443.209	443
443.281	1198
443.353	3547
443.425	17395
443.496	63206
443.568	67407
443.640	24634
443.711	4161
443.783	487
443.855	355
443.926	287
443.998	345
444.070	89
444.141	-209
444.213	612
444.285	734
444.356	234
444.428	-135
444.499	-260
444.571	-606
444.642	-387
444.714	-1137
444.785	381
444.857	263
444.928	2420
445.000	1687
445.071	1929
445.143	2733
445.214	1172
445.285	2878
445.357	11731
445.428	38720
445.500	87623
445.571	59759
445.642	34665
445.714	10399
445.785	7402
445.856	1216
445.928	1876
445.999	846
446.070	411
446.141	1057
446.213	1893
446.284	176
446.355	718
446.426	-115
446.497	-426
446.569	109
446.640	935
446.711	-256
446.782	142
446.853	-492
446.924	-207
446.995	-761
447.066	-246
447.138	547
447.209	-170
447.280	-1375
447.351	-808
447.422	-1182
447.493	-606
447.564	233
447.635	28
447.706	-660
447.777	-1308
447.847	-1106
447.918	-1092
447.989	-527
448.060	-781
448.131	1720
448.202	1973
448.273	1309
448.344	218
448.414	-628
448.485	-184
448.556	-676
448.627	-895
448.698	467
448.768	-632
448.839	-1176
448.910	-906
448.981	611
449.051	-540
449.122	-1054
449.193	-989
449.263	-573
449.334	-1132
449.405	-591
449.475	1401
449.546	704
449.616	570
449.687	83
449.758	5
449.828	-1205
449.899	-791
449.969	-1354
450.040	-342
450.110	-1229
450.181	94
450.251	-566
450.322	-1275
450.392	-470
450.463	-504
450.533	-700
450.604	-517
450.674	-683
450.744	-251
450.815	-980
450.885	-219
450.955	-639
451.026	-763
451.096	-1287
451.166	-1188
451.237	311
451.307	3956
451.377	166
451.447	-401
451.518	-860
451.588	-1172
451.658	-1073
451.728	187
451.799	3317
451.869	3865
451.939	97
452.009	-181
452.079	-630
452.149	-32
452.219	402
452.289	4842
452.360	2246
452.430	-323
452.500	-455
452.570	-114
452.640	1081
452.710	4016
452.780	6843
452.850	4078
452.920	2221
452.990	601
453.060	-333
453.129	67
453.199	339
453.269	3770
453.339	8742
453.409	13753
453.479	14615
453.549	22875
453.619	25752
453.688	7594
453.758	1202
453.828	-271
453.898	-1221
453.968	-552
454.037	-644
454.087	-211
454.107	-49
454.168	-556
454.177	-652
454.247	-474
454.249	-461
454.316	-631
454.330	-576
454.386	-447
454.411	-3
454.456	500
454.492	1936
454.525	3187
454.574	1522
454.595	794
454.655	-187
454.665	-352
454.734	332
454.736	387
454.804	1302
454.817	1816
454.873	3304
454.898	3726
454.943	4272
454.979	2199
455.013	505
455.060	38
455.082	-102
455.141	1094
455.152	1252
455.221	3563
455.222	3669
455.291	7132
455.303	6974
455.360	5712
455.384	8175
455.430	11642
455.465	8794
455.499	6168
455.546	5119
455.569	4457
455.627	2669
455.638	2423
455.707	-225
455.708	-203
455.777	-62
455.789	-17
455.846	384
455.869	309
455.916	-67
455.950	100
455.985	242
456.031	292
456.054	261
456.112	307
456.124	358
456.193	378
456.193	358
456.262	534
456.274	610
456.332	952
456.355	709
456.401	71
456.436	93
456.470	218
456.516	-127
456.540	-409
456.597	-232
456.609	-193
456.678	503
456.678	488
456.747	122
456.759	21
456.817	-95
456.840	241
456.886	448
456.920	-8
456.955	-258
457.001	39
457.024	117
457.082	105
457.093	105
457.162	1180
457.163	1195
457.232	463
457.243	399
457.301	523
457.324	477
457.370	25
457.405	477
457.439	1137
457.485	1115
457.508	1019
457.566	1146
457.577	1230
457.646	2202
457.647	2225
457.715	3091
457.727	3309
457.784	5114
457.808	6474
457.853	8132
457.889	9829
457.922	9923
457.969	6870
457.991	6648
458.050	7594
458.060	7895
458.129	12987
458.130	13161
458.198	13604
458.211	12604
458.267	7059
458.292	4738
458.336	2988
458.372	2760
458.405	4009
458.453	6182
458.474	7800
458.533	13536
458.543	14124
458.611	22657
458.614	22863
458.680	14356
458.694	11419
458.749	5259
458.775	3854
458.818	2691
458.855	2194
458.887	2173
458.936	2229
458.955	1970
459.016	1082
459.024	1087
459.093	1662
459.097	1686
459.162	1429
459.177	1444
459.230	2105
459.257	2583
459.299	2725
459.338	2495
459.368	2652
459.418	3567
459.437	3460
459.499	2150
459.505	2120
459.574	2464
459.579	2483
459.643	1981
459.659	1857
459.711	1809
459.740	1970
459.780	2079
459.820	2129
459.849	2469
459.900	3256
459.917	3242
459.981	2925
459.986	2913
460.054	2844
460.061	2880
460.123	3304
460.141	3271
460.191	4011
460.222	4821
460.260	4943
460.302	4801
460.328	4752
460.382	4519
460.397	4344
460.462	3519
460.465	3630
460.534	6981
460.543	7411
460.602	20735
460.623	25841
460.671	40333
460.703	53537
460.739	49610
460.783	40218
460.808	33215
460.864	7754
460.876	5820
460.944	4008
460.945	3992
461.013	3416
461.024	3363
461.081	2989
461.104	3080
461.150	3199
461.184	3050
461.218	3068
461.264	2884
461.286	2852
461.345	3275
461.355	3200
461.423	2920
461.425	2898
461.491	2988
461.505	3010
461.559	4571
461.585	5483
461.628	8464
461.665	11281
461.696	11871
461.745	13201
461.764	11664
461.825	4830
461.832	4649
461.901	3514
461.905	3477
461.969	3910
461.985	3959
462.037	3744
462.065	3725
462.105	4066
462.145	4199
462.173	4852
462.225	6588
462.241	7321
462.305	10144
462.310	9855
462.378	5536
462.385	4882
462.446	3593
462.465	3491
462.514	3587
462.545	3656
462.582	3651
462.625	3666
462.650	3542
462.705	3075
462.718	3213
462.785	4253
462.786	4268
462.854	4564
462.865	4639
462.922	5809
462.945	6470
462.990	5264
463.025	3856
463.058	3565
463.104	3457
463.126	3460
463.184	3246
463.194	3312
463.262	3869
463.264	3895
463.330	3741
463.344	3699
463.398	4616
463.424	4867
463.466	4173
463.504	3679
463.533	3955
463.583	4296
463.601	4264
463.663	4270
463.669	4329
463.737	5120
463.743	5146
463.805	7240
463.823	7984
463.873	11744
463.903	14002
463.940	14551
463.982	15313
464.008	12790
464.062	6553
464.076	6106
464.142	4379
464.144	4404
464.211	4879
464.221	5012
464.279	5175
464.301	5182
464.347	6250
464.381	7103
464.414	6751
464.461	6126
464.482	6236
464.540	6643
464.550	6498
464.617	4991
464.620	4945
464.685	6649
464.699	6983
464.753	8490
464.779	9277
464.820	10195
464.859	11030
464.888	10544
464.938	9577
464.956	9726
465.018	10026
465.023	9929
465.091	8556
465.098	8405
465.158	8436
465.177	8453
465.226	8204
465.257	7952
465.293	8306
465.336	8677
465.361	8864
465.416	9332
465.428	9818
465.495	12442
465.496	12500
465.563	18016
465.575	18991
465.631	23171
465.654	24992
465.698	16445
465.734	8942
465.765	8448
465.813	7788
465.833	7695
465.893	7530
465.900	7587
465.968	8043
465.972	8046
466.035	7739
466.052	7677
466.102	8112
466.131	8321
466.170	8174
466.210	7904
466.237	7867
466.290	7888
466.304	7913
466.369	7785
466.372	7808
466.439	8082
466.449	8095
466.506	9241
466.528	9689
466.573	11995
466.607	13607
466.641	17809
466.687	23688
466.708	26122
466.766	32729
466.775	30467
466.842	12861
466.845	11999
466.909	9650
466.925	9088
466.977	8892
467.004	8759
467.044	9914
467.083	11053
467.111	12159
467.163	14144
467.178	14706
467.242	16920
467.245	16856
467.312	14815
467.321	14516
467.379	14762
467.400	14805
467.446	15482
467.480	15918
467.559	13556
467.638	12459
467.717	12043
467.796	12576
467.875	13908
467.955	12218
468.034	16848
468.113	29977
468.192	42525
468.271	16258
468.350	13144
468.429	13913
468.508	13184
468.588	11952
468.667	11732
468.746	11752
468.825	11508
468.904	11530
468.983	11713
469.062	14637
469.141	18006
469.220	10111
469.299	10928
469.378	11880
469.456	15391
469.535	14139
469.614	13443
469.693	11694
469.772	14820
469.851	16208
469.930	14339
470.009	11223
470.088	11351
470.166	10799
470.245	11816
470.324	11195
470.403	12513
470.482	10861
470.560	11052
470.639	10921
470.718	12589
470.797	11108
470.875	11882
470.954	13967
471.033	15367
471.111	9907
471.190	10082
471.269	9582
471.347	10079
471.426	9718
471.505	11817
471.583	13058
471.662	13301
471.740	10744
471.819	11725
471.898	10961
471.976	11349
472.055	11255
472.133	11690
472.212	14686
472.290	14477
472.369	10709
472.447	10196
472.526	9405
472.604	10531
472.683	10529
472.761	10683
472.839	10688
472.918	10449
472.996	8918
473.075	10940
473.153	10681
473.231	8935
473.310	11278
473.388	10905
473.466	9528
473.545	12109
473.623	12439
473.701	11943
473.780	10307
473.858	9303
473.936	10782
474.014	9590
474.093	10694
474.171	14356
474.249	15345
474.327	12932
474.405	8654
474.484	9836
474.562	8784
474.640	9818
474.718	8642
474.796	9316
474.874	8593
474.952	9219
475.030	9073
475.108	8920
475.187	8660
475.265	10167
475.343	11509
475.421	14089
475.499	9325
475.577	10364
475.655	10956
475.733	16613
475.811	24000
475.889	22920
475.966	17078
476.044	10318
476.122	10707
476.200	12023
476.278	10547
476.356	8850
476.434	8951
476.512	10106
476.590	11564
476.667	12119
476.745	8242
476.823	9833
476.901	9512
476.979	9014
477.056	9498
477.134	10127
477.212	9631
477.290	9673
477.367	8618
477.445	8432
477.523	8725
477.601	9064
477.678	8496
477.756	10624
477.834	9422
477.911	8435
477.989	8032
478.066	9117
478.144	9439
478.222	11307
478.299	12883
478.377	13892
478.454	9627
478.532	8401
478.609	7594
478.687	9022
478.764	7594
478.842	8729
478.919	7768
478.997	8807
479.074	6846
479.152	8737
479.229	9291
479.307	8426
479.384	6447
479.461	7327
479.539	7341
479.616	8979
479.694	7823
479.771	8887
479.848	7855
479.926	8287
480.003	10259
480.080	8023
480.157	7191
480.235	7464
480.312	7425
480.389	8859
480.467	9740
480.544	12313
480.621	8713
480.698	8681
480.775	8966
480.853	9843
480.930	7897
481.007	9220
481.084	9193
481.161	14474
481.238	11370
481.315	7538
481.392	8257
481.470	8690
481.547	7957
481.624	7502
481.701	7489
481.778	9362
481.855	8583
481.932	11717
482.009	15565
482.086	13350
482.163	8285
482.240	10400
482.317	14147
482.393	13923
482.470	7840
482.547	9330
482.624	7603
482.701	8552
482.778	7403
482.855	8011
482.932	6993
483.009	7637
483.085	8104
483.162	11694
483.239	11070
483.316	8085
483.393	7862
483.469	8431
483.546	8176
483.623	8920
483.699	6904
483.776	8491
483.853	8727
483.930	12501
484.006	24214
484.083	39966
484.160	30517
484.236	48305
484.313	38931
484.389	27614
484.466	25434
484.543	25020
484.619	23828
484.696	24902
484.772	25120
484.849	26251
484.925	22492
485.002	23397
485.078	23601
485.155	23203
485.231	22390
485.308	22250
485.384	22148
485.461	24313
485.537	29004
485.614	33753
485.690	20982
485.766	19659
485.843	20951
485.919	24283
485.995	23812
486.072	19299
486.148	18844
486.224	18425
486.301	19505
486.377	21872
486.453	21061
486.530	22411
486.606	28355
486.682	32513
486.758	30709
486.835	32649
486.911	27718
486.987	35889
487.063	36516
487.139	43375
487.215	35609
487.292	25163
487.368	22070
487.444	23381
487.520	25815
487.596	29291
487.672	34094
487.748	66366
487.824	99396
487.900	50315
487.976	25119
488.052	22610
488.128	24703
488.204	22088
488.280	18992
488.356	21962
488.432	30557
488.508	42296
488.584	21450
488.660	17452
488.736	17602
488.812	17917
488.888	20959
488.964	24963
489.039	34836
489.115	52378
489.191	36497
489.267	19347
489.343	18370
489.418	15993
489.494	16002
489.570	14407
489.646	17326
489.722	16194
489.797	16177
489.873	19945
489.949	32079
490.024	29763
490.100	14150
490.176	15952
490.251	15687
490.327	19929
490.403	13599
490.478	15515
490.554	12664
490.629	14619
490.705	12592
490.781	14519
490.856	12807
490.932	14909
491.007	13717
491.083	14614
491.158	12318
491.234	16001
491.309	24582
491.385	26882
491.460	13313
491.536	14481
491.611	12460
491.686	13542
491.762	15506
491.837	24599
491.913	36335
491.988	46881
492.063	57766
492.139	23712
492.214	16518
492.289	11910
492.365	10498
492.440	13931
492.515	12171
492.590	13333
492.666	11039
492.741	12705
492.816	16638
492.891	11236
492.967	11403
493.042	10498
493.117	11103
493.192	12009
493.267	14801
493.342	39929
493.418	54726
493.493	15519
493.568	9456
493.643	10321
493.718	12108
493.793	14035
493.868	14810
493.943	12618
494.018	11415
494.093	9693
494.168	8708
494.243	9617
494.318	8927
494.393	10276
494.468	9042
494.543	8437
494.618	9481
494.693	9602
494.768	8074
494.842	9668
494.917	8478
494.992	9754
495.067	8638
495.142	8964
495.217	8222
495.292	9889
495.366	9510
495.441	11739
495.516	14822
495.591	17398
495.665	41035
495.740	93149
495.815	44443
495.890	13270
495.964	10601
496.039	12904
496.114	11660
496.188	15422
496.263	14622
496.338	11192
496.412	11250
496.487	13665
496.561	12071
496.636	13676
496.710	12065
496.785	13068
496.860	12669
496.934	11551
497.009	10625
497.083	10915
497.158	10662
497.232	12866
497.307	14509
497.381	12919
497.455	12166
497.530	16971
497.604	12453
497.679	13049
497.753	16627
497.827	20329
497.902	16437
497.976	21580
498.050	39797
498.125	138853
498.199	150166
498.273	27384
498.348	16979
498.422	17399
498.496	15604
498.570	15748
498.645	12428
498.719	12632
498.793	14310
498.867	20005
498.941	25147
499.016	58521
499.090	160927
499.164	66150
499.238	11649
499.312	11379
499.386	13215
499.460	13230
499.534	11069
499.609	13857
499.683	18439
499.757	18754
499.831	29173
499.905	108633
499.979	111283
500.053	22545
500.127	19145
500.201	15085
500.275	11260
500.349	11270
500.422	12229
500.496	15841
500.570	27782
500.644	64121
500.718	123055
500.792	35091
500.866	11561
500.940	15868
501.013	12858
501.087	12737
501.161	20121
501.235	25616
501.309	40822
501.382	112079
501.456	105135
501.530	25700
501.603	40826
501.677	19600
501.751	8321
501.825	12284
501.898	18778
501.972	48583
502.046	33137
502.119	12759
502.193	22599
502.266	52436
502.340	28857
502.413	24621
502.487	45167
502.561	26953
502.634	11492
502.708	10404
502.781	8886
502.855	8116
502.928	6908
503.002	8778
503.075	7424
503.149	8210
503.222	8218
503.295	8801
503.369	10932
503.442	13126
503.516	31357
503.589	83854
503.662	57444
503.736	20627
503.809	42223
503.882	36725
503.956	52669
504.029	55330
504.102	39782
504.175	53160
504.249	25294
504.322	15147
504.395	11540
504.468	9504
504.542	8295
504.615	7900
504.688	7303
504.761	6848
504.834	8183
504.907	10579
504.980	14479
505.053	10562
505.127	10287
505.200	14422
505.273	9867
505.346	7718
505.419	5902
505.492	7397
505.565	5587
505.638	7157
505.711	5534
505.784	6301
505.857	5559
505.930	8343
506.003	5841
506.076	9068
506.149	8377
506.221	9584
506.294	9066
506.367	18999
506.440	65406
506.513	38822
506.586	10850
506.659	8311
506.731	6697
506.804	7339
506.877	8238
506.950	8187
507.022	6289
507.095	6982
507.168	8106
507.241	7139
507.313	5318
507.386	6236
507.459	7905
507.531	6935
507.604	5123
507.677	7391
507.749	4805
507.822	9299
507.894	14441
507.967	22252
508.040	13141
508.112	12064
508.185	10630
508.257	9845
508.330	14566
508.402	10705
508.475	10666
508.547	11414
508.620	9735
508.692	14354
508.765	10224
508.837	8720
508.909	8543
508.982	8956
509.054	9129
509.127	9073
509.199	7882
509.271	8128
509.344	7695
509.416	8118
509.488	8605
509.560	9617
509.633	7565
509.705	9341
509.777	9763
509.849	12222
509.922	9389
509.994	10259
510.066	9668
510.138	10284
510.210	20789
510.283	19522
510.355	15043
510.427	14071
510.499	11988
510.571	12844
510.643	12256
510.715	16674
510.787	13903
510.859	12153
510.931	13369
511.003	17936
511.076	16430
511.148	11472
511.219	10510
511.291	15898
511.363	16565
511.435	12249
511.507	9761
511.579	10970
511.651	11033
511.723	10083
511.795	8775
511.867	10556
511.939	10294
512.010	16032
512.082	13811
512.154	10183
512.226	9634
512.298	15806
512.369	23122
512.441	18527
512.513	14372
512.585	12311
512.656	12278
512.728	13493
512.800	12169
512.871	12032
512.943	11936
513.015	9685
513.086	11024
513.158	11617
513.230	9651
513.301	12606
513.373	12726
513.444	10529
513.516	10232
513.588	10121
513.659	10362
513.731	12485
513.802	9689
513.874	16837
513.945	24538
514.016	12415
514.088	10055
514.159	10595
514.231	12898
514.302	19127
514.374	15089
514.445	13432
514.516	20534
514.588	16396
514.659	11537
514.730	18485
514.802	15425
514.873	9720
514.944	13682
515.016	12582
515.087	12601
515.158	15053
515.229	20220
515.301	12091
515.372	12873
515.443	10221
515.514	10024
515.585	10072
515.656	10999
515.728	10723
515.799	8856
515.870	10722
515.941	10483
516.012	10058
516.083	13764
516.154	13815
516.225	14520
516.296	15041
516.367	11850
516.438	12717
516.509	13998
516.580	18999
516.651	36664
516.722	113785
516.793	71359
516.864	22158
516.935	20769
517.006	20249
517.077	23458
517.148	44867
517.219	93657
517.289	156309
517.360	82233
517.431	37349
517.502	13341
517.573	14294
517.643	13679
517.714	16276
517.785	15215
517.856	13985
517.926	16410
517.997	16857
518.068	17140
518.138	21375
518.209	23316
518.280	60665
518.350	211477
518.421	101380
518.492	21215
518.562	17866
518.633	17201
518.703	19268
518.774	30519
518.845	59737
518.915	61853
518.986	27188
519.056	21053
519.127	26201
519.197	33889
519.268	74835
519.338	55854
519.408	17742
519.479	19917
519.549	16078
519.620	12740
519.690	10873
519.760	10452
519.831	11107
519.901	11239
519.971	10320
520.042	11741
520.112	11813
520.182	12158
520.253	14199
520.323	10156
520.393	13368
520.463	18396
520.534	11435
520.604	21453
520.674	14260
520.744	13294
520.814	21754
520.885	23090
520.955	24865
521.025	83229
521.095	40956
521.165	11391
521.235	10544
521.305	9231
521.375	10331
521.445	10511
521.515	11896
521.585	12901
521.655	12672
521.725	12005
521.795	11102
521.865	7996
521.935	14434
522.005	11560
522.075	9301
522.145	9742
522.215	10788
522.285	12658
522.355	15681
522.424	23475
522.494	22463
522.564	14816
522.634	20622
522.704	56649
522.774	29071
522.843	10504
522.913	9358
522.983	10246
523.053	10205
523.122	9899
523.192	11335
523.262	24790
523.331	29227
523.401	10359
523.471	8297
523.540	8965
523.610	8131
523.680	8491
523.749	8478
523.819	9356
523.888	10055
523.958	7254
524.027	8585
524.097	9624
524.166	8661
524.236	6833
524.305	10303
524.375	7941
524.444	7989
524.514	10364
524.583	8133
524.653	9488
524.722	11705
524.791	7344
524.861	10542
524.930	7639
524.999	8663
525.069	11169
525.138	10208
525.207	10969
525.277	9935
525.346	8274
525.415	9334
525.484	9031
525.554	9277
525.623	10388
525.692	12027
525.761	10581
525.830	11141
525.900	11721
525.969	18314
526.038	25676
526.107	42884
526.176	123956
526.245	113747
526.314	39494
526.383	64646
526.452	93113
526.522	134795
526.591	155862
526.660	43721
526.729	25085
526.797	28254
526.867	45019
526.935	171225
527.004	302005
527.073	191819
527.142	26289
527.211	14472
527.280	12629
527.349	12153
527.418	8081
527.487	8841
527.555	7774
527.624	7247
527.693	6365
527.762	8365
527.831	5967
527.899	8430
527.968	7545
528.037	7297
528.106	8419
528.174	12562
528.243	11451
528.312	13762
528.380	15445
528.449	7280
528.518	8198
528.586	6104
528.655	6823
528.723	7913
528.792	6341
528.861	7440
528.929	5334
528.998	7956
529.066	7900
529.135	13600
529.203	12283
529.272	15023
529.340	20005
529.409	19759
529.477	16239
529.545	16202
529.614	19422
529.682	20033
529.751	23743
529.819	25087
529.887	25888
529.956	23447
530.024	22365
530.092	20787
530.161	21772
530.229	23661
530.297	22948
530.365	23487
530.434	23256
530.502	25147
530.570	21865
530.638	20210
530.707	19236
530.775	19921
530.843	18214
530.911	21046
530.979	20425
531.047	22737
531.115	23576
531.183	21916
531.252	19494
531.320	19743
531.388	17838
531.456	21002
531.524	20021
531.592	23909
531.660	27284
531.728	23868
531.796	22190
531.864	22505
531.932	21416
532.000	22447
532.067	24225
532.135	25970
532.203	26636
532.271	28772
532.339	31473
532.407	40494
532.475	35019
532.542	29113
532.610	28505
532.678	32101
532.746	61606
532.814	140561
532.881	55863
532.949	28702
533.017	25095
533.084	24433
533.152	23007
533.220	22967
533.287	22902
533.355	25439
533.423	24805
533.490	25659
533.558	24871
533.625	23552
533.693	23080
533.761	24075
533.828	23186
533.896	22852
533.963	30008
534.031	32864
534.098	36644
534.166	28546
534.233	22914
534.300	23326
534.368	22431
534.435	21260
534.503	20927
534.570	23290
534.637	22636
534.705	23698
534.772	22928
534.840	27226
534.907	63771
534.974	90257
535.041	25089
535.109	19669
535.176	17678
535.243	18650
535.310	17763
535.378	18206
535.445	16144
535.512	16770
535.579	16911
535.646	15254
535.714	15957
535.781	18578
535.848	18328
535.915	19424
535.982	19190
536.049	20261
536.116	19579
536.183	16667
536.250	15289
536.317	15440
536.384	15666
536.451	16865
536.518	17528
536.585	14956
536.652	17772
536.719	18621
536.786	15019
536.853	16342
536.920	17905
536.987	21053
537.053	21922
537.120	65420
537.187	68390
537.254	16005
537.321	13251
537.388	15009
537.454	11585
537.521	13249
537.588	11160
537.654	14021
537.721	13787
537.788	15293
537.855	12180
537.921	13272
537.988	12843
538.055	12722
538.121	11610
538.188	11891
538.254	13342
538.321	17604
538.388	14809
538.454	12702
538.521	11869
538.587	13001
538.654	11146
538.720	11957
538.787	11392
538.853	12805
538.920	12297
538.986	12480
539.053	11768
539.119	12484
539.185	11629
539.252	13881
539.318	15010
539.385	16967
539.451	15575
539.517	15622
539.583	15449
539.650	24686
539.716	56681
539.782	22906
539.849	11399
539.915	12816
539.981	11174
540.047	12138
540.114	11773
540.180	13718
540.246	11768
540.312	13903
540.378	17611
540.444	20536
540.510	23840
540.576	60937
540.643	27162
540.709	12163
540.775	11709
540.841	11388
540.907	13749
540.973	17844
541.039	14777
541.105	14365
541.171	11842
541.237	12593
541.303	12010
541.369	14209
541.435	12407
541.500	16607
541.566	13166
541.632	11502
541.698	10349
541.764	11926
541.830	10590
541.896	10954
541.961	10946
542.027	11264
542.093	10619
542.159	12029
542.224	11337
542.290	14502
542.356	15953
542.421	18205
542.487	13744
542.553	11508
542.618	13261
542.684	12630
542.750	11698
542.815	13515
542.881	16133
542.947	51041
543.012	46216
543.078	12343
543.143	11369
543.209	12350
543.274	11633
543.340	14295
543.405	21983
543.471	37920
543.536	14314
543.602	11877
543.667	9626
543.732	12859
543.798	10397
543.863	12426
543.928	10381
543.994	9391
544.059	10833
544.124	12362
544.190	10879
544.255	11734
544.320	11982
544.386	11871
544.451	13458
544.516	14710
544.581	15363
544.646	32590
544.712	57445
544.777	18610
544.842	13710
544.907	14879
544.972	13082
545.037	13556
545.102	13667
545.168	14201
545.233	14263
545.298	15532
545.363	16057
545.428	17284
545.493	23458
545.558	43923
545.623	25285
545.688	14793
545.753	14453
545.818	14608
545.883	13997
545.947	14874
546.012	15405
546.077	15894
546.142	15316
546.207	15545
546.272	15641
546.337	16690
546.401	16141
546.466	16328
546.531	15417
546.596	17035
546.661	18152
546.725	17657
546.790	15235
546.855	18053
546.919	16889
546.984	19140
547.049	18530
547.113	22013
547.178	21303
547.243	24347
547.307	26151
547.372	29009
547.436	28828
547.501	28291
547.565	28935
547.630	29736
547.695	28596
547.759	30046
547.823	29245
547.888	28749
547.952	27890
548.017	29188
548.081	33419
548.146	34242
548.210	31885
548.274	30995
548.339	31635
548.403	30507
548.468	27200
548.532	27766
548.596	28520
548.660	28481
548.725	30895
548.789	33184
548.853	34060
548.917	32052
548.982	33001
549.046	32792
549.110	26702
549.174	27419
549.238	29528
549.303	30953
549.367	34233
549.431	33437
549.495	29621
549.559	31368
549.623	34446
549.687	38140
549.751	42368
549.815	43894
549.879	42830
549.943	40719
550.007	44136
550.071	44695
550.135	44586
550.199	41624
550.263	38756
550.327	39673
550.391	41720
550.455	43774
550.519	42801
550.582	46452
550.646	53255
550.710	56411
550.774	49713
550.838	50401
550.901	52579
550.965	54865
551.029	55812
551.093	61835
551.156	65923
551.220	77838
551.284	81095
551.347	64459
551.411	70697
551.475	75207
551.538	58272
551.602	55120
551.666	51784
551.729	49745
551.793	49501
551.856	50216
551.920	50331
551.983	50710
552.047	49486
552.110	49806
552.174	50408
552.237	52754
552.301	48893
552.364	47698
552.428	46194
552.491	48218
552.554	48473
552.618	48692
552.681	49259
552.745	49310
552.808	50278
552.871	53114
552.934	51012
552.998	50007
553.061	48176
553.124	50407
553.187	49918
553.251	52760
553.314	55433
553.377	56107
553.440	64269
553.503	107297
553.567	166305
553.630	74122
553.693	57484
553.756	58214
553.819	57027
553.882	56467
553.945	56814
554.008	57394
554.071	55270
554.134	58431
554.197	56495
554.260	56181
554.323	58493
554.386	57229
554.449	57659
554.512	58383
554.575	55232
554.638	56362
554.701	53945
554.764	56341
554.827	53986
554.889	54184
554.952	50617
555.015	49507
555.078	50386
555.141	50715
555.203	49144
555.266	50875
555.329	48773
555.391	48169
555.454	47644
555.517	46001
555.580	42742
555.642	43941
555.705	42445
555.768	42756
555.830	41697
555.893	39640
555.955	38366
556.018	38203
556.080	37575
556.143	37477
556.206	36867
556.268	38511
556.330	37129
556.393	36229
556.455	35655
556.518	37932
556.580	36090
556.643	33423
556.705	32429
556.767	31209
556.830	31972
556.892	32262
556.955	33262
557.017	32489
557.079	29693
557.142	29574
557.204	28443
557.266	33961
557.328	31767
557.391	26534
557.453	25420
557.515	25403
557.577	26969
557.639	27862
557.701	24681
557.764	25634
557.826	24975
557.888	26633
557.950	25276
558.012	27712
558.074	30402
558.136	47307
558.198	103532
558.260	53043
558.322	26170
558.384	27923
558.446	27896
558.508	29982
558.570	32699
558.632	41108
558.694	52396
558.756	62449
558.818	138506
558.880	353334
558.942	151600
559.003	107764
559.065	66805
559.127	33275
559.189	30944
559.251	32128
559.312	40907
559.374	75833
559.436	236530
559.498	151407
559.559	35421
559.621	31305
559.683	33928
559.744	47263
559.806	116572
559.868	193688
559.929	54337
559.991	34078
560.052	40073
560.114	94980
560.176	72951
560.237	56514
560.299	94808
560.360	34536
560.422	19346
560.483	20017
560.545	17047
560.606	18969
560.667	17737
560.729	17941
560.790	17295
560.852	17706
560.913	16377
560.974	16989
561.036	15920
561.097	17244
561.158	16578
561.220	17248
561.281	15877
561.342	17208
561.403	18094
561.465	19169
561.526	24794
561.587	32301
561.648	17451
561.709	16771
561.771	16469
561.832	16947
561.893	17050
561.954	16411
562.015	15871
562.076	16822
562.137	16311
562.198	16667
562.259	16315
562.320	18140
562.381	16659
562.442	18537
562.503	17356
562.564	17224
562.625	17058
562.686	16294
562.747	16327
562.808	16648
562.869	15963
562.930	18739
562.991	19135
563.051	18129
563.112	16463
563.173	16716
563.234	14716
563.294	16806
563.355	15255
563.416	16622
563.477	15379
563.537	15944
563.598	15310
563.659	16413
563.720	15601
563.780	17340
563.841	16257
563.901	16363
563.962	15486
564.023	15828
564.083	16728
564.144	16532
564.204	16810
564.265	15550
564.325	16180
564.386	21228
564.446	20859
564.507	16257
564.567	15194
564.628	16735
564.688	16136
564.749	16036
564.809	15902
564.869	17255
564.930	16495
564.990	16364
565.050	15216
565.111	15616
565.171	14995
565.231	15952
565.292	15695
565.352	14883
565.412	16728
565.472	15664
565.532	15447
565.593	15636
565.653	14729
565.713	15900
565.773	16058
565.833	16549
565.893	17469
565.953	16574
566.013	16202
566.074	15166
566.134	17324
566.194	19507
566.254	20802
566.314	17262
566.374	15786
566.434	16915
566.494	15516
566.554	15924
566.614	15532
566.673	15924
566.733	15901
566.793	16399
566.853	16205
566.913	17956
566.973	17006
567.033	17445
567.092	16041
567.152	16418
567.212	17166
567.272	16626
567.331	16602
567.391	17325
567.451	17141
567.511	20235
567.570	19495
567.630	16950
567.690	16700
567.749	15293
567.809	16111
567.868	17232
567.928	16918
567.988	18892
568.047	18704
568.107	19369
568.166	22138
568.226	26147
568.285	32356
568.345	29818
568.404	26786
568.464	25760
568.523	22858
568.582	23281
568.642	22741
568.701	27163
568.761	32512
568.820	43749
568.879	45459
568.939	40279
568.998	31486
569.057	27376
569.116	24108
569.176	21426
569.235	18422
569.294	17917
569.353	16755
569.413	17527
569.472	15833
569.531	16323
569.590	15784
569.649	16780
569.708	15866
569.767	16322
569.827	17247
569.886	16119
569.945	15292
570.004	15445
570.063	15146
570.122	16162
570.181	15693
570.240	15791
570.299	16682
570.358	16033
570.417	14792
570.475	14972
570.534	15223
570.593	15169
570.652	15168
570.711	14251
570.770	13689
570.829	14766
570.887	13802
570.946	14821
571.005	13766
571.064	14100
571.122	13508
571.181	15241
571.240	14307
571.299	14272
571.357	14562
571.416	15124
571.475	14931
571.533	15289
571.592	13731
571.650	14328
571.709	14424
571.768	14002
571.826	14589
571.885	13367
571.943	14537
572.002	13212
572.060	13483
572.119	14240
572.177	12982
572.236	13772
572.294	13587
572.352	13148
572.411	13386
572.469	14419
572.528	12804
572.586	14948
572.644	13314
572.703	16009
572.761	13202
572.819	14281
572.877	13464
572.936	13219
572.994	12610
573.052	12487
573.110	12882
573.169	12369
573.227	11656
573.285	13069
573.343	12719
573.401	13309
573.459	11889
573.517	12495
573.576	11816
573.634	12128
573.692	12001
573.750	12964
573.808	11843
573.866	13248
573.924	13278
573.982	13229
574.040	12899
574.098	13121
574.155	10878
574.213	11813
574.271	11046
574.329	12177
574.387	11832
574.445	12059
574.503	10796
574.560	10595
574.618	10275
574.676	11703
574.734	10593
574.792	12522
574.849	11254
574.907	10993
574.965	10159
575.022	10858
575.080	10950
575.138	11325
575.195	10907
575.253	11648
575.311	11584
575.368	11227
575.426	10600
575.483	11494
575.541	10158
575.598	11009
575.656	10446
575.713	11017
575.771	9902
575.828	11757
575.886	10245
575.943	12179
576.001	10979
576.058	11261
576.115	11146
576.173	12934
576.230	12140
576.287	12570
576.345	12462
576.402	11438
576.459	11612
576.517	11698
576.574	11384
576.631	11326
576.688	11389
576.746	10982
576.803	11048
576.860	10953
576.917	11849
576.974	11835
577.031	11128
577.089	11895
577.146	11471
577.203	10981
577.260	11447
577.317	12506
577.374	11588
577.431	11427
577.488	11092
577.545	10790
577.602	11115
577.659	12158
577.716	12119
577.773	13166
577.830	11963
577.886	12208
577.943	10482
578.000	12538
578.057	12135
578.114	12982
578.171	13878
578.227	17401
578.284	16776
578.341	15652
578.398	12085
578.454	12985
578.511	10869
578.568	13261
578.625	11014
578.681	11726
578.738	11105
578.794	11592
578.851	11225
578.908	12364
578.964	12964
579.021	13871
579.077	12808
579.134	12907
579.190	11579
579.247	12195
579.303	11560
579.360	12058
579.416	10917
579.473	11418
579.529	10983
579.586	12942
579.642	11757
579.698	12275
579.755	12240
579.811	13406
579.867	12292
579.924	12985
579.980	12459
580.036	14688
580.093	16816
580.149	21907
580.205	22625
580.261	19720
580.317	16369
580.374	15801
580.430	14099
580.486	14063
580.542	13378
580.598	13399
580.619	13379
580.654	13363
580.692	13437
580.710	13492
580.765	12106
580.767	12071
580.823	13104
580.838	12982
580.879	12688
580.911	13458
580.935	14055
580.984	13311
580.991	13218
581.047	14328
581.057	14104
581.103	13233
581.130	14456
581.159	15713
581.203	14687
581.215	14437
581.270	15959
581.276	15729
581.326	13585
581.349	14093
581.382	14903
581.422	14694
581.438	14611
581.494	14593
581.494	14584
581.550	14573
581.567	14834
581.606	15383
581.640	14422
581.661	13835
581.713	15131
581.717	15245
581.773	13660
581.786	13985
581.829	15107
581.859	15195
581.885	15269
581.932	15986
581.940	16121
581.996	15120
582.004	15259
582.052	15997
582.077	15481
582.107	14885
582.150	15021
582.163	15090
582.219	14875
582.223	14926
582.274	15630
582.296	15603
582.330	15364
582.368	16142
582.386	16633
582.441	15243
582.441	15242
582.497	16052
582.514	16011
582.552	16093
582.587	16959
582.608	17455
582.659	17148
582.663	17128
582.719	17939
582.732	17784
582.774	17190
582.805	17025
582.830	16959
582.877	16998
582.885	17020
582.941	18887
582.950	19192
582.996	20852
583.023	21963
583.052	23198
583.095	23398
583.107	23385
583.162	24166
583.168	24212
583.218	24352
583.240	23520
583.273	22322
583.313	20996
583.328	20498
583.384	19356
583.385	19306
583.439	17824
583.458	17887
583.494	18052
583.531	17357
583.549	17134
583.603	17859
583.605	17864
583.660	17552
583.676	17295
583.715	16996
583.748	17243
583.770	17370
583.820	17814
583.825	17847
583.881	17285
583.893	17396
583.936	17845
583.965	17234
583.991	16698
584.038	17076
584.046	17164
584.101	17103
584.110	17231
584.156	17928
584.183	17728
584.211	17392
584.255	18246
584.266	18497
584.321	18280
584.328	18371
584.376	19129
584.400	18894
584.431	18565
584.472	18618
584.486	18651
584.541	18936
584.545	18989
584.596	19696
584.617	19416
584.651	19201
584.689	20032
584.706	20312
584.761	20584
584.762	20581
584.816	20926
584.834	20813
584.871	20333
584.906	20974
584.926	21298
584.978	20627
584.980	20622
585.035	22103
585.051	22132
585.090	22190
585.123	22405
585.145	22369
585.195	21930
585.200	21932
585.254	23836
585.267	23929
585.309	24785
585.340	25775
585.364	26078
585.412	25747
585.419	25817
585.473	28394
585.484	28647
585.528	30123
585.556	33002
585.583	37929
585.628	48490
585.637	52268
585.692	87967
585.700	95454
585.747	128164
585.772	115537
585.801	84962
585.845	44362
585.856	38289
585.910	30085
585.917	29377
585.965	27462
585.989	27010
586.019	27101
586.061	27263
586.074	27154
586.128	26852
586.133	26775
586.183	26491
586.205	26427
586.237	25932
586.277	25225
586.292	25347
586.346	25515
586.349	25555
586.401	25925
586.421	25891
586.455	26113
586.493	26365
586.509	26542
586.564	27927
586.565	27973
586.618	31987
586.637	32513
586.672	31698
586.709	29303
586.727	28477
586.781	28732
586.781	28753
586.835	27525
586.853	27475
586.889	27817
586.925	27528
586.944	27377
586.996	28376
586.998	28451
587.052	28955
587.068	29520
587.106	29978
587.140	29131
587.161	29162
587.212	30755
587.215	30832
587.269	31315
587.284	31402
587.323	31976
587.356	31890
587.377	32119
587.427	34267
587.431	34429
587.485	35251
587.499	35423
587.539	35838
587.571	35936
587.593	36560
587.643	39115
587.648	39331
587.702	39992
587.715	40161
587.755	41648
587.786	42997
587.810	43750
587.858	45134
587.864	45534
587.917	48892
587.930	49756
587.971	52224
588.001	53744
588.025	55422
588.073	58826
588.079	59501
588.133	65100
588.145	66436
588.187	71455
588.217	74677
588.241	78075
588.288	85323
588.295	86672
588.348	97617
588.360	100046
588.402	111519
588.431	119269
588.456	127388
588.503	144564
588.510	148171
588.564	177985
588.575	184388
588.617	216391
588.646	239815
588.671	270620
588.718	332210
588.725	346663
588.778	463924
588.789	488300
588.832	601582
588.861	676715
588.886	685945
588.932	661538
588.939	652399
588.993	553411
589.004	547995
589.047	665531
589.075	724953
589.100	680581
589.147	559220
589.154	543239
589.207	418695
589.218	394939
589.261	359871
589.290	339868
589.314	346944
589.361	366549
589.368	377635
589.421	472466
589.433	493769
589.475	591808
589.504	654754
589.528	648880
589.576	597484
589.582	598486
589.635	635059
589.647	637223
589.689	540694
589.718	456778
589.742	390952
589.790	267659
589.795	260617
589.849	197707
589.861	183924
589.902	159941
589.932	142376
589.955	132636
590.004	112009
590.009	110978
590.062	99236
590.075	96370
590.115	88995
590.146	83062
590.168	81214
590.218	76621
590.222	76265
590.275	70270
590.289	68686
590.328	66844
590.360	64749
590.381	63075
590.431	59331
590.435	59344
590.488	57300
590.503	56843
590.541	55960
590.574	54702
590.594	54165
590.645	52718
590.647	52747
590.700	50690
590.716	49984
590.753	49644
590.787	49038
590.806	48462
590.859	47094
590.859	47190
590.912	47252
590.930	47293
590.965	46839
591.001	46085
591.018	45890
591.071	45227
591.072	45127
591.124	45482
591.143	45541
591.177	45447
591.214	44968
591.230	45092
591.283	45650
591.285	45558
591.336	44397
591.356	43876
591.389	43634
591.427	42951
591.442	42867
591.495	42654
591.498	42517
591.547	41518
591.569	41088
591.600	41433
591.640	41380
591.653	41371
591.706	41285
591.711	41163
591.759	41455
591.782	41536
591.811	41918
591.853	42221
591.864	42197
591.917	41491
591.924	41305
591.969	40772
591.995	40339
592.022	40910
592.066	41602
592.075	41564
592.127	40767
592.137	40534
592.180	41922
592.208	42656
592.233	41995
592.279	40485
592.285	40694
592.338	41753
592.350	41894
592.390	40803
592.421	39860
592.443	40174
592.491	40555
592.495	40634
592.548	40530
592.562	40415
592.600	39757
592.633	39042
592.653	39030
592.704	38581
592.705	38851
592.775	41341
592.846	40034
592.916	40332
592.987	40908
593.058	40152
593.128	39440
593.199	40032
593.270	38456
593.341	39889
593.411	38726
593.482	40027
593.553	39832
593.623	39736
593.694	40186
593.764	40213
593.835	38898
593.906	40496
593.976	38806
594.047	41631
594.117	41978
594.188	42591
594.258	40880
594.329	41400
594.399	41990
594.470	42342
594.540	42993
594.611	42175
594.681	41226
594.751	41489
594.822	42988
594.892	42656
594.963	45488
595.033	44044
595.103	45123
595.174	44879
595.244	47445
595.314	49896
595.384	44788
595.455	46443
595.525	46881
595.595	48196
595.665	48612
595.736	48534
595.806	48271
595.876	48161
595.946	47493
596.016	48865
596.087	50159
596.157	49982
596.227	50288
596.297	52017
596.367	53559
596.437	57339
596.507	57339
596.577	56869
596.647	55467
596.717	58280
596.787	58025
596.857	58488
596.927	59215
596.997	59153
597.067	58957
597.137	64475
597.207	66155
597.277	64838
597.347	61371
597.417	61144
597.487	61343
597.557	63651
597.626	61918
597.696	62738
597.766	62991
597.836	64253
597.906	60795
597.975	60600
598.045	61300
598.115	62175
598.185	64198
598.254	69078
598.324	70520
598.394	72410
598.464	71337
598.533	71413
598.603	69519
598.672	69923
598.742	72998
598.812	73564
598.881	73514
598.951	74230
599.020	73335
599.090	75573
599.159	75922
599.229	75928
599.299	75958
599.368	77416
599.437	77105
599.507	76868
599.576	74755
599.646	78439
599.715	78454
599.785	77941
599.854	77573
599.924	79363
599.993	79253
600.062	81594
600.132	82459
600.201	86225
600.270	91249
600.340	96276
600.409	95895
600.478	95557
600.547	96391
600.617	95452
600.686	89694
600.755	90052
600.824	89419
600.894	89877
600.963	89945
601.032	93917
601.101	92951
601.170	94355
601.239	95040
601.308	97823
601.378	100302
601.447	101162
601.516	103774
601.585	107722
601.654	108404
601.723	110335
601.792	114321
601.861	117868
601.930	124942
601.999	127907
602.068	123925
602.137	124884
602.206	124003
602.275	128490
602.343	129111
602.412	130634
602.481	129413
602.550	130477
602.619	132596
602.688	132523
602.756	133749
602.825	133201
602.894	138173
602.963	135579
603.032	138113
603.100	139355
603.169	134756
603.238	141030
603.307	134367
603.375	135253
603.444	141637
603.513	128597
603.581	133063
603.650	140957
603.719	116576
603.787	110532
603.856	111839
603.924	113174
603.993	115161
604.061	118743
604.130	120296
604.198	124847
604.267	125018
604.335	128470
604.404	127020
604.472	131903
604.541	131590
604.609	135577
604.678	140491
604.746	141908
604.815	148606
604.883	142324
604.951	138359
605.020	142275
605.088	129778
605.156	122589
605.225	120611
605.293	121532
605.361	122164
605.429	120785
605.498	123937
605.566	121095
605.634	126234
605.702	124963
605.771	124847
605.839	131931
605.907	120169
605.975	126780
606.043	122028
606.111	116392
606.180	131200
606.248	119461
606.316	115627
606.384	125884
606.452	98711
606.520	78434
606.588	76622
606.656	75499
606.724	75168
606.792	72945
606.860	69395
606.928	65037
606.996	63261
607.064	61634
607.132	63989
607.200	66461
607.267	67826
607.335	67874
607.403	69482
607.471	68490
607.539	65739
607.607	65414
607.674	60942
607.742	61838
607.810	60953
607.878	61805
607.946	60618
608.013	62730
608.081	63468
608.149	64593
608.216	63732
608.284	67398
608.352	64166
608.419	64522
608.487	65980
608.555	63224
608.622	63192
608.690	66735
608.757	68238
608.825	70804
608.893	67927
608.960	67091
609.028	65785
609.095	67277
609.163	64560
609.230	60910
609.298	56357
609.365	58086
609.432	62074
609.500	67010
609.567	73277
609.635	81466
609.702	83896
609.769	80537
609.837	68871
609.904	62781
609.971	61610
610.039	67825
610.106	81792
610.173	126206
610.241	249678
610.308	216073
610.375	119488
610.442	74016
610.509	66251
610.577	63319
610.644	63195
610.711	65988
610.778	67164
610.845	69373
610.912	70102
610.980	76528
611.047	80283
611.114	75547
611.181	70440
611.248	70189
611.315	73813
611.382	74008
611.449	77155
611.516	78053
611.583	76659
611.650	77115
611.717	77889
611.784	79554
611.851	82452
611.918	86699
611.984	93358
612.051	117496
612.118	194509
612.185	397478
612.252	292359
612.319	113885
612.386	96896
612.452	91765
612.519	88208
612.586	87778
612.653	85842
612.719	90737
612.786	85736
612.853	82847
612.919	80016
612.986	82561
613.053	79105
613.120	77413
613.186	76764
613.253	79346
613.319	76341
613.386	77283
613.453	77050
613.519	78933
613.586	76906
613.652	81859
613.719	79581
613.785	79847
613.852	77872
613.918	78461
613.985	80045
614.051	83609
614.118	88393
614.184	86024
614.250	77526
614.317	80402
614.383	78283
614.449	80278
614.516	79356
614.582	82218
614.648	79377
614.715	78972
614.781	79810
614.847	81648
614.914	79638
614.980	78981
615.046	78063
615.112	80522
615.179	80548
615.245	82304
615.311	82685
615.377	85995
615.443	86794
615.509	83898
615.575	84688
615.642	83836
615.708	85585
615.774	89244
615.840	92501
615.906	97769
615.972	109596
616.038	144502
616.104	238589
616.170	458603
616.236	422196
616.302	158842
616.368	120330
616.434	101174
616.500	98993
616.565	100525
616.631	110451
616.697	101620
616.763	102837
616.829	122522
616.895	174592
616.961	177282
617.026	110655
617.092	91231
617.158	89047
617.224	87701
617.289	85509
617.355	82807
617.421	82056
617.487	84674
617.552	81288
617.618	79936
617.684	79376
617.749	83600
617.815	80229
617.880	78853
617.946	79517
618.012	81260
618.077	82527
618.143	81870
618.208	82404
618.274	85230
618.339	86928
618.405	78702
618.470	78907
618.536	79202
618.601	79693
618.667	78549
618.732	75608
618.798	75643
618.863	75539
618.928	74922
618.994	76441
619.059	77049
619.124	79498
619.190	76925
619.255	74749
619.320	75954
619.386	75865
619.451	75688
619.516	75188
619.581	76062
619.647	78408
619.712	77942
619.777	76848
619.842	77329
619.907	77743
619.972	79663
620.038	78061
620.103	77417
620.168	75916
620.233	78645
620.298	78906
620.363	79219
620.428	79828
620.493	80425
620.558	80888
620.623	81553
620.688	81494
620.753	81631
620.818	83748
620.883	83196
620.948	82834
621.013	83360
621.078	81330
621.143	83011
621.207	83504
621.272	82014
621.337	83319
621.402	83416
621.467	85364
621.532	85489
621.596	84497
621.661	83387
621.726	81999
621.791	84402
621.855	83417
621.920	84554
621.985	84641
622.049	85984
622.114	85039
622.179	86222
622.243	87601
622.308	86887
622.373	89937
622.437	88983
622.502	86648
622.566	85514
622.631	84308
622.695	87311
622.760	86156
622.824	85761
622.889	87686
622.953	87393
623.018	92099
623.082	91240
623.147	87108
623.211	86174
623.276	86066
623.340	84770
623.404	83829
623.469	84412
623.533	84337
623.597	83286
623.662	83363
623.726	81771
623.790	77607
623.854	79649
623.919	79183
623.983	78488
624.047	78483
624.111	78232
624.176	79090
624.240	79396
624.304	81793
624.368	79066
624.432	78938
624.496	78923
624.560	80251
624.625	79988
624.689	79038
624.753	79881
624.817	79237
624.881	76315
624.945	74871
625.009	72756
625.073	73055
625.137	73331
625.201	76403
625.265	76145
625.329	72142
625.393	73482
625.456	72640
625.520	72718
625.584	72104
625.648	74112
625.712	76041
625.776	87583
625.839	87086
625.903	68719
625.967	61917
626.031	70121
626.095	75461
626.158	63777
626.222	57359
626.286	56796
626.349	56030
626.413	52678
626.477	53816
626.540	51355
626.604	50321
626.668	52739
626.731	50813
626.795	50778
626.858	50003
626.922	47951
626.986	48974
627.049	47519
627.113	49269
627.176	48410
627.240	46328
627.303	45361
627.366	44236
627.430	44806
627.493	44420
627.557	44751
627.620	45036
627.684	44450
627.747	43573
627.810	41324
627.874	39248
627.937	38336
628.000	40753
628.064	40056
628.127	35808
628.190	37396
628.253	35644
628.317	35213
628.380	33910
628.443	33949
628.506	35188
628.569	32685
628.632	31459
628.696	32351
628.759	31492
628.822	30839
628.885	29525
628.948	30916
629.011	29374
629.074	30071
629.137	28740
629.200	28805
629.263	29790
629.326	27186
629.389	27137
629.452	27429
629.515	26510
629.578	26678
629.641	25934
629.704	25828
629.767	25946
629.830	26770
629.892	26335
629.955	24738
630.018	26262
630.081	25224
630.144	25981
630.207	23637
630.269	26178
630.332	23905
630.395	23347
630.458	24087
630.520	22336
630.583	24476
630.646	23277
630.708	23327
630.771	22038
630.834	24502
630.896	22556
630.959	22550
631.021	22523
631.084	22663
631.146	23802
631.209	22813
631.272	21351
631.334	22363
631.397	21906
631.459	21540
631.522	21451
631.584	22068
631.646	22232
631.709	22517
631.771	22668
631.834	22808
631.896	21659
631.958	20232
632.021	21784
632.083	20162
632.145	20798
632.208	20006
632.270	20527
632.332	19865
632.395	19167
632.457	21682
632.519	19734
632.581	21593
632.643	18410
632.706	20740
632.768	18537
632.830	19396
632.892	18836
632.954	19083
633.016	19756
633.078	20115
633.141	19324
633.203	19153
633.265	19520
633.327	19487
633.389	18208
633.451	20104
633.513	18960
633.575	19641
633.637	18487
633.698	19656
633.760	19101
633.822	20128
633.884	18981
633.946	19789
634.008	19108
634.070	19783
634.132	21726
634.193	20223
634.255	20098
634.317	19903
634.379	19876
634.441	19656
634.502	18691
634.564	18940
634.626	17817
634.687	18804
634.749	17979
634.811	19407
634.873	17327
634.934	18074
634.996	18395
635.057	17803
635.119	17756
635.181	19110
635.242	17979
635.304	17305
635.365	19840
635.427	18375
635.488	17119
635.550	17780
635.611	16951
635.673	16438
635.734	18983
635.796	18215
635.857	18610
635.918	19571
635.980	19859
636.041	18812
636.102	19409
636.164	19969
636.225	19027
636.286	17932
636.348	18862
636.409	18671
636.470	17534
636.531	18482
636.593	18432
636.654	18650
636.715	17122
636.776	17101
636.838	16620
636.899	18481
636.960	16284
637.021	16706
637.082	18049
637.143	17233
637.204	15156
637.265	16337
637.326	16986
637.387	17599
637.448	15744
637.509	16715
637.570	16727
637.631	18120
637.692	14967
637.753	15889
637.814	16832
637.875	16781
637.936	17117
637.997	16953
638.058	16918
638.119	17600
638.179	16502
638.240	17076
638.301	16945
638.362	16235
638.423	16574
638.483	16804
638.544	15236
638.605	16645
638.666	15997
638.726	16854
638.787	16855
638.848	16158
638.908	16760
638.969	17023
639.030	15744
639.090	15215
639.151	16214
639.211	16841
639.272	17588
639.332	18430
639.393	17049
639.453	14572
639.514	16477
639.574	16153
639.635	15179
639.695	16144
639.756	13736
639.816	15846
639.877	15597
639.937	17724
639.997	17353
640.058	15013
640.118	13564
640.178	16404
640.239	14902
640.299	15011
640.359	14346
640.420	15776
640.480	15015
640.540	15176
640.600	15463
640.661	16783
640.721	15482
640.781	18541
640.841	16633
640.901	15883
640.961	15471
641.021	15198
641.082	14755
641.142	16188
641.202	16749
641.262	13713
641.322	15771
641.382	13887
641.442	15418
641.502	15188
641.562	15301
641.622	14534
641.682	13832
641.742	15069
641.802	15238
641.861	14715
641.921	13451
641.981	15805
642.041	13544
642.101	15517
642.161	12290
642.221	14280
642.280	13480
642.340	13718
642.400	13486
642.460	15772
642.519	13711
642.579	14871
642.639	14127
642.698	12227
642.758	15039
642.818	15538
642.877	13720
642.937	15043
642.997	14164
643.056	16413
643.116	14042
643.175	15484
643.235	14090
643.294	14660
643.354	15067
643.414	15149
643.473	16527
643.532	17717
643.592	18531
643.651	22735
643.711	32880
643.770	53761
643.830	114931
643.889	227782
643.948	69505
644.008	21635
644.067	16148
644.126	14132
644.186	13983
644.245	14239
644.304	11806
644.363	15180
644.423	11365
644.482	13811
644.541	13779
644.600	12595
644.659	15489
644.719	14798
644.778	17849
644.837	22963
644.896	37854
644.955	79875
645.014	34393
645.073	17417
645.132	13718
645.191	14341
645.250	12658
645.309	14647
645.368	13840
645.427	15810
645.486	17368
645.545	25642
645.604	13158
645.663	12954
645.722	12630
645.781	14012
645.840	12707
645.898	14563
645.957	16434
646.016	20504
646.075	30484
646.134	52025
646.192	119728
646.251	176013
646.310	36286
646.369	16294
646.427	15767
646.486	12487
646.545	12863
646.603	12758
646.662	11491
646.721	11935
646.779	10559
646.838	11487
646.896	13494
646.955	13629
647.014	17224
647.072	24773
647.131	53129
647.189	30766
647.248	10960
647.306	11600
647.365	11715
647.423	9116
647.481	11678
647.540	9630
647.598	10111
647.657	9547
647.715	10970
647.773	9136
647.832	10807
647.890	8642
647.948	8660
648.007	10527
648.065	8479
648.123	10105
648.181	11457
648.240	11541
648.298	9693
648.356	9524
648.414	9858
648.472	9785
648.531	9169
648.589	10030
648.647	8941
648.705	9109
648.763	8582
648.821	10152
648.879	7805
648.937	9780
648.995	10120
649.053	10176
649.111	12546
649.169	16713
649.227	24110
649.285	43965
649.343	114621
649.401	61308
649.459	18066
649.516	14195
649.574	9660
649.632	14382
649.690	14639
649.748	13393
649.806	15727
649.863	25761
649.921	38912
649.979	27799
650.037	10188
650.094	7294
650.152	8330
650.210	7325
650.268	9148
650.325	8686
650.383	9234
650.440	7632
650.498	7096
650.556	7498
650.613	7306
650.671	7959
650.728	7295
650.786	6969
650.843	7590
650.901	5869
650.958	6602
651.016	6890
651.073	6477
651.131	7021
651.188	5713
651.246	6731
651.303	5439
651.360	6735
651.418	5421
651.475	6290
651.532	5878
651.590	6055
651.647	5013
651.704	6355
651.762	5280
651.819	5727
651.876	5168
651.933	5562
651.990	6085
652.048	5332
652.105	4367
652.162	6587
652.219	4835
652.276	6081
652.333	5652
652.390	5022
652.448	5559
652.505	6521
652.562	6156
652.619	5269
652.676	8964
652.733	9908
652.790	5489
652.847	4867
652.904	4987
652.961	4300
653.017	4475
653.074	6119
653.131	5035
653.188	4369
653.245	5578
653.302	5575
653.359	5085
653.415	6199
653.472	4861
653.529	5997
653.586	3767
653.642	4388
653.699	5576
653.756	4220
653.813	3828
653.869	6283
653.926	4463
653.983	4065
654.039	4812
654.096	5028
654.152	6571
654.209	4154
654.266	4852
654.322	3781
654.379	4941
654.435	5953
654.492	5105
654.548	5733
654.605	5780
654.661	6406
654.717	4936
654.774	6179
654.830	5571
654.887	5006
654.943	4183
655.000	6266
655.056	5736
655.112	5952
655.168	3763
655.225	5044
655.281	4261
655.337	4672
655.394	5914
655.450	5693
655.506	5128
655.562	5863
655.618	5807
655.675	3786
655.731	4588
655.787	4945
655.843	5351
655.899	4396
655.955	4553
656.011	5122
656.067	2554
656.123	4405
656.179	4698
656.235	6109
656.291	2894
656.347	5014
656.403	3941
656.459	5163
656.515	4203
656.571	4896
656.627	4100
656.683	5207
656.739	4844
656.795	4540
656.850	3734
656.906	5893
656.962	4945
657.018	4235
657.074	4475
657.129	5327
657.185	6406
657.241	10018
657.297	6708
657.352	4141
657.408	3694
657.464	5520
657.519	3961
657.575	4569
657.630	3712
657.686	4886
657.742	3289
657.797	4582
657.853	4741
657.908	5547
657.964	4282
658.019	4475
658.075	4507
658.130	5536
658.186	3713
658.241	5378
658.297	4408
658.352	4567
658.407	4471
658.463	4262
658.518	4647
658.573	5022
658.629	3922
658.684	4501
658.739	5080
658.795	3684
658.850	3912
658.905	4444
658.960	3920
659.016	3941
659.071	4317
659.126	4679
659.181	3702
659.236	7357
659.291	5508
659.346	4903
659.401	4924
659.457	6702
659.512	6412
659.567	5761
659.622	4173
659.677	5637
659.732	3914
659.787	4452
659.842	4200
659.897	5531
659.952	4430
660.007	5117
660.061	4075
660.116	3775
660.171	3308
660.226	4684
660.281	5135
660.336	4162
660.391	4643
660.445	4369
660.500	3945
660.555	4488
660.610	3401
660.664	4617
660.719	3685
660.774	5110
660.828	3869
660.883	4512
660.938	4913
660.992	3528
661.047	4749
661.101	4090
661.156	3740
661.211	4134
661.265	3892
661.320	4338
661.374	4015
661.429	4316
661.483	4136
661.538	4571
661.592	3221
661.647	5003
661.701	5503
661.755	4498
661.810	4122
661.864	4559
661.919	4675
661.973	4736
662.027	4338
662.081	2960
662.136	3841
662.190	4988
662.244	4277
662.299	5356
662.353	4274
662.407	4802
662.461	3718
662.515	5247
662.569	4249
662.624	4439
662.678	3910
662.732	4765
662.786	3455
662.840	3948
662.894	3254
662.948	4410
663.002	3527
663.056	4051
663.110	3323
663.164	4469
663.218	3201
663.272	4072
663.326	4307
663.380	4009
663.434	3679
663.488	3620
663.542	4060
663.595	4550
663.649	3910
663.703	4802
663.757	3703
663.811	3912
663.864	3273
663.918	4295
663.972	3792
664.026	3469
664.079	3627
664.133	4436
664.187	3675
664.240	4156
664.294	3299
664.348	4269
664.401	3636
664.455	4332
664.508	3546
664.562	4257
664.615	4629
664.669	3476
664.722	3461
664.776	3906
664.829	3318
664.883	4787
664.936	2951
664.990	4693
665.043	3157
665.097	3307
665.150	3542
665.203	3883
665.257	3650
665.310	4405
665.363	3596
665.417	4008
665.470	3581
665.523	3911
665.576	3500
665.630	5174
665.683	3515
665.736	4046
665.789	4015
665.842	3693
665.895	3164
665.949	3668
666.002	2586
666.055	4285
666.108	4031
666.161	4268
666.214	4822
666.267	3971
666.320	4309
666.373	4787
666.426	3799
666.479	4374
666.532	3503
666.585	3941
666.638	4034
666.691	4018
666.744	4082
666.796	3742
666.849	2864
666.902	4325
666.955	3939
667.008	3787
667.060	2768
667.113	4264
667.166	3517
667.219	4144
667.271	3169
667.324	4029
667.377	3081
667.430	3985
667.482	4353
667.535	4154
667.587	3978
667.640	5094
667.693	2866
667.745	4831
667.798	5088
667.850	3956
667.903	3879
667.955	3615
668.008	3370
668.060	5484
668.113	4043
668.165	4300
668.218	3793
668.270	4056
668.322	3988
668.375	4003
668.427	3943
668.479	3623
668.532	4215
668.584	4307
668.636	3774
668.689	4804
668.741	3199
668.793	4826
668.845	2900
668.898	4184
668.950	3490
669.002	4395
669.054	3336
669.106	3436
669.158	4260
669.211	3736
669.263	3994
669.315	4921
669.367	4607
669.419	4246
669.471	4058
669.523	4357
669.575	4255
669.627	4582
669.679	3402
669.731	4453
669.783	4291
669.835	3734
669.886	4474
669.938	4913
669.990	3758
670.042	4678
670.094	5140
670.146	5302
670.197	5696
670.249	7645
670.301	7347
670.353	10913
670.404	14766
670.456	19770
670.508	27897
670.560	44449
670.611	67615
670.663	114185
670.715	220881
670.766	292069
670.818	157313
670.869	46359
670.921	21251
670.972	14455
671.024	10091
671.075	9211
671.127	6650
671.178	6329
671.230	5087
671.281	5655
671.333	4762
671.384	4944
671.436	5015
671.487	5916
671.538	5175
671.590	7052
671.641	8376
671.692	12416
671.744	21699
671.795	17903
671.846	7724
671.897	5603
671.949	4086
672.000	4803
672.051	3364
672.102	5183
672.153	3018
672.204	3497
672.256	3921
672.307	3601
672.358	3226
672.409	3754
672.460	4003
672.511	3582
672.562	2834
672.613	3435
672.664	2509
672.715	2866
672.766	2810
672.817	2846
672.868	2895
672.919	3498
672.970	2506
673.021	3215
673.071	2389
673.122	3288
673.173	2927
673.224	3428
673.275	2533
673.326	3074
673.376	2082
673.427	3038
673.478	2359
673.528	3380
673.579	3044
673.630	3103
673.680	3100
673.731	3331
673.782	2463
673.832	2979
673.883	1875
673.934	3076
673.984	2165
674.035	3221
674.085	2132
674.136	2815
674.186	1779
674.237	3349
674.287	3174
674.338	3218
674.388	1741
674.438	2454
674.489	1472
674.539	2388
674.589	2401
674.640	2091
674.690	2590
674.740	3215
674.791	2830
674.841	2682
674.891	2382
674.942	2622
674.992	1612
675.042	1950
675.092	1978
675.142	1841
675.193	1824
675.243	2609
675.293	2426
675.343	3140
675.393	2117
675.443	3078
675.493	2246
675.543	2681
675.593	2288
675.643	2902
675.693	2085
675.743	2188
675.793	1974
675.843	2131
675.893	2077
675.943	2735
675.993	2209
676.043	2765
676.093	2216
676.142	2375
676.192	1586
676.242	2454
676.292	1800
676.341	2898
676.391	1115
676.441	2203
676.491	2124
676.540	2175
676.590	1310
676.640	3027
676.689	1840
676.739	1817
676.789	1632
676.838	1791
676.888	1398
676.937	1677
676.987	1961
677.037	2074
677.086	964
677.136	2417
677.185	1705
677.235	2707
677.284	1637
677.333	2417
677.383	1219
677.432	2223
677.482	1395
677.531	2002
677.580	808
677.630	2091
677.679	1851
677.728	2006
677.778	2571
677.827	2806
677.876	1211
677.925	1782
677.975	1169
678.024	1916
678.073	1354
678.122	2705
678.171	1733
678.220	2163
678.269	2201
678.319	1702
678.368	1612
678.417	1981
678.466	1862
678.515	2123
678.564	1524
678.613	1758
678.662	2383
678.711	1885
678.760	1103
678.809	1443
678.857	1220
678.906	2650
678.955	1771
679.004	2964
679.053	1843
679.102	1924
679.151	1446
679.199	1189
679.248	1677
679.297	1496
679.346	1958
679.394	1668
679.443	1589
679.492	2235
679.540	1618
679.589	2486
679.638	1373
679.686	1579
679.735	1810
679.784	2142
679.832	1647
679.881	2309
679.929	1743
679.978	2288
680.026	2094
680.075	1983
680.123	1439
680.172	1672
680.220	1566
680.268	1935
680.317	1609
680.365	1615
680.414	975
680.462	1954
680.510	1865
680.559	1852
680.607	1142
680.655	2312
680.703	552
680.752	1996
680.800	1000
680.848	1890
680.896	1512
680.945	1170
680.993	819
681.041	2088
681.089	1431
681.137	1755
681.185	1213
681.233	2025
681.258	1914
681.281	1793
681.329	1901
681.377	1063
681.380	1122
681.425	1877
681.473	1584
681.502	1617
681.521	1596
681.569	2322
681.617	2118
681.624	2058
681.665	1559
681.713	2262
681.745	1599
681.761	1250
681.809	2151
681.857	1485
681.867	1608
681.904	1949
681.952	1253
681.989	2113
682.000	2356
682.048	1466
682.096	2227
682.111	2116
682.143	1819
682.191	2462
682.233	1969
682.239	1878
682.286	1980
682.334	1884
682.354	2074
682.382	2272
682.430	2229
682.476	2166
682.477	2150
682.525	1390
682.572	2219
682.598	1708
682.620	1261
682.667	2531
682.715	1801
682.720	1917
682.763	2742
682.810	2350
682.841	2130
682.857	2019
682.905	2045
682.952	3334
682.963	3030
683.000	1858
683.047	3203
683.085	3132
683.095	3094
683.142	2923
683.190	3116
683.206	2934
683.237	2573
683.284	2980
683.328	2974
683.332	2961
683.379	3113
683.426	2537
683.449	2588
683.473	2614
683.521	3178
683.568	2944
683.571	2985
683.615	3321
683.662	2848
683.693	3043
683.709	3118
683.757	3006
683.804	3098
683.814	3147
683.851	3260
683.898	2904
683.936	2663
683.945	2600
683.992	3418
684.039	3175
684.057	3243
684.086	3320
684.133	3077
684.179	3810
684.180	3822
684.227	3045
684.274	3123
684.300	3227
684.321	3287
684.368	3407
684.415	3333
684.422	3334
684.462	3387
684.509	2485
684.543	3568
684.556	3896
684.603	2913
684.649	3742
684.665	3735
684.696	3763
684.743	4126
684.786	3741
684.790	3702
684.837	3490
684.883	3836
684.908	4028
684.930	4198
684.977	4022
685.023	3985
685.029	3960
685.070	3610
685.117	4610
685.150	4295
685.164	4179
685.210	4648
685.257	4785
685.272	4913
685.303	5058
685.350	4133
685.393	4540
685.396	4572
685.443	4456
685.490	4866
685.514	4835
685.536	4822
685.583	4528
685.629	4435
685.636	4477
685.675	4578
685.722	4801
685.757	4868
685.768	4899
685.815	3982
685.861	5020
685.878	4808
685.908	4498
685.954	4642
686.000	4964
686.000	4961
686.047	5052
686.093	4299
686.121	4948
686.139	5453
686.185	4744
686.232	5312
686.242	5279
686.278	5070
686.324	4698
686.363	4611
686.370	4611
686.416	4684
686.463	5185
686.484	5639
686.509	6145
686.555	5613
686.601	5258
686.606	5288
686.647	5372
686.693	5990
686.727	5515
686.739	5350
686.785	5674
686.831	5043
686.848	5364
686.877	5964
686.923	4706
686.969	5048
686.969	5049
687.015	5236
687.061	5572
687.090	5637
687.107	5676
687.153	5496
687.199	5255
687.211	5398
687.245	5774
687.291	5482
687.332	5650
687.336	5683
687.382	5486
687.428	5619
687.453	5729
687.474	5706
687.520	6370
687.565	5591
687.574	5563
687.611	5627
687.657	5630
687.695	6281
687.702	6440
687.748	6504
687.794	7482
687.816	7507
687.839	7205
687.885	6628
687.931	6297
687.937	6277
687.976	6341
688.022	5556
688.058	5744
688.067	5827
688.113	5820
688.158	6148
688.179	5930
688.204	5685
688.249	6061
688.295	6110
688.300	6141
688.340	6409
688.386	6438
688.421	6788
688.431	6875
688.477	6335
688.522	6478
688.542	6714
688.567	7018
688.613	6889
688.658	6193
688.663	6264
688.703	6842
688.749	6494
688.784	6913
688.794	7026
688.839	6525
688.884	6914
688.905	6506
688.930	6052
688.975	6567
689.020	6604
689.026	6592
689.065	6769
689.110	6543
689.146	6978
689.155	7034
689.201	6992
689.246	6832
689.267	6765
689.291	6662
689.336	6767
689.381	6317
689.388	6309
689.426	6721
689.471	6876
689.509	7404
689.516	7436
689.561	7158
689.606	7089
689.630	6870
689.651	6736
689.696	7067
689.741	7050
689.750	6976
689.785	6870
689.830	6732
689.871	6711
689.875	6701
689.920	6657
689.965	6905
689.992	6401
690.010	6246
690.054	7219
690.099	7491
690.112	7602
690.144	7492
690.189	7097
690.233	6700
690.233	6710
690.278	6729
690.323	7271
690.354	7198
690.367	7204
690.412	7720
690.457	7452
690.474	7755
690.501	8126
690.546	7727
690.590	7820
690.595	7793
690.635	7845
690.680	8380
690.716	8327
690.724	8394
690.769	9115
690.813	9975
690.836	10300
690.857	11140
690.902	13073
690.946	14735
690.957	15356
690.991	20336
691.035	27440
691.077	33839
691.080	33806
691.124	29889
691.168	24585
691.198	22539
691.213	21041
691.257	16438
691.301	11682
691.318	9973
691.346	9688
691.390	9366
691.434	8536
691.439	8523
691.478	9000
691.522	8764
691.559	8802
691.567	8827
691.611	8584
691.655	8624
691.680	8469
691.699	8373
691.743	8862
691.787	8441
691.800	8417
691.831	8474
691.875	8330
691.919	8765
691.921	8750
691.964	8656
692.008	8677
692.041	8449
692.052	8416
692.096	8692
692.139	8546
692.162	8721
692.183	8921
692.227	8709
692.271	8695
692.282	8618
692.315	8480
692.359	8838
692.402	8901
692.403	8917
692.447	8674
692.490	8339
692.523	8186
692.534	8274
692.578	8558
692.622	8624
692.643	8732
692.666	8633
692.709	8673
692.753	8266
692.763	8223
692.797	8402
692.840	8011
692.884	8594
692.884	8617
692.928	8284
692.971	9157
693.004	9215
693.015	9135
693.059	9037
693.102	8599
693.124	8522
693.146	8685
693.189	8648
693.233	8878
693.245	8782
693.276	8757
693.320	9807
693.363	9984
693.365	9983
693.407	10516
693.450	10773
693.485	11450
693.493	11863
693.537	13073
693.580	15013
693.605	15937
693.624	17808
693.667	22458
693.710	26697
693.725	28505
693.753	37514
693.797	51845
693.840	66899
693.845	68171
693.883	60519
693.926	51507
693.966	43981
693.970	42985
694.013	32305
694.056	21886
694.086	14906
694.099	14532
694.142	12562
694.185	11502
694.206	10664
694.229	10481
694.272	10347
694.315	10229
694.326	10137
694.358	10194
694.401	10369
694.444	10712
694.446	10686
694.487	10409
694.530	10436
694.566	10096
694.573	10029
694.616	9946
694.659	9343
694.686	9248
694.702	9307
694.745	9157
694.787	9117
694.806	8960
694.830	8900
694.873	9197
694.916	9061
694.926	9057
694.959	9137
695.002	8960
695.044	9258
695.046	9231
695.087	9190
695.130	9341
695.166	9525
695.172	9613
695.215	9997
695.258	10300
695.286	10348
695.301	10256
695.343	10039
695.386	10115
695.406	9841
695.428	9535
695.471	9447
695.514	9037
695.526	8902
695.556	8966
695.599	9370
695.641	9469
695.646	9455
695.684	9515
695.726	9836
695.766	9680
695.769	9671
695.811	9645
695.854	9167
695.886	9056
695.896	9183
695.938	9438
695.981	9779
696.005	9817
696.023	9865
696.065	10097
696.108	10283
696.125	10364
696.150	10527
696.192	10738
696.235	11048
696.245	11023
696.277	10869
696.319	10977
696.361	10703
696.365	10680
696.404	10743
696.446	10658
696.485	10538
696.488	10586
696.530	10662
696.572	11024
696.604	11196
696.614	11135
696.656	10797
696.698	10445
696.724	10177
696.740	10215
696.783	10271
696.825	10376
696.844	10289
696.867	10259
696.909	10439
696.951	10388
696.964	10417
696.992	10583
697.034	10537
697.076	10688
697.083	10659
697.118	10636
697.160	10723
697.202	10726
697.203	10698
697.244	10537
697.286	10266
697.323	10048
697.327	10089
697.369	10170
697.411	10301
697.442	10327
697.453	10337
697.494	10279
697.536	10156
697.562	10166
697.578	10292
697.620	10435
697.661	10567
697.682	10599
697.703	10696
697.744	10915
697.786	11063
697.801	11092
697.828	11266
697.869	11434
697.911	11684
697.921	11708
697.952	11770
697.994	11803
698.035	11828
698.040	11800
698.077	11418
698.118	10904
698.160	10441
698.160	10409
698.201	10669
698.243	10887
698.279	11054
698.284	11074
698.325	10996
698.367	10892
698.399	10777
698.408	10809
698.449	10799
698.491	10854
698.518	10804
698.532	10918
698.573	11226
698.614	11517
698.638	11670
698.656	11664
698.697	11528
698.738	11419
698.757	11342
698.779	11234
698.820	10957
698.862	10658
698.877	10532
698.903	10900
698.944	11414
698.985	11943
698.996	12056
699.026	11965
699.067	11798
699.116	11568
699.235	12172
699.354	11378
699.474	11029
699.593	11783
699.713	11713
699.832	11065
699.951	12103
700.070	11701
700.190	11288
700.309	11508
700.428	10625
700.547	11025
700.667	9941
700.786	10901
700.905	11227
701.024	9914
701.143	10246
701.262	10587
701.381	10784
701.500	10374
701.619	10764
701.738	10847
701.857	10927
701.976	10617
702.095	10595
702.214	11435
702.333	10973
702.452	10398
702.571	10310
702.690	10226
702.809	10733
702.928	10289
703.047	9764
703.165	10399
703.284	10941
703.403	9830
703.522	9060
703.640	10287
703.759	9505
703.878	9852
703.997	9894
704.115	10212
704.234	10375
704.353	9483
704.471	9437
704.590	9269
704.708	9600
704.827	9928
704.946	9794
705.064	9709
705.183	9735
705.301	11329
705.420	13155
705.538	12307
705.656	12212
705.775	11910
705.893	15618
706.012	18942
706.130	11697
706.249	11930
706.367	11057
706.485	10674
706.604	10275
706.722	11121
706.840	12619
706.958	14643
707.077	11615
707.195	10108
707.313	11059
707.431	10291
707.549	10865
707.668	10089
707.786	9981
707.904	10163
708.022	9994
708.140	9060
708.258	9853
708.376	10041
708.494	9865
708.612	10916
708.730	12707
708.848	13676
708.966	11983
709.084	11337
709.202	10717
709.320	12022
709.438	12223
709.556	11320
709.674	10904
709.791	11823
709.909	11192
710.027	10774
710.145	11161
710.263	11602
710.380	10130
710.498	10900
710.616	11035
710.733	10829
710.851	9716
710.969	10245
711.086	10009
711.204	10399
711.322	9718
711.439	10183
711.557	10389
711.674	10466
711.792	9991
711.909	10689
712.027	11616
712.144	10027
712.262	10540
712.379	11012
712.497	13664
712.614	13524
712.732	12062
712.849	11394
712.966	11070
713.084	11413
713.201	11591
713.318	12533
713.436	12062
713.553	11250
713.670	11900
713.787	11255
713.905	11783
714.022	12114
714.139	11438
714.256	11718
714.373	12720
714.490	13980
714.608	21472
714.725	68168
714.842	73145
714.959	14540
715.076	11609
715.193	11268
715.310	11152
715.427	10676
715.544	9998
715.661	10425
715.778	10611
715.895	10635
716.011	10885
716.128	10283
716.245	10707
716.362	9989
716.479	9357
716.596	10644
716.713	10451
716.829	9697
716.946	10016
717.063	9740
717.180	8918
717.296	9486
717.413	10059
717.530	9212
717.646	9603
717.763	9743
717.880	8312
717.996	8325
718.113	9192
718.229	9279
718.346	8065
718.462	9033
718.579	8924
718.695	9626
718.812	9794
718.928	8276
719.045	8430
719.161	8637
719.277	8508
719.394	8996
719.510	9384
719.626	8951
719.743	9629
719.859	9346
719.975	12179
720.092	24132
720.208	47583
720.324	12752
720.440	9060
720.557	9174
720.673	9769
720.789	9801
720.905	11886
721.021	9055
721.137	8397
721.253	8333
721.369	8183
721.486	8020
721.602	8544
721.718	8177
721.834	7544
721.950	7732
722.066	7237
722.181	8423
722.297	7941
722.413	7936
722.529	8160
722.645	7963
722.761	7253
722.877	7141
722.993	7816
723.108	7719
723.224	6881
723.340	7049
723.456	7716
723.571	7876
723.687	8068
723.803	7565
723.918	7582
724.034	6415
724.150	7227
724.265	7044
724.381	8028
724.497	8244
724.612	7514
724.728	5999
724.843	6255
724.959	7731
725.074	8537
725.190	7808
725.305	7165
725.421	6793
725.536	6719
725.651	6906
725.767	6276
725.882	6967
725.997	6715
726.113	7461
726.228	6795
726.343	6539
726.459	6374
726.574	6849
726.689	6898
726.804	6430
726.920	6431
727.035	6807
727.150	6378
727.265	6527
727.380	6999
727.495	6825
727.610	6076
727.725	6695
727.841	7810
727.956	10370
728.071	8379
728.186	6177
728.301	6465
728.416	6592
728.531	6717
728.645	5125
728.760	6070
728.875	6324
728.990	6115
729.105	6448
729.220	6307
729.335	6198
729.449	5946
729.564	6129
729.679	6870
729.794	6480
729.908	6258
730.023	5261
730.138	5855
730.253	4828
730.367	5991
730.482	5424
730.596	5950
730.711	6027
730.826	6289
730.940	6709
731.055	6032
731.169	5376
731.284	6574
731.398	5411
731.513	6060
731.627	5708
731.742	7847
731.856	6095
731.970	6354
732.085	6366
732.199	6598
732.313	7886
732.428	11673
732.542	27373
732.656	18089
732.771	7516
732.885	6610
732.999	5959
733.113	6896
733.227	6764
733.342	6605
733.456	6487
733.570	6347
733.684	6649
733.798	6089
733.912	6461
734.026	6512
734.140	6334
734.254	6294
734.368	6843
734.482	6882
734.596	6573
734.710	6407
734.824	5522
734.938	6003
735.052	6049
735.166	5847
735.280	6445
735.393	6423
735.507	6010
735.621	6114
735.735	6812
735.849	6310
735.962	5995
736.076	5785
736.190	6426
736.303	6012
736.417	6522
736.531	5607
736.644	5939
736.758	5135
736.872	5531
736.985	5140
737.099	6967
737.212	6184
737.326	5438
737.439	6122
737.553	5464
737.666	6243
737.780	4868
737.893	5920
738.007	5821
738.120	5711
738.233	4765
738.347	5304
738.460	5475
738.573	6445
738.687	5242
738.800	5955
738.913	6061
739.026	6241
739.140	5917
739.253	6297
739.366	5910
739.479	5423
739.592	4634
739.705	5355
739.818	5484
739.932	4893
740.045	5932
740.158	5595
740.271	5726
740.384	5498
740.497	5488
740.610	6269
740.723	5211
740.836	6189
740.949	6066
741.062	6056
741.174	5542
741.287	5658
741.400	5486
741.513	5145
741.626	5644
741.739	5568
741.851	4411
741.964	5508
742.077	5641
742.189	4887
742.302	5939
742.415	4297
742.527	4903
742.640	4967
742.753	4881
742.865	5178
742.978	4781
743.090	5365
743.203	5265
743.316	5055
743.428	5833
743.541	4795
743.653	5453
743.766	4670
743.878	5114
743.990	5827
744.103	5278
744.215	5674
744.327	3892
744.440	5998
744.552	5153
744.664	4294
744.777	4771
744.889	5042
745.001	5706
745.113	5140
745.226	4966
745.338	5087
745.450	5172
745.562	4698
745.674	4461
745.786	4280
745.898	4328
746.010	5198
746.122	5448
746.234	4803
746.347	5187
746.459	5452
746.570	4974
746.682	5692
746.794	4973
746.906	5248
747.018	5189
747.130	5002
747.242	5843
747.354	4735
747.466	5514
747.577	4565
747.689	6084
747.801	5091
747.913	4678
748.024	4498
748.136	4250
748.248	4556
748.359	5432
748.471	4673
748.583	5168
748.694	5093
748.806	5051
748.918	5422
749.029	4575
749.141	5093
749.252	4847
749.364	5178
749.475	5611
749.587	5373
749.698	4889
749.809	5248
749.921	5240
750.032	5836
750.144	4979
750.255	4385
750.366	5165
750.478	5180
750.589	4877
750.700	4420
750.811	4872
750.923	4977
751.034	5166
751.145	5767
751.256	4686
751.367	5598
751.479	4926
751.590	4332
751.701	4347
751.812	4651
751.923	5056
752.034	4850
752.145	4917
752.256	4917
752.367	5233
752.478	5135
752.589	5285
752.700	4995
752.811	4335
752.922	4655
753.032	5046
753.143	5219
753.254	4456
753.365	4958
753.476	5064
753.586	4839
753.697	5505
753.808	4648
753.919	5961
754.029	4582
754.140	5543
754.251	5101
754.361	5094
754.472	4715
754.582	4902
754.693	5979
754.804	5597
754.914	5192
755.025	5040
755.135	6064
755.246	5056
755.356	4392
755.466	5237
755.577	5432
755.687	5589
755.798	5138
755.908	6185
756.018	5287
756.129	5057
756.239	5734
756.349	5114
756.460	5799
756.570	5473
756.680	4802
756.790	5130
756.900	6142
757.011	4721
757.121	5793
757.231	5842
757.341	5966
757.451	5877
757.561	5059
757.671	5306
757.781	5214
757.891	6089
758.001	6198
758.111	6303
758.221	5833
758.331	6491
758.441	6190
758.551	6399
758.661	6859
758.771	5975
758.880	6852
758.990	5837
759.100	6788
759.210	5989
759.320	7385
759.429	6871
759.539	7061
759.649	6046
759.758	7305
759.868	7986
759.978	7283
760.087	7608
760.197	7651
760.307	8362
760.416	7724
760.526	7749
760.635	7926
760.745	8569
760.854	7969
760.964	8050
761.073	8888
761.182	9397
761.292	9509
761.401	8746
761.511	7735
761.620	8825
761.729	8578
761.839	9549
761.948	9722
762.057	10081
762.166	9828
762.276	9827
762.385	12145
762.494	10967
762.603	11959
762.712	12377
762.822	11892
762.931	13302
763.040	12862
763.149	14171
763.258	14458
763.367	15022
763.476	15483
763.585	16244
763.694	17517
763.803	17608
763.912	19624
764.021	20042
764.130	20684
764.238	22430
764.347	23993
764.456	25981
764.565	26935
764.674	29831
764.783	32682
764.891	35183
765.000	40760
765.109	45296
765.217	51603
765.326	58913
765.435	72019
765.543	85119
765.652	107098
765.761	136290
765.869	180810
765.978	246496
766.086	340743
766.195	460915
766.303	529302
766.412	386199
766.520	426904
766.629	509150
766.737	414591
766.846	303619
766.954	223239
767.062	169238
767.171	131983
767.279	106602
767.387	87585
767.496	72078
767.604	62266
767.712	55135
767.820	49185
767.928	45780
768.037	42027
768.145	39255
768.253	37895
768.361	35910
768.469	36587
768.577	37029
768.685	38814
768.793	41262
768.901	45689
769.009	52142
769.117	61512
769.225	78145
769.333	106963
769.441	157593
769.549	245424
769.657	386323
769.765	478423
769.873	385787
769.981	446404
770.088	344600
770.196	228675
770.304	158538
770.412	115912
770.519	89476
770.627	71557
770.735	58829
770.842	49736
770.950	41870
771.058	38160
771.165	34391
771.273	31172
771.380	27826
771.488	26832
771.595	24648
771.703	21693
771.810	21867
771.918	19841
772.025	18938
772.133	17638
772.240	16699
772.348	17297
772.455	14943
772.562	13536
772.670	13618
772.777	13962
772.884	13151
772.991	12417
773.099	12425
773.206	11544
773.313	11817
773.420	11135
773.528	10469
773.635	10474
773.742	10894
773.849	9863
773.956	10290
774.063	9593
774.170	9469
774.277	9233
774.384	9073
774.491	9729
774.598	8766
774.705	8799
774.812	8343
774.919	8469
775.026	7651
775.133	8175
775.239	7631
775.346	7749
775.453	7191
775.560	7025
775.667	7216
775.773	6440
775.880	8497
775.987	6509
776.093	7233
776.200	7164
776.307	6842
776.413	6703
776.520	6282
776.627	6987
776.733	6116
776.840	5036
776.946	7631
777.053	6054
777.159	6248
777.266	4371
777.372	7380
777.478	5562
777.585	5600
777.691	6454
777.798	5772
777.904	5670
778.010	5959
778.117	6087
778.223	4804
778.329	5017
778.435	5659
778.542	4905
778.648	5163
778.754	4814
778.860	5208
778.966	5247
779.072	5055
779.178	5122
779.284	4972
779.391	5512
779.497	5444
779.603	9506
779.708	12552
779.815	30194
779.920	97879
780.026	142188
780.132	27178
780.238	8182
780.344	6853
780.450	6593
780.556	5504
780.661	5276
780.767	4792
780.873	4285
780.979	4660
781.085	3517
781.190	4533
781.296	3952
781.402	3779
781.507	4120
781.613	3789
781.719	3431
781.824	4234
781.930	4708
782.035	3824
782.141	4016
782.246	3325
782.352	4318
782.457	3884
782.563	4755
782.668	3355
782.773	3413
782.879	3476
782.984	4691
783.090	4437
783.195	4445
783.300	4224
783.405	3855
783.511	3630
783.616	4016
783.721	3874
783.826	3557
783.932	3983
784.037	3206
784.142	3598
784.247	3299
784.352	3789
784.457	2844
784.562	3219
784.667	3068
784.772	2914
784.877	2542
784.982	3811
785.087	3541
785.192	3443
785.297	3626
785.402	2906
785.507	2629
785.611	2803
785.716	2384
785.821	3215
785.926	2604
786.031	3561
786.135	3027
786.240	2393
786.345	2524
786.450	3179
786.554	2708
786.659	2641
786.763	1856
786.868	3042
786.973	3375
787.077	2936
787.182	3149
787.286	2595
787.391	2899
787.495	2019
787.600	2457
787.704	2367
787.809	2982
787.913	2705
788.017	2902
788.122	2698
788.226	3041
788.330	2311
788.435	2398
788.539	2931
788.643	1647
788.747	2534
788.852	2163
788.956	2071
789.060	3025
789.164	2700
789.268	2506
789.372	2532
789.476	2687
789.580	2498
789.684	2009
789.788	3174
789.892	2656
789.996	2840
790.100	1977
790.204	2816
790.308	2119
790.412	2496
790.516	2090
790.620	2229
790.724	3628
790.828	2458
790.931	2022
791.035	3766
791.139	3846
791.242	2242
791.346	2799
791.450	2349
791.554	2265
791.657	1407
791.761	3363
791.864	2744
791.968	1999
792.072	2619
792.175	1270
792.279	2797
792.382	2079
792.486	2426
792.589	2179
792.693	2305
792.796	1920
792.899	2608
793.003	1988
793.106	1258
793.209	1811
793.313	2440
793.416	902
793.519	2882
793.623	2669
793.726	2723
793.829	1933
793.932	2866
794.035	1644
794.138	3863
794.242	3336
794.345	3902
794.448	7624
794.551	16174
794.654	57712
794.757	93780
794.860	17772
794.963	4138
795.066	2236
795.169	3707
795.272	1775
795.375	3090
795.477	2155
795.580	3226
795.683	1214
795.786	2279
795.889	1263
795.991	2393
796.094	2417
796.197	813
796.300	2193
796.402	1404
796.505	1806
796.608	2042
796.710	2061
796.813	1608
796.915	1314
797.018	1936
797.120	1778
797.223	854
797.326	2450
797.428	1733
797.530	1551
797.633	1748
797.735	2818
797.838	1371
797.940	2780
798.042	1746
798.145	1283
798.247	2333
798.349	1032
798.452	1808
798.554	1140
798.656	1147
798.758	2633
798.860	1295
798.962	1135
799.065	1944
799.167	886
799.269	2713
799.371	1330
799.473	1308
799.575	450
799.677	1975
799.779	2553
799.881	860
799.983	1691
800.085	2358
800.187	1782
800.289	818
800.390	1514
800.492	1673
800.594	2072
800.696	1689
800.798	2231
800.899	1661
801.001	1105
801.103	1635
801.205	1230
801.306	1607
801.408	785
801.509	1170
801.611	1008
801.713	1530
801.814	1155
801.916	1197
802.017	1385
802.119	1066
802.220	1066
802.322	347
802.423	2404
802.525	485
802.626	1874
802.727	1989
802.829	1312
802.930	477
803.031	2440
803.133	1039
803.234	1316
803.335	1506
803.436	647
803.538	1132
803.639	552
803.740	1508
803.841	465
803.942	1537
804.043	1189
804.144	537
804.245	1333
804.346	653
804.447	377
804.548	382
804.649	1628
804.750	1081
804.851	1559
804.952	1199
805.053	1107
805.154	617
805.255	1179
805.355	1057
805.456	251
805.557	878
805.658	80
805.758	2006
805.859	1474
805.960	1343
806.061	983
806.161	1581
806.262	855
806.362	662
806.463	698
806.564	1010
806.664	790
806.765	1259
806.865	1077
806.966	1610
807.066	1445
807.166	1381
807.267	1488
807.367	1028
807.468	908
807.568	764
807.668	1804
807.769	1623
807.869	931
807.969	605
808.069	14
808.170	1019
808.270	457
808.370	935
808.470	1126
808.570	113
808.670	1425
808.770	1701
808.870	258
808.970	1309
809.070	879
809.170	472
809.271	1024
809.370	-178
809.470	1370
809.570	783
809.670	689
809.770	996
809.870	958
809.970	1275
810.070	1577
810.169	1701
810.269	-1125
810.369	1886
810.469	1258
810.568	1103
810.668	965
810.768	-118
810.867	794
810.967	459
811.066	1193
811.166	1510
811.265	966
811.365	430
811.464	505
811.564	1321
811.663	1186
811.763	-519
811.862	43
811.962	786
812.061	245
812.160	622
812.260	939
812.359	935
812.458	518
812.557	2675
812.657	3509
812.756	1840
812.855	839
812.954	896
813.053	1041
813.153	1216
813.252	167
813.351	1124
813.450	889
813.549	547
813.648	1345
813.747	55
813.846	134
813.945	684
814.044	1182
814.143	996
814.242	724
814.341	-115
814.439	275
814.538	974
814.637	790
814.736	804
814.835	694
814.933	8
815.032	1822
815.131	867
815.229	867
815.328	1219
815.427	1343
815.525	1471
815.624	921
815.722	324
815.821	431
815.919	840
816.018	1429
816.116	2345
816.215	1101
816.313	1396
816.412	1252
816.510	2051
816.609	3099
816.707	1804
816.805	945
816.904	637
817.002	1320
817.100	1744
817.198	2034
817.296	1337
817.395	1325
817.493	1929
817.591	1504
817.689	1554
817.787	1520
817.885	3141
817.983	4586
818.081	10353
818.179	22085
818.277	55250
818.375	43491
818.473	9829
818.571	4563
818.669	2942
818.767	2573
818.865	2750
818.963	3536
819.061	4840
819.158	7824
819.256	19053
819.354	42281
819.452	88605
819.549	51649
819.647	13453
819.745	5389
819.842	3613
819.940	2719
820.038	1611
820.135	1750
820.233	2377
820.330	938
820.428	672
820.525	1746
820.623	1656
820.720	635
820.818	1075
820.915	1626
821.012	555
821.110	720
821.207	1435
821.304	506
821.402	1297
821.499	865
821.596	2341
821.693	804
821.791	1204
821.888	852
821.985	814
822.082	636
822.179	1932
822.276	413
822.373	642
822.470	345
822.567	862
822.664	271
822.761	1408
822.858	-279
822.955	1669
823.052	1540
823.149	988
823.246	1681
823.343	-219
823.440	1349
823.536	5
823.633	642
823.730	1019
823.827	1571
823.923	875
824.020	1363
824.117	784
824.213	556
824.310	938
824.407	703
824.503	722
824.600	1059
824.696	1129
824.793	891
824.889	257
824.986	1265
825.082	456
825.179	1350
825.275	953
825.371	-18
825.468	717
825.564	-241
825.660	1470
825.757	1305
825.853	912
825.949	338
826.045	351
826.142	-130
826.238	411
826.334	751
826.430	-723
826.526	465
826.622	302
826.718	311
826.814	1330
826.910	895
827.006	456
827.102	-528
827.198	2107
827.294	-341
827.390	624
827.486	724
827.582	-271
827.678	-166
827.774	1492
827.869	86
827.965	1893
828.061	246
828.157	1102
828.252	1090
828.348	841
828.444	592
828.539	327
828.635	-34
828.731	1139
828.826	-196
828.922	1113
829.017	261
829.113	931
829.208	-184
829.304	-400
829.399	1217
829.495	502
829.590	1233
829.685	196
829.781	434
829.876	-624
829.971	105
830.066	405
830.162	162
830.257	486
830.352	199
830.447	1275
830.543	376
830.638	-899
830.733	1265
830.828	23
830.923	473
831.018	477
831.113	380
831.208	-75
831.303	289
831.398	511
831.493	492
831.588	960
831.683	-717
831.778	853
831.873	490
831.967	1591
832.062	-523
832.157	-95
832.252	1506
832.346	319
832.441	456
832.536	775
832.631	1320
832.725	1318
832.820	552
832.914	-381
833.009	-202
833.104	542
833.198	649
833.293	-460
833.387	-368
833.482	-227
833.576	-313
833.670	583
833.765	528
833.859	-537
833.954	1126
834.048	288
834.142	854
834.237	-43
834.331	-167
834.425	-392
834.519	307
834.613	501
834.708	163
834.802	666
834.896	-207
834.990	225
835.084	884
835.178	-16
835.272	100
835.366	-22
835.460	580
835.554	628
835.648	911
835.742	-583
835.836	-341
835.930	-288
836.024	601
836.117	426
836.211	337
836.305	327
836.399	309
836.493	-836
836.586	666
836.680	-176
836.774	477
836.867	1901
836.961	-506
837.055	44
837.148	-970
837.242	833
837.335	505
837.429	286
837.522	-260
837.616	14
837.709	1101
837.803	87
837.896	677
837.989	731
838.083	458
838.176	-347
838.269	-211
838.363	182
838.456	-255
838.549	1305
838.642	711
838.735	687
838.829	849
838.922	25
839.015	166
839.108	511
839.201	839
839.294	843
839.387	19
839.480	-294
839.573	-235
839.666	415
839.759	71
839.852	-1135
839.945	-247
840.038	-336
840.131	-227
840.223	186
840.316	768
840.409	-356
840.502	-94
840.594	508
840.687	-707
840.780	426
840.873	84
840.965	418
841.058	453
841.150	298
841.243	-414
841.336	1295
841.428	382
841.521	-607
841.613	-82
841.706	660
841.798	617
841.890	-72
841.983	-1154
842.075	-5
842.167	-426
842.260	67
842.352	792
842.444	825
842.537	328
842.629	1132
842.721	1061
842.813	284
842.905	-92
842.997	411
843.090	-825
843.182	310
843.274	102
843.366	1760
843.458	1762
843.550	1331
843.642	-183
843.734	448
843.826	338
843.918	-118
844.009	788
844.101	-208
844.193	-12
844.285	-565
844.377	241
844.469	-615
844.560	-81
844.652	-614
844.744	-340
844.835	-316
844.927	-160
845.019	396
845.110	-597
845.202	-384
845.293	69
845.385	395
845.476	-408
845.568	1271
845.659	265
845.751	546
845.842	637
845.934	-477
846.025	-68
846.116	358
846.208	-20
846.299	-485
846.390	507
846.482	15
846.573	256
846.664	191
846.755	-365
846.846	607
846.937	-1514
847.029	120
847.120	-447
847.211	164
847.302	1317
847.393	-854
847.484	50
847.575	116
847.666	-428
847.757	60
847.847	30
847.938	122
848.029	-668
848.120	-345
848.211	13
848.302	-633
848.392	-315
848.483	223
848.574	-99
848.664	-66
848.755	24
848.846	539
848.936	-493
849.027	159
849.118	78
849.208	-302
849.299	-117
849.389	401
849.480	266
849.570	43
849.661	654
849.751	1198
849.841	-222
849.932	-52
850.022	-376
850.112	37
850.203	-201
850.293	-449
850.383	28
850.474	-296
850.564	228
850.654	95
850.744	-371
850.834	432
850.924	23
851.014	-183
851.104	-983
851.194	51
851.284	-72
851.374	-151
851.464	336
851.554	-294
851.644	-179
851.734	1306
851.824	1649
851.914	2502
852.004	6414
852.094	5653
852.183	787
852.273	399
852.363	-1005
852.452	-327
852.542	157
852.632	-281
852.721	545
852.811	-826
852.901	-218
852.990	166
853.080	643
853.169	274
853.259	-77
853.348	-572
853.438	-383
853.527	-350
853.617	-362
853.706	490
853.795	621
853.885	1301
853.974	3060
854.063	4790
854.152	7235
854.242	3079
854.331	-14
854.420	226
854.509	64
854.598	-260
854.687	-244
854.777	-693
854.866	-363
854.955	-245
855.044	-79
855.133	-370
855.222	-1033
855.311	-1091
855.400	75
855.488	-389
855.577	-16
855.666	111
855.755	71
855.844	869
855.933	-270
856.021	133
856.110	-682
856.199	-883
856.288	-284
856.376	-689
856.465	-153
856.554	522
856.642	260
856.731	-395
856.819	553
856.908	39
856.996	538
857.085	-339
857.173	368
857.262	-990
857.350	-343
857.438	-6
857.527	143
857.615	220
857.703	156
857.792	-435
857.880	-139
857.968	-432
858.056	355
858.145	-97
858.233	-345
858.321	-521
858.409	240
858.497	-1404
858.585	-137
858.673	240
858.761	-877
858.849	-431
858.937	-909
859.025	174
859.113	545
859.201	-526
859.289	652
859.377	-128
859.465	627
859.552	-677
859.640	-752
859.728	730
859.816	-143
859.903	-326
859.991	-204
860.079	-20
860.166	-487
860.254	-206
860.342	-621
860.429	337
860.517	-712
860.604	-326
860.692	525
860.779	-412
860.867	-395
860.954	-225
861.042	-480
861.129	-317
861.216	-804
861.304	-633
861.391	-295
861.478	-139
861.565	-156
861.653	547
861.740	-596
861.827	-446
861.914	-482
862.001	-663
862.089	113
862.176	-616
862.263	-367
862.350	-4
862.437	-1084
862.524	-925
862.611	-778
862.698	-722
862.785	273
862.871	316
862.958	-496
863.045	-834
863.132	-667
863.219	-29
863.306	-734
863.392	1099
863.479	-389
863.566	48
863.652	-87
863.739	-494
863.826	-187
863.912	-693
863.999	-1043
864.086	-560
864.172	-932
864.259	-1049
864.345	-934
864.432	-588
864.518	102
864.604	-344
864.691	-454
864.777	-624
864.863	6
864.950	19
865.036	-701
865.122	-385
865.209	748
865.295	238
865.381	-140
865.467	346
865.553	-130
865.639	-543
865.726	-105
865.812	814
865.898	1531
865.984	1959
866.070	4065
866.156	4244
866.242	1232
866.328	566
866.414	-449
866.499	134
866.585	-260
866.671	-342
866.757	-132
866.843	449
866.928	-415
867.014	117
867.100	435
867.186	-501
867.271	107
867.357	184
867.442	922
867.528	465
867.614	-317
867.699	-208
867.785	50
867.870	-188
867.956	193
868.041	575
868.127	599
868.212	-193
868.297	179
868.383	-102
868.468	-324
868.553	1005
868.639	236
868.724	375
868.809	433
868.894	-209
868.979	-22
869.065	-172
869.150	-538
869.235	-417
869.320	-407
869.405	-350
869.490	-575
869.575	-826
869.660	-183
869.745	-313
869.830	-757
869.915	-1045
870.000	-657
870.085	-62
870.169	-556
870.254	-585
870.339	-117
870.424	-638
870.509	138
870.593	-71
870.678	-510
870.763	-585
870.847	-7
870.932	-557
871.016	-273
871.101	-373
871.186	-339
871.270	-206
871.355	-450
871.439	-411
871.523	-633
871.608	32
871.692	-157
871.777	218
871.861	166
871.945	-759
872.030	487
872.114	-318
872.198	-281
872.282	-972
872.367	189
872.451	-932
872.535	-644
872.619	-415
872.703	-690
872.787	-261
872.871	76
872.955	-454
873.039	-414
873.123	-357
873.207	-251
873.291	-1164
873.375	-293
873.459	-70
873.543	-896
873.627	-1431
873.711	-730
873.794	-542
873.878	-733
873.962	-1056
874.045	-684
874.129	-551
874.137	-514
874.213	-149
874.245	-592
874.296	-1310
874.352	-1136
874.380	-1054
874.460	-269
874.464	-239
874.547	-763
874.568	-566
874.631	34
874.676	84
874.714	117
874.784	453
874.798	524
874.881	384
874.892	306
874.965	-259
874.999	-338
875.048	-460
875.107	-712
875.131	-824
875.215	-566
875.215	-565
875.298	-631
875.323	-333
875.381	382
875.430	50
875.465	-199
875.538	-267
875.548	-277
875.631	-791
875.646	-885
875.714	-1337
875.753	-959
875.798	-534
875.861	-366
875.881	-307
875.964	-11
875.968	-46
876.047	-626
876.076	-547
876.130	-445
876.183	-924
876.213	-1181
876.291	174
876.296	270
876.379	-835
876.398	-699
876.462	-338
876.506	-60
876.545	238
876.613	422
876.628	443
876.711	416
876.721	342
876.794	-133
876.828	-229
876.877	-441
876.935	-127
876.960	73
877.043	248
877.043	243
877.125	-817
877.150	-502
877.208	248
877.258	223
877.291	230
877.365	-267
877.374	-327
877.456	-710
877.472	-589
877.539	-150
877.579	-57
877.622	151
877.687	-22
877.704	-125
877.787	-472
877.794	-420
877.869	433
877.901	455
877.952	229
878.008	-342
878.034	-499
878.115	206
878.117	221
878.199	-420
878.222	-244
878.282	366
878.329	273
878.364	85
878.437	771
878.447	866
878.529	-226
878.544	-193
878.611	15
878.651	246
878.694	579
878.758	616
878.776	549
878.858	-273
878.865	-272
878.941	114
878.972	423
879.023	739
879.078	300
879.105	205
879.185	-50
879.187	-53
879.269	298
879.292	296
879.351	332
879.399	603
879.433	662
879.506	660
879.516	682
879.598	75
879.613	98
879.680	230
879.720	190
879.762	175
879.827	449
879.844	501
879.926	376
879.933	381
880.007	164
880.040	-118
880.089	-18
880.147	35
880.171	-38
880.253	915
880.254	908
880.335	-56
880.360	-114
880.417	197
880.467	991
880.499	1401
880.574	1564
880.580	1584
880.662	968
880.680	1128
880.744	1222
880.787	779
880.825	527
880.893	753
880.907	816
880.989	520
881.000	447
881.070	123
881.106	351
881.152	573
881.213	526
881.233	589
881.315	1064
881.319	1071
881.396	847
881.426	625
881.478	503
881.532	733
881.559	723
881.639	398
881.641	402
881.722	826
881.745	760
881.803	727
881.852	663
881.885	550
881.958	928
881.966	965
882.047	1632
882.064	1512
882.129	1043
882.171	878
882.210	832
882.277	1128
882.291	1198
882.372	1330
882.383	1331
882.454	1290
882.489	1277
882.535	1156
882.596	1028
882.616	1052
882.697	814
882.702	829
882.778	1222
882.808	1172
882.859	889
882.914	842
882.940	951
883.020	981
883.021	988
883.102	1345
883.127	1366
883.183	1183
883.233	1039
883.264	966
883.339	966
883.345	990
883.426	1031
883.445	1129
883.507	1320
883.551	953
883.587	774
883.657	969
883.668	1044
883.749	1698
883.763	1781
883.830	1520
883.869	1150
883.910	919
883.975	795
883.991	893
884.072	1567
884.081	1605
884.152	1294
884.187	1133
884.233	1341
884.292	1616
884.314	1510
884.394	831
884.398	811
884.475	1387
884.504	1593
884.555	1460
884.610	945
884.636	976
884.716	1579
884.716	1588
884.797	1719
884.821	1655
884.877	1634
884.927	1630
884.958	1527
885.033	1192
885.038	1218
885.118	1581
885.139	1702
885.199	1786
885.244	1784
885.279	1938
885.350	2083
885.359	2025
885.439	1528
885.456	1370
885.520	1708
885.561	2335
885.600	2035
885.667	873
885.680	948
885.760	1565
885.773	1668
885.840	1715
885.878	1621
885.920	1726
885.984	1907
886.000	1837
886.080	1572
886.089	1516
886.160	1770
886.195	1915
886.240	1872
886.300	1689
886.320	1739
886.400	2291
886.406	2299
886.480	1772
886.511	1508
886.560	1698
886.616	2095
886.640	2026
886.720	1490
886.722	1468
886.800	1927
886.827	2104
886.879	1916
886.932	1757
886.959	2038
887.038	2785
887.039	2787
887.119	1788
887.143	1515
887.198	1752
887.248	2084
887.278	2177
887.354	1914
887.358	1912
887.437	1956
887.459	1902
887.517	1742
887.564	1722
887.596	2077
887.669	2777
887.676	2764
887.755	2468
887.774	2368
887.835	2387
887.880	2435
887.914	2180
887.985	1568
887.994	1666
888.073	2491
888.090	2640
888.153	2731
888.195	2791
888.232	2544
888.300	2110
888.311	2108
888.391	1971
888.405	1930
888.470	2375
888.510	2667
888.549	2381
888.615	1879
888.628	1920
888.708	2093
888.720	2102
888.787	2166
888.825	2202
888.866	2114
888.930	1980
888.945	2083
889.024	2573
889.035	2623
889.103	2690
889.140	2729
889.182	2433
889.245	1947
889.261	2128
889.340	2962
889.349	3045
889.419	2713
889.454	2536
889.498	2573
889.559	2598
889.577	2603
889.656	2583
889.664	2574
889.735	2564
889.768	2546
889.814	2603
889.873	2660
889.978	3120
890.083	2829
890.187	2397
890.292	2860
890.397	2586
890.501	2971
890.606	2565
890.710	2226
890.815	2999
890.919	2978
891.024	2462
891.128	2623
891.233	2821
891.337	2860
891.442	2672
891.546	2245
891.650	2492
891.755	2248
891.859	3332
891.963	1903
892.068	2107
892.172	2332
892.276	2266
892.380	2111
892.484	3157
892.589	2297
892.693	2639
892.797	1869
892.901	1793
893.005	1905
893.109	2186
893.213	2172
893.317	2864
893.421	2543
893.525	2081
893.629	1833
893.733	3285
893.837	2119
893.941	2948
894.045	3443
894.148	4089
894.252	8326
894.356	5795
894.460	2721
894.564	2719
894.667	2505
894.771	2741
894.875	672
894.978	2234
895.082	1545
895.186	2482
895.289	1963
895.393	2419
895.496	2794
895.600	2069
895.703	2102
895.807	2983
895.910	2274
896.014	2576
896.117	1701
896.221	1851
896.324	1359
896.427	2674
896.531	1365
896.634	2720
896.737	1051
896.840	2349
896.944	1759
897.047	1824
897.150	1596
897.253	1967
897.356	2089
897.460	2164
897.563	1652
897.666	2092
897.769	1921
897.872	2632
897.975	1436
898.078	1821
898.181	1406
898.284	1556
898.387	1803
898.490	2029
898.593	1246
898.695	1679
898.798	1433
898.901	2115
899.004	1594
899.107	1704
899.209	2746
899.312	2275
899.415	1638
899.518	1658
899.620	1078
899.723	1518
899.826	2034
899.928	2817
900.031	1266
900.133	2076
900.236	1401
900.338	1798
900.441	1813
900.543	2630
900.646	1289
900.748	2483
900.851	2065
900.953	2086
901.055	1703
901.158	2007
901.260	1172
901.362	2407
901.465	1108
901.567	1887
901.669	2293
901.771	2420
901.873	802
901.976	2704
902.078	2085
902.180	2279
902.282	1429
902.384	2230
902.486	2049
902.588	1904
902.690	1712
902.792	2091
902.894	1968
902.996	2144
903.098	1784
903.200	1445
903.302	1037
903.404	2740
903.505	1077
903.607	2002
903.709	2030
903.811	2039
903.913	1985
904.014	2120
904.116	752
904.218	2277
904.319	1952
904.421	2827
904.523	1844
904.624	2085
904.726	1713
904.827	1919
904.929	1547
905.030	1802
905.132	1595
905.233	2024
905.335	2196
905.436	1979
905.537	1074
905.639	1768
905.740	1485
905.841	2413
905.943	1577
906.044	2316
906.145	1716
906.247	2122
906.348	2510
906.449	1792
906.550	1995
906.651	2421
906.752	1632
906.854	1785
906.955	1319
907.056	2235
907.157	1651
907.258	2017
907.359	1617
907.460	1321
907.561	1981
907.662	2448
907.762	1265
907.863	1796
907.964	1449
908.065	2659
908.166	1920
908.267	1789
908.367	1674
908.468	2581
908.569	1593
908.670	2278
908.770	1830
908.871	2313
908.971	2015
909.072	2632
909.173	1809
909.273	3093
909.374	1385
909.474	2840
909.575	2105
909.675	2280
909.776	1937
909.876	2197
909.977	1517
910.077	2263
910.177	1274
910.278	2506
910.378	1933
910.478	2114
910.579	2092
910.679	1731
910.779	1551
910.879	2030
910.980	818
911.080	2470
911.180	1278
911.280	1860
911.380	1771
911.480	1986
911.580	1282
911.680	2563
911.780	1833
911.880	2153
911.980	1878
912.080	2394
912.180	1050
912.280	2770
912.380	1736
912.480	1949
912.580	1395
912.679	1802
912.779	1811
912.879	1498
912.979	2460
913.078	1488
913.178	1420
913.278	1761
913.377	927
913.477	1766
913.577	1846
913.676	2642
913.776	1305
913.875	1596
913.975	1700
914.074	2209
914.174	1634
914.273	1665
914.373	1856
914.472	2244
914.572	1633
914.671	2339
914.770	1474
914.870	2614
914.969	1729
915.068	1859
915.167	1755
915.267	1811
915.366	959
915.465	2259
915.564	1350
915.663	2074
915.763	1448
915.862	1909
915.961	1682
916.060	2148
916.159	1733
916.258	2156
916.357	1573
916.456	2251
916.555	1944
916.654	2166
916.752	2479
916.851	2297
916.950	1785
917.049	1365
917.148	1291
917.247	2379
917.345	1836
917.444	2120
917.543	1323
917.642	2272
917.740	1378
917.839	2259
917.937	2460
918.036	2523
918.135	1691
918.233	2360
918.332	1589
918.430	2082
918.529	1948
918.627	1366
918.726	1689
918.824	2697
918.923	815
919.021	1995
919.119	1100
919.218	2124
919.316	1469
919.414	2254
919.512	1674
919.611	2487
919.709	1467
919.807	1888
919.905	2549
920.003	1904
920.102	2089
920.200	2513
920.298	2119
920.396	1872
920.494	1433
920.592	2455
920.690	2451
920.788	2299
920.886	1146
920.984	2465
921.082	1278
921.180	2562
921.277	1466
921.375	2457
921.473	2331
921.571	2062
921.669	1759
921.766	2798
921.864	2344
921.962	3192
922.060	1861
922.157	2449
922.255	1702
922.352	2592
922.450	2908
922.548	1877
922.645	1011
922.743	3188
922.840	2808
922.938	4834
923.035	3218
923.133	4416
923.230	3738
923.327	4092
923.425	4152
923.522	4249
923.619	3494
923.717	3232
923.814	4243
923.911	4019
924.008	3677
924.106	3703
924.203	3070
924.300	3869
924.397	3121
924.494	3999
924.591	2370
924.688	3235
924.786	2444
924.883	3320
924.979	3326
925.077	3717
925.173	3517
925.270	3746
925.367	2793
925.464	4358
925.561	3613
925.658	3485
925.755	3581
925.852	3624
925.948	2979
926.045	3445
926.142	2218
926.239	3100
926.335	2728
926.432	2976
926.529	2421
926.625	3295
926.722	3244
926.818	2894
926.915	3398
927.011	3764
927.108	2784
927.204	4167
927.301	3294
927.397	3700
927.494	3741
927.590	2853
927.687	2664
927.783	3718
927.879	2586
927.976	2977
928.072	2191
928.168	3060
928.264	2349
928.361	3211
928.457	3228
928.553	2502
928.649	2704
928.745	2721
928.841	3385
928.937	2807
929.033	2612
929.129	3070
929.225	2577
929.321	2233
929.417	1773
929.513	3488
929.609	3151
929.705	2545
929.801	1933
929.897	2621
929.993	2742
930.089	2487
930.184	2376
930.280	3152
930.376	2931
930.471	2786
930.567	2423
930.663	3371
930.758	2158
930.854	3107
930.950	2918
931.045	3027
931.141	3082
931.236	3455
931.332	1867
931.427	2191
931.523	2240
931.618	3399
931.714	2111
931.809	2728
931.905	2098
932.000	2036
932.095	1612
932.191	2728
932.286	2170
932.381	2962
932.476	1763
932.572	2528
932.667	2502
932.762	1828
932.857	2821
932.952	2112
933.047	1980
933.142	1823
933.237	1854
933.332	2443
933.427	1911
933.522	2367
933.617	1418
933.712	2166
933.807	2239
933.902	3104
933.997	1958
934.092	2167
934.187	1455
934.282	2112
934.376	2211
934.471	2712
934.566	1728
934.661	2858
934.755	1777
934.850	2531
934.945	1508
935.039	2142
935.134	1657
935.228	3248
935.323	2467
935.417	2217
935.512	1397
935.606	2021
935.701	1886
935.795	2275
935.890	1845
935.984	2290
936.079	1737
936.173	2424
936.267	1170
936.362	1812
936.456	1343
936.550	3165
936.644	1713
936.738	2155
936.833	1582
936.927	2779
937.021	1737
937.115	2457
937.209	1417
937.303	3558
937.397	2304
937.491	2814
937.585	2348
937.679	2924
937.773	936
937.867	2192
937.961	1373
938.055	2362
938.149	1483
938.243	1655
938.337	1207
938.430	1649
938.524	2140
938.618	2445
938.712	938
938.805	1946
938.899	1522
938.993	2212
939.086	1763
939.180	1535
939.274	1379
939.367	2143
939.461	1226
939.554	2225
939.648	1349
939.741	1126
939.835	1883
939.928	2328
940.022	1966
940.115	1736
940.208	1550
940.302	2352
940.395	2248
940.488	1498
940.582	2024
940.675	1342
940.768	982
940.861	1874
940.954	2142
941.048	1018
941.141	1186
941.234	1059
941.327	998
941.420	1830
941.513	1638
941.606	1594
941.699	1805
941.792	2046
941.885	1565
941.978	1901
942.071	1927
942.164	1459
942.257	1793
942.349	1748
942.442	985
942.535	1372
942.628	1571
942.721	2090
942.813	1283
942.906	1948
942.999	979
943.091	1548
943.184	1523
943.277	1259
943.369	1065
943.462	1406
943.554	854
943.647	1168
943.739	1814
943.832	1612
943.924	24
944.017	1842
944.109	1026
944.201	1868
944.294	1709
944.386	1695
944.478	921
944.571	1841
944.663	2004
944.755	1935
944.847	1650
944.940	2699
945.032	876
945.124	1547
945.216	1876
945.308	1780
945.400	754
945.492	1605
945.584	1158
945.676	1615
945.768	847
945.860	1522
945.952	871
946.044	2274
946.136	1373
946.228	1382
946.320	1008
946.412	2049
946.503	722
946.595	1804
946.687	478
946.779	1522
946.870	950
946.962	1163
947.054	1466
947.145	1131
947.237	1194
947.329	1038
947.420	632
947.512	1395
947.603	793
947.695	731
947.786	859
947.878	1056
947.969	671
948.061	1241
948.152	1246
948.243	1695
948.335	973
948.426	878
948.517	321
948.609	2026
948.700	428
948.791	1772
948.882	881
948.973	1175
949.065	621
949.156	1417
949.247	1278
949.338	2150
949.429	568
949.520	1365
949.611	510
949.702	1821
949.793	739
949.884	1465
949.975	1327
950.066	1198
950.157	989
950.247	824
950.338	1531
950.429	964
950.520	939
950.611	1743
950.701	779
950.792	1279
950.883	944
950.973	1231
951.064	1326
951.155	1446
951.245	990
951.336	1683
951.427	694
951.517	2743
951.608	1169
951.698	1967
951.788	721
951.879	1309
951.969	403
952.060	781
952.150	1319
952.240	2365
952.331	482
952.421	1713
952.511	276
952.602	1532
952.692	488
952.782	1152
952.872	-60
952.962	2014
953.052	1904
953.143	932
953.233	784
953.323	1611
953.413	799
953.503	1393
953.593	1611
953.683	1369
953.773	273
953.863	500
953.953	331
954.042	1604
954.132	467
954.222	1974
954.312	248
954.402	974
954.492	1028
954.581	1128
954.671	54
954.761	1016
954.850	1717
954.940	1288
955.030	483
955.119	260
955.209	1281
955.298	545
955.388	1330
955.477	2085
955.567	537
955.656	1832
955.746	1451
955.835	1099
955.925	1323
956.014	673
956.103	52
956.193	1803
956.282	369
956.371	1349
956.461	987
956.550	476
956.639	1123
956.728	764
956.817	1558
956.906	-66
956.995	1060
957.085	961
957.174	1148
957.263	376
957.352	1477
957.441	1310
957.530	719
957.619	1560
957.708	765
957.796	738
957.885	592
957.974	724
958.063	790
958.152	962
958.241	1161
958.329	1891
958.418	517
958.507	1041
958.596	2399
958.684	1685
958.773	1023
958.861	1265
958.950	927
959.039	2207
959.127	1153
959.216	2308
959.304	1133
959.393	1770
959.481	1418
959.570	1863
959.658	966
959.746	2209
959.835	1103
959.923	1687
960.011	829
960.100	2390
960.188	2014
960.276	783
960.365	1088
960.453	1310
960.541	67
960.629	922
960.717	503
960.805	338
960.893	1175
960.981	1498
961.069	753
961.158	1901
961.245	873
961.333	2177
961.421	1859
961.509	730
961.597	933
961.685	1621
961.773	715
961.861	909
961.949	1641
962.036	1327
962.124	1278
962.212	1370
962.299	893
962.387	944
962.475	447
962.562	990
962.650	658
962.738	1299
962.825	362
962.913	539
963.000	1108
963.088	1268
963.175	484
963.263	1118
963.350	-111
963.438	1359
963.525	1119
963.612	1790
963.700	1708
963.787	4646
963.874	2361
963.962	1358
964.049	868
964.136	1279
964.223	169
964.310	1132
964.398	1122
964.485	949
964.572	1169
964.659	760
964.746	1071
964.833	907
964.920	448
965.007	868
965.094	-30
965.181	430
965.268	170
965.355	441
965.441	788
965.528	477
965.615	1592
965.702	1177
965.789	-170
965.875	1636
965.962	1739
966.049	-150
966.136	1196
966.222	440
966.309	678
966.395	514
966.482	758
966.569	1132
966.655	517
966.742	352
966.828	-5
966.915	729
967.001	210
967.087	542
967.174	921
967.260	465
967.347	13
967.433	1681
967.519	3164
967.605	1059
967.692	618
967.778	1038
967.864	-501
967.950	700
968.036	-471
968.123	937
968.209	209
968.295	-666
968.381	787
968.467	1056
968.553	-526
968.639	978
968.725	-328
968.811	366
968.897	1039
968.983	883
969.069	-121
969.154	855
969.240	1348
969.326	262
969.412	-296
969.497	508
969.583	204
969.669	1012
969.755	493
969.840	450
969.926	604
970.012	474
970.097	-32
970.183	1415
970.268	1071
970.354	487
970.439	339
970.525	2223
970.610	189
970.696	1356
970.781	956
970.866	519
970.952	254
971.037	-366
971.122	242
971.208	917
971.293	360
971.378	-496
971.463	-37
971.549	1414
971.634	-196
971.719	598
971.804	-119
971.889	469
971.974	-55
972.059	603
972.144	-330
972.229	869
972.314	-67
972.399	506
972.484	-791
972.569	1827
972.654	-188
972.739	1916
972.824	933
972.908	574
972.993	116
973.078	477
973.163	193
973.247	920
973.332	-1545
973.417	1158
973.501	-507
973.586	67
973.671	410
973.755	411
973.840	1080
973.924	336
974.009	808
974.093	250
974.178	1307
974.262	1236
974.346	645
974.431	914
974.515	-479
974.600	-199
974.684	349
974.768	-126
974.852	359
974.937	-204
975.021	92
975.105	412
975.189	-385
975.273	-275
975.358	172
975.442	478
975.526	239
975.610	112
975.694	-624
975.778	2446
975.862	-1118
975.946	-892
976.030	1728
976.114	240
976.198	-608
976.281	213
976.365	180
976.449	118
976.533	866
976.617	-529
976.700	-501
976.784	559
976.868	-309
976.951	323
977.035	210
977.119	-101
977.202	47
977.286	535
977.369	-673
977.453	1076
977.536	-977
977.620	-283
977.703	597
977.787	-36
977.870	1065
977.953	650
978.037	-1051
978.120	783
978.203	415
978.287	834
978.370	166
978.453	-569
978.536	90
978.620	369
978.703	553
978.786	-170
978.869	-1276
978.952	-502
979.035	205
979.118	401
979.201	-699
979.284	431
979.367	-261
979.450	-406
979.533	-874
979.616	481
979.699	-699
979.782	653
979.865	18
979.948	250
980.030	-212
980.113	333
980.196	-2122
980.279	1466
980.361	-501
980.444	421
980.526	187
980.609	460
980.692	-668
980.774	71
980.857	-1110
980.939	1705
981.022	-998
981.104	-126
981.187	-979
981.269	555
981.352	-226
981.434	-752
981.516	-1210
981.599	767
981.681	-984
981.763	423
981.846	-362
981.928	33
982.010	-823
982.092	-114
982.174	-451
982.256	-19
982.339	-614
982.421	9
982.503	-114
982.585	-1004
982.667	-31
982.749	717
982.831	40
982.913	-830
982.995	929
983.077	107
983.158	-21
983.240	-995
983.322	-416
983.404	593
983.486	-1277
983.568	15
983.649	-756
983.731	905
983.813	201
983.894	42
983.976	-999
984.058	30
984.139	215
984.221	152
984.302	62
984.384	74
984.465	-597
984.547	-65
984.628	-541
984.710	-551
984.791	7
984.872	85
984.954	-570
985.035	186
985.116	-370
985.198	-362
985.279	-803
985.360	-749
985.441	-1094
985.522	696
985.604	-167
985.685	-1498
985.766	413
985.847	965
985.928	-532
986.009	-329
986.090	-1467
986.171	983
986.252	-336
986.333	57
986.414	68
986.495	-416
986.576	-481
986.656	-432
986.737	240
986.818	-205
986.899	-86
986.980	-416
987.060	208
987.141	-415
987.222	-439
987.302	119
987.383	181
987.464	-682
987.544	64
987.625	50
987.705	-213
987.786	8
987.866	-217
987.947	-249
988.027	594
988.108	24
988.188	-136
988.268	60
988.349	-405
988.429	116
988.509	-235
988.589	568
988.670	-1571
988.750	182
988.830	-610
988.910	47
988.990	-406
989.070	-993
989.151	-535
989.231	-433
989.311	-266
989.391	-269
989.471	-476
989.551	-716
989.631	-546
989.711	406
989.791	-1623
989.870	-421
989.950	-130
990.030	-714
990.110	-212
990.190	-458
990.269	-384
990.349	-455
990.429	-1780
990.509	305
990.588	-1153
990.668	398
990.747	-153
990.827	453
990.907	-633
990.986	-77
991.066	70
991.145	-900
991.225	-464
991.304	492
991.383	-450
991.463	-206
991.542	-890
991.622	75
991.701	-581
991.780	-245
991.859	-548
991.939	-172
992.018	-803
992.097	71
992.176	37
992.256	101
992.335	-911
992.414	100
992.493	-597
992.572	-952
992.651	822
992.730	42
992.809	-856
992.888	-635
992.967	-888
993.046	-26
993.125	-753
993.203	284
993.282	-367
993.361	-169
993.440	-540
993.519	-481
993.597	-1008
993.676	-169
993.755	255
993.834	-109
993.912	-1360
993.991	472
994.069	-1119
994.148	-1261
994.226	-485
994.305	-55
994.384	-691
994.462	707
994.540	-769
994.619	-751
994.697	-221
994.776	-794
994.854	-721
994.932	-128
995.011	-140
995.089	-990
995.167	-779
995.245	-164
995.324	-1456
995.402	55
995.480	-525
995.558	-491
995.636	-1024
995.714	-1165
995.792	-355
995.870	-559
995.948	-896
996.026	232
996.104	-1477
996.182	326
996.260	-1171
996.338	-276
996.416	-1625
996.494	195
996.572	-463
996.649	-369
996.727	-803
996.805	355
996.883	-804
996.960	-406
997.038	-473
997.116	-302
997.193	-1924
997.271	897
997.348	-2096
997.426	-744
997.504	-825
997.581	-973
997.658	-1120
997.736	-1649
997.813	-1045
997.891	-108
997.968	-1528
998.046	-283
998.123	-1652
998.200	46
998.277	-2040
998.355	364
998.432	-2045
998.509	-692
998.586	-840
998.663	-67
998.741	-687
998.818	-116
998.895	-1681
998.972	166
999.049	-973
999.126	-1016
999.203	-277
999.280	5
999.357	-1489
999.434	-1188
999.511	-1029
999.587	-320
999.664	-1342
999.741	-872
999.818	-355
999.895	-1398
999.971	-1212
1000.048	-878
1000.125	-314
1000.202	-820
1000.278	-1477
1000.355	-590
1000.431	-1582
1000.508	-642
1000.584	-889
1000.661	-1065
1000.738	-1398
1000.814	-585
1000.890	-734
1000.967	-1422
1001.043	-992
1001.120	-1037
1001.196	-875
1001.272	-1115
1001.349	-55
1001.425	347
1001.501	-960
1001.577	-1788
1001.654	-471
1001.730	-1249
1001.806	-1239
1001.882	-1834
1001.958	-570
1002.034	-1332
1002.110	-541
1002.186	-1019
1002.262	-1100
1002.338	-1429
1002.414	-979
1002.490	-860
1002.566	-1532
1002.642	-1858
1002.718	-554
1002.794	-687
1002.870	-926
1002.945	-637
1003.021	-835
1003.097	-1092
1003.173	2
1003.248	-627
1003.324	-671
1003.400	-903
1003.475	-1300
1003.551	-895
1003.626	-2046
1003.702	-1223
1003.777	-1764
1003.853	-875
1003.928	-1019
1004.004	-1104
1004.079	-773
1004.155	-456
1004.230	-2072
1004.305	1
1004.381	-1093
1004.456	-903
1004.531	-1163
1004.607	-197
1004.682	-1451
1004.757	-866
1004.832	-1088
1004.907	-1206
1004.982	-754
1005.057	-235
1005.133	-1704
1005.208	-840
1005.283	-1618
1005.358	-757
1005.433	-2684
1005.508	-739
1005.583	-2239
1005.657	-1692
1005.732	-1931
1005.807	-1553
1005.882	-1807
1005.957	-912
1006.032	-680
1006.106	-1009
1006.181	-835
1006.256	-368
1006.331	-1933
1006.405	-1277
1006.480	-1712
1006.554	-1207
1006.629	-773
1006.704	-449
1006.778	-873
1006.853	-892
1006.927	-1176
1007.002	-1087
1007.076	-869
1007.150	-1809
1007.225	-1817
1007.299	-1356
1007.373	-1859
1007.448	-1486
1007.522	-518
1007.596	-1405
1007.671	-906
1007.745	-866
1007.819	-1888
1007.893	-848
1007.967	-973
1008.041	-1858
1008.115	-1063
1008.190	-1654
1008.264	-1879
1008.338	-2303
1008.412	-2097
1008.486	-1541
1008.560	-1820
1008.633	-1314
1008.707	-2860
1008.781	-1045
1008.855	-431
1008.929	-1213
1009.003	-1717
1009.076	-2145
1009.150	-1913
1009.224	-942
1009.298	-797
1009.371	-1326
1009.445	-526
1009.519	-1180
1009.592	-2190
1009.666	-2048
1009.739	-456
1009.813	-1647
1009.886	-630
1009.960	-2320
1010.033	-1908
1010.107	164
1010.180	-2130
1010.253	-1569
1010.327	-2004
1010.400	-945
1010.473	-1066
1010.547	567
1010.620	-1977
1010.693	-1176
1010.766	-1557
1010.840	-745
1010.913	-1199
1010.986	-1361
1011.059	-1259
1011.132	-1201
1011.205	-723
1011.278	-1476
1011.351	-1971
1011.424	-1017
1011.497	-2279
1011.570	-916
1011.643	-1536
1011.716	-938
1011.789	-1351
1011.862	-1261
1011.934	-1255
1012.007	-1337
1012.080	-1912
1012.153	-1335
1012.225	-301
1012.298	-966
1012.371	-1921
1012.443	-982
1012.516	-1868
1012.588	-350
1012.661	-1479
1012.733	-1804
1012.806	-809
1012.879	-1671
1012.951	-1981
1013.023	-1736
1013.096	-1642
1013.168	-1189
1013.241	-1176
1013.313	-1041
1013.385	-1824
1013.458	-1355
1013.530	-1054
1013.602	-2120
1013.674	-916
1013.746	-2494
1013.819	-2245
1013.891	-1198
1013.963	-2251
1014.035	-991
1014.107	-1763
1014.179	-843
1014.251	-1892
1014.323	-1090
1014.395	-2174
1014.467	-1644
1014.539	-1356
1014.611	-1691
1014.683	-1556
1014.754	-1204
1014.826	-2551
1014.898	-923
1014.970	-1656
1015.042	-275
1015.113	-1000
1015.185	-1358
1015.257	-2018
1015.328	-664
1015.400	-2300
1015.471	-1352
1015.543	-2412
1015.615	-800
1015.686	-2136
1015.757	-1622
1015.829	-1270
1015.901	-1209
1015.972	-1298
1016.043	-1718
1016.115	-1449
1016.186	-753
1016.257	-2195
1016.328	-1642
1016.400	-775
1016.471	-1849
1016.542	-1863
1016.613	-952
1016.685	-2298
1016.756	-882
1016.827	-2288
1016.898	-1924
1016.969	-991
1017.040	-1656
1017.111	-2333
1017.182	-1152
1017.253	-1625
1017.324	-1700
1017.395	-2229
1017.466	-1229
1017.537	-1477
1017.608	-2416
1017.678	-2011
1017.749	-1591
1017.820	-2244
1017.891	-1087
1017.961	-2135
1018.032	-1652
1018.103	-1940
1018.173	-927
1018.244	-1830
1018.315	-1943
1018.385	-1757
1018.456	-988
1018.526	-1826
1018.597	-1622
1018.667	-1584
1018.738	-1823
1018.808	-1454
1018.878	-1169
1018.949	-1392
1019.019	-478
1019.089	-1782
1019.160	-1397
1019.230	-2333
1019.300	-996
1019.371	-2383
1019.441	-1540
1019.511	-1697
1019.581	-1362
1019.651	-1254
1019.721	-1036
1019.791	-1255
1019.861	-1035
1019.931	-1651
1020.001	-1472
1020.071	-1616
1020.141	-1267
1020.211	-1061
1020.281	-1355
1020.351	-2139
1020.421	-1045
1020.491	-2092
1020.560	-2014
1020.630	-1536
1020.700	-995
1020.770	-1778
1020.839	-2034
1020.909	-1873
1020.979	-1761
1021.048	-2192
1021.118	-1397
1021.187	-1985
1021.257	-1187
1021.326	-1272
1021.396	-1659
1021.465	-1834
1021.535	-1121
1021.604	-2228
1021.674	-1564
1021.743	-1532
1021.812	-899
1021.882	-2431
1021.951	-1386
1022.020	-1100
1022.089	-1657
1022.159	-2044
1022.228	-1621
1022.297	-2203
1022.366	-1620
1022.435	-1673
1022.504	-1821
1022.573	-2279
1022.642	-1562
1022.711	-2219
1022.781	-895
1022.849	-1730
1022.918	-1516
1022.987	-1726
1023.056	-1865
1023.125	-1258
1023.194	-1350
1023.263	-1086
1023.331	-953
1023.400	-1260
1023.469	-1596
1023.538	-1074
1023.606	-1530
1023.675	-2157
1023.744	-1807
1023.812	-2661
1023.881	-736
1023.949	-2841
1024.018	-1366
1024.086	-1178
1024.155	-441
1024.223	-1919
1024.292	-506
1024.360	-1879
1024.429	-939
1024.497	-2316
1024.565	-1193
1024.634	-1301
1024.702	-536
1024.770	-1636
1024.838	-1471
1024.907	-1635
1024.975	-1966
1025.043	-2238
1025.111	-1020
1025.179	-1826
1025.247	-2155
1025.315	-1928
1025.383	-1333
1025.451	-1917
1025.519	-729
1025.587	-2171
1025.655	-1798
1025.723	-1632
1025.791	-1712
1025.859	-1895
1025.927	-1254
1025.995	-2209
1026.062	-1904
1026.130	-1813
1026.198	-722
1026.266	-2406
1026.333	-1446
1026.401	-1618
1026.469	-1624
1026.536	-2072
1026.604	-1707
1026.671	-2397
1026.739	-1053
1026.806	-2269
1026.874	-977
1026.941	-1957
1027.009	-1649
1027.076	-2099
1027.144	-871
1027.211	-2738
1027.278	-1223
1027.345	-1704
1027.413	-1622
1027.480	-2472
1027.547	-1571
1027.614	-2616
1027.682	-2013
1027.749	-1785
1027.816	-649
1027.883	-1695
1027.950	-1166
1028.017	-1855
1028.084	-1471
1028.151	-2382
1028.218	-779
1028.285	-2051
1028.352	-2344
1028.419	-2163
1028.486	-1722
1028.553	-1717
1028.619	-2108
1028.686	-1710
1028.753	-2090
1028.820	-2314
1028.886	-2598
1028.953	-1788
1029.020	-927
1029.086	-2391
1029.153	-1629
1029.220	-1483
1029.286	-887
1029.353	-2059
1029.419	-1885
1029.486	-2025
1029.552	-2120
1029.619	-1683
1029.685	-1652
1029.751	-1723
1029.818	-296
1029.884	-2621
1029.951	-705
1030.017	-1586
1030.083	-983
1030.149	-2097
1030.216	-1897
1030.282	-2343
1030.348	-1702
1030.414	-2095
1030.480	-807
1030.546	-1862
1030.612	-1193
1030.678	-3067
1030.744	-2572
1030.810	-2641
1030.876	-1920
1030.942	-2477
1031.008	-1915
1031.074	-2411
1031.140	-1825
1031.206	-1752
1031.272	-2701
1031.337	-1456
1031.403	-1424
1031.469	-1085
1031.534	-1668
1031.600	-2303
1031.666	-1295
1031.731	-2041
1031.797	-1773
1031.863	-2529
1031.928	-1630
1031.994	-1669
1032.059	-1814
1032.125	-2473
1032.190	-1762
1032.256	-2961
1032.321	-2443
1032.386	-2242
1032.452	-1292
1032.517	-2520
1032.582	-1672
1032.647	-2520
1032.713	-1420
1032.778	-1460
1032.843	-1630
1032.908	-2725
1032.974	-1452
1033.039	-1602
1033.104	-766
1033.169	-2192
1033.234	-1948
1033.299	-2561
1033.364	-1489
1033.429	-1821
1033.494	-1561
1033.559	-2590
1033.624	-959
1033.688	-2116
1033.753	-1776
1033.818	-3011
1033.883	-1431
1033.948	-1854
1034.013	-2036
1034.077	-1295
1034.142	-2288
1034.207	-2593
1034.271	-1914
1034.336	-1744
1034.400	-1344
1034.465	-2253
1034.530	-1891
1034.594	-2113
1034.658	-1996
1034.723	-2286
1034.787	-2551
1034.852	-2282
1034.916	-2160
1034.981	-2874
1035.045	-2628
1035.109	-2524
1035.173	-1542
1035.238	-3095
1035.302	-1271
1035.366	-2991
1035.430	-1735
1035.495	-2019
1035.559	-1888
1035.623	-2454
1035.687	-1795
1035.751	-1357
1035.815	-1541
1035.879	-2336
1035.943	-1917
1036.007	-2264
1036.071	-1267
1036.135	-2592
1036.198	-1076
1036.262	-2537
1036.326	-2482
1036.390	-2480
1036.454	-1900
1036.517	-2611
1036.581	-1328
1036.645	-2322
1036.709	-1779
1036.772	-2350
1036.836	-2232
1036.900	-2685
1036.963	-1771
1037.026	-1978
1037.090	-1982
1037.154	-2778
1037.217	-1783
1037.280	-2152
1037.344	-2198
1037.407	-3124
1037.471	-1693
1037.534	-2686
1037.597	-2048
1037.661	-2809
1037.724	-1882
1037.787	-3211
1037.850	-2019
1037.913	-3300
1037.977	-1662
1038.040	-3147
1038.103	-2446
1038.166	-1995
1038.229	-2028
1038.292	-2293
1038.355	-1489
1038.418	-2025
1038.481	-1641
1038.544	-2832
1038.607	-1899
1038.670	-2687
1038.732	-1378
1038.795	-2854
1038.858	-1753
1038.921	-2527
1038.984	-1000
1039.046	-3045
1039.109	-2610
1039.172	-2286
1039.234	-2604
1039.297	-1677
1039.360	-2177
1039.422	-2183
1039.485	-2462
1039.547	-3080
1039.610	-2175
1039.672	-2814
1039.734	-1700
1039.797	-2484
1039.859	-1406
1039.922	-1958
1039.984	-2286
1040.046	-2789
1040.109	-2488
1040.171	-2494
1040.233	-2112
1040.295	-2510
1040.358	-2988
1040.420	-2787
1040.482	-2351
1040.544	-1867
1040.606	-2181
1040.668	-2924
1040.730	-1671
1040.792	-2494
1040.854	-2363
1040.916	-2082
1040.978	-1976
1041.040	-1943
1041.102	-1354
1041.164	-2698
1041.225	-2260
1041.287	-3081
1041.349	-2012
1041.411	-2372
1041.472	-1594
1041.534	-1811
1041.596	-2863
1041.657	-1987
1041.719	-2010
1041.781	-2688
1041.842	-2671
1041.904	-2698
1041.965	-1996
1042.027	-2998
1042.088	-1860
1042.150	-2194
1042.211	-1963
1042.272	-2318
1042.334	-2534
1042.395	-2937
1042.456	-1780
1042.518	-2221
1042.579	-3181
1042.640	-2560
1042.701	-2582
1042.763	-2033
1042.824	-2195
1042.885	-2568
1042.946	-1615
1043.007	-2940
1043.068	-2195
1043.129	-2892
1043.190	-2296
1043.251	-2003
1043.312	-2538
1043.373	-2122
1043.434	-2310
1043.495	-2525
1043.556	-1411
1043.616	-2667
1043.677	-2368
1043.738	-2713
1043.799	-2562
1043.859	-2856
1043.920	-1962
1043.981	-2211
1044.041	-1591
1044.102	-2201
1044.162	-2585
1044.223	-2391
1044.284	-2086
1044.344	-2624
1044.405	-1845
1044.465	-3410
1044.525	-2738
1044.586	-2519
1044.646	-1394
1044.707	-2689
1044.767	-2063
1044.827	-1636
1044.887	-1277
1044.948	-2284
1045.008	-2137
1045.068	-3355
1045.128	-1157
1045.188	-2495
1045.249	-1347
1045.309	-2434
1045.369	-1885
1045.429	-2366
1045.489	-1998
1045.549	-2609
1045.609	-1827
1045.669	-1922
1045.729	-1812
1045.789	-2407
1045.848	-1692
1045.908	-2835
1045.968	-1300
1046.028	-1644
1046.088	-1968
1046.147	-2243
1046.207	-1408
1046.267	-2170
1046.326	-1371
1046.386	-2249
1046.446	-2001
1046.505	-1689
1046.565	-1370
1046.624	-2326
1046.684	-954
1046.743	-738
1046.803	462
1046.862	-1943
1046.922	0
