'Start Wavelength	183.907
'End Wavelength	1046.922
'Gate Delay	5.000
'Gate Width (ms)	1.050
'Laser Output Level	0.000
'X Position	0.000
'Y Position	0.000
'Z Position	0.000
'Grid Point Number	1.000
'Shot Number	100.000
183.907	567.000
183.977	-547.000
184.047	-212
184.116	482
184.186	222
184.256	-68
184.325	152
184.395	-453
184.465	508
184.534	-256
184.604	-893
184.674	347
184.743	-149
184.813	667
184.883	-215
184.952	547
185.022	247
185.092	-650
185.161	-11
185.231	-617
185.301	-400
185.370	219
185.440	-280
185.509	-561
185.579	-182
185.649	59
185.718	-80
185.788	368
185.857	-371
185.927	43
185.996	443
186.066	-298
186.136	139
186.205	169
186.275	-440
186.344	-74
186.414	-359
186.483	-842
186.553	999
186.622	399
186.692	-269
186.761	298
186.831	-421
186.900	-858
186.970	-18
187.039	103
187.109	514
187.178	765
187.248	-68
187.317	-380
187.387	-367
187.456	-135
187.526	-764
187.595	-57
187.664	-291
187.734	-94
187.803	509
187.873	419
187.942	-249
188.012	-518
188.081	-364
188.150	26
188.220	-300
188.289	533
188.358	275
188.428	313
188.497	-587
188.567	616
188.636	-617
188.705	-425
188.775	-70
188.844	170
188.913	699
188.983	281
189.052	-81
189.121	1086
189.191	-963
189.260	412
189.329	1
189.399	454
189.468	166
189.537	131
189.606	96
189.676	-83
189.745	271
189.814	259
189.883	-574
189.953	-385
190.022	-97
190.091	449
190.161	31
190.230	142
190.299	309
190.368	-551
190.437	-167
190.507	161
190.576	-52
190.645	27
190.714	-627
190.783	-237
190.853	1036
190.922	117
190.991	-1
191.060	286
191.129	-707
191.198	549
191.268	-175
191.337	-527
191.406	254
191.475	-204
191.544	-689
191.613	157
191.682	-169
191.752	229
191.821	-199
191.890	304
191.959	-256
192.028	604
192.097	378
192.166	-164
192.235	-433
192.304	243
192.373	-488
192.442	-174
192.511	-751
192.580	-308
192.650	-231
192.719	-232
192.788	728
192.857	-92
192.926	-206
192.995	-71
193.064	71
193.133	377
193.202	150
193.271	1408
193.340	163
193.409	-373
193.478	492
193.547	-257
193.615	17
193.684	982
193.753	-274
193.822	1317
193.891	-469
193.960	-511
194.029	341
194.098	138
194.167	572
194.236	623
194.305	63
194.374	613
194.443	459
194.512	261
194.580	-308
194.649	385
194.718	440
194.787	-19
194.856	-845
194.925	1259
194.994	111
195.062	252
195.131	-735
195.200	340
195.269	454
195.338	4
195.407	124
195.475	-155
195.544	813
195.613	-201
195.682	-102
195.751	802
195.819	-218
195.888	-263
195.957	-111
196.026	-42
196.094	414
196.163	-82
196.232	540
196.301	-121
196.369	-113
196.438	-187
196.507	321
196.576	415
196.644	-259
196.713	-41
196.782	-213
196.850	221
196.919	513
196.988	311
197.056	-282
197.125	-275
197.194	158
197.262	-67
197.331	-350
197.400	-293
197.468	-246
197.537	208
197.606	390
197.674	395
197.743	355
197.812	-199
197.880	98
197.949	31
198.017	-279
198.086	208
198.155	47
198.223	666
198.292	361
198.360	84
198.429	-141
198.497	-46
198.566	288
198.635	610
198.703	124
198.772	215
198.840	-376
198.909	-225
198.977	-74
199.046	300
199.114	-348
199.183	-45
199.251	-368
199.320	-505
199.388	160
199.457	62
199.525	-287
199.594	-12
199.662	233
199.731	-149
199.799	642
199.867	-289
199.936	152
200.004	715
200.073	327
200.141	479
200.210	-173
200.278	-59
200.346	251
200.415	-269
200.483	40
200.552	-184
200.620	-672
200.688	-127
200.757	-557
200.825	-57
200.893	462
200.962	-218
201.030	-251
201.098	-746
201.167	148
201.235	-250
201.303	-93
201.372	354
201.440	2
201.508	-641
201.577	291
201.645	-339
201.713	601
201.781	68
201.850	231
201.918	556
201.986	150
202.055	-299
202.123	-666
202.191	839
202.259	552
202.327	369
202.396	-794
202.464	247
202.532	821
202.600	1338
202.669	205
202.737	383
202.805	-392
202.873	548
202.941	-11
203.009	-158
203.078	-30
203.146	-669
203.214	-179
203.282	-463
203.350	641
203.418	-203
203.487	167
203.555	742
203.623	-381
203.691	-67
203.759	-104
203.827	-63
203.895	-400
203.963	117
204.031	-105
204.099	-432
204.168	-173
204.236	82
204.304	361
204.372	93
204.440	109
204.508	360
204.576	-349
204.644	544
204.712	-262
204.780	147
204.848	349
204.916	-318
204.984	295
205.052	389
205.120	-331
205.188	70
205.256	-333
205.324	114
205.392	-748
205.460	-9
205.528	-537
205.596	216
205.664	215
205.732	107
205.799	864
205.867	566
205.935	-298
206.003	699
206.071	-151
206.139	35
206.207	-331
206.275	4
206.343	94
206.411	-158
206.478	81
206.546	134
206.614	72
206.682	-31
206.750	581
206.818	-97
206.885	681
206.953	-366
207.021	-76
207.089	-204
207.157	207
207.225	240
207.292	449
207.360	-123
207.428	996
207.496	43
207.563	-288
207.631	651
207.699	-161
207.767	-225
207.834	86
207.902	-193
207.970	-764
208.038	-92
208.105	323
208.173	-84
208.241	670
208.309	1199
208.376	269
208.444	3
208.512	-304
208.579	-143
208.647	124
208.715	-138
208.782	-2
208.850	620
208.918	397
208.985	276
209.053	-228
209.120	479
209.188	-9
209.256	167
209.323	-274
209.391	422
209.459	464
209.526	-1168
209.594	483
209.661	68
209.729	579
209.796	488
209.864	136
209.932	-675
209.999	914
210.067	-94
210.134	-674
210.202	98
210.269	746
210.337	264
210.404	144
210.472	-364
210.539	7
210.607	232
210.674	-276
210.742	931
210.809	-154
210.877	657
210.944	464
211.012	-456
211.079	1062
211.146	356
211.214	58
211.281	865
211.349	333
211.416	278
211.484	361
211.551	118
211.618	-36
211.686	-364
211.753	215
211.821	1260
211.888	363
211.955	194
212.023	-744
212.090	472
212.157	-63
212.225	118
212.292	355
212.359	711
212.427	2256
212.494	558
212.561	282
212.629	-64
212.696	431
212.763	283
212.831	-658
212.898	372
212.965	27
213.032	131
213.100	-31
213.167	-967
213.234	336
213.301	496
213.369	8
213.436	461
213.503	-455
213.570	613
213.638	26
213.705	454
213.772	-742
213.839	-246
213.906	695
213.973	171
214.041	-564
214.108	168
214.175	-138
214.242	-221
214.309	-53
214.376	725
214.444	-233
214.511	-69
214.578	64
214.645	506
214.712	240
214.779	737
214.846	-234
214.913	181
214.980	212
215.048	335
215.115	512
215.182	293
215.249	1034
215.316	72
215.383	1082
215.450	-273
215.517	371
215.584	257
215.651	144
215.718	181
215.785	84
215.852	-1045
215.919	369
215.986	758
216.053	232
216.120	239
216.187	406
216.254	941
216.321	-61
216.388	97
216.455	402
216.522	477
216.589	274
216.656	65
216.722	140
216.789	754
216.856	650
216.923	857
216.990	400
217.057	779
217.124	1676
217.191	850
217.258	792
217.324	1637
217.391	1843
217.458	1864
217.525	448
217.592	674
217.659	-747
217.725	1547
217.792	-87
217.859	1507
217.926	-582
217.993	998
218.059	992
218.126	545
218.193	988
218.260	-336
218.327	-150
218.393	1007
218.460	165
218.527	-327
218.594	-548
218.660	-224
218.727	-72
218.794	127
218.860	394
218.927	116
218.994	-254
219.061	121
219.127	-218
219.194	801
219.261	494
219.327	36
219.394	-468
219.461	-513
219.527	206
219.594	33
219.661	315
219.727	-498
219.794	978
219.860	-29
219.927	254
219.994	275
220.060	352
220.127	721
220.193	1306
220.260	-341
220.326	1917
220.393	1914
220.460	1964
220.526	1065
220.593	1277
220.659	2539
220.726	688
220.792	1320
220.859	1982
220.925	3457
220.992	4007
221.058	3171
221.125	2625
221.191	1430
221.258	710
221.324	460
221.391	57
221.457	331
221.524	318
221.590	543
221.657	1596
221.723	493
221.789	911
221.856	1710
221.922	836
221.989	1190
222.055	92
222.121	-617
222.188	1542
222.254	13
222.321	364
222.387	-123
222.453	12
222.520	485
222.586	5
222.652	677
222.719	-2
222.785	1059
222.851	-238
222.918	373
222.984	-157
223.050	-54
223.116	-704
223.183	287
223.249	-235
223.315	-216
223.382	6
223.448	-253
223.514	-555
223.580	607
223.647	-715
223.713	-451
223.779	162
223.845	-179
223.911	410
223.978	-871
224.044	439
224.110	23
224.176	266
224.242	-2
224.309	-414
224.375	993
224.441	-147
224.507	-8
224.573	-494
224.639	-430
224.705	-672
224.772	22
224.838	-284
224.904	836
224.970	-254
225.036	631
225.102	-17
225.168	-82
225.234	108
225.300	34
225.366	772
225.432	181
225.499	-733
225.565	579
225.631	-222
225.697	127
225.763	84
225.829	1207
225.895	-208
225.961	90
226.027	802
226.093	781
226.159	1525
226.225	1750
226.291	4493
226.357	5250
226.423	3609
226.489	1913
226.554	1266
226.620	1182
226.686	1566
226.752	2447
226.818	3299
226.884	6863
226.950	4956
227.016	2069
227.082	1514
227.148	1642
227.214	726
227.279	1573
227.345	506
227.411	718
227.477	596
227.543	941
227.609	672
227.674	1058
227.740	295
227.806	95
227.872	-302
227.938	794
228.003	469
228.069	305
228.135	-360
228.201	-17
228.267	836
228.332	239
228.398	-264
228.464	714
228.530	-480
228.595	-678
228.661	-896
228.727	161
228.792	877
228.858	724
228.924	-336
228.990	885
229.055	-531
229.121	1102
229.187	-677
229.252	-247
229.318	-429
229.384	499
229.449	-283
229.515	-205
229.581	-1663
229.646	1522
229.712	746
229.777	635
229.843	344
229.909	334
229.974	362
230.040	178
230.105	-339
230.171	193
230.236	690
230.302	816
230.368	176
230.433	306
230.499	526
230.564	1632
230.630	-935
230.695	4
230.761	870
230.826	-574
230.892	641
230.957	-410
231.023	65
231.088	207
231.154	-36
231.219	824
231.284	669
231.350	786
231.415	368
231.481	708
231.546	-410
231.612	501
231.677	-213
231.742	-1063
231.808	558
231.873	-176
231.939	-1425
232.004	1640
232.069	1002
232.135	260
232.200	-449
232.265	329
232.331	-444
232.396	-434
232.461	304
232.527	60
232.592	-631
232.657	585
232.723	-293
232.788	-578
232.853	-73
232.918	-293
232.984	-103
233.049	-513
233.114	-406
233.179	9
233.245	-18
233.310	663
233.375	-823
233.440	418
233.506	-289
233.571	-823
233.636	-378
233.701	299
233.766	187
233.832	773
233.897	486
233.962	-262
234.027	1150
234.092	123
234.157	-334
234.222	-875
234.288	93
234.353	1338
234.418	1854
234.483	810
234.548	592
234.613	910
234.678	426
234.743	-491
234.808	1555
234.873	-136
234.938	1393
235.004	186
235.069	-51
235.134	-562
235.199	-23
235.264	585
235.329	-1106
235.394	509
235.459	328
235.524	-629
235.589	167
235.654	655
235.719	-1285
235.784	1126
235.849	-84
235.913	417
235.978	-407
236.043	438
236.108	933
236.173	-419
236.238	774
236.303	260
236.368	-181
236.433	1185
236.498	-592
236.563	1277
236.627	3410
236.692	8252
236.757	6861
236.822	3326
236.887	2230
236.952	2493
237.017	273
237.081	2057
237.146	1201
237.211	4859
237.276	8128
237.341	10288
237.405	6152
237.470	3510
237.535	1671
237.600	1736
237.664	1203
237.729	767
237.794	795
237.859	3199
237.923	1503
237.988	450
238.053	1010
238.118	870
238.182	1935
238.247	2524
238.312	65
238.376	740
238.441	-502
238.506	1139
238.570	-525
238.635	688
238.700	282
238.764	331
238.829	130
238.893	32
238.958	604
239.023	252
239.087	-492
239.152	826
239.216	78
239.281	94
239.346	737
239.410	333
239.475	520
239.539	2019
239.604	404
239.668	1116
239.733	-90
239.797	23
239.862	593
239.926	1838
239.991	682
240.055	960
240.120	344
240.184	42
240.249	-841
240.313	588
240.378	-14
240.442	440
240.507	1321
240.571	-328
240.635	75
240.700	506
240.764	236
240.829	-503
240.893	-1117
240.957	290
241.022	1420
241.086	1312
241.151	-384
241.215	-45
241.279	1442
241.344	326
241.408	1154
241.472	-29
241.537	1289
241.601	946
241.665	92
241.730	-194
241.794	1289
241.858	789
241.922	624
241.987	560
242.051	-192
242.115	-397
242.179	449
242.244	-484
242.308	1288
242.372	-500
242.436	-40
242.501	693
242.565	-135
242.629	-223
242.693	623
242.757	-388
242.822	-18
242.886	785
242.950	596
243.014	-214
243.078	-306
243.142	769
243.206	-378
243.271	381
243.335	-413
243.399	1445
243.463	2692
243.527	7857
243.591	1350
243.655	1114
243.719	-466
243.783	1373
243.847	1103
243.911	1277
243.975	1480
244.040	125
244.104	1555
244.168	759
244.232	478
244.296	1272
244.360	1015
244.424	-204
244.488	626
244.552	539
244.615	-719
244.679	815
244.743	-169
244.807	-775
244.871	308
244.935	550
244.999	-904
245.063	-142
245.127	1060
245.191	1097
245.255	720
245.319	1105
245.383	-716
245.446	1486
245.510	-437
245.574	851
245.638	1580
245.702	-459
245.766	579
245.829	1374
245.893	-763
245.957	-426
246.021	538
246.085	211
246.149	-145
246.212	2570
246.276	2136
246.340	561
246.404	1298
246.467	1562
246.531	-725
246.595	1241
246.659	479
246.722	623
246.786	1756
246.850	1228
246.913	1079
246.977	123
247.041	915
247.104	504
247.168	647
247.232	2514
247.295	3491
247.359	2757
247.423	531
247.486	1094
247.550	990
247.614	494
247.677	1304
247.741	226
247.804	51
247.868	966
247.932	1729
247.995	4157
248.059	-198
248.122	-318
248.186	1988
248.249	2085
248.313	6013
248.376	7003
248.440	3538
248.503	337
248.567	2929
248.630	1515
248.694	2552
248.757	3814
248.821	6826
248.884	5917
248.948	3306
249.011	5959
249.075	6693
249.138	6858
249.202	3714
249.265	1768
249.328	2384
249.392	414
249.455	1965
249.519	1037
249.582	886
249.645	2891
249.709	1928
249.772	1069
249.835	1426
249.899	1396
249.962	1155
250.025	945
250.089	2786
250.152	3933
250.215	2404
250.279	1397
250.342	1601
250.405	793
250.468	425
250.532	670
250.595	3100
250.658	7375
250.721	11323
250.785	4428
250.848	3246
250.911	1423
250.974	2485
251.038	1658
251.101	4620
251.164	1851
251.227	2604
251.290	2096
251.354	3041
251.417	11681
251.480	10235
251.543	8072
251.606	19004
251.669	14689
251.732	7125
251.795	7217
251.859	6449
251.922	12541
251.985	8294
252.048	3542
252.111	2996
252.174	1964
252.237	4682
252.300	8852
252.363	9040
252.426	15776
252.489	6054
252.552	3630
252.615	2025
252.678	3078
252.741	6527
252.804	7009
252.867	17634
252.930	10939
252.993	5964
253.056	4016
253.119	2210
253.182	2063
253.245	2649
253.308	2144
253.371	1922
253.434	2047
253.497	2250
253.559	4130
253.622	3053
253.685	3772
253.748	4205
253.811	1466
253.874	1639
253.937	2206
254.000	1742
254.062	2354
254.125	3748
254.188	5580
254.251	3027
254.314	1044
254.376	2482
254.439	3952
254.502	3010
254.565	2829
254.628	5104
254.690	2916
254.753	1532
254.816	1242
254.878	1633
254.941	3374
255.004	2507
255.067	1446
255.129	1710
255.192	1219
255.255	-874
255.317	429
255.380	779
255.443	229
255.505	-157
255.568	-354
255.631	-454
255.693	-40
255.756	-1757
255.819	859
255.881	-135
255.944	291
256.006	459
256.069	356
256.132	-70
256.194	356
256.257	800
256.319	842
256.382	272
256.444	1047
256.507	553
256.569	72
256.632	227
256.694	821
256.757	6087
256.819	16557
256.882	6227
256.944	1979
257.007	1870
257.069	919
257.132	1092
257.194	1873
257.257	840
257.319	-104
257.381	381
257.444	4513
257.506	16450
257.569	18193
257.631	7679
257.693	4380
257.756	1829
257.818	1651
257.880	178
257.943	1118
258.005	251
258.067	818
258.130	484
258.192	64
258.254	1377
258.317	860
258.379	786
258.441	2368
258.503	1882
258.566	903
258.628	2578
258.690	480
258.753	1063
258.815	2697
258.877	105
258.939	510
259.001	1057
259.064	582
259.126	-349
259.188	-340
259.250	1513
259.312	491
259.375	1715
259.437	840
259.499	761
259.561	495
259.623	712
259.685	424
259.747	423
259.809	1615
259.872	2801
259.934	4839
259.996	7039
260.058	1954
260.120	-783
260.182	1107
260.244	124
260.306	365
260.368	-151
260.430	-359
260.492	2290
260.554	4487
260.616	876
260.678	2750
260.740	3422
260.802	225
260.864	781
260.926	-372
260.988	551
261.050	543
261.112	2877
261.174	6799
261.236	2390
261.298	662
261.359	695
261.421	2635
261.483	-279
261.545	1212
261.607	-1671
261.669	560
261.731	425
261.793	1907
261.854	104
261.916	424
261.978	400
262.040	144
262.102	234
262.164	81
262.225	-38
262.287	134
262.349	1279
262.411	1026
262.472	612
262.534	-294
262.596	1082
262.658	493
262.719	-705
262.781	1695
262.843	254
262.904	499
262.966	-311
263.028	585
263.090	3472
263.151	11336
263.213	4015
263.275	2337
263.336	280
263.398	1118
263.459	-329
263.521	141
263.583	2019
263.644	1474
263.706	-431
263.767	-1058
263.829	819
263.891	-219
263.952	-1029
264.014	-925
264.075	734
264.137	4753
264.198	1016
264.260	-426
264.321	-535
264.383	2071
264.444	6764
264.506	739
264.567	973
264.629	2835
264.690	4495
264.752	1245
264.813	167
264.875	-555
264.936	1404
264.998	247
265.059	-927
265.120	581
265.182	242
265.243	9534
265.305	9328
265.366	1712
265.427	-250
265.489	430
265.550	-490
265.611	-254
265.673	303
265.734	251
265.795	939
265.857	-552
265.918	-631
265.979	3091
266.040	14175
266.102	11520
266.163	3825
266.224	2938
266.286	308
266.347	62
266.408	141
266.469	-241
266.530	-342
266.592	-807
266.653	732
266.714	1756
266.775	447
266.836	-330
266.898	-667
266.959	1028
267.020	144
267.081	883
267.142	240
267.203	-531
267.264	-915
267.326	356
267.387	-894
267.448	-651
267.509	-1109
267.570	103
267.631	-209
267.692	-1119
267.753	-4
267.814	-457
267.875	425
267.936	3158
267.997	894
268.058	1474
268.119	-139
268.180	318
268.241	-1128
268.302	95
268.363	-835
268.424	142
268.485	3
268.546	197
268.607	-987
268.668	-826
268.729	-916
268.790	-294
268.851	-82
268.912	775
268.972	2025
269.033	484
269.094	-120
269.155	-166
269.216	-637
269.277	-796
269.338	-88
269.398	-667
269.459	-612
269.520	-34
269.581	663
269.642	1790
269.702	-112
269.763	40
269.824	-813
269.885	108
269.945	1350
270.006	457
270.067	-982
270.128	-707
270.188	-591
270.249	-993
270.310	-1216
270.370	-552
270.431	-96
270.492	-99
270.553	-98
270.613	562
270.674	2453
270.734	372
270.795	-587
270.856	362
270.916	99
270.977	-590
271.038	-193
271.098	731
271.159	528
271.219	96
271.280	-509
271.340	646
271.401	-153
271.462	561
271.522	291
271.583	-607
271.643	-156
271.704	371
271.764	-60
271.825	2159
271.885	7563
271.946	8424
272.006	2861
272.066	4120
272.127	7312
272.187	2077
272.248	460
272.308	995
272.369	4482
272.429	2420
272.489	1227
272.550	2555
272.610	2557
272.671	1176
272.731	1066
272.791	1012
272.852	-6
272.912	676
272.972	170
273.033	-572
273.093	380
273.153	1419
273.214	233
273.274	672
273.334	3745
273.394	7507
273.455	1875
273.515	2448
273.575	5949
273.635	1959
273.696	3028
273.756	5906
273.816	1775
273.876	631
273.936	1068
273.997	3579
274.057	-210
274.117	317
274.177	1109
274.237	9712
274.297	7209
274.358	3800
274.418	5215
274.478	4427
274.538	858
274.598	240
274.658	2307
274.718	3646
274.778	1208
274.838	-233
274.898	1161
274.958	4156
275.018	5173
275.078	2929
275.138	1189
275.198	47
275.258	9
275.318	-106
275.378	1890
275.438	2171
275.498	1589
275.558	2154
275.618	5071
275.678	3743
275.738	3262
275.798	2530
275.858	263
275.918	-821
275.978	545
276.038	396
276.098	87
276.157	1364
276.217	5966
276.277	1722
276.337	1217
276.397	234
276.457	802
276.517	220
276.576	731
276.636	-457
276.696	-222
276.756	2930
276.815	1258
276.875	204
276.935	-317
276.995	498
277.055	-63
277.114	-169
277.174	309
277.234	3941
277.293	842
277.353	537
277.413	-181
277.472	-551
277.532	-797
277.592	589
277.651	2394
277.711	3748
277.771	477
277.830	7099
277.890	4532
277.950	2493
278.009	10185
278.069	2905
278.128	2874
278.188	5446
278.248	1806
278.307	4850
278.367	2814
278.426	918
278.486	116
278.545	-36
278.605	-362
278.664	84
278.724	-101
278.783	2145
278.843	6587
278.902	1686
278.962	254
279.021	1477
279.081	-257
279.140	447
279.199	943
279.259	686
279.318	103
279.378	1163
279.437	2240
279.496	9973
279.556	21476
279.615	16098
279.675	3243
279.734	2210
279.793	4403
279.853	7264
279.912	2579
279.971	1042
280.031	640
280.090	1905
280.149	4800
280.208	3145
280.268	14860
280.327	14870
280.386	2678
280.445	3779
280.505	3575
280.564	1119
280.623	829
280.682	1808
280.742	3483
280.801	514
280.860	-460
280.919	-138
280.978	-419
281.037	306
281.097	-408
281.156	-965
281.215	-906
281.274	267
281.333	4105
281.392	2266
281.451	229
281.510	-639
281.569	-1028
281.628	-14
281.688	-502
281.747	721
281.806	18
281.865	-221
281.924	-481
281.983	-149
282.042	-241
282.101	-797
282.160	247
282.219	-313
282.278	326
282.337	2902
282.396	1403
282.454	-206
282.513	219
282.572	4509
282.631	2247
282.690	-230
282.749	-325
282.808	664
282.867	39
282.926	-281
282.985	-238
283.043	-747
283.102	477
283.161	-135
283.220	1173
283.279	5113
283.338	1679
283.396	-30
283.455	47
283.514	218
283.573	1306
283.631	325
283.690	235
283.749	-278
283.808	1606
283.866	2004
283.925	-966
283.984	767
284.043	-403
284.101	741
284.160	64
284.219	1300
284.277	807
284.336	1058
284.395	5907
284.453	4943
284.512	951
284.570	1634
284.629	1379
284.688	771
284.746	893
284.805	713
284.863	1477
284.922	2262
284.981	2686
285.039	4696
285.098	9258
285.156	22907
285.215	37375
285.273	38417
285.332	26090
285.390	13269
285.449	7464
285.507	5687
285.566	4053
285.624	2560
285.683	2698
285.741	1672
285.799	1110
285.858	1301
285.916	1151
285.975	-136
286.033	-500
286.091	-16
286.150	99
286.208	229
286.267	556
286.325	125
286.383	1185
286.442	775
286.500	-452
286.558	-117
286.616	6
286.675	474
286.733	744
286.791	-553
286.850	-183
286.908	1148
286.966	2018
287.024	493
287.083	-21
287.141	-329
287.199	254
287.257	564
287.315	444
287.374	795
287.432	3148
287.490	1793
287.548	485
287.606	276
287.664	21
287.723	1331
287.781	1066
287.839	174
287.897	86
287.955	398
288.013	1284
288.071	5089
288.129	19906
288.187	51500
288.245	24448
288.303	7548
288.361	3068
288.419	3483
288.477	1474
288.535	891
288.593	1336
288.651	-189
288.709	-879
288.767	259
288.825	361
288.883	-140
288.941	-67
288.999	-112
289.057	-873
289.115	-217
289.173	-644
289.231	-28
289.289	-365
289.346	-903
289.404	-57
289.462	1010
289.520	1478
289.578	-248
289.636	339
289.694	-443
289.751	-407
289.809	-233
289.867	274
289.925	805
289.983	593
290.040	339
290.098	-529
290.156	-387
290.214	-571
290.271	-47
290.329	-458
290.387	-332
290.444	-565
290.502	-917
290.560	371
290.617	-59
290.675	32
290.733	-3
290.790	236
290.848	-651
290.906	-36
290.963	-279
291.021	-320
291.078	-222
291.136	-100
291.194	3922
291.251	7851
291.309	1495
291.366	-483
291.424	-214
291.481	-253
291.539	-954
291.596	-234
291.654	-439
291.711	-837
291.769	-225
291.826	1496
291.884	628
291.941	-960
291.999	-130
292.056	-138
292.114	801
292.171	154
292.228	33
292.286	498
292.343	1492
292.401	1624
292.458	832
292.515	188
292.573	733
292.630	172
292.687	611
292.745	-585
292.802	733
292.859	4477
292.917	6888
292.974	3764
293.031	513
293.089	278
293.146	-541
293.203	44
293.260	124
293.318	1109
293.375	2153
293.432	441
293.489	277
293.546	-366
293.604	612
293.661	3182
293.718	10948
293.775	5859
293.832	2105
293.889	577
293.947	989
294.004	807
294.061	847
294.118	2769
294.175	7699
294.232	12948
294.289	4582
294.346	1685
294.403	1741
294.460	458
294.517	-188
294.574	-43
294.631	307
294.688	540
294.745	3206
294.802	12114
294.859	17659
294.916	6200
294.973	2152
295.030	1874
295.087	1615
295.144	956
295.201	628
295.258	-205
295.315	700
295.372	3887
295.429	7570
295.486	3814
295.542	2469
295.599	7349
295.656	14943
295.713	7979
295.770	8753
295.827	3351
295.883	1569
295.940	499
295.997	3295
296.054	2736
296.111	1689
296.167	1125
296.224	24
296.281	238
296.338	435
296.394	183
296.451	416
296.508	3595
296.564	8016
296.621	6646
296.678	9857
296.734	15261
296.791	6464
296.848	3124
296.904	2717
296.961	7143
297.018	10210
297.074	7367
297.131	3240
297.187	1357
297.244	2612
297.301	8002
297.357	14558
297.414	5433
297.470	1934
297.527	1120
297.583	770
297.640	918
297.696	790
297.753	147
297.809	-123
297.866	-561
297.922	310
297.979	270
298.035	134
298.092	1338
298.148	4532
298.204	5862
298.261	2698
298.317	3857
298.374	12855
298.430	7116
298.486	2005
298.543	1523
298.599	2197
298.656	2382
298.712	4570
298.768	9383
298.824	6591
298.881	2217
298.937	912
298.993	978
299.050	1605
299.106	1398
299.162	1085
299.218	1434
299.275	851
299.331	1185
299.387	2072
299.443	8843
299.500	10994
299.556	3920
299.612	2145
299.668	1231
299.724	1980
299.780	2245
299.837	1275
299.893	1944
299.949	9101
300.005	11013
300.061	9765
300.117	14658
300.173	7099
300.229	3552
300.285	4854
300.341	5189
300.397	3071
300.453	1370
300.510	845
300.566	1211
300.622	1832
300.678	4869
300.734	10211
300.790	9455
300.845	10530
300.901	6584
300.957	9652
301.013	7199
301.069	2604
301.125	995
301.181	2156
301.237	1347
301.293	245
301.349	1072
301.405	78
301.461	736
301.516	1578
301.572	1177
301.628	2529
301.684	2191
301.740	3326
301.796	6633
301.851	5640
301.907	7599
301.963	7052
302.019	10702
302.074	26723
302.130	29572
302.186	15289
302.242	6162
302.297	4004
302.353	3328
302.409	6861
302.464	6304
302.520	4670
302.576	11641
302.631	13053
302.687	8032
302.743	3540
302.798	1266
302.854	989
302.910	2104
302.965	2231
303.021	4071
303.076	4475
303.132	5234
303.187	6765
303.243	2999
303.299	2490
303.354	1487
303.410	1065
303.465	1526
303.521	782
303.576	1678
303.632	1325
303.687	2669
303.743	9820
303.798	8051
303.853	3863
303.909	2045
303.964	1505
304.020	2826
304.075	5279
304.130	3855
304.186	8363
304.241	8963
304.297	7331
304.352	3242
304.358	3177
304.407	2653
304.449	2250
304.463	2117
304.518	2170
304.539	1856
304.573	1347
304.629	1413
304.630	1444
304.684	2843
304.720	5054
304.739	6178
304.794	10591
304.811	9174
304.850	5809
304.902	2883
304.905	2694
304.960	1569
304.992	1614
305.015	1637
305.071	2519
305.083	2441
305.126	2173
305.173	1222
305.181	1066
305.236	1100
305.264	1286
305.292	1497
305.347	1503
305.354	1539
305.402	1699
305.445	1516
305.457	1470
305.512	2538
305.535	2413
305.567	2239
305.622	2774
305.626	2875
305.678	4829
305.716	8811
305.733	10336
305.788	11746
305.807	10381
305.843	7924
305.897	8579
305.898	8582
305.953	9474
305.988	6776
306.008	5165
306.063	2452
306.078	2304
306.118	2111
306.168	844
306.173	734
306.228	1483
306.259	1121
306.283	814
306.338	1070
306.349	1071
306.393	1135
306.440	625
306.448	522
306.503	1909
306.530	1688
306.558	1668
306.613	5180
306.620	5483
306.668	7489
306.711	9977
306.723	10393
306.778	8008
306.801	6567
306.833	4830
306.888	1896
306.892	1852
306.943	1568
306.982	1328
306.997	1225
307.052	1486
307.072	1482
307.107	1742
307.162	1878
307.163	1888
307.217	2557
307.253	3495
307.272	3912
307.327	3976
307.343	3679
307.381	3008
307.434	2555
307.436	2577
307.491	4465
307.524	7060
307.546	8282
307.600	9091
307.614	8216
307.655	5359
307.704	3168
307.710	2981
307.765	2530
307.795	3136
307.819	3824
307.874	6582
307.885	6554
307.929	5770
307.975	5329
307.984	5432
308.038	6909
308.065	8996
308.093	13114
308.148	27105
308.156	30335
308.202	48450
308.246	58984
308.257	58937
308.312	39615
308.336	30816
308.366	22896
308.421	13933
308.426	13257
308.475	8381
308.517	6135
308.530	5588
308.585	4297
308.607	3987
308.639	3697
308.694	3919
308.697	3944
308.748	4892
308.787	6984
308.803	7471
308.857	6540
308.877	6134
308.912	5571
308.967	4674
308.967	4694
309.021	6573
309.058	8394
309.076	9995
309.130	17460
309.148	20875
309.185	32514
309.238	53988
309.239	54143
309.293	62144
309.328	60238
309.348	54997
309.402	32918
309.418	27317
309.457	19172
309.508	12198
309.511	11836
309.566	8758
309.598	7551
309.620	7454
309.674	8133
309.688	8458
309.729	8195
309.778	6799
309.783	6678
309.837	5656
309.868	5278
309.892	5613
309.946	7476
309.959	8410
310.001	12229
310.049	15031
310.055	14643
310.109	9297
310.139	6057
310.163	4638
310.218	2958
310.229	2667
310.272	2233
310.319	2184
310.326	2152
310.381	1984
310.409	1997
310.435	1734
310.489	928
310.499	841
310.543	1104
310.589	1255
310.598	1168
310.652	912
310.679	633
310.706	712
310.760	950
310.769	992
310.814	911
310.859	786
310.868	829
310.923	1138
310.948	1304
310.977	1224
311.031	1151
311.038	1137
311.085	1384
311.128	1486
311.139	1391
311.193	1004
311.218	794
311.247	755
311.301	896
311.308	876
311.356	823
311.398	962
311.410	953
311.464	897
311.488	852
311.518	762
311.572	662
311.578	654
311.626	970
311.668	1226
311.680	1224
311.734	1292
311.758	1282
311.788	1386
311.842	1638
311.847	1668
311.896	2115
311.937	2558
311.950	2464
312.004	2067
312.027	1880
312.058	1705
312.112	1442
312.117	1424
312.165	1288
312.207	1189
312.297	1618
312.386	1750
312.476	1324
312.566	2980
312.656	1721
312.745	1050
312.835	1948
312.925	1281
313.015	849
313.104	1143
313.194	1583
313.284	1512
313.374	1672
313.463	1692
313.553	551
313.643	471
313.732	1152
313.822	1344
313.912	1032
314.001	1562
314.091	582
314.180	1675
314.270	1849
314.360	1662
314.449	1447
314.539	614
314.628	675
314.718	1164
314.808	1374
314.897	642
314.987	1519
315.076	1077
315.166	374
315.255	1381
315.345	751
315.434	1053
315.524	1521
315.613	1009
315.703	1956
315.792	1937
315.881	2223
315.971	1456
316.060	2016
316.150	3077
316.239	1887
316.328	1570
316.418	296
316.507	1007
316.597	1559
316.686	1543
316.775	714
316.865	2737
316.954	1271
317.043	1201
317.133	244
317.222	1062
317.311	1308
317.400	-247
317.490	1528
317.579	1560
317.668	1323
317.757	1558
317.847	2102
317.936	3328
318.025	2837
318.114	1284
318.203	1477
318.293	2824
318.382	4907
318.471	3744
318.560	5529
318.649	11985
318.738	1865
318.828	2060
318.917	1408
319.006	2657
319.095	3493
319.184	13901
319.273	8243
319.362	4339
319.451	2072
319.540	698
319.629	2884
319.718	4922
319.807	2408
319.896	5237
319.985	15661
320.074	6448
320.163	1173
320.252	2609
320.341	2809
320.430	2585
320.519	2241
320.608	1728
320.697	1857
320.786	1137
320.875	1597
320.964	2406
321.053	3319
321.142	3495
321.230	4944
321.319	3000
321.408	8201
321.497	3913
321.586	3563
321.675	2968
321.764	3216
321.852	2889
321.941	4853
322.030	3354
322.119	2772
322.207	8542
322.296	4413
322.385	2900
322.474	3562
322.562	9463
322.651	5410
322.740	3014
322.829	4135
322.917	3759
323.006	2116
323.095	2734
323.183	1214
323.272	3399
323.361	4354
323.449	10531
323.538	3821
323.626	6989
323.715	4343
323.804	2010
323.892	5817
323.981	4364
324.069	1359
324.158	2883
324.246	3241
324.335	2014
324.424	3134
324.512	2232
324.601	1808
324.689	4802
324.778	8960
324.866	3423
324.954	926
325.043	763
325.131	1853
325.220	4003
325.308	2846
325.397	3239
325.485	1992
325.574	921
325.662	1034
325.750	1299
325.839	1280
325.927	1115
326.015	761
326.104	1280
326.192	977
326.280	1579
326.369	809
326.457	1489
326.545	2382
326.634	1350
326.722	904
326.810	939
326.898	712
326.987	1407
327.075	1484
327.163	2511
327.251	1869
327.340	3806
327.428	7033
327.516	1161
327.604	-91
327.692	841
327.781	661
327.869	1085
327.957	1574
328.045	742
328.133	1408
328.221	812
328.309	585
328.397	1268
328.485	1413
328.574	1063
328.662	4959
328.750	3099
328.838	944
328.926	1147
329.014	935
329.102	1439
329.190	2892
329.278	2514
329.366	1016
329.454	324
329.542	977
329.630	268
329.718	630
329.806	724
329.893	2071
329.981	1849
330.069	1975
330.157	9250
330.245	23259
330.333	14064
330.421	2765
330.509	2116
330.597	5827
330.684	4510
330.772	2089
330.860	2338
330.948	2976
331.036	1737
331.123	39
331.211	1123
331.299	1117
331.387	2972
331.475	4657
331.562	1978
331.650	-96
331.738	241
331.825	1089
331.913	31
332.001	499
332.089	1425
332.176	1254
332.264	3371
332.352	2471
332.439	243
332.527	1245
332.614	121
332.702	305
332.790	847
332.877	1582
332.965	2420
333.052	613
333.140	653
333.228	1476
333.315	563
333.403	452
333.490	1561
333.578	1560
333.665	2340
333.753	1225
333.840	1387
333.928	1198
334.015	2408
334.103	3715
334.190	14728
334.278	3730
334.365	1597
334.452	1224
334.540	1194
334.627	208
334.715	1610
334.802	2015
334.889	9399
334.977	10202
335.064	1819
335.151	1272
335.239	1102
335.326	1533
335.413	7825
335.501	11925
335.588	2154
335.675	820
335.762	725
335.850	2720
335.937	1493
336.024	3420
336.111	13934
336.199	6022
336.286	1742
336.373	1282
336.460	116
336.547	1103
336.635	1774
336.722	887
336.809	1319
336.896	862
336.983	5728
337.070	12719
337.157	16966
337.245	7960
337.332	6523
337.419	957
337.506	1369
337.593	1151
337.680	4716
337.767	14370
337.854	4113
337.941	4045
338.028	3558
338.115	773
338.202	2408
338.289	2866
338.376	6600
338.463	3369
338.550	7336
338.637	8457
338.724	1778
338.811	2592
338.898	325
338.984	308
339.071	870
339.158	1070
339.245	3100
339.332	1999
339.419	1995
339.506	1982
339.593	489
339.679	807
339.766	606
339.853	1563
339.940	2610
340.027	852
340.113	849
340.200	660
340.287	433
340.374	695
340.460	1780
340.547	1089
340.634	1925
340.720	5246
340.807	3488
340.894	1272
340.980	1046
341.067	207
341.154	1486
341.240	1589
341.327	3697
341.414	1824
341.500	3056
341.587	1970
341.674	966
341.760	1836
341.847	2489
341.933	966
342.020	-198
342.106	86
342.193	669
342.279	1026
342.366	1192
342.452	1856
342.539	814
342.625	2150
342.712	5637
342.798	2065
342.885	980
342.971	-379
343.058	-540
343.144	891
343.230	1008
343.317	958
343.403	927
343.490	379
343.576	284
343.662	478
343.749	729
343.835	208
343.921	1944
344.008	9651
344.094	22383
344.180	4986
344.267	1884
344.353	5871
344.439	7180
344.525	2752
344.612	2803
344.698	1909
344.784	732
344.870	1044
344.957	347
345.043	1363
345.129	-7
345.215	1918
345.301	2062
345.387	1385
345.474	290
345.560	663
345.646	390
345.732	152
345.818	668
345.904	1070
345.990	555
346.076	766
346.162	2355
346.249	1228
346.335	152
346.421	990
346.507	2408
346.593	9031
346.679	1818
346.765	1469
346.851	738
346.937	161
347.023	359
347.108	683
347.194	695
347.280	820
347.366	1052
347.452	2451
347.538	8865
347.624	9320
347.710	6945
347.796	298
347.882	529
347.967	970
348.053	959
348.139	721
348.225	-320
348.311	-267
348.397	618
348.482	127
348.568	1410
348.654	271
348.740	307
348.825	-907
348.911	2396
348.997	4353
349.083	10094
349.168	791
349.254	211
349.340	1522
349.425	479
349.511	610
349.597	252
349.682	1917
349.768	7547
349.854	3045
349.939	971
350.025	412
350.110	1472
350.196	328
350.282	699
350.367	243
350.453	367
350.538	23
350.624	1254
350.709	305
350.795	233
350.880	804
350.966	1815
351.051	1053
351.137	890
351.222	698
351.308	1980
351.393	6503
351.479	2060
351.564	6
351.649	1017
351.735	243
351.820	558
351.906	293
351.991	225
352.076	2841
352.162	6831
352.247	1107
352.332	693
352.418	2070
352.503	3617
352.588	9536
352.673	7304
352.759	1986
352.844	450
352.929	484
353.014	1312
353.100	761
353.185	1079
353.270	1805
353.355	2008
353.441	1194
353.526	668
353.611	785
353.696	2150
353.781	1638
353.866	404
353.952	243
354.037	1106
354.122	4304
354.207	3624
354.292	1887
354.377	-168
354.462	775
354.547	554
354.632	1125
354.717	1388
354.802	796
354.887	322
354.972	297
355.057	529
355.142	87
355.227	1091
355.312	857
355.397	3129
355.482	6205
355.567	3482
355.652	2346
355.737	2581
355.822	7475
355.907	6138
355.991	1216
356.076	21
356.161	833
356.246	-116
356.331	787
356.416	375
356.501	10503
356.585	11635
356.670	1664
356.755	2189
356.840	1853
356.924	8011
357.009	26185
357.094	11456
357.179	2382
357.263	2052
357.348	2018
357.433	1489
357.517	1067
357.602	1426
357.687	389
357.771	1342
357.856	4987
357.941	3452
358.025	5735
358.110	25978
358.195	13646
358.279	1724
358.364	1283
358.448	5928
358.533	15607
358.617	10744
358.702	10446
358.787	5031
358.871	1984
358.956	1195
359.040	203
359.125	665
359.209	666
359.294	2527
359.378	4043
359.462	1716
359.547	980
359.631	-99
359.716	-201
359.800	385
359.885	1491
359.969	-269
360.053	1062
360.138	323
360.222	929
360.306	1720
360.391	1817
360.475	2799
360.559	6310
360.644	4890
360.728	2914
360.812	6229
360.896	17154
360.981	8279
361.065	4347
361.149	2004
361.233	870
361.318	180
361.402	-253
361.486	930
361.570	-139
361.654	697
361.739	2188
361.823	9724
361.907	18261
361.991	3844
362.075	1822
362.159	3136
362.243	2706
362.327	2184
362.411	2988
362.495	867
362.580	847
362.664	889
362.748	-394
362.832	759
362.916	314
363.000	4152
363.084	11345
363.168	18455
363.252	5281
363.336	2516
363.420	2785
363.503	10724
363.587	13618
363.671	1927
363.755	-200
363.839	3310
363.923	268
364.007	2381
364.091	2544
364.175	1768
364.258	18372
364.342	10455
364.426	8107
364.510	3189
364.594	3647
364.677	3194
364.761	13055
364.845	11040
364.929	3356
365.013	2281
365.096	2535
365.180	2361
365.264	4130
365.347	18337
365.431	8346
365.515	2056
365.598	144
365.682	1844
365.766	839
365.849	2691
365.933	554
366.017	2366
366.100	757
366.184	-83
366.267	1321
366.351	343
366.435	-592
366.518	-257
366.602	452
366.685	569
366.769	558
366.852	1796
366.936	2461
367.019	965
367.103	285
367.186	3096
367.270	419
367.353	-946
367.436	193
367.520	-528
367.603	633
367.687	451
367.770	1628
367.853	1711
367.937	4642
368.020	8649
368.104	679
368.187	1790
368.270	2647
368.353	2518
368.437	1931
368.520	4743
368.603	3507
368.687	4708
368.770	11142
368.853	2093
368.936	3003
369.020	3231
369.103	306
369.186	-621
369.269	121
369.352	1719
369.436	1673
369.519	1086
369.602	-1056
369.685	1448
369.768	-737
369.851	565
369.934	192
370.018	310
370.101	1170
370.184	3159
370.267	1119
370.350	1282
370.433	3031
370.516	6583
370.599	10275
370.682	1444
370.765	6589
370.848	7551
370.931	12739
371.014	6114
371.097	-182
371.180	1189
371.263	-244
371.346	-785
371.429	-235
371.511	215
371.594	627
371.677	2585
371.760	3272
371.843	1525
371.926	8233
372.009	22629
372.091	9973
372.174	3898
372.257	11380
372.340	4030
372.423	3373
372.505	5819
372.588	1634
372.671	3740
372.754	11875
372.836	6165
372.919	4335
373.002	12248
373.085	2264
373.167	2653
373.250	3804
373.332	10653
373.415	14038
373.498	29586
373.580	11651
373.663	11798
373.746	18472
373.828	4365
373.911	1984
373.993	1767
374.076	10753
374.159	11325
374.241	3661
374.324	10695
374.406	7456
374.489	7379
374.571	24318
374.654	10037
374.736	4349
374.819	14179
374.901	21213
374.983	22750
375.066	4696
375.148	1115
375.231	6863
375.313	17044
375.395	6482
375.478	950
375.560	396
375.643	746
375.725	2546
375.807	16669
375.890	15262
375.972	3861
376.054	2850
376.136	3870
376.219	1353
376.301	4866
376.383	15905
376.465	5887
376.548	3170
376.630	3673
376.712	13874
376.794	6425
376.877	531
376.959	-256
377.041	639
377.123	1836
377.205	2935
377.287	-197
377.369	368
377.452	-92
377.534	-936
377.616	687
377.698	-314
377.780	-473
377.862	825
377.944	780
378.026	-938
378.108	256
378.190	-549
378.272	1156
378.354	338
378.436	-250
378.518	-163
378.600	4547
378.682	3950
378.764	7240
378.846	5470
378.928	1451
379.010	1287
379.091	1726
379.173	218
379.255	-549
379.337	-635
379.419	2735
379.501	11116
379.583	4469
379.664	500
379.746	1530
379.828	8269
379.910	10015
379.991	9887
380.073	1444
380.155	-416
380.237	473
380.318	-375
380.400	-11
380.482	1360
380.564	2451
380.645	1569
380.727	1611
380.809	1751
380.890	144
380.972	-879
381.053	406
381.135	419
381.217	2003
381.298	8673
381.380	3286
381.461	2489
381.543	12354
381.624	16982
381.706	2649
381.787	1143
381.869	1643
381.951	4567
382.032	19594
382.113	15645
382.195	2037
382.276	2089
382.358	2882
382.439	10662
382.521	12795
382.602	20436
382.684	8907
382.765	16076
382.846	14855
382.928	13959
383.009	7172
383.090	4647
383.172	18555
383.253	30338
383.334	12121
383.416	17892
383.497	9046
383.578	2405
383.659	4941
383.741	15406
383.822	45431
383.903	23946
383.984	10180
384.066	24087
384.147	14485
384.228	2831
384.309	1280
384.390	1138
384.471	411
384.553	839
384.634	1487
384.715	1770
384.796	282
384.877	242
384.958	5632
385.039	7388
385.120	3052
385.201	1895
385.282	892
385.363	1266
385.444	345
385.525	2072
385.606	8534
385.687	8923
385.768	1744
385.849	988
385.930	10421
386.011	19245
386.092	4741
386.173	1125
386.254	928
386.335	1433
386.416	1145
386.496	4337
386.577	8749
386.658	2337
386.739	1326
386.820	1136
386.901	652
386.981	983
387.062	-90
387.143	-568
387.224	6256
387.304	7126
387.385	2122
387.466	-304
387.547	2338
387.627	-116
387.708	1854
387.789	11711
387.869	14971
387.950	5348
388.031	53
388.111	-1230
388.192	2714
388.273	5105
388.353	1800
388.434	550
388.514	1685
388.595	10271
388.676	14799
388.756	8145
388.837	7612
388.917	4168
388.998	-713
389.078	794
389.159	448
389.239	-1166
389.320	2070
389.400	-868
389.480	2630
389.561	6621
389.641	3895
389.722	380
389.802	1698
389.883	2635
389.963	9232
390.043	4826
390.124	466
390.204	2430
390.284	8540
390.365	5581
390.445	5971
390.525	11612
390.605	10227
390.686	3329
390.766	1560
390.846	710
390.927	-1166
391.007	-893
391.087	298
391.167	-292
391.247	-1304
391.328	643
391.408	2055
391.488	1338
391.568	-1621
391.648	160
391.728	1522
391.808	1398
391.888	1055
391.969	3096
392.049	6226
392.129	2949
392.209	2371
392.289	8058
392.369	4160
392.449	4154
392.529	2174
392.609	1103
392.689	1679
392.769	7753
392.849	7176
392.929	5068
393.009	12139
393.089	7067
393.169	3413
393.248	8532
393.328	50150
393.408	59109
393.488	12876
393.568	3259
393.648	1745
393.728	430
393.807	-382
393.887	1726
393.967	981
394.047	1086
394.127	1261
394.206	3925
394.286	15388
394.366	62475
394.446	72629
394.525	21577
394.605	5565
394.685	4237
394.764	8186
394.844	12535
394.924	7973
395.003	1745
395.083	1599
395.163	1358
395.242	254
395.322	1209
395.402	-84
395.481	1786
395.561	2697
395.640	12941
395.720	10099
395.799	14192
395.879	12555
395.958	7946
396.038	25100
396.117	78732
396.197	93940
396.276	37817
396.356	12210
396.435	7550
396.515	4393
396.594	2392
396.673	4498
396.753	12541
396.832	49840
396.912	41833
396.991	9575
397.070	1978
397.150	-284
397.229	930
397.308	326
397.388	1039
397.467	1279
397.546	-585
397.625	-2164
397.705	1057
397.784	954
397.863	-75
397.942	-672
398.022	-533
398.101	2434
398.180	12868
398.259	6322
398.338	674
398.417	-374
398.497	-970
398.576	804
398.655	-1217
398.734	216
398.813	242
398.892	2781
398.971	13311
399.050	6090
399.129	-1361
399.208	-401
399.287	297
399.366	-957
399.445	-348
399.524	-191
399.603	-1295
399.682	703
399.761	1905
399.840	13333
399.919	11134
399.998	297
400.077	-876
400.156	-810
400.235	1626
400.313	-448
400.392	-629
400.471	3694
400.550	6604
400.629	462
400.708	1329
400.786	-460
400.865	1662
400.944	1704
401.023	1965
401.102	-1344
401.180	-727
401.259	-924
401.338	-370
401.416	-57
401.495	-1274
401.574	876
401.652	-1285
401.731	618
401.810	-1105
401.888	-326
401.967	-1121
402.046	-240
402.124	513
402.203	-428
402.281	-212
402.360	-133
402.438	4141
402.517	1792
402.596	-136
402.674	-329
402.753	-945
402.831	342
402.910	-399
402.988	609
403.066	7518
403.145	5646
403.223	2810
403.302	6330
403.380	4922
403.459	4556
403.537	1507
403.615	739
403.694	-1917
403.772	571
403.850	-497
403.929	-583
404.007	-1264
404.085	1364
404.164	297
404.242	-360
404.320	3273
404.398	10888
404.477	10227
404.555	18500
404.633	17884
404.711	9416
404.789	4874
404.868	767
404.946	-971
405.024	4
405.102	-806
405.180	-924
405.258	-2229
405.336	171
405.415	-287
405.493	530
405.571	590
405.649	-1022
405.727	-997
405.805	1143
405.883	-554
405.961	244
406.039	113
406.117	-1871
406.195	-67
406.273	1369
406.351	15412
406.429	10095
406.507	90
406.585	-439
406.663	-405
406.740	84
406.818	-439
406.896	-915
406.974	235
407.052	-1287
407.130	7831
407.208	13121
407.285	1919
407.363	-607
407.441	-641
407.519	-979
407.596	-138
407.674	641
407.752	3062
407.830	4345
407.907	2041
407.985	-488
408.063	-605
408.141	-590
408.218	861
408.296	-85
408.373	-728
408.451	-250
408.529	-502
408.606	-966
408.684	-919
408.762	-268
408.839	-1146
408.917	-1834
408.994	-1322
409.072	-1354
409.149	-1230
409.227	-88
409.304	-339
409.382	-1058
409.459	-633
409.537	33
409.614	-904
409.692	-1250
409.769	-810
409.846	-1189
409.924	-165
410.001	-1454
410.079	-910
410.156	-115
410.233	-465
410.311	-1360
410.388	-1419
410.465	-308
410.543	-1380
410.620	333
410.697	60
410.775	-744
410.852	-2568
410.929	-104
411.006	355
411.083	-794
411.161	-19
411.238	1422
411.315	-272
411.392	-767
411.469	-277
411.547	377
411.624	-2147
411.701	-1010
411.778	-425
411.855	712
411.932	-1189
412.009	-1396
412.086	-544
412.163	-469
412.240	-692
412.317	-322
412.394	-1152
412.471	-568
412.548	-1185
412.625	-340
412.702	-407
412.779	-106
412.856	369
412.933	-629
413.010	-778
413.087	-650
413.164	2515
413.241	5205
413.318	304
413.395	-39
413.471	-526
413.548	-59
413.625	-783
413.702	-693
413.779	-906
413.855	-1232
413.932	-954
414.009	-1796
414.086	-785
414.162	-268
414.239	-437
414.316	2622
414.393	8461
414.469	1675
414.546	-1401
414.623	-1226
414.699	-1044
414.776	-1147
414.853	-894
414.929	-191
415.006	-1346
415.082	-288
415.159	-419
415.236	-815
415.312	-358
415.389	-295
415.465	-897
415.542	-409
415.618	-1375
415.695	132
415.771	-995
415.848	-1262
415.924	-85
416.000	-1083
416.077	-427
416.153	-1606
416.230	-2335
416.306	-811
416.383	-2279
416.459	234
416.535	-1112
416.612	-1595
416.688	-1283
416.764	-556
416.841	-1386
416.917	-1101
416.993	-624
417.069	-548
417.146	-1200
417.222	-675
417.298	-934
417.374	-663
417.451	-774
417.527	-777
417.603	-957
417.679	-414
417.755	-731
417.831	-1627
417.908	-974
417.984	-1296
418.060	-2153
418.136	-67
418.212	-449
418.288	-536
418.364	-1221
418.440	-1110
418.516	-669
418.592	-822
418.668	508
418.744	674
418.820	1463
418.896	-797
418.972	-1932
419.048	-1223
419.124	381
419.200	-1137
419.276	-888
419.352	-1746
419.428	-78
419.504	-362
419.579	-732
419.655	-1529
419.731	-1246
419.807	-265
419.883	1235
419.959	1101
420.034	-918
420.110	-13
420.186	3291
420.262	4441
420.337	-814
420.413	-437
420.489	-1115
420.565	-465
420.640	-1206
420.716	-682
420.792	-2152
420.867	-249
420.943	-1127
421.019	-619
421.094	-483
421.170	-882
421.245	-1160
421.321	-569
421.397	-1318
421.472	-319
421.548	124
421.623	581
421.699	-405
421.774	-324
421.850	-1210
421.925	-295
422.001	-1043
422.076	-514
422.152	-882
422.227	349
422.302	817
422.378	1489
422.453	2551
422.529	9407
422.604	31315
422.679	60039
422.755	39402
422.830	12997
422.905	3477
422.981	1574
423.056	-326
423.131	831
423.207	-907
423.282	-349
423.357	640
423.432	-614
423.508	-207
423.583	1508
423.658	111
423.733	94
423.808	-435
423.883	312
423.959	-1231
424.034	-437
424.109	-440
424.184	-1576
424.259	-880
424.334	-1644
424.409	-881
424.484	-670
424.559	-778
424.634	-1430
424.709	-913
424.784	-396
424.859	-981
424.934	-209
425.009	1953
425.084	5655
425.159	522
425.234	-6
425.309	-1665
425.384	361
425.459	611
425.534	-299
425.609	-1327
425.683	-852
425.758	-1578
425.833	-1239
425.908	-567
425.983	934
426.058	5409
426.132	1496
426.207	-1530
426.282	959
426.357	-1029
426.431	-1512
426.506	-665
426.581	-858
426.655	-539
426.730	-1052
426.805	-919
426.879	-1219
426.954	-1662
427.029	-299
427.103	3535
427.178	12920
427.253	5240
427.327	-171
427.402	-659
427.476	1738
427.551	177
427.625	-442
427.700	-36
427.774	-1497
427.849	-852
427.923	-1718
427.998	-735
428.072	-1646
428.147	-336
428.221	2191
428.296	9103
428.370	4555
428.444	-1595
428.519	-388
428.593	1020
428.667	1034
428.742	1762
428.816	1686
428.890	6015
428.965	11168
429.039	3099
429.113	2506
429.188	24
429.262	-773
429.336	68
429.410	1318
429.485	668
429.559	2356
429.633	796
429.707	-700
429.781	-366
429.855	6908
429.930	12881
430.004	5785
430.078	13088
430.152	10427
430.226	11977
430.300	14011
430.374	1156
430.448	316
430.522	2767
430.596	12090
430.670	6747
430.744	10661
430.818	18850
430.892	3168
430.966	-636
431.040	-620
431.114	-1249
431.188	-1500
431.262	-1478
431.336	-662
431.410	186
431.484	2342
431.557	1513
431.631	-899
431.705	-1212
431.779	-908
431.853	7548
431.927	5107
432.000	-197
432.074	-463
432.148	-1472
432.222	-1134
432.295	-617
432.369	-1102
432.443	-1402
432.516	3711
432.590	13139
432.664	5140
432.737	-597
432.811	-1084
432.885	-1198
432.958	-1059
433.032	-1548
433.106	-1476
433.179	-797
433.253	-1371
433.326	-1346
433.400	-951
433.473	-1271
433.547	-1231
433.620	-799
433.694	-1225
433.767	-481
433.841	-1599
433.914	-1420
433.988	-900
434.061	-998
434.134	-1650
434.208	-1749
434.281	-1236
434.355	-1344
434.428	-535
434.501	-1228
434.575	-1164
434.648	-1914
434.721	-1620
434.795	-1134
434.868	-1193
434.941	-1378
435.014	-710
435.088	-1140
435.161	-647
435.234	-1306
435.307	-930
435.381	-1548
435.454	-1472
435.527	-1121
435.600	-1497
435.673	-1309
435.746	-1312
435.819	-1389
435.892	-396
435.966	-1462
436.039	-1366
436.112	-878
436.185	-1118
436.258	-1509
436.331	-1722
436.404	-1520
436.477	-1553
436.550	-1522
436.623	-536
436.696	-1533
436.769	-705
436.842	-1386
436.915	-1450
436.987	-1257
437.060	-1104
437.133	-1709
437.206	-1469
437.279	-441
437.352	-1013
437.425	-1396
437.498	-1001
437.570	-36
437.643	-495
437.716	-962
437.789	-942
437.861	-1137
437.934	18
438.007	-280
438.080	-1396
438.152	-1096
438.225	60
438.298	5136
438.370	18493
438.443	7192
438.516	1321
438.588	-930
438.661	-1100
438.734	-1289
438.806	-866
438.879	-919
438.951	-566
439.024	-67
439.096	-1308
439.169	-911
439.241	-1425
439.314	-1341
439.386	-1280
439.459	-404
439.531	-764
439.604	-668
439.676	-491
439.749	-1536
439.821	-1654
439.893	-1136
439.966	-1419
440.038	-1060
440.110	-817
440.183	-1275
440.255	-982
440.327	-72
440.400	1936
440.472	11637
440.544	7919
440.617	-979
440.689	261
440.761	43
440.833	536
440.905	-429
440.978	-1423
441.050	-1251
441.122	-725
441.194	-2178
441.266	-1181
441.338	-1052
441.411	-410
441.483	2369
441.555	6083
441.627	-88
441.699	-175
441.771	-616
441.843	-148
441.915	-1653
441.987	-1417
442.059	-1073
442.131	-803
442.203	-759
442.275	-170
442.347	-302
442.419	-119
442.491	2164
442.563	7838
442.635	3927
442.706	2048
442.778	2081
442.850	-852
442.922	-593
442.994	-934
443.066	492
443.137	-649
443.209	-520
443.281	-432
443.353	31
443.425	4352
443.496	16214
443.568	16821
443.640	5193
443.711	678
443.783	-808
443.855	-999
443.926	-1253
443.998	-660
444.070	-838
444.141	-1024
444.213	-828
444.285	304
444.356	-415
444.428	-585
444.499	-1243
444.571	-811
444.642	-1072
444.714	-730
444.785	-52
444.857	864
444.928	2238
445.000	696
445.071	590
445.143	986
445.214	239
445.285	560
445.357	4387
445.428	12430
445.500	31221
445.571	19608
445.642	8919
445.714	3659
445.785	4222
445.856	-378
445.928	371
445.999	69
446.070	-627
446.141	110
446.213	141
446.284	-145
446.355	-631
446.426	-1008
446.497	-736
446.569	382
446.640	92
446.711	-4
446.782	-933
446.853	-660
446.924	-1053
446.995	-975
447.066	-477
447.138	175
447.209	-89
447.280	-1584
447.351	-808
447.422	-1589
447.493	-1068
447.564	-469
447.635	-779
447.706	-491
447.777	-604
447.847	-406
447.918	-1885
447.989	-565
448.060	-93
448.131	1129
448.202	676
448.273	662
448.344	265
448.414	-1244
448.485	-1285
448.556	-500
448.627	-1153
448.698	-230
448.768	-1084
448.839	-893
448.910	-237
448.981	540
449.051	-548
449.122	-683
449.193	-316
449.263	-527
449.334	-285
449.405	-307
449.475	-232
449.546	617
449.616	413
449.687	384
449.758	-489
449.828	139
449.899	-944
449.969	-1312
450.040	-1045
450.110	-173
450.181	-313
450.251	-487
450.322	-1066
450.392	-426
450.463	-1147
450.533	-716
450.604	-1219
450.674	-678
450.744	-748
450.815	-1375
450.885	-686
450.955	-35
451.026	-1499
451.096	-466
451.166	-790
451.237	52
451.307	2632
451.377	944
451.447	-924
451.518	-489
451.588	-796
451.658	-427
451.728	-549
451.799	3016
451.869	2863
451.939	-741
452.009	-1260
452.079	-800
452.149	-65
452.219	-787
452.289	3540
452.360	2698
452.430	34
452.500	-843
452.570	-538
452.640	912
452.710	1295
452.780	3745
452.850	1734
452.920	1314
452.990	-78
453.060	175
453.129	-628
453.199	379
453.269	4202
453.339	9170
453.409	14178
453.479	14244
453.549	21538
453.619	24093
453.688	8594
453.758	1439
453.828	-366
453.898	-227
453.968	-757
454.037	-49
454.087	-135
454.107	-194
454.168	-616
454.177	-702
454.247	-439
454.249	-407
454.316	-175
454.330	-145
454.386	-172
454.411	785
454.456	1812
454.492	2403
454.525	2858
454.574	1230
454.595	551
454.655	-157
454.665	-240
454.734	539
454.736	640
454.804	2086
454.817	2971
454.873	4742
454.898	4950
454.943	4894
454.979	2790
455.013	1303
455.060	1036
455.082	1242
455.141	1785
455.152	1773
455.221	6418
455.222	6624
455.291	10124
455.303	10411
455.360	10690
455.384	14317
455.430	17905
455.465	13700
455.499	10143
455.546	7687
455.569	6047
455.627	3408
455.638	3143
455.707	674
455.708	695
455.777	-286
455.789	-16
455.846	1197
455.869	903
455.916	317
455.950	707
455.985	971
456.031	583
456.054	364
456.112	654
456.124	738
456.193	278
456.193	252
456.262	692
456.274	910
456.332	1726
456.355	1827
456.401	1642
456.436	1312
456.470	1030
456.516	927
456.540	889
456.597	-55
456.609	-230
456.678	874
456.678	859
456.747	714
456.759	588
456.817	158
456.840	128
456.886	-89
456.920	333
456.955	888
457.001	1008
457.024	983
457.082	1327
457.093	1405
457.162	1874
457.163	1901
457.232	1808
457.243	1754
457.301	1310
457.324	1216
457.370	1019
457.405	763
457.439	773
457.485	1037
457.508	1030
457.566	957
457.577	988
457.646	2142
457.647	2167
457.715	2859
457.727	3068
457.784	4375
457.808	5002
457.853	5667
457.889	6579
457.922	6322
457.969	4391
457.991	4423
458.050	5729
458.060	6004
458.129	9068
458.130	9183
458.198	7810
458.211	7216
458.267	4395
458.292	3264
458.336	2787
458.372	2696
458.405	3720
458.453	5131
458.474	6273
458.533	10219
458.543	10546
458.611	14738
458.614	14880
458.680	8011
458.694	6297
458.749	3626
458.775	2803
458.818	2207
458.855	2000
458.887	2300
458.936	2606
458.955	2414
459.016	1685
459.024	1710
459.093	3077
459.097	3094
459.162	2321
459.177	2286
459.230	2966
459.257	3568
459.299	4036
459.338	4102
459.368	4117
459.418	4263
459.437	4016
459.499	2942
459.505	2898
459.574	3162
459.579	3134
459.643	2808
459.659	2854
459.711	2643
459.740	2520
459.780	2912
459.820	3553
459.849	3887
459.900	4229
459.917	4110
459.981	3969
459.986	3978
460.054	4018
460.061	3983
460.123	3898
460.141	4147
460.191	5048
460.222	5352
460.260	5583
460.302	6043
460.328	5877
460.382	5361
460.397	5336
460.462	4732
460.465	4813
460.534	7681
460.543	8033
460.602	19939
460.623	24353
460.671	39013
460.703	50432
460.739	42583
460.783	31608
460.808	25543
460.864	6792
460.876	5971
460.944	4436
460.945	4417
461.013	4476
461.024	4528
461.081	4682
461.104	4662
461.150	4393
461.184	4228
461.218	4231
461.264	4007
461.286	3979
461.345	4230
461.355	4207
461.423	4047
461.425	4042
461.491	4807
461.505	5036
461.559	9213
461.585	11055
461.628	18415
461.665	25491
461.696	26934
461.745	29331
461.764	24312
461.825	6161
461.832	6001
461.901	5191
461.905	5176
461.969	4590
461.985	4470
462.037	4979
462.065	5076
462.105	5446
462.145	6370
462.173	9523
462.225	14965
462.241	16454
462.305	22550
462.310	21772
462.378	9781
462.385	8296
462.446	5793
462.465	5240
462.514	4960
462.545	4828
462.582	5380
462.625	5968
462.650	5816
462.705	5794
462.718	6070
462.785	6840
462.786	6876
462.854	8975
462.865	9364
462.922	11356
462.945	12187
462.990	8500
463.025	5371
463.058	4964
463.104	4428
463.126	4445
463.184	4625
463.194	4738
463.262	5388
463.264	5410
463.330	5464
463.344	5489
463.398	6710
463.424	7314
463.466	6966
463.504	6563
463.533	6694
463.583	6903
463.601	7000
463.663	6884
463.669	7059
463.737	9775
463.743	9977
463.805	15098
463.823	16570
463.873	26408
463.903	32594
463.940	33401
463.982	34187
464.008	26800
464.062	10547
464.076	9744
464.142	5901
464.144	5918
464.211	6192
464.221	6280
464.279	6286
464.301	6281
464.347	7788
464.381	8955
464.414	9167
464.461	9330
464.482	9915
464.540	11569
464.550	11120
464.617	7646
464.620	7514
464.685	8545
464.699	8798
464.753	10801
464.779	11758
464.820	13212
464.859	14627
464.888	14374
464.938	13607
464.956	13879
465.018	14945
465.023	14701
465.091	11068
465.098	10688
465.158	11141
465.177	11227
465.226	11046
465.257	11016
465.293	11571
465.336	12029
465.361	12593
465.416	13918
465.428	14856
465.495	19749
465.496	19869
465.563	33397
465.575	35684
465.631	42677
465.654	45692
465.698	28661
465.734	14083
465.765	12540
465.813	10432
465.833	10261
465.893	9652
465.900	9797
465.968	10987
465.972	11043
466.035	10398
466.052	10251
466.102	10774
466.131	10964
466.170	10903
466.210	10846
466.237	11366
466.290	12288
466.304	12292
466.369	12112
466.372	12189
466.439	13821
466.449	14026
466.506	14451
466.528	14552
466.573	19511
466.607	23202
466.641	33933
466.687	48755
466.708	52981
466.766	64389
466.775	59417
466.842	20996
466.845	19129
466.909	16013
466.925	15240
466.977	15036
467.004	14934
467.044	15116
467.083	15209
467.111	16983
467.163	20233
467.178	20756
467.242	22724
467.245	22620
467.312	19509
467.321	19057
467.379	20487
467.400	20947
467.446	22741
467.480	23958
467.559	19030
467.638	15882
467.717	17198
467.796	17111
467.875	19328
467.955	17434
468.034	26745
468.113	55376
468.192	81082
468.271	21860
468.350	15914
468.429	15170
468.508	16371
468.588	14840
468.667	14650
468.746	16120
468.825	16444
468.904	13802
468.983	16344
469.062	24513
469.141	30415
469.220	13911
469.299	14934
469.378	15272
469.456	19513
469.535	17132
469.614	16629
469.693	16721
469.772	21709
469.851	28211
469.930	19573
470.009	14694
470.088	13119
470.166	13697
470.245	15124
470.324	15009
470.403	15371
470.482	13414
470.560	13845
470.639	13175
470.718	16195
470.797	13404
470.875	16170
470.954	21512
471.033	23374
471.111	11676
471.190	12353
471.269	11183
471.347	11476
471.426	13027
471.505	14550
471.583	16193
471.662	15565
471.740	13348
471.819	14133
471.898	12657
471.976	13111
472.055	12609
472.133	15019
472.212	19333
472.290	21027
472.369	13207
472.447	13010
472.526	11698
472.604	12878
472.683	13004
472.761	12925
472.839	12679
472.918	12714
472.996	12648
473.075	14811
473.153	13825
473.231	11094
473.310	13434
473.388	14461
473.466	12335
473.545	13929
473.623	15827
473.701	16330
473.780	12197
473.858	11949
473.936	14247
474.014	12675
474.093	13997
474.171	19970
474.249	27752
474.327	17348
474.405	9949
474.484	11608
474.562	10840
474.640	11173
474.718	11872
474.796	12507
474.874	11858
474.952	10487
475.030	11684
475.108	11503
475.187	11922
475.265	12834
475.343	14929
475.421	18152
475.499	11497
475.577	13063
475.655	16336
475.733	30705
475.811	51311
475.889	47756
475.966	30218
476.044	12494
476.122	12480
476.200	15329
476.278	13127
476.356	10725
476.434	11461
476.512	13322
476.590	15322
476.667	14720
476.745	10106
476.823	11700
476.901	11270
476.979	11459
477.056	11165
477.134	12155
477.212	12330
477.290	10565
477.367	9409
477.445	10561
477.523	10589
477.601	10209
477.678	10236
477.756	14072
477.834	14815
477.911	10500
477.989	10092
478.066	9782
478.144	12511
478.222	12506
478.299	16368
478.377	15948
478.454	10283
478.532	10041
478.609	10137
478.687	10376
478.764	9448
478.842	11132
478.919	10140
478.997	10163
479.074	9461
479.152	12134
479.229	14703
479.307	10335
479.384	7664
479.461	8644
479.539	9487
479.616	12113
479.694	9301
479.771	11074
479.848	11126
479.926	16471
480.003	16757
480.080	9542
480.157	8804
480.235	8848
480.312	8864
480.389	10536
480.467	15762
480.544	21240
480.621	11231
480.698	10918
480.775	11456
480.853	13091
480.930	10005
481.007	10559
481.084	12551
481.161	15216
481.238	12817
481.315	10658
481.392	9110
481.470	9648
481.547	9342
481.624	10449
481.701	9886
481.778	9995
481.855	11176
481.932	17310
482.009	29809
482.086	18429
482.163	9727
482.240	12705
482.317	18654
482.393	14995
482.470	9905
482.547	10363
482.624	8782
482.701	9634
482.778	8561
482.855	8934
482.932	8897
483.009	8270
483.085	8823
483.162	11380
483.239	11361
483.316	8220
483.393	8349
483.469	9274
483.546	11508
483.623	11479
483.699	9351
483.776	10596
483.853	10624
483.930	18169
484.006	43634
484.083	73969
484.160	37767
484.236	54230
484.313	41046
484.389	32262
484.466	26785
484.543	26689
484.619	25458
484.696	27692
484.772	29170
484.849	31812
484.925	23842
485.002	25656
485.078	26544
485.155	26572
485.231	23249
485.308	23599
485.384	24790
485.461	30185
485.537	45712
485.614	53159
485.690	23761
485.766	23084
485.843	23361
485.919	28247
485.995	27996
486.072	21350
486.148	20238
486.224	20940
486.301	21535
486.377	24860
486.453	24120
486.530	25005
486.606	31807
486.682	35601
486.758	41457
486.835	47917
486.911	37536
486.987	57816
487.063	49611
487.139	51397
487.215	39172
487.292	26894
487.368	22599
487.444	25057
487.520	27753
487.596	25971
487.672	31115
487.748	52760
487.824	70944
487.900	37169
487.976	24206
488.052	23895
488.128	28101
488.204	23609
488.280	23054
488.356	27306
488.432	51731
488.508	75279
488.584	25924
488.660	19648
488.736	19609
488.812	20666
488.888	24721
488.964	29422
489.039	46839
489.115	68844
489.191	42632
489.267	20799
489.343	19331
489.418	17314
489.494	17488
489.570	16143
489.646	19465
489.722	18108
489.797	18627
489.873	28154
489.949	59770
490.024	46668
490.100	17063
490.176	18396
490.251	18793
490.327	21716
490.403	15627
490.478	15889
490.554	13740
490.629	15312
490.705	14002
490.781	15292
490.856	14827
490.932	17799
491.007	16452
491.083	17137
491.158	15620
491.234	21709
491.309	44650
491.385	43441
491.460	15939
491.536	16660
491.611	15041
491.686	15690
491.762	17966
491.837	30133
491.913	48868
491.988	67542
492.063	77088
492.139	32263
492.214	22335
492.289	12800
492.365	12866
492.440	17185
492.515	14894
492.590	15104
492.666	11695
492.741	17357
492.816	25688
492.891	14218
492.967	12066
493.042	11790
493.117	12075
493.192	15091
493.267	24157
493.342	77814
493.418	103053
493.493	18709
493.568	11107
493.643	11929
493.718	14048
493.793	20702
493.868	19852
493.943	13391
494.018	12162
494.093	11037
494.168	10705
494.243	9371
494.318	9655
494.393	10578
494.468	9781
494.543	8990
494.618	10740
494.693	9735
494.768	10336
494.842	11502
494.917	9106
494.992	10692
495.067	9355
495.142	8455
495.217	9688
495.292	10063
495.366	11714
495.441	14844
495.516	17626
495.591	21784
495.665	54969
495.740	124198
495.815	48739
495.890	15292
495.964	11987
496.039	14612
496.114	12421
496.188	14778
496.263	13891
496.338	13005
496.412	14659
496.487	17845
496.561	16518
496.636	16935
496.710	14066
496.785	15906
496.860	17815
496.934	14787
497.009	13444
497.083	14767
497.158	15646
497.232	18595
497.307	21082
497.381	16807
497.455	21390
497.530	28564
497.604	20090
497.679	21882
497.753	32152
497.827	39708
497.902	33500
497.976	40381
498.050	79490
498.125	274449
498.199	254076
498.273	44789
498.348	33360
498.422	30701
498.496	28357
498.570	26410
498.645	21819
498.719	23281
498.793	26152
498.867	39180
498.941	48966
499.016	114592
499.090	302122
499.164	93505
499.238	17704
499.312	15137
499.386	17459
499.460	16949
499.534	15473
499.609	21144
499.683	30687
499.757	28728
499.831	55004
499.905	209776
499.979	180224
500.053	34512
500.127	30751
500.201	18605
500.275	13801
500.349	14691
500.422	17117
500.496	23524
500.570	42180
500.644	114719
500.718	218829
500.792	43458
500.866	16467
500.940	22338
501.013	17155
501.087	16274
501.161	26659
501.235	35100
501.309	78083
501.382	212238
501.456	163245
501.530	40606
501.603	75737
501.677	27089
501.751	13146
501.825	17130
501.898	29990
501.972	90877
502.046	50709
502.119	16982
502.193	38850
502.266	98667
502.340	41966
502.413	44301
502.487	84733
502.561	46772
502.634	15064
502.708	12162
502.781	9430
502.855	9640
502.928	8046
503.002	9738
503.075	8216
503.149	9998
503.222	10072
503.295	13127
503.369	14425
503.442	20950
503.516	65832
503.589	169632
503.662	100534
503.736	33129
503.809	79810
503.882	59047
503.956	89641
504.029	73366
504.102	32087
504.175	35339
504.249	15840
504.322	15160
504.395	13047
504.468	10839
504.542	9917
504.615	8445
504.688	7395
504.761	6451
504.834	10455
504.907	10868
504.980	15348
505.053	10311
505.127	10244
505.200	14878
505.273	14443
505.346	8834
505.419	6771
505.492	7552
505.565	6629
505.638	6541
505.711	6543
505.784	6379
505.857	5389
505.930	8718
506.003	6627
506.076	8476
506.149	10828
506.221	14545
506.294	13371
506.367	33803
506.440	115569
506.513	52278
506.586	14222
506.659	8613
506.731	6413
506.804	8397
506.877	10737
506.950	9095
507.022	6848
507.095	9884
507.168	11966
507.241	6989
507.313	5690
507.386	5981
507.459	9447
507.531	6804
507.604	5705
507.677	6836
507.749	4897
507.822	9469
507.894	16466
507.967	21362
508.040	12427
508.112	12120
508.185	10498
508.257	9787
508.330	14414
508.402	10210
508.475	10745
508.547	11229
508.620	9660
508.692	18366
508.765	10764
508.837	8418
508.909	8705
508.982	8132
509.054	9953
509.127	9085
509.199	8277
509.271	7496
509.344	7442
509.416	8429
509.488	8335
509.560	8444
509.633	8241
509.705	9383
509.777	10025
509.849	12709
509.922	9399
509.994	9619
510.066	9541
510.138	10522
510.210	20615
510.283	19000
510.355	14576
510.427	13081
510.499	12154
510.571	12043
510.643	10830
510.715	16269
510.787	12978
510.859	12452
510.931	13828
511.003	16145
511.076	14950
511.148	10583
511.219	10495
511.291	18517
511.363	20372
511.435	11199
511.507	8899
511.579	10609
511.651	10199
511.723	10374
511.795	8707
511.867	10430
511.939	11763
512.010	24625
512.082	17139
512.154	9378
512.226	9888
512.298	15238
512.369	20134
512.441	16657
512.513	14682
512.585	11814
512.656	12029
512.728	13702
512.800	9769
512.871	10768
512.943	11264
513.015	9083
513.086	10525
513.158	11982
513.230	9935
513.301	13638
513.373	14313
513.444	9852
513.516	9498
513.588	9811
513.659	9380
513.731	12146
513.802	10438
513.874	16758
513.945	27441
514.016	11726
514.088	9113
514.159	9421
514.231	12905
514.302	19373
514.374	15014
514.445	13750
514.516	29437
514.588	19601
514.659	13730
514.730	26021
514.802	17853
514.873	12874
514.944	14994
515.016	12772
515.087	12589
515.158	18559
515.229	25269
515.301	14041
515.372	17880
515.443	13895
515.514	11478
515.585	8191
515.656	9426
515.728	9735
515.799	8090
515.870	10235
515.941	9232
516.012	9868
516.083	13007
516.154	12754
516.225	14197
516.296	14435
516.367	12043
516.438	13549
516.509	14096
516.580	19266
516.651	43848
516.722	139510
516.793	64448
516.864	21115
516.935	20960
517.006	21927
517.077	27314
517.148	52138
517.219	128818
517.289	197830
517.360	122822
517.431	41596
517.502	13722
517.573	12859
517.643	12455
517.714	15731
517.785	14616
517.856	13809
517.926	16040
517.997	17805
518.068	18314
518.138	24132
518.209	29584
518.280	84097
518.350	292571
518.421	102882
518.492	20187
518.562	16098
518.633	16596
518.703	15551
518.774	23240
518.845	38469
518.915	35551
518.986	20639
519.056	18671
519.127	29044
519.197	45320
519.268	118074
519.338	70248
519.408	19565
519.479	19228
519.549	14272
519.620	12632
519.690	9119
519.760	10002
519.831	10206
519.901	9298
519.971	10175
520.042	10395
520.112	11806
520.182	12697
520.253	13331
520.323	10231
520.393	13964
520.463	19563
520.534	12640
520.604	27903
520.674	14478
520.744	14328
520.814	28982
520.885	26649
520.955	38124
521.025	139537
521.095	45545
521.165	12574
521.235	11900
521.305	8595
521.375	9411
521.445	9636
521.515	10276
521.585	12838
521.655	10131
521.725	10707
521.795	10799
521.865	7160
521.935	15772
522.005	12957
522.075	8136
522.145	10194
522.215	10792
522.285	15495
522.355	21230
522.424	39696
522.494	31857
522.564	15066
522.634	21967
522.704	60847
522.774	22626
522.843	9683
522.913	7828
522.983	9891
523.053	8528
523.122	8380
523.192	10296
523.262	30038
523.331	28278
523.401	9872
523.471	6672
523.540	7011
523.610	6295
523.680	5393
523.749	7914
523.819	10050
523.888	10625
523.958	6537
524.027	7181
524.097	7415
524.166	6006
524.236	6065
524.305	8879
524.375	6349
524.444	6108
524.514	8238
524.583	8350
524.653	9509
524.722	11604
524.791	6885
524.861	8565
524.930	6659
524.999	7739
525.069	9942
525.138	9240
525.207	10742
525.277	8806
525.346	7146
525.415	7071
525.484	7918
525.554	9512
525.623	7869
525.692	8790
525.761	8517
525.830	8971
525.900	8350
525.969	13494
526.038	15842
526.107	26052
526.176	70218
526.245	53727
526.314	24578
526.383	42063
526.452	49054
526.522	85463
526.591	87602
526.660	34452
526.729	19488
526.797	23263
526.867	40997
526.935	166864
527.004	216435
527.073	103991
527.142	15235
527.211	10295
527.280	9320
527.349	9579
527.418	5889
527.487	5980
527.555	4922
527.624	5019
527.693	3695
527.762	6512
527.831	5011
527.899	6282
527.968	5082
528.037	4196
528.106	6924
528.174	12037
528.243	10912
528.312	15286
528.380	17758
528.449	6051
528.518	5779
528.586	3697
528.655	5366
528.723	5131
528.792	4000
528.861	5759
528.929	4007
528.998	5891
529.066	5094
529.135	5909
529.203	4954
529.272	5681
529.340	6617
529.409	7802
529.477	5941
529.545	8120
529.614	10569
529.682	10040
529.751	11859
529.819	13753
529.887	9046
529.956	6966
530.024	8016
530.092	5598
530.161	7474
530.229	11067
530.297	7020
530.365	7664
530.434	6349
530.502	6280
530.570	5648
530.638	4575
530.707	6478
530.775	8454
530.843	6003
530.911	6633
530.979	6291
531.047	6216
531.115	6476
531.183	6314
531.252	6676
531.320	6897
531.388	6471
531.456	7148
531.524	4658
531.592	7733
531.660	8951
531.728	5918
531.796	6551
531.864	6667
531.932	7045
532.000	6623
532.067	7035
532.135	8107
532.203	8967
532.271	8709
532.339	13647
532.407	27796
532.475	16584
532.542	11810
532.610	12046
532.678	14404
532.746	49233
532.814	113226
532.881	26472
532.949	9999
533.017	7580
533.084	7867
533.152	6878
533.220	7121
533.287	7643
533.355	8207
533.423	7090
533.490	6779
533.558	7571
533.625	7135
533.693	7413
533.761	8735
533.828	7565
533.896	7802
533.963	15024
534.031	16488
534.098	20493
534.166	11747
534.233	7738
534.300	10911
534.368	9291
534.435	8295
534.503	8129
534.570	8474
534.637	7596
534.705	8436
534.772	8675
534.840	11474
534.907	33634
534.974	38183
535.041	9745
535.109	9996
535.176	5461
535.243	7167
535.310	6013
535.378	6918
535.445	5834
535.512	5930
535.579	6034
535.646	5626
535.714	6977
535.781	9289
535.848	8661
535.915	9480
535.982	9225
536.049	9114
536.116	9466
536.183	7616
536.250	6974
536.317	8161
536.384	7969
536.451	9513
536.518	8960
536.585	7817
536.652	11013
536.719	11631
536.786	8864
536.853	9780
536.920	12212
536.987	17110
537.053	15479
537.120	59097
537.187	45946
537.254	7736
537.321	6292
537.388	7826
537.454	5967
537.521	5924
537.588	5673
537.654	8538
537.721	7871
537.788	7696
537.855	5912
537.921	7196
537.988	6316
538.055	7237
538.121	6505
538.188	7272
538.254	8006
538.321	15024
538.388	9548
538.454	6827
538.521	5916
538.587	6346
538.654	5301
538.720	6358
538.787	6390
538.853	6561
538.920	8474
538.986	8551
539.053	6352
539.119	7504
539.185	6984
539.252	8702
539.318	10147
539.385	9994
539.451	8335
539.517	9436
539.583	10122
539.650	19261
539.716	45134
539.782	13098
539.849	6073
539.915	7994
539.981	6663
540.047	7771
540.114	6777
540.180	8571
540.246	6505
540.312	9005
540.378	15737
540.444	15682
540.510	17622
540.576	50387
540.643	14858
540.709	6179
540.775	6020
540.841	6231
540.907	10466
540.973	14258
541.039	10901
541.105	10889
541.171	7593
541.237	6359
541.303	8047
541.369	9233
541.435	9120
541.500	12923
541.566	7398
541.632	5985
541.698	5549
541.764	6909
541.830	6021
541.896	6272
541.961	6392
542.027	6501
542.093	6891
542.159	7616
542.224	6414
542.290	10482
542.356	12654
542.421	15015
542.487	9501
542.553	8304
542.618	8724
542.684	7241
542.750	6511
542.815	9249
542.881	13922
542.947	43503
543.012	28870
543.078	7258
543.143	6027
543.209	8002
543.274	7001
543.340	9412
543.405	17798
543.471	25277
543.536	7548
543.602	6175
543.667	5246
543.732	7126
543.798	6063
543.863	7524
543.928	5338
543.994	5385
544.059	6216
544.124	7141
544.190	5310
544.255	6968
544.320	6908
544.386	7467
544.451	8978
544.516	10463
544.581	10013
544.646	27997
544.712	40600
544.777	10908
544.842	9363
544.907	10041
544.972	7303
545.037	7946
545.102	7954
545.168	8335
545.233	9159
545.298	9539
545.363	10771
545.428	12791
545.493	17453
545.558	34120
545.623	14702
545.688	8459
545.753	8586
545.818	9398
545.883	9555
545.947	8992
546.012	10089
546.077	9918
546.142	9974
546.207	8720
546.272	10089
546.337	9826
546.401	9050
546.466	10222
546.531	8502
546.596	10133
546.661	9546
546.725	9750
546.790	8051
546.855	9815
546.919	8031
546.984	9354
547.049	9966
547.113	12647
547.178	10019
547.243	12537
547.307	13453
547.372	14633
547.436	15090
547.501	12280
547.565	12753
547.630	13212
547.695	13320
547.759	16665
547.823	14077
547.888	11880
547.952	12173
548.017	14260
548.081	16031
548.146	18839
548.210	16457
548.274	12614
548.339	11996
548.403	12950
548.468	11378
548.532	12199
548.596	12706
548.660	12654
548.725	12439
548.789	15465
548.853	16962
548.917	14390
548.982	17135
549.046	18103
549.110	11479
549.174	11849
549.238	11664
549.303	12071
549.367	13309
549.431	12924
549.495	12588
549.559	12975
549.623	13708
549.687	15098
549.751	18364
549.815	16704
549.879	16601
549.943	14346
550.007	16531
550.071	17261
550.135	19823
550.199	15788
550.263	14605
550.327	15844
550.391	21205
550.455	17238
550.519	15768
550.582	17955
550.646	21440
550.710	21713
550.774	18047
550.838	18227
550.901	18210
550.965	21733
551.029	20385
551.093	23631
551.156	29518
551.220	45837
551.284	45126
551.347	28109
551.411	48270
551.475	49781
551.538	20968
551.602	18374
551.666	16783
551.729	15836
551.793	16772
551.856	17320
551.920	17357
551.983	17539
552.047	15645
552.110	16406
552.174	15631
552.237	16838
552.301	15388
552.364	15235
552.428	14857
552.491	15510
552.554	15958
552.618	16063
552.681	15466
552.745	16282
552.808	17994
552.871	20068
552.934	18532
552.998	16417
553.061	16911
553.124	16769
553.187	17071
553.251	19660
553.314	20392
553.377	22082
553.440	31140
553.503	79566
553.567	119933
553.630	27710
553.693	18111
553.756	18417
553.819	16656
553.882	15769
553.945	16590
554.008	15705
554.071	15315
554.134	15695
554.197	14982
554.260	16201
554.323	17067
554.386	17906
554.449	15810
554.512	16778
554.575	14879
554.638	16348
554.701	15002
554.764	15482
554.827	15081
554.889	14975
554.952	12946
555.015	13855
555.078	13708
555.141	14437
555.203	13679
555.266	15031
555.329	13850
555.391	12716
555.454	14089
555.517	13414
555.580	12072
555.642	12855
555.705	11481
555.768	12433
555.830	11752
555.893	11472
555.955	11930
556.018	11981
556.080	11161
556.143	11994
556.206	11758
556.268	11756
556.330	12939
556.393	12169
556.455	11358
556.518	15536
556.580	14991
556.643	9924
556.705	9918
556.767	9236
556.830	11725
556.892	10647
556.955	12457
557.017	11711
557.079	9916
557.142	9726
557.204	10766
557.266	16338
557.328	13526
557.391	9006
557.453	8706
557.515	8885
557.577	9974
557.639	11178
557.701	9786
557.764	8282
557.826	8735
557.888	10264
557.950	9875
558.012	9685
558.074	11167
558.136	22320
558.198	45058
558.260	19152
558.322	9612
558.384	11567
558.446	13386
558.508	14064
558.570	17116
558.632	24071
558.694	33611
558.756	35965
558.818	92821
558.880	212064
558.942	60969
559.003	48047
559.065	23876
559.127	14813
559.189	13212
559.251	15671
559.312	21022
559.374	43825
559.436	133648
559.498	62042
559.559	15164
559.621	15032
559.683	16989
559.744	26524
559.806	66383
559.868	89727
559.929	21138
559.991	16978
560.052	20180
560.114	44928
560.176	28575
560.237	28452
560.299	40839
560.360	13327
560.422	9369
560.483	10033
560.545	8930
560.606	8688
560.667	8114
560.729	8666
560.790	7690
560.852	8813
560.913	7618
560.974	8591
561.036	7848
561.097	8521
561.158	7968
561.220	9789
561.281	8631
561.342	8530
561.403	8908
561.465	10861
561.526	20900
561.587	24885
561.648	10064
561.709	9379
561.771	8526
561.832	9373
561.893	7710
561.954	8790
562.015	8532
562.076	9107
562.137	7665
562.198	8316
562.259	8759
562.320	8432
562.381	9016
562.442	10996
562.503	9426
562.564	8754
562.625	8177
562.686	8611
562.747	8446
562.808	8573
562.869	9109
562.930	10762
562.991	9850
563.051	10328
563.112	9646
563.173	8304
563.234	8596
563.294	8945
563.355	9236
563.416	8466
563.477	8506
563.537	9347
563.598	8985
563.659	9412
563.720	7443
563.780	8660
563.841	8461
563.901	8887
563.962	8428
564.023	9540
564.083	8677
564.144	9253
564.204	9061
564.265	9567
564.325	10406
564.386	19884
564.446	17095
564.507	8577
564.567	8081
564.628	9492
564.688	8643
564.749	9081
564.809	10166
564.869	12434
564.930	9136
564.990	9433
565.050	7623
565.111	9618
565.171	8490
565.231	8617
565.292	8575
565.352	8366
565.412	8561
565.472	9234
565.532	9030
565.593	7885
565.653	8512
565.713	9370
565.773	9423
565.833	10282
565.893	11114
565.953	8802
566.013	8749
566.074	10657
566.134	13351
566.194	17486
566.254	17042
566.314	12982
566.374	9838
566.434	11543
566.494	10164
566.554	11277
566.614	9918
566.673	11159
566.733	10775
566.793	12284
566.853	12567
566.913	12209
566.973	12595
567.033	13145
567.092	12257
567.152	12517
567.212	12965
567.272	14200
567.331	14644
567.391	14478
567.451	14552
567.511	17904
567.570	17370
567.630	13588
567.690	13307
567.749	13070
567.809	13557
567.868	16104
567.928	16236
567.988	19556
568.047	21183
568.107	25889
568.166	32275
568.226	45213
568.285	58764
568.345	55393
568.404	46563
568.464	41109
568.523	38615
568.582	39212
568.642	42924
568.701	52518
568.761	66889
568.820	97083
568.879	99087
568.939	84319
568.998	62970
569.057	49063
569.116	39840
569.176	32966
569.235	27031
569.294	23776
569.353	19738
569.413	18782
569.472	17108
569.531	16121
569.590	14302
569.649	14091
569.708	12361
569.767	13168
569.827	13451
569.886	12282
569.945	9902
570.004	11462
570.063	10402
570.122	10896
570.181	10346
570.240	11845
570.299	12274
570.358	11567
570.417	9248
570.475	8751
570.534	9705
570.593	8659
570.652	9447
570.711	10004
570.770	9173
570.829	10460
570.887	9755
570.946	10346
571.005	7951
571.064	8829
571.122	9443
571.181	9690
571.240	7785
571.299	8678
571.357	8247
571.416	10027
571.475	10149
571.533	10232
571.592	8617
571.650	9634
571.709	7964
571.768	8108
571.826	8323
571.885	7992
571.943	7953
572.002	7638
572.060	8405
572.119	8114
572.177	6792
572.236	7054
572.294	7494
572.352	8059
572.411	7642
572.469	7304
572.528	7257
572.586	7596
572.644	8012
572.703	9909
572.761	7028
572.819	7326
572.877	6547
572.936	6880
572.994	7717
573.052	6690
573.110	6838
573.169	7149
573.227	6054
573.285	7302
573.343	6854
573.401	7210
573.459	6995
573.517	6514
573.576	6695
573.634	7288
573.692	6207
573.750	6355
573.808	6233
573.866	7495
573.924	9561
573.982	9277
574.040	7567
574.098	8015
574.155	5995
574.213	7505
574.271	6754
574.329	7300
574.387	6513
574.445	7299
574.503	5865
574.560	6477
574.618	5014
574.676	6441
574.734	5334
574.792	6953
574.849	6368
574.907	5102
574.965	5244
575.022	6427
575.080	5784
575.138	5729
575.195	6111
575.253	6431
575.311	6675
575.368	6647
575.426	5737
575.483	7239
575.541	6414
575.598	6334
575.656	5473
575.713	6052
575.771	6710
575.828	6963
575.886	6210
575.943	7743
576.001	6194
576.058	7406
576.115	7606
576.173	7821
576.230	8198
576.287	8178
576.345	8461
576.402	6826
576.459	7373
576.517	7710
576.574	7449
576.631	8973
576.688	6939
576.746	7371
576.803	6618
576.860	6372
576.917	7087
576.974	7263
577.031	7491
577.089	7337
577.146	5927
577.203	7044
577.260	7260
577.317	7975
577.374	8688
577.431	8308
577.488	7569
577.545	6885
577.602	7607
577.659	7843
577.716	8288
577.773	9076
577.830	8222
577.886	7769
577.943	6558
578.000	7669
578.057	8238
578.114	10016
578.171	9381
578.227	11844
578.284	11698
578.341	10781
578.398	9003
578.454	9190
578.511	9430
578.568	10079
578.625	7631
578.681	8287
578.738	7075
578.794	8084
578.851	7640
578.908	8299
578.964	8836
579.021	8904
579.077	7878
579.134	8534
579.190	7191
579.247	6844
579.303	7596
579.360	6957
579.416	7527
579.473	7459
579.529	6531
579.586	7987
579.642	7896
579.698	7845
579.755	7830
579.811	8723
579.867	8418
579.924	8838
579.980	8729
580.036	10842
580.093	11898
580.149	16707
580.205	17291
580.261	13963
580.317	11752
580.374	10939
580.430	10230
580.486	10177
580.542	9433
580.598	8973
580.619	8835
580.654	8605
580.692	8679
580.710	8734
580.765	8961
580.767	8978
580.823	8539
580.838	8426
580.879	8176
580.911	8558
580.935	8834
580.984	8229
580.991	8164
581.047	8640
581.057	8623
581.103	8582
581.130	9206
581.159	9891
581.203	10285
581.215	10401
581.270	11005
581.276	10862
581.326	9565
581.349	9390
581.382	9144
581.422	8748
581.438	8590
581.494	9468
581.494	9451
581.550	8434
581.567	8447
581.606	8500
581.640	8335
581.661	8225
581.713	9252
581.717	9347
581.773	8243
581.786	8428
581.829	9056
581.859	8914
581.885	8777
581.932	8998
581.940	9041
581.996	9442
582.004	9412
582.052	9324
582.077	9379
582.107	9477
582.150	9604
582.163	9610
582.219	9562
582.223	9520
582.274	9156
582.296	9410
582.330	9821
582.368	9943
582.386	10074
582.441	9244
582.441	9245
582.497	8922
582.514	9210
582.552	10067
582.587	10230
582.608	10255
582.659	9749
582.663	9717
582.719	10569
582.732	10270
582.774	9309
582.805	9508
582.830	9631
582.877	10344
582.885	10481
582.941	10019
582.950	10034
582.996	10130
583.023	10641
583.052	11341
583.095	12008
583.107	12164
583.162	13204
583.168	13293
583.218	14009
583.240	13786
583.273	13263
583.313	11982
583.328	11596
583.384	11863
583.385	11819
583.439	10128
583.458	10113
583.494	10298
583.531	9875
583.549	9752
583.603	10456
583.605	10466
583.660	10376
583.676	10293
583.715	9924
583.748	9341
583.770	9222
583.820	10995
583.825	11112
583.881	10311
583.893	10283
583.936	10313
583.965	9965
583.991	9773
584.038	10628
584.046	10739
584.101	10019
584.110	10072
584.156	10499
584.183	10613
584.211	10648
584.255	10798
584.266	10826
584.321	10206
584.328	10272
584.376	10726
584.400	11042
584.431	11590
584.472	10941
584.486	10694
584.541	11015
584.545	11020
584.596	11017
584.617	10793
584.651	10600
584.689	11654
584.706	11981
584.761	11041
584.762	11050
584.816	12141
584.834	12168
584.871	12093
584.906	12304
584.926	12405
584.978	12041
584.980	12028
585.035	12820
585.051	12913
585.090	13299
585.123	13756
585.145	13909
585.195	13657
585.200	13658
585.254	15312
585.267	15485
585.309	15948
585.340	16291
585.364	16476
585.412	16038
585.419	15954
585.473	17513
585.484	17529
585.528	18085
585.556	19575
585.583	21253
585.628	25527
585.637	26815
585.692	40940
585.700	43605
585.747	56039
585.772	48736
585.801	36237
585.845	22243
585.856	19747
585.910	17366
585.917	17125
585.965	16143
585.989	16314
586.019	16689
586.061	16535
586.074	16517
586.128	17332
586.133	17336
586.183	17353
586.205	17726
586.237	18172
586.277	18195
586.292	18149
586.346	18535
586.349	18573
586.401	19504
586.421	19723
586.455	19895
586.493	20710
586.509	21518
586.564	25017
586.565	25176
586.618	32127
586.637	32103
586.672	28987
586.709	25087
586.727	23641
586.781	22862
586.781	22852
586.835	23255
586.853	23300
586.889	23147
586.925	23343
586.944	23599
586.996	24824
586.998	24840
587.052	25512
587.068	25775
587.106	26606
587.140	27013
587.161	27146
587.212	28098
587.215	28156
587.269	29683
587.284	30215
587.323	31307
587.356	31742
587.377	32128
587.427	34118
587.431	34201
587.485	35070
587.499	35356
587.539	37050
587.571	38457
587.593	39159
587.643	41240
587.648	41478
587.702	44207
587.715	45053
587.755	47206
587.786	48837
587.810	50378
587.858	54155
587.864	54573
587.917	58670
587.930	59951
587.971	65136
588.001	68885
588.025	71214
588.073	76234
588.079	77054
588.133	85867
588.145	88011
588.187	95212
588.217	101015
588.241	106618
588.288	118550
588.295	120283
588.348	137442
588.360	141493
588.402	158166
588.431	170681
588.456	182184
588.503	207871
588.510	212223
588.564	251629
588.575	260854
588.617	302348
588.646	334844
588.671	370788
588.718	442962
588.725	455177
588.778	555718
588.789	576048
588.832	634478
588.861	659559
588.886	631640
588.932	535193
588.939	523141
588.993	448710
589.004	453498
589.047	593731
589.075	673190
589.100	678491
589.147	639348
589.154	626845
589.207	521910
589.218	503303
589.261	463816
589.290	444670
589.314	447055
589.361	462297
589.368	469426
589.421	542115
589.433	558063
589.475	599330
589.504	611619
589.528	577357
589.576	486110
589.582	488027
589.635	577000
589.647	591566
589.689	569662
589.718	528948
589.742	469850
589.790	355593
589.795	346166
589.849	269714
589.861	253511
589.902	217536
589.932	192817
589.955	177590
590.004	148009
590.009	145830
590.062	125509
590.075	120984
590.115	109814
590.146	101498
590.168	96937
590.218	87936
590.222	87269
590.275	79584
590.289	77806
590.328	72866
590.360	68914
590.381	67012
590.431	62508
590.435	62171
590.488	57741
590.503	56611
590.541	54358
590.574	52336
590.594	51362
590.645	49084
590.647	48952
590.700	46173
590.716	45450
590.753	43544
590.787	41554
590.806	40950
590.859	39881
590.859	39830
590.912	37683
590.930	37147
590.965	36378
591.001	35434
591.018	34770
591.071	33071
591.072	33074
591.124	32986
591.143	33079
591.177	32429
591.214	31586
591.230	31431
591.283	31311
591.285	31303
591.336	29400
591.356	28732
591.389	28682
591.427	28552
591.442	28334
591.495	27705
591.498	27653
591.547	26208
591.569	25711
591.600	25409
591.640	24789
591.653	24893
591.706	25650
591.711	25734
591.759	25232
591.782	25009
591.811	25136
591.853	25294
591.864	25093
591.917	24026
591.924	23899
591.969	23374
591.995	23074
592.022	22968
592.066	22754
592.075	22800
592.127	23225
592.137	23317
592.180	23296
592.208	23258
592.233	22643
592.279	21474
592.285	21368
592.338	20634
592.350	20473
592.390	20207
592.421	20075
592.443	19919
592.491	19575
592.495	19524
592.548	19071
592.562	18966
592.600	19286
592.633	19588
592.653	19256
592.704	18326
592.705	18418
592.775	17809
592.846	18286
592.916	18278
592.987	18829
593.058	17882
593.128	17318
593.199	17656
593.270	17899
593.341	16356
593.411	16328
593.482	16394
593.553	16611
593.623	15742
593.694	16238
593.764	16738
593.835	16437
593.906	15704
593.976	15224
594.047	16418
594.117	16377
594.188	17287
594.258	14678
594.329	14376
594.399	14691
594.470	14371
594.540	14007
594.611	14327
594.681	14827
594.751	13678
594.822	15310
594.892	14015
594.963	15253
595.033	13772
595.103	14202
595.174	15117
595.244	18615
595.314	20616
595.384	14948
595.455	14119
595.525	14847
595.595	14318
595.665	15196
595.736	14340
595.806	14463
595.876	14168
595.946	13849
596.016	14194
596.087	13920
596.157	14605
596.227	14663
596.297	14940
596.367	14998
596.437	15455
596.507	17700
596.577	19707
596.647	16188
596.717	14037
596.787	14166
596.857	14875
596.927	15472
596.997	14077
597.067	15676
597.137	16421
597.207	15746
597.277	14924
597.347	14244
597.417	14483
597.487	15580
597.557	16126
597.626	14613
597.696	14947
597.766	17942
597.836	19983
597.906	15804
597.975	14485
598.045	14003
598.115	15192
598.185	14118
598.254	14456
598.324	15694
598.394	15090
598.464	15538
598.533	14422
598.603	14214
598.672	14476
598.742	15242
598.812	13709
598.881	14366
598.951	14454
599.020	14065
599.090	14485
599.159	15307
599.229	14336
599.299	13971
599.368	14347
599.437	14848
599.507	12972
599.576	15615
599.646	16969
599.715	17190
599.785	13168
599.854	14139
599.924	15287
599.993	14215
600.062	13649
600.132	15055
600.201	13463
600.270	16061
600.340	15590
600.409	15793
600.478	14477
600.547	14383
600.617	15336
600.686	14642
600.755	14080
600.824	14745
600.894	13921
600.963	13325
601.032	13442
601.101	12901
601.170	13614
601.239	13353
601.308	14258
601.378	14197
601.447	14924
601.516	14018
601.585	14523
601.654	14513
601.723	14755
601.792	15167
601.861	15304
601.930	17893
601.999	16585
602.068	15526
602.137	15086
602.206	15562
602.275	15778
602.343	15744
602.412	15630
602.481	14900
602.550	15126
602.619	14885
602.688	15480
602.756	16054
602.825	15234
602.894	15612
602.963	15144
603.032	15511
603.100	15519
603.169	15664
603.238	15264
603.307	15449
603.375	16618
603.444	15813
603.513	14575
603.581	15643
603.650	16396
603.719	14510
603.787	13595
603.856	14625
603.924	13645
603.993	14401
604.061	14831
604.130	15482
604.198	15435
604.267	15489
604.335	15084
604.404	15557
604.472	15613
604.541	16002
604.609	16350
604.678	16617
604.746	16556
604.815	17389
604.883	16671
604.951	16888
605.020	16387
605.088	16448
605.156	16134
605.225	16070
605.293	16319
605.361	16664
605.429	15186
605.498	16369
605.566	15341
605.634	16478
605.702	16435
605.771	16505
605.839	17073
605.907	16335
605.975	16285
606.043	16047
606.111	16176
606.180	17541
606.248	18461
606.316	20044
606.384	16447
606.452	16979
606.520	15953
606.588	14448
606.656	13677
606.724	13830
606.792	12898
606.860	11657
606.928	11679
606.996	11635
607.064	10680
607.132	11215
607.200	11343
607.267	12185
607.335	11950
607.403	13269
607.471	12499
607.539	12833
607.607	12136
607.674	10923
607.742	11649
607.810	11757
607.878	11195
607.946	10665
608.013	11386
608.081	12014
608.149	11809
608.216	11468
608.284	12371
608.352	12007
608.419	11582
608.487	14222
608.555	12180
608.622	11361
608.690	12679
608.757	12856
608.825	13660
608.893	12571
608.960	12739
609.028	13486
609.095	15760
609.163	13009
609.230	11723
609.298	12212
609.365	10185
609.432	11673
609.500	12958
609.567	14392
609.635	14627
609.702	15299
609.769	14582
609.837	13393
609.904	11939
609.971	11604
610.039	14458
610.106	19552
610.173	31410
610.241	68299
610.308	65944
610.375	37435
610.442	16058
610.509	12539
610.577	13138
610.644	12041
610.711	10958
610.778	13053
610.845	12525
610.912	12551
610.980	16543
611.047	21086
611.114	15855
611.181	12174
611.248	11167
611.315	13901
611.382	12615
611.449	13533
611.516	12918
611.583	13538
611.650	13707
611.717	13976
611.784	12827
611.851	14794
611.918	14778
611.984	17302
612.051	26028
612.118	49166
612.185	114624
612.252	82300
612.319	21967
612.386	17882
612.452	14705
612.519	16640
612.586	17529
612.653	15944
612.719	14872
612.786	15493
612.853	13256
612.919	13003
612.986	15484
613.053	12814
613.120	12307
613.186	11397
613.253	13586
613.319	12802
613.386	12225
613.453	11584
613.519	13701
613.586	14229
613.652	16551
613.719	15075
613.785	14032
613.852	13323
613.918	12434
613.985	14490
614.051	17646
614.118	27848
614.184	28197
614.250	14423
614.317	12849
614.383	13034
614.449	11622
614.516	12641
614.582	13057
614.648	12706
614.715	11907
614.781	12074
614.847	12865
614.914	13153
614.980	13274
615.046	13009
615.112	13434
615.179	12115
615.245	13504
615.311	16757
615.377	22150
615.443	26075
615.509	18300
615.575	15483
615.642	14882
615.708	14840
615.774	15692
615.840	17488
615.906	20898
615.972	28661
616.038	51666
616.104	85447
616.170	156743
616.236	143656
616.302	36708
616.368	23395
616.434	17939
616.500	18415
616.565	18046
616.631	19526
616.697	17546
616.763	18340
616.829	21962
616.895	35228
616.961	36598
617.026	21564
617.092	15436
617.158	14593
617.224	14318
617.289	13685
617.355	12833
617.421	13442
617.487	13337
617.552	12314
617.618	12311
617.684	12879
617.749	14980
617.815	12513
617.880	11438
617.946	13058
618.012	12802
618.077	12230
618.143	12770
618.208	12029
618.274	13575
618.339	14225
618.405	11471
618.470	13241
618.536	12281
618.601	13768
618.667	13093
618.732	13210
618.798	12047
618.863	12357
618.928	12231
618.994	13238
619.059	13156
619.124	14891
619.190	13151
619.255	11729
619.320	12790
619.386	11263
619.451	11106
619.516	11459
619.581	11469
619.647	11868
619.712	12256
619.777	11068
619.842	11597
619.907	12183
619.972	11715
620.038	11984
620.103	12169
620.168	10670
620.233	11852
620.298	11783
620.363	11930
620.428	11848
620.493	12688
620.558	12783
620.623	12236
620.688	12802
620.753	11572
620.818	11845
620.883	11990
620.948	12792
621.013	11605
621.078	11599
621.143	11220
621.207	13816
621.272	12322
621.337	13296
621.402	13852
621.467	15760
621.532	15225
621.596	14182
621.661	14455
621.726	12863
621.791	13225
621.855	13589
621.920	14258
621.985	13904
622.049	15043
622.114	15065
622.179	14486
622.243	14410
622.308	14233
622.373	16291
622.437	14985
622.502	13900
622.566	14591
622.631	13212
622.695	15104
622.760	14133
622.824	14869
622.889	14625
622.953	15048
623.018	17975
623.082	17154
623.147	15031
623.211	13778
623.276	14047
623.340	13976
623.404	13200
623.469	13243
623.533	13884
623.597	12843
623.662	13760
623.726	12665
623.790	13160
623.854	12498
623.919	12342
623.983	11951
624.047	13240
624.111	12619
624.176	13107
624.240	12796
624.304	14858
624.368	13072
624.432	12171
624.496	13038
624.560	13676
624.625	13126
624.689	12986
624.753	12420
624.817	12889
624.881	11519
624.945	13085
625.009	11866
625.073	12858
625.137	12120
625.201	13346
625.265	13559
625.329	12898
625.393	12562
625.456	11535
625.520	12654
625.584	13045
625.648	13953
625.712	18622
625.776	35342
625.839	40336
625.903	18443
625.967	13633
626.031	18510
626.095	25301
626.158	13103
626.222	10060
626.286	10548
626.349	9622
626.413	8480
626.477	10874
626.540	9266
626.604	9071
626.668	10170
626.731	10157
626.795	9629
626.858	9017
626.922	8793
626.986	9408
627.049	7549
627.113	9219
627.176	9418
627.240	8404
627.303	9056
627.366	8294
627.430	7863
627.493	8927
627.557	8641
627.620	9327
627.684	8230
627.747	8854
627.810	6943
627.874	7627
627.937	7481
628.000	10298
628.064	9183
628.127	6094
628.190	8211
628.253	7720
628.317	6545
628.380	7248
628.443	7619
628.506	7089
628.569	7497
628.632	6360
628.696	7180
628.759	7691
628.822	6964
628.885	6760
628.948	6880
629.011	6991
629.074	5952
629.137	6164
629.200	6923
629.263	7944
629.326	6038
629.389	6312
629.452	6607
629.515	6834
629.578	5924
629.641	7008
629.704	5814
629.767	6434
629.830	6100
629.892	5881
629.955	5724
630.018	7840
630.081	5546
630.144	7505
630.207	4639
630.269	6943
630.332	5914
630.395	7026
630.458	6119
630.520	5129
630.583	6525
630.646	5855
630.708	5681
630.771	4556
630.834	6234
630.896	6005
630.959	5297
631.021	4402
631.084	4959
631.146	6171
631.209	6425
631.272	4910
631.334	5613
631.397	4509
631.459	4932
631.522	5100
631.584	4562
631.646	5672
631.709	5594
631.771	6098
631.834	6509
631.896	5200
631.958	4144
632.021	4781
632.083	4007
632.145	5264
632.208	5424
632.270	5895
632.332	4456
632.395	4621
632.457	5693
632.519	4723
632.581	5206
632.643	3788
632.706	4657
632.768	3977
632.830	4747
632.892	4752
632.954	4240
633.016	5873
633.078	5003
633.141	4401
633.203	4604
633.265	5159
633.327	4501
633.389	4325
633.451	5062
633.513	5485
633.575	4990
633.637	3587
633.698	4225
633.760	5364
633.822	5341
633.884	4586
633.946	4402
634.008	4338
634.070	5045
634.132	6716
634.193	4318
634.255	4722
634.317	3368
634.379	5573
634.441	4414
634.502	4124
634.564	4342
634.626	4347
634.687	4119
634.749	3600
634.811	3950
634.873	4315
634.934	4666
634.996	4536
635.057	2707
635.119	3741
635.181	4003
635.242	4538
635.304	2203
635.365	5278
635.427	3756
635.488	3971
635.550	3451
635.611	3996
635.673	2115
635.734	5338
635.796	3635
635.857	5547
635.918	3374
635.980	4838
636.041	3558
636.102	4413
636.164	4080
636.225	5251
636.286	2275
636.348	4867
636.409	3297
636.470	3384
636.531	4520
636.593	4252
636.654	5049
636.715	3622
636.776	4215
636.838	3481
636.899	3990
636.960	3463
637.021	3177
637.082	3900
637.143	3816
637.204	2675
637.265	2569
637.326	3158
637.387	3904
637.448	2288
637.509	3593
637.570	3684
637.631	3735
637.692	2744
637.753	2153
637.814	2896
637.875	3394
637.936	4002
637.997	2980
638.058	2489
638.119	3444
638.179	2975
638.240	3329
638.301	4059
638.362	1911
638.423	3365
638.483	4102
638.544	2215
638.605	3220
638.666	2177
638.726	3058
638.787	4232
638.848	2454
638.908	2929
638.969	2790
639.030	2312
639.090	2170
639.151	1550
639.211	3535
639.272	3592
639.332	5347
639.393	4484
639.453	2269
639.514	3928
639.574	3061
639.635	2950
639.695	3509
639.756	2003
639.816	3486
639.877	3161
639.937	5026
639.997	5274
640.058	2772
640.118	1961
640.178	3316
640.239	1966
640.299	2529
640.359	2747
640.420	2622
640.480	3165
640.540	2322
640.600	2573
640.661	2900
640.721	1890
640.781	3748
640.841	1568
640.901	2958
640.961	3236
641.021	3448
641.082	2057
641.142	3737
641.202	3169
641.262	1814
641.322	3201
641.382	1220
641.442	3200
641.502	2067
641.562	3215
641.622	1789
641.682	2558
641.742	2409
641.802	2955
641.861	3056
641.921	2038
641.981	2902
642.041	2989
642.101	2536
642.161	1933
642.221	1805
642.280	2483
642.340	1953
642.400	1678
642.460	3208
642.519	3142
642.579	1722
642.639	3519
642.698	136
642.758	3591
642.818	2735
642.877	2142
642.937	1868
642.997	3198
643.056	3263
643.116	2141
643.175	3645
643.235	2492
643.294	2030
643.354	3130
643.414	2803
643.473	3344
643.532	3383
643.592	3366
643.651	5515
643.711	10916
643.770	18094
643.830	42334
643.889	94315
643.948	24628
644.008	4877
644.067	3532
644.126	2171
644.186	2793
644.245	3690
644.304	2492
644.363	3866
644.423	1106
644.482	2544
644.541	2894
644.600	482
644.659	2656
644.719	2396
644.778	3875
644.837	3878
644.896	9186
644.955	19766
645.014	7766
645.073	4105
645.132	2846
645.191	3476
645.250	1339
645.309	2694
645.368	2100
645.427	2966
645.486	2063
645.545	5199
645.604	1626
645.663	2072
645.722	2071
645.781	1903
645.840	2921
645.898	2091
645.957	4387
646.016	3817
646.075	8616
646.134	15775
646.192	41563
646.251	64692
646.310	9845
646.369	3204
646.427	2983
646.486	1245
646.545	2285
646.603	2787
646.662	2385
646.721	2578
646.779	2252
646.838	668
646.896	2819
646.955	2662
647.014	3375
647.072	4504
647.131	12254
647.189	6711
647.248	655
647.306	1959
647.365	2214
647.423	331
647.481	3001
647.540	153
647.598	2057
647.657	1510
647.715	2588
647.773	1307
647.832	2372
647.890	671
647.948	871
648.007	1884
648.065	626
648.123	1016
648.181	3628
648.240	3585
648.298	2068
648.356	1680
648.414	1979
648.472	1069
648.531	1842
648.589	1096
648.647	1504
648.705	1585
648.763	1525
648.821	1172
648.879	947
648.937	1582
648.995	1656
649.053	1141
649.111	2503
649.169	3970
649.227	6539
649.285	12219
649.343	35676
649.401	18762
649.459	7189
649.516	6024
649.574	3199
649.632	9927
649.690	11673
649.748	4786
649.806	5321
649.863	11042
649.921	9972
649.979	5950
650.037	2852
650.094	183
650.152	1791
650.210	116
650.268	869
650.325	1251
650.383	1492
650.440	289
650.498	2161
650.556	941
650.613	1339
650.671	1392
650.728	1821
650.786	1347
650.843	1246
650.901	-391
650.958	1178
651.016	1866
651.073	821
651.131	520
651.188	493
651.246	1308
651.303	-299
651.360	1952
651.418	666
651.475	691
651.532	31
651.590	2079
651.647	1393
651.704	1703
651.762	1539
651.819	924
651.876	627
651.933	264
651.990	1227
652.048	-1061
652.105	1297
652.162	935
652.219	118
652.276	257
652.333	1437
652.390	-517
652.448	1488
652.505	2188
652.562	1204
652.619	826
652.676	4193
652.733	5157
652.790	472
652.847	-522
652.904	1191
652.961	-233
653.017	389
653.074	1906
653.131	661
653.188	-24
653.245	1094
653.302	191
653.359	388
653.415	999
653.472	338
653.529	649
653.586	-479
653.642	184
653.699	1090
653.756	-472
653.813	424
653.869	419
653.926	24
653.983	10
654.039	217
654.096	890
654.152	1311
654.209	-338
654.266	1076
654.322	64
654.379	861
654.435	1050
654.492	419
654.548	1759
654.605	2055
654.661	1990
654.717	178
654.774	862
654.830	986
654.887	1123
654.943	764
655.000	768
655.056	827
655.112	1008
655.168	-739
655.225	-295
655.281	1183
655.337	665
655.394	2820
655.450	1770
655.506	1177
655.562	1756
655.618	3126
655.675	-761
655.731	674
655.787	321
655.843	954
655.899	-1092
655.955	912
656.011	-196
656.067	372
656.123	708
656.179	491
656.235	1440
656.291	-579
656.347	961
656.403	656
656.459	97
656.515	1178
656.571	627
656.627	1026
656.683	1020
656.739	1273
656.795	995
656.850	1403
656.906	379
656.962	1825
657.018	-186
657.074	344
657.129	815
657.185	1176
657.241	1095
657.297	583
657.352	1745
657.408	344
657.464	1295
657.519	1268
657.575	209
657.630	687
657.686	723
657.742	178
657.797	340
657.853	632
657.908	883
657.964	-717
658.019	406
658.075	1046
658.130	603
658.186	127
658.241	1340
658.297	-348
658.352	-161
658.407	1761
658.463	-298
658.518	245
658.573	654
658.629	138
658.684	255
658.739	610
658.795	-744
658.850	1141
658.905	142
658.960	442
659.016	-66
659.071	886
659.126	876
659.181	1018
659.236	1405
659.291	1898
659.346	971
659.401	1334
659.457	2409
659.512	2318
659.567	2441
659.622	100
659.677	-31
659.732	-809
659.787	396
659.842	121
659.897	1049
659.952	1235
660.007	143
660.061	-205
660.116	-657
660.171	-47
660.226	374
660.281	1821
660.336	-201
660.391	1445
660.445	362
660.500	1069
660.555	492
660.610	364
660.664	848
660.719	-392
660.774	790
660.828	626
660.883	170
660.938	1423
660.992	-769
661.047	713
661.101	483
661.156	-32
661.211	-579
661.265	879
661.320	73
661.374	1385
661.429	194
661.483	769
661.538	-593
661.592	244
661.647	614
661.701	477
661.755	530
661.810	1105
661.864	110
661.919	-55
661.973	217
662.027	159
662.081	163
662.136	376
662.190	180
662.244	1166
662.299	47
662.353	1662
662.407	-175
662.461	43
662.515	780
662.569	-417
662.624	590
662.678	247
662.732	971
662.786	-107
662.840	34
662.894	1141
662.948	399
663.002	970
663.056	-572
663.110	-14
663.164	271
663.218	74
663.272	435
663.326	704
663.380	962
663.434	478
663.488	-130
663.542	639
663.595	366
663.649	161
663.703	367
663.757	-151
663.811	-552
663.864	164
663.918	-413
663.972	-76
664.026	712
664.079	299
664.133	1085
664.187	361
664.240	644
664.294	-52
664.348	406
664.401	291
664.455	162
664.508	26
664.562	-867
664.615	734
664.669	147
664.722	114
664.776	103
664.829	492
664.883	117
664.936	-104
664.990	10
665.043	330
665.097	-655
665.150	1615
665.203	37
665.257	549
665.310	4
665.363	540
665.417	-110
665.470	886
665.523	-718
665.576	692
665.630	611
665.683	-255
665.736	409
665.789	419
665.842	356
665.895	-102
665.949	136
666.002	454
666.055	156
666.108	786
666.161	177
666.214	906
666.267	386
666.320	284
666.373	170
666.426	-359
666.479	188
666.532	514
666.585	138
666.638	1125
666.691	-171
666.744	1491
666.796	562
666.849	918
666.902	390
666.955	173
667.008	396
667.060	-30
667.113	-134
667.166	7
667.219	-57
667.271	191
667.324	-196
667.377	-93
667.430	981
667.482	472
667.535	645
667.587	618
667.640	273
667.693	169
667.745	532
667.798	1068
667.850	-244
667.903	766
667.955	-76
668.008	326
668.060	836
668.113	386
668.165	575
668.218	807
668.270	498
668.322	396
668.375	134
668.427	832
668.479	130
668.532	663
668.584	429
668.636	619
668.689	371
668.741	310
668.793	344
668.845	41
668.898	539
668.950	334
669.002	72
669.054	33
669.106	-551
669.158	803
669.211	209
669.263	861
669.315	1116
669.367	1686
669.419	999
669.471	1200
669.523	492
669.575	1159
669.627	383
669.679	410
669.731	168
669.783	700
669.835	1409
669.886	460
669.938	354
669.990	621
670.042	-358
670.094	1375
670.146	1206
670.197	1759
670.249	1438
670.301	1156
670.353	2087
670.404	3947
670.456	6206
670.508	10806
670.560	18545
670.611	31879
670.663	56801
670.715	124957
670.766	179000
670.818	71913
670.869	16108
670.921	7996
670.972	4660
671.024	2969
671.075	2905
671.127	2617
671.178	817
671.230	1722
671.281	794
671.333	1244
671.384	-262
671.436	889
671.487	1089
671.538	1092
671.590	1007
671.641	2034
671.692	2529
671.744	5002
671.795	3754
671.846	2021
671.897	482
671.949	1033
672.000	1154
672.051	75
672.102	718
672.153	-74
672.204	788
672.256	660
672.307	489
672.358	1228
672.409	584
672.460	674
672.511	-557
672.562	244
672.613	16
672.664	583
672.715	-83
672.766	416
672.817	-66
672.868	228
672.919	197
672.970	509
673.021	-139
673.071	216
673.122	578
673.173	400
673.224	314
673.275	279
673.326	-318
673.376	149
673.427	-490
673.478	-639
673.528	309
673.579	446
673.630	-88
673.680	749
673.731	-211
673.782	-149
673.832	-394
673.883	-495
673.934	-104
673.984	-124
674.035	-468
674.085	306
674.136	168
674.186	1094
674.237	44
674.287	1372
674.338	263
674.388	-358
674.438	805
674.489	74
674.539	-36
674.589	336
674.640	-15
674.690	505
674.740	-348
674.791	547
674.841	-56
674.891	640
674.942	174
674.992	421
675.042	-236
675.092	109
675.142	-1042
675.193	-757
675.243	-921
675.293	607
675.343	693
675.393	-287
675.443	340
675.493	-351
675.543	220
675.593	-1002
675.643	-1025
675.693	150
675.743	174
675.793	482
675.843	-431
675.893	127
675.943	504
675.993	1147
676.043	134
676.093	954
676.142	-253
676.192	-674
676.242	-900
676.292	-360
676.341	-437
676.391	380
676.441	-357
676.491	285
676.540	708
676.590	413
676.640	66
676.689	411
676.739	-999
676.789	-525
676.838	-919
676.888	298
676.937	-178
676.987	-636
677.037	-1
677.086	-583
677.136	-350
677.185	-135
677.235	-883
677.284	-289
677.333	-883
677.383	-548
677.432	-282
677.482	-561
677.531	20
677.580	-85
677.630	-161
677.679	-619
677.728	-114
677.778	620
677.827	-31
677.876	-258
677.925	-1137
677.975	-630
678.024	-1128
678.073	-524
678.122	372
678.171	-482
678.220	-217
678.269	-271
678.319	-103
678.368	-386
678.417	-375
678.466	-432
678.515	38
678.564	-209
678.613	-153
678.662	-404
678.711	-257
678.760	506
678.809	232
678.857	-482
678.906	-131
678.955	-117
679.004	-548
679.053	244
679.102	-143
679.151	-26
679.199	-585
679.248	-261
679.297	-436
679.346	-564
679.394	-532
679.443	-854
679.492	-219
679.540	-160
679.589	75
679.638	-1091
679.686	-646
679.735	-621
679.784	-345
679.832	-736
679.881	-1371
679.929	-162
679.978	-1112
680.026	-1004
680.075	267
680.123	-406
680.172	-903
680.220	-1021
680.268	-106
680.317	-111
680.365	-707
680.414	-734
680.462	-284
680.510	205
680.559	-162
680.607	97
680.655	-1618
680.703	-937
680.752	-159
680.800	-189
680.848	-161
680.896	-1277
680.945	-321
680.993	-538
681.041	-697
681.089	-678
681.137	-324
681.185	-787
681.233	-1114
681.258	-860
681.281	-649
681.329	-901
681.377	-98
681.380	-48
681.425	286
681.473	7
681.502	-56
681.521	-163
681.569	321
681.617	-179
681.624	-125
681.665	-2
681.713	636
681.745	-245
681.761	-703
681.809	-910
681.857	193
681.867	218
681.904	169
681.952	877
681.989	461
682.000	301
682.048	140
682.096	96
682.111	337
682.143	729
682.191	305
682.233	896
682.239	956
682.286	1087
682.334	590
682.354	632
682.382	639
682.430	816
682.476	785
682.477	756
682.525	1045
682.572	654
682.598	572
682.620	471
682.667	1846
682.715	1564
682.720	1552
682.763	1156
682.810	1270
682.841	1138
682.857	1047
682.905	1123
682.952	2038
682.963	1965
683.000	1572
683.047	1970
683.085	2589
683.095	2721
683.142	1574
683.190	2244
683.206	2063
683.237	1674
683.284	2482
683.328	1214
683.332	1088
683.379	2156
683.426	2018
683.449	2177
683.473	2294
683.521	2179
683.568	2438
683.571	2467
683.615	2548
683.662	2238
683.693	2470
683.709	2561
683.757	2339
683.804	2861
683.814	2818
683.851	2550
683.898	2752
683.936	3065
683.945	3124
683.992	2527
684.039	2845
684.057	2638
684.086	2290
684.133	2394
684.179	3207
684.180	3216
684.227	2933
684.274	2816
684.300	3276
684.321	3604
684.368	2996
684.415	3541
684.422	3470
684.462	2901
684.509	2784
684.543	3441
684.556	3696
684.603	3654
684.649	3553
684.665	3825
684.696	4221
684.743	3866
684.786	4538
684.790	4597
684.837	3535
684.883	5167
684.908	4681
684.930	4132
684.977	4799
685.023	4246
685.029	4289
685.070	4412
685.117	3974
685.150	4542
685.164	4811
685.210	4904
685.257	5566
685.272	5541
685.303	5243
685.350	5123
685.393	4710
685.396	4680
685.443	4978
685.490	4945
685.514	4975
685.536	4969
685.583	4584
685.629	5638
685.636	5590
685.675	5269
685.722	5475
685.757	5171
685.768	5069
685.815	5561
685.861	5270
685.878	5590
685.908	6005
685.954	5677
686.000	6003
686.000	6006
686.047	5400
686.093	6441
686.121	6570
686.139	6524
686.185	6673
686.232	6451
686.242	6274
686.278	5569
686.324	6423
686.363	6031
686.370	5991
686.416	6046
686.463	6109
686.484	6267
686.509	6397
686.555	6703
686.601	6318
686.606	6297
686.647	5971
686.693	5786
686.727	6324
686.739	6563
686.785	6001
686.831	6587
686.848	6371
686.877	5905
686.923	6612
686.969	6366
686.969	6364
687.015	6485
687.061	6128
687.090	6832
687.107	7135
687.153	6847
687.199	6782
687.211	6655
687.245	6531
687.291	6529
687.332	6376
687.336	6356
687.382	7505
687.428	6845
687.453	7135
687.474	7267
687.520	6957
687.565	7226
687.574	7172
687.611	7226
687.657	7233
687.695	7418
687.702	7469
687.748	7921
687.794	7909
687.816	8003
687.839	7780
687.885	7288
687.931	7094
687.937	7017
687.976	6879
688.022	7046
688.058	7029
688.067	7061
688.113	7382
688.158	7385
688.179	7382
688.204	7340
688.249	7555
688.295	7811
688.300	7744
688.340	7369
688.386	8029
688.421	8025
688.431	8025
688.477	8186
688.522	8122
688.542	7827
688.567	7381
688.613	7576
688.658	7800
688.663	7847
688.703	8449
688.749	8201
688.784	7892
688.794	7791
688.839	8277
688.884	8041
688.905	8124
688.930	8253
688.975	8504
689.020	8450
689.026	8347
689.065	7890
689.110	8819
689.146	8867
689.155	8849
689.201	8945
689.246	8478
689.267	8600
689.291	8752
689.336	8771
689.381	8921
689.388	8817
689.426	8484
689.471	9194
689.509	9443
689.516	9439
689.561	9259
689.606	8378
689.630	8336
689.651	8527
689.696	8283
689.741	9130
689.750	9145
689.785	9047
689.830	9101
689.871	8683
689.875	8648
689.920	8564
689.965	8532
689.992	8461
690.010	8621
690.054	8604
690.099	9169
690.112	9132
690.144	8950
690.189	9311
690.233	9264
690.233	9278
690.278	9849
690.323	9444
690.354	9412
690.367	9518
690.412	9752
690.457	10287
690.474	10439
690.501	10520
690.546	9997
690.590	10343
690.595	10290
690.635	10466
690.680	11158
690.716	11387
690.724	11566
690.769	12678
690.813	13969
690.836	14261
690.857	15797
690.902	19889
690.946	23869
690.957	24882
690.991	34394
691.035	46582
691.077	58364
691.080	58334
691.124	54753
691.168	50709
691.198	47878
691.213	44122
691.257	33533
691.301	22994
691.318	18737
691.346	17408
691.390	15350
691.434	13320
691.439	13053
691.478	12495
691.522	11993
691.559	11645
691.567	11653
691.611	11378
691.655	11076
691.680	10811
691.699	10758
691.743	11085
691.787	11104
691.800	11041
691.831	11221
691.875	11444
691.919	12014
691.921	12002
691.964	11788
692.008	11462
692.041	11108
692.052	11140
692.096	11415
692.139	11788
692.162	11693
692.183	11428
692.227	11441
692.271	11553
692.282	11443
692.315	11618
692.359	11675
692.402	11999
692.403	12023
692.447	11783
692.490	11517
692.523	11310
692.534	11448
692.578	12288
692.622	12470
692.643	12605
692.666	12334
692.709	12193
692.753	11202
692.763	11094
692.797	11497
692.840	12148
692.884	12065
692.884	12090
692.928	12357
692.971	12325
693.004	12355
693.015	12485
693.059	12425
693.102	12910
693.124	12761
693.146	12576
693.189	12964
693.233	13251
693.245	13155
693.276	13517
693.320	14366
693.363	14913
693.365	14909
693.407	15992
693.450	17126
693.485	17801
693.493	18363
693.537	21394
693.580	24137
693.605	25790
693.624	29531
693.667	38154
693.710	47383
693.725	50386
693.753	68268
693.797	96600
693.840	124732
693.845	127834
693.883	119784
693.926	109965
693.966	100920
693.970	98698
694.013	73885
694.056	49069
694.086	31591
694.099	30142
694.142	25807
694.185	21276
694.206	19278
694.229	18971
694.272	17523
694.315	16676
694.326	16350
694.358	15950
694.401	15446
694.444	14977
694.446	14920
694.487	14853
694.530	14430
694.566	14202
694.573	14146
694.616	13466
694.659	12980
694.686	12582
694.702	12555
694.745	12456
694.787	12200
694.806	12130
694.830	12323
694.873	12570
694.916	12748
694.926	12730
694.959	12711
695.002	12815
695.044	12843
695.046	12814
695.087	12711
695.130	12337
695.166	12261
695.172	12381
695.215	12863
695.258	13316
695.286	13499
695.301	13438
695.343	13379
695.386	12928
695.406	12800
695.428	12673
695.471	12349
695.514	12209
695.526	12068
695.556	12197
695.599	12319
695.641	12430
695.646	12433
695.684	12625
695.726	12690
695.766	12587
695.769	12599
695.811	12340
695.854	12148
695.886	11993
695.896	12143
695.938	12536
695.981	12809
696.005	13061
696.023	13094
696.065	12943
696.108	12938
696.125	12847
696.150	13040
696.192	13328
696.235	13596
696.245	13650
696.277	13889
696.319	14014
696.361	14199
696.365	14173
696.404	14223
696.446	14326
696.485	14296
696.488	14318
696.530	14117
696.572	14013
696.604	13737
696.614	13693
696.656	13401
696.698	13142
696.724	12920
696.740	12911
696.783	12826
696.825	12846
696.844	12769
696.867	12831
696.909	12891
696.951	12846
696.964	12867
696.992	12859
697.034	12579
697.076	12349
697.083	12284
697.118	12505
697.160	12651
697.202	12856
697.203	12823
697.244	12763
697.286	12786
697.323	12701
697.327	12751
697.369	12789
697.411	12957
697.442	13036
697.453	13120
697.494	13152
697.536	13349
697.562	13423
697.578	13418
697.620	13254
697.661	13121
697.682	13011
697.703	13135
697.744	13337
697.786	13543
697.801	13561
697.828	13590
697.869	13511
697.911	13548
697.921	13506
697.952	13464
697.994	13389
698.035	13291
698.040	13239
698.077	13454
698.118	13687
698.160	13903
698.160	13865
698.201	13700
698.243	13471
698.279	13271
698.284	13348
698.325	13689
698.367	14052
698.399	14247
698.408	14204
698.449	13844
698.491	13501
698.518	13213
698.532	13399
698.573	13861
698.614	14312
698.638	14522
698.656	14459
698.697	14239
698.738	13996
698.757	13851
698.779	13897
698.820	13874
698.862	13885
698.877	13840
698.903	13998
698.944	14197
698.985	14392
698.996	14407
699.026	14366
699.067	14250
699.116	14075
699.235	13559
699.354	14213
699.474	13851
699.593	14340
699.713	14439
699.832	13418
699.951	14804
700.070	14518
700.190	12911
700.309	14280
700.428	12996
700.547	14199
700.667	12596
700.786	14334
700.905	13061
701.024	12881
701.143	12562
701.262	11974
701.381	12731
701.500	12820
701.619	13006
701.738	12387
701.857	12096
701.976	12061
702.095	12633
702.214	13072
702.333	12437
702.452	13078
702.571	12171
702.690	12724
702.809	12140
702.928	11941
703.047	12201
703.165	12727
703.284	12205
703.403	11583
703.522	12687
703.640	12462
703.759	12571
703.878	14744
703.997	11667
704.115	11757
704.234	11733
704.353	11185
704.471	11893
704.590	12252
704.708	11207
704.827	11687
704.946	11563
705.064	11864
705.183	10840
705.301	12712
705.420	18423
705.538	17837
705.656	15474
705.775	16568
705.893	26467
706.012	35507
706.130	15237
706.249	15852
706.367	14029
706.485	15404
706.604	14666
706.722	14963
706.840	15406
706.958	16301
707.077	14433
707.195	13592
707.313	13237
707.431	13801
707.549	13446
707.668	13834
707.786	13400
707.904	13542
708.022	12052
708.140	12674
708.258	13151
708.376	13302
708.494	12487
708.612	14666
708.730	19194
708.848	18896
708.966	17259
709.084	16198
709.202	14531
709.320	15841
709.438	15641
709.556	16152
709.674	15043
709.791	16553
709.909	15847
710.027	15457
710.145	15249
710.263	16238
710.380	14988
710.498	15557
710.616	14419
710.733	14631
710.851	13906
710.969	15163
711.086	12784
711.204	14696
711.322	14713
711.439	14316
711.557	14022
711.674	14419
711.792	13988
711.909	15609
712.027	16504
712.144	13660
712.262	13723
712.379	15141
712.497	19912
712.614	20615
712.732	17763
712.849	16538
712.966	16562
713.084	17809
713.201	16240
713.318	17766
713.436	17654
713.553	16819
713.670	17148
713.787	18197
713.905	17009
714.022	17119
714.139	15531
714.256	15915
714.373	16365
714.490	18778
714.608	26482
714.725	74095
714.842	89235
714.959	18202
715.076	15257
715.193	14415
715.310	14543
715.427	14907
715.544	14212
715.661	14005
715.778	14139
715.895	15565
716.011	14608
716.128	14236
716.245	13275
716.362	14742
716.479	14241
716.596	13594
716.713	13457
716.829	14083
716.946	13955
717.063	13210
717.180	12856
717.296	13407
717.413	12686
717.530	13131
717.646	12645
717.763	13827
717.880	11674
717.996	13133
718.113	11472
718.229	11485
718.346	11773
718.462	12072
718.579	12600
718.695	14022
718.812	14581
718.928	13509
719.045	12922
719.161	11408
719.277	11572
719.394	12503
719.510	12828
719.626	12368
719.743	13742
719.859	13131
719.975	13429
720.092	24954
720.208	50527
720.324	16130
720.440	10746
720.557	12119
720.673	12746
720.789	16252
720.905	28435
721.021	16301
721.137	11264
721.253	12754
721.369	10572
721.486	11588
721.602	13519
721.718	11294
721.834	9420
721.950	10464
722.066	10043
722.181	9853
722.297	10642
722.413	10906
722.529	9734
722.645	10847
722.761	9407
722.877	9862
722.993	9401
723.108	10611
723.224	9475
723.340	9767
723.456	9623
723.571	9228
723.687	9533
723.803	10254
723.918	9042
724.034	10117
724.150	9374
724.265	10753
724.381	13707
724.497	17134
724.612	9134
724.728	8354
724.843	8833
724.959	10398
725.074	12626
725.190	16266
725.305	9552
725.421	9949
725.536	8109
725.651	8599
725.767	9174
725.882	8501
725.997	8345
726.113	8014
726.228	7927
726.343	8816
726.459	8119
726.574	8553
726.689	8247
726.804	7746
726.920	8669
727.035	8447
727.150	8144
727.265	7770
727.380	8728
727.495	8721
727.610	7217
727.725	8610
727.841	8983
727.956	15560
728.071	14940
728.186	8930
728.301	7090
728.416	7667
728.531	8141
728.645	6635
728.760	7305
728.875	7322
728.990	7200
729.105	6931
729.220	6830
729.335	8014
729.449	6545
729.564	7043
729.679	6905
729.794	6944
729.908	7212
730.023	7948
730.138	6130
730.253	6783
730.367	6595
730.482	6604
730.596	6637
730.711	7590
730.826	6977
730.940	7108
731.055	6394
731.169	6640
731.284	5359
731.398	6392
731.513	6782
731.627	7133
731.742	8277
731.856	6799
731.970	5895
732.085	7232
732.199	6896
732.313	7948
732.428	11036
732.542	22834
732.656	15769
732.771	8664
732.885	6864
732.999	6939
733.113	6639
733.227	6982
733.342	6390
733.456	6186
733.570	6199
733.684	6276
733.798	6536
733.912	6537
734.026	5929
734.140	6873
734.254	6438
734.368	8430
734.482	9269
734.596	6480
734.710	5368
734.824	6328
734.938	5703
735.052	5681
735.166	6766
735.280	7003
735.393	4945
735.507	6169
735.621	6648
735.735	9517
735.849	6522
735.962	6216
736.076	6096
736.190	6759
736.303	6005
736.417	8913
736.531	5446
736.644	6614
736.758	6064
736.872	5674
736.985	5405
737.099	5873
737.212	4665
737.326	5292
737.439	5268
737.553	6036
737.666	5553
737.780	6309
737.893	5809
738.007	4708
738.120	5146
738.233	6005
738.347	5598
738.460	5369
738.573	5682
738.687	5422
738.800	5464
738.913	5672
739.026	5416
739.140	6080
739.253	5536
739.366	5435
739.479	4816
739.592	5338
739.705	4634
739.818	5244
739.932	4836
740.045	4852
740.158	5008
740.271	5538
740.384	5238
740.497	5340
740.610	5432
740.723	5679
740.836	5429
740.949	5724
741.062	6074
741.174	5627
741.287	4870
741.400	5081
741.513	4623
741.626	5455
741.739	5227
741.851	5028
741.964	4815
742.077	5531
742.189	5146
742.302	5735
742.415	4363
742.527	4727
742.640	5909
742.753	5215
742.865	4037
742.978	5823
743.090	4783
743.203	5524
743.316	5046
743.428	5427
743.541	4686
743.653	5577
743.766	5099
743.878	5080
743.990	6311
744.103	6058
744.215	4483
744.327	4822
744.440	5159
744.552	6113
744.664	4865
744.777	5369
744.889	4483
745.001	5448
745.113	4323
745.226	5199
745.338	4769
745.450	5795
745.562	5385
745.674	4850
745.786	5470
745.898	5659
746.010	4879
746.122	4990
746.234	5697
746.347	5089
746.459	3993
746.570	5176
746.682	4544
746.794	5864
746.906	4860
747.018	4735
747.130	5116
747.242	5287
747.354	4139
747.466	5336
747.577	4079
747.689	5023
747.801	4708
747.913	3611
748.024	4801
748.136	4862
748.248	4730
748.359	5115
748.471	4748
748.583	5775
748.694	4745
748.806	7311
748.918	5204
749.029	5066
749.141	4492
749.252	5648
749.364	4941
749.475	5560
749.587	5197
749.698	4900
749.809	5403
749.921	5423
750.032	4643
750.144	4445
750.255	4525
750.366	4467
750.478	4781
750.589	5629
750.700	4218
750.811	5769
750.923	4667
751.034	5888
751.145	6181
751.256	5612
751.367	4910
751.479	4740
751.590	4588
751.701	4901
751.812	4446
751.923	5179
752.034	4540
752.145	4526
752.256	4126
752.367	4515
752.478	4670
752.589	5271
752.700	5269
752.811	5181
752.922	4165
753.032	5369
753.143	5460
753.254	4649
753.365	6143
753.476	4769
753.586	4361
753.697	4946
753.808	5341
753.919	4798
754.029	4739
754.140	5522
754.251	4673
754.361	4372
754.472	4466
754.582	4985
754.693	5194
754.804	5808
754.914	4651
755.025	5440
755.135	4883
755.246	5488
755.356	4701
755.466	5423
755.577	5390
755.687	5409
755.798	5571
755.908	5400
756.018	4703
756.129	6484
756.239	5023
756.349	5522
756.460	5160
756.570	6280
756.680	4996
756.790	5130
756.900	6229
757.011	6399
757.121	5595
757.231	6335
757.341	5503
757.451	5877
757.561	5498
757.671	6178
757.781	5746
757.891	6731
758.001	6093
758.111	6835
758.221	6415
758.331	6219
758.441	6903
758.551	7090
758.661	6510
758.771	7024
758.880	7059
758.990	7364
759.100	6725
759.210	7695
759.320	8122
759.429	7700
759.539	8274
759.649	8517
759.758	8181
759.868	9063
759.978	8114
760.087	8908
760.197	8364
760.307	9202
760.416	9064
760.526	9210
760.635	9265
760.745	8795
760.854	9249
760.964	9640
761.073	8918
761.182	10912
761.292	9648
761.401	10623
761.511	11176
761.620	11303
761.729	11081
761.839	11060
761.948	12252
762.057	12212
762.166	11740
762.276	12462
762.385	14094
762.494	13932
762.603	14220
762.712	14209
762.822	14497
762.931	16073
763.040	15600
763.149	17472
763.258	16870
763.367	18042
763.476	18834
763.585	19644
763.694	21371
763.803	22202
763.912	23985
764.021	25040
764.130	25885
764.238	28439
764.347	29756
764.456	33174
764.565	35611
764.674	37027
764.783	41401
764.891	45061
765.000	51469
765.109	58880
765.217	66340
765.326	76632
765.435	90970
765.543	108888
765.652	132898
765.761	168451
765.869	215521
765.978	286631
766.086	381292
766.195	489913
766.303	534974
766.412	383580
766.520	340556
766.629	525995
766.737	501487
766.846	386318
766.954	291831
767.062	222140
767.171	173086
767.279	136357
767.387	111133
767.496	92930
767.604	81378
767.712	70220
767.820	61747
767.928	57507
768.037	52395
768.145	51216
768.253	46762
768.361	46260
768.469	44620
768.577	46801
768.685	48474
768.793	51439
768.901	55162
769.009	63660
769.117	75926
769.225	94761
769.333	125659
769.441	178542
769.549	266559
769.657	401775
769.765	483428
769.873	347797
769.981	450082
770.088	426134
770.196	297656
770.304	204346
770.412	149022
770.519	114892
770.627	89958
770.735	75156
770.842	63513
770.950	54296
771.058	47629
771.165	43074
771.273	37942
771.380	35131
771.488	32024
771.595	29638
771.703	25832
771.810	25383
771.918	23197
772.025	22557
772.133	20219
772.240	19351
772.348	19128
772.455	19253
772.562	16652
772.670	15327
772.777	15649
772.884	15687
772.991	14657
773.099	14735
773.206	12750
773.313	13931
773.420	12574
773.528	11986
773.635	11965
773.742	12043
773.849	10865
773.956	11713
774.063	9696
774.170	9900
774.277	10170
774.384	10444
774.491	9977
774.598	10717
774.705	9570
774.812	9425
774.919	9752
775.026	9322
775.133	9101
775.239	9028
775.346	8291
775.453	8061
775.560	8236
775.667	8365
775.773	7456
775.880	8453
775.987	6843
776.093	9178
776.200	7298
776.307	7195
776.413	6936
776.520	6276
776.627	7260
776.733	7309
776.840	5300
776.946	7338
777.053	6199
777.159	6385
777.266	4174
777.372	7263
777.478	6495
777.585	5609
777.691	5662
777.798	5887
777.904	6451
778.010	7615
778.117	6744
778.223	6796
778.329	6021
778.435	5913
778.542	5258
778.648	5421
778.754	5203
778.860	5131
778.966	5096
779.072	4674
779.178	5409
779.284	5667
779.391	4727
779.497	5430
779.603	8935
779.708	11611
779.815	24149
779.920	74230
780.026	170054
780.132	40887
780.238	10295
780.344	7514
780.450	5958
780.556	5628
780.661	4833
780.767	5304
780.873	4659
780.979	4689
781.085	3979
781.190	4814
781.296	4070
781.402	4152
781.507	4101
781.613	4156
781.719	2998
781.824	4360
781.930	4379
782.035	4435
782.141	3684
782.246	4488
782.352	3666
782.457	3697
782.563	3584
782.668	3193
782.773	3104
782.879	2912
782.984	3902
783.090	3097
783.195	3416
783.300	4237
783.405	2538
783.511	3976
783.616	4148
783.721	3788
783.826	2852
783.932	4169
784.037	3177
784.142	3482
784.247	3190
784.352	4026
784.457	3023
784.562	3330
784.667	3030
784.772	3600
784.877	3355
784.982	4032
785.087	3230
785.192	3393
785.297	3128
785.402	2752
785.507	3323
785.611	3366
785.716	2534
785.821	3903
785.926	2510
786.031	3565
786.135	2883
786.240	2824
786.345	2196
786.450	3287
786.554	2444
786.659	2740
786.763	2038
786.868	2679
786.973	2153
787.077	3174
787.182	2388
787.286	2737
787.391	2785
787.495	2853
787.600	3165
787.704	2405
787.809	2715
787.913	2381
788.017	2513
788.122	2593
788.226	2863
788.330	2138
788.435	1549
788.539	2229
788.643	2448
788.747	2965
788.852	2005
788.956	2135
789.060	1912
789.164	2796
789.268	2390
789.372	2109
789.476	1846
789.580	2539
789.684	1782
789.788	2554
789.892	1343
789.996	2707
790.100	2149
790.204	1849
790.308	2043
790.412	2021
790.516	2635
790.620	2258
790.724	1839
790.828	2011
790.931	1375
791.035	3323
791.139	2511
791.242	1490
791.346	2868
791.450	2126
791.554	1964
791.657	1062
791.761	3393
791.864	2926
791.968	2106
792.072	2545
792.175	1887
792.279	1580
792.382	1788
792.486	2743
792.589	1469
792.693	2553
792.796	605
792.899	1718
793.003	2623
793.106	1395
793.209	1480
793.313	2131
793.416	143
793.519	3356
793.623	3014
793.726	1814
793.829	1455
793.932	2145
794.035	714
794.138	3327
794.242	2821
794.345	3383
794.448	5916
794.551	11241
794.654	44114
794.757	112079
794.860	26200
794.963	5036
795.066	2757
795.169	3382
795.272	2015
795.375	2193
795.477	1229
795.580	2111
795.683	1145
795.786	1751
795.889	-198
795.991	2116
796.094	2102
796.197	1456
796.300	2233
796.402	1295
796.505	1911
796.608	1710
796.710	1330
796.813	1989
796.915	772
797.018	1578
797.120	704
797.223	1429
797.326	1893
797.428	2061
797.530	1004
797.633	1763
797.735	2226
797.838	1655
797.940	1647
798.042	1353
798.145	1434
798.247	2264
798.349	162
798.452	1281
798.554	798
798.656	952
798.758	1574
798.860	1750
798.962	442
799.065	579
799.167	269
799.269	2259
799.371	1784
799.473	1744
799.575	412
799.677	1326
799.779	2180
799.881	109
799.983	1500
800.085	1624
800.187	1355
800.289	1194
800.390	1340
800.492	1290
800.594	1178
800.696	1390
800.798	791
800.899	821
801.001	842
801.103	763
801.205	935
801.306	918
801.408	414
801.509	1140
801.611	1096
801.713	1584
801.814	308
801.916	1725
802.017	1319
802.119	738
802.220	1453
802.322	-321
802.423	2177
802.525	615
802.626	865
802.727	1430
802.829	707
802.930	-895
803.031	2190
803.133	246
803.234	763
803.335	1979
803.436	353
803.538	1223
803.639	556
803.740	1088
803.841	785
803.942	479
804.043	529
804.144	712
804.245	350
804.346	821
804.447	567
804.548	1219
804.649	1220
804.750	1247
804.851	593
804.952	1416
805.053	1381
805.154	-327
805.255	951
805.355	1016
805.456	531
805.557	420
805.658	316
805.758	2071
805.859	246
805.960	752
806.061	153
806.161	370
806.262	670
806.362	38
806.463	136
806.564	1475
806.664	826
806.765	954
806.865	618
806.966	1063
807.066	161
807.166	1999
807.267	1241
807.367	645
807.468	914
807.568	-142
807.668	763
807.769	1448
807.869	-307
807.969	1005
808.069	-295
808.170	713
808.270	297
808.370	521
808.470	273
808.570	50
808.670	441
808.770	1638
808.870	-49
808.970	1057
809.070	-90
809.170	370
809.271	392
809.370	186
809.470	519
809.570	195
809.670	-370
809.770	862
809.870	1479
809.970	925
810.070	20
810.169	1013
810.269	-570
810.369	1531
810.469	943
810.568	303
810.668	331
810.768	1030
810.867	281
810.967	680
811.066	480
811.166	169
811.265	1055
811.365	282
811.464	680
811.564	1155
811.663	248
811.763	16
811.862	373
811.962	924
812.061	-7
812.160	636
812.260	277
812.359	413
812.458	576
812.557	2620
812.657	4019
812.756	2530
812.855	13
812.954	586
813.053	1379
813.153	860
813.252	-79
813.351	1223
813.450	54
813.549	883
813.648	594
813.747	177
813.846	639
813.945	1133
814.044	421
814.143	619
814.242	792
814.341	818
814.439	852
814.538	557
814.637	-547
814.736	-412
814.835	1265
814.933	1321
815.032	616
815.131	802
815.229	776
815.328	932
815.427	-56
815.525	1425
815.624	1437
815.722	457
815.821	1138
815.919	1120
816.018	-673
816.116	1584
816.215	909
816.313	1235
816.412	1034
816.510	1086
816.609	2088
816.707	1934
816.805	1676
816.904	1665
817.002	1533
817.100	2539
817.198	2645
817.296	2424
817.395	2338
817.493	3579
817.591	3973
817.689	5906
817.787	7360
817.885	13002
817.983	20302
818.081	41070
818.179	90989
818.277	204347
818.375	204748
818.473	76255
818.571	29705
818.669	18952
818.767	14952
818.865	15829
818.963	16741
819.061	24358
819.158	39688
819.256	76352
819.354	152633
819.452	273206
819.549	223110
819.647	98605
819.745	42552
819.842	24863
819.940	15620
820.038	11438
820.135	9055
820.233	7519
820.330	5220
820.428	5020
820.525	4473
820.623	3391
820.720	1945
820.818	2967
820.915	2500
821.012	2213
821.110	782
821.207	2223
821.304	856
821.402	2354
821.499	1874
821.596	1861
821.693	1293
821.791	1885
821.888	389
821.985	1996
822.082	240
822.179	1535
822.276	919
822.373	1730
822.470	111
822.567	1248
822.664	55
822.761	974
822.858	-116
822.955	1339
823.052	298
823.149	411
823.246	140
823.343	816
823.440	946
823.536	1369
823.633	16
823.730	-90
823.827	58
823.923	308
824.020	1541
824.117	102
824.213	-570
824.310	1225
824.407	-60
824.503	393
824.600	525
824.696	240
824.793	918
824.889	492
824.986	667
825.082	1259
825.179	781
825.275	584
825.371	-10
825.468	945
825.564	-440
825.660	690
825.757	-311
825.853	1357
825.949	-402
826.045	609
826.142	-840
826.238	583
826.334	525
826.430	-501
826.526	-219
826.622	192
826.718	149
826.814	51
826.910	1000
827.006	-148
827.102	-328
827.198	1216
827.294	70
827.390	758
827.486	554
827.582	-1019
827.678	-261
827.774	715
827.869	-797
827.965	754
828.061	-673
828.157	471
828.252	390
828.348	-332
828.444	361
828.539	-698
828.635	-773
828.731	162
828.826	-675
828.922	543
829.017	-215
829.113	344
829.208	-562
829.304	-303
829.399	667
829.495	-517
829.590	503
829.685	140
829.781	-242
829.876	-678
829.971	-313
830.066	550
830.162	-313
830.257	149
830.352	-107
830.447	1040
830.543	-667
830.638	-701
830.733	-4
830.828	80
830.923	-308
831.018	-269
831.113	-58
831.208	-374
831.303	-444
831.398	783
831.493	162
831.588	-594
831.683	-779
831.778	20
831.873	-256
831.967	916
832.062	-1000
832.157	-357
832.252	138
832.346	297
832.441	208
832.536	520
832.631	995
832.725	443
832.820	-641
832.914	-550
833.009	-124
833.104	-84
833.198	35
833.293	-197
833.387	-800
833.482	24
833.576	-1431
833.670	79
833.765	-1353
833.859	231
833.954	-197
834.048	272
834.142	113
834.237	-814
834.331	279
834.425	558
834.519	-1264
834.613	-23
834.708	-963
834.802	460
834.896	-1360
834.990	-754
835.084	158
835.178	-310
835.272	-568
835.366	400
835.460	-95
835.554	122
835.648	-167
835.742	60
835.836	-1428
835.930	-507
836.024	237
836.117	936
836.211	-659
836.305	480
836.399	128
836.493	-832
836.586	-459
836.680	-735
836.774	-1064
836.867	997
836.961	-1208
837.055	-862
837.148	275
837.242	67
837.335	-955
837.429	-137
837.522	-1024
837.616	-385
837.709	-150
837.803	626
837.896	453
837.989	-295
838.083	-94
838.176	911
838.269	215
838.363	644
838.456	-1073
838.549	426
838.642	-452
838.735	2016
838.829	177
838.922	-733
839.015	-706
839.108	-443
839.201	-57
839.294	370
839.387	168
839.480	-605
839.573	-594
839.666	857
839.759	-596
839.852	-649
839.945	-39
840.038	-342
840.131	-779
840.223	-305
840.316	579
840.409	-163
840.502	-855
840.594	796
840.687	-955
840.780	444
840.873	-1126
840.965	-34
841.058	-321
841.150	957
841.243	-65
841.336	755
841.428	-388
841.521	147
841.613	-821
841.706	-344
841.798	-676
841.890	280
841.983	-965
842.075	495
842.167	89
842.260	-1017
842.352	-132
842.444	373
842.537	103
842.629	2756
842.721	-339
842.813	-168
842.905	-583
842.997	732
843.090	-82
843.182	392
843.274	648
843.366	3557
843.458	6650
843.550	6225
843.642	151
843.734	655
843.826	-738
843.918	1212
844.009	-54
844.101	-928
844.193	-246
844.285	-633
844.377	-440
844.469	747
844.560	-851
844.652	-13
844.744	-529
844.835	-558
844.927	-348
845.019	-522
845.110	-913
845.202	474
845.293	-805
845.385	-974
845.476	-417
845.568	614
845.659	-689
845.751	482
845.842	-876
845.934	-156
846.025	-848
846.116	-213
846.208	-801
846.299	258
846.390	131
846.482	18
846.573	-215
846.664	370
846.755	-675
846.846	990
846.937	-954
847.029	-194
847.120	-1406
847.211	-387
847.302	112
847.393	-798
847.484	-206
847.575	-958
847.666	-1448
847.757	352
847.847	-315
847.938	-428
848.029	-915
848.120	-434
848.211	-772
848.302	87
848.392	-477
848.483	118
848.574	-940
848.664	-1024
848.755	-1124
848.846	-676
848.936	-901
849.027	-414
849.118	-1011
849.208	-428
849.299	-1169
849.389	223
849.480	-738
849.570	-127
849.661	625
849.751	1113
849.841	-466
849.932	-311
850.022	-1586
850.112	70
850.203	-915
850.293	-265
850.383	-466
850.474	-275
850.564	-438
850.654	-2
850.744	-779
850.834	-255
850.924	-1156
851.014	-433
851.104	-1246
851.194	-486
851.284	-26
851.374	-513
851.464	-481
851.554	-145
851.644	-495
851.734	784
851.824	1216
851.914	2189
852.004	4382
852.094	6031
852.183	129
852.273	276
852.363	-669
852.452	-491
852.542	-616
852.632	-861
852.721	-821
852.811	-940
852.901	-905
852.990	-139
853.080	-704
853.169	-573
853.259	-904
853.348	-1096
853.438	-826
853.527	84
853.617	-671
853.706	1514
853.795	-176
853.885	1689
853.974	2833
854.063	7152
854.152	12507
854.242	5117
854.331	-171
854.420	-871
854.509	-611
854.598	363
854.687	173
854.777	-161
854.866	-823
854.955	-615
855.044	-527
855.133	-111
855.222	-492
855.311	-797
855.400	-526
855.488	-225
855.577	-1852
855.666	193
855.755	-469
855.844	-351
855.933	-398
856.021	121
856.110	-541
856.199	-513
856.288	-702
856.376	-43
856.465	-1191
856.554	-199
856.642	-1861
856.731	-3
856.819	-805
856.908	-887
856.996	-853
857.085	75
857.173	-1098
857.262	115
857.350	-1058
857.438	-310
857.527	46
857.615	-400
857.703	-657
857.792	-216
857.880	-446
857.968	-889
858.056	-315
858.145	-490
858.233	-1202
858.321	-535
858.409	157
858.497	-836
858.585	-1141
858.673	39
858.761	-1125
858.849	-1459
858.937	-715
859.025	-415
859.113	-1176
859.201	-857
859.289	-1012
859.377	-921
859.465	-486
859.552	-733
859.640	-1026
859.728	-783
859.816	-855
859.903	-989
859.991	-1402
860.079	425
860.166	-678
860.254	-915
860.342	-290
860.429	-611
860.517	-1063
860.604	-293
860.692	-906
860.779	-637
860.867	-637
860.954	-1147
861.042	-1286
861.129	-253
861.216	-554
861.304	-1422
861.391	-44
861.478	-1048
861.565	-1550
861.653	134
861.740	-1705
861.827	-842
861.914	-608
862.001	-437
862.089	-78
862.176	-940
862.263	-788
862.350	112
862.437	-893
862.524	-1008
862.611	-1130
862.698	95
862.785	-667
862.871	-338
862.958	-1198
863.045	-429
863.132	-592
863.219	-501
863.306	-1064
863.392	-359
863.479	-1105
863.566	-601
863.652	-766
863.739	-425
863.826	-135
863.912	57
863.999	-1435
864.086	-877
864.172	-1058
864.259	-907
864.345	-452
864.432	-567
864.518	-253
864.604	-483
864.691	-694
864.777	-571
864.863	188
864.950	-729
865.036	-859
865.122	228
865.209	-642
865.295	-1032
865.381	-901
865.467	-608
865.553	-144
865.639	-781
865.726	-135
865.812	606
865.898	847
865.984	2787
866.070	4802
866.156	6419
866.242	1366
866.328	-206
866.414	-773
866.499	-6
866.585	-1264
866.671	343
866.757	-982
866.843	-14
866.928	-1063
867.014	193
867.100	216
867.186	-1466
867.271	-892
867.357	653
867.442	-351
867.528	-429
867.614	-424
867.699	-259
867.785	-387
867.870	-699
867.956	-177
868.041	155
868.127	-858
868.212	-737
868.297	71
868.383	-665
868.468	-401
868.553	905
868.639	201
868.724	1117
868.809	-87
868.894	-130
868.979	-781
869.065	304
869.150	-1108
869.235	-718
869.320	-1306
869.405	-836
869.490	-1190
869.575	-141
869.660	-1323
869.745	96
869.830	-1327
869.915	-1503
870.000	-1002
870.085	-747
870.169	-1233
870.254	-68
870.339	-1201
870.424	-969
870.509	-1641
870.593	-729
870.678	-363
870.763	-1118
870.847	-1075
870.932	-1124
871.016	-1571
871.101	-488
871.186	-1383
871.270	-379
871.355	-1629
871.439	-932
871.523	-722
871.608	-533
871.692	-773
871.777	-135
871.861	-615
871.945	-839
872.030	-875
872.114	-1189
872.198	-1631
872.282	-107
872.367	-716
872.451	-417
872.535	-1097
872.619	-660
872.703	-603
872.787	-92
872.871	-676
872.955	-450
873.039	-1100
873.123	-711
873.207	-544
873.291	-978
873.375	-2198
873.459	-667
873.543	-1146
873.627	-854
873.711	-1729
873.794	-815
873.878	-1095
873.962	-1685
874.045	-1637
874.129	-1003
874.137	-1032
874.213	-1326
874.245	-1056
874.296	-613
874.352	-1025
874.380	-1233
874.460	-620
874.464	-596
874.547	-1069
874.568	-844
874.631	-189
874.676	-562
874.714	-858
874.784	-573
874.798	-527
874.881	435
874.892	209
874.965	-1288
874.999	-1559
875.048	-1964
875.107	-910
875.131	-481
875.215	-923
875.215	-922
875.298	-452
875.323	-861
875.381	-1798
875.430	-956
875.465	-370
875.538	-1002
875.548	-1084
875.631	-909
875.646	-1031
875.714	-1735
875.753	-1363
875.798	-849
875.861	-1130
875.881	-1240
875.964	109
875.968	39
876.047	-1137
876.076	-904
876.130	-487
876.183	-597
876.213	-690
876.291	-187
876.296	-139
876.379	-1284
876.398	-1015
876.462	-291
876.506	-571
876.545	-799
876.613	88
876.628	303
876.711	-166
876.721	-234
876.794	-822
876.828	-801
876.877	-774
876.935	-585
876.960	-491
877.043	-668
877.043	-668
877.125	-691
877.150	-730
877.208	-623
877.258	-333
877.291	-191
877.365	-342
877.374	-381
877.456	-961
877.472	-1004
877.539	-1030
877.579	-621
877.622	-149
877.687	-190
877.704	-233
877.787	204
877.794	127
877.869	-527
877.901	-107
877.952	406
878.008	-406
878.034	-768
878.115	-194
878.117	-177
878.199	-786
878.222	-690
878.282	-614
878.329	-627
878.364	-629
878.437	-268
878.447	-216
878.529	-1192
878.544	-1012
878.611	90
878.651	-234
878.694	-788
878.758	-412
878.776	-238
878.858	-371
878.865	-370
878.941	-669
878.972	-703
879.023	-629
879.078	-266
879.105	-59
879.185	-524
879.187	-535
879.269	-245
879.292	-427
879.351	-980
879.399	-736
879.433	-332
879.506	-370
879.516	-429
879.598	-356
879.613	-472
879.680	-753
879.720	-253
879.762	139
879.827	-297
879.844	-388
879.926	-446
879.933	-442
880.007	-252
880.040	-288
880.089	-365
880.147	-346
880.171	-420
880.253	-706
880.254	-709
880.335	-557
880.360	-227
880.417	326
880.467	-16
880.499	-77
880.574	508
880.580	493
880.662	233
880.680	44
880.744	-146
880.787	-314
880.825	-580
880.893	-359
880.907	-332
880.989	-767
881.000	-747
881.070	-168
881.106	-80
881.152	-211
881.213	-89
881.233	-30
881.315	-699
881.319	-694
881.396	-25
881.426	-4
881.478	-567
881.532	-596
881.559	-254
881.639	64
881.641	54
881.722	-195
881.745	-332
881.803	-272
881.852	-154
881.885	-281
881.958	-267
881.966	-211
882.047	150
882.064	95
882.129	-249
882.171	-53
882.210	316
882.277	467
882.291	349
882.372	-433
882.383	-466
882.454	21
882.489	9
882.535	-132
882.596	-87
882.616	-105
882.697	30
882.702	6
882.778	-293
882.808	-210
882.859	158
882.914	-120
882.940	-336
883.020	-330
883.021	-326
883.102	-312
883.127	-335
883.183	-74
883.233	81
883.264	150
883.339	467
883.345	432
883.426	-780
883.445	-848
883.507	-49
883.551	345
883.587	251
883.657	-148
883.668	-138
883.749	-65
883.763	17
883.830	39
883.869	-317
883.910	-233
883.975	596
883.991	635
884.072	199
884.081	147
884.152	-45
884.187	-55
884.233	86
884.292	225
884.314	167
884.394	-57
884.398	-73
884.475	-52
884.504	-84
884.555	-59
884.610	154
884.636	182
884.716	11
884.716	14
884.797	-138
884.821	-177
884.877	37
884.927	343
884.958	349
885.033	207
885.038	219
885.118	266
885.139	334
885.199	585
885.244	737
885.279	576
885.350	23
885.359	9
885.439	308
885.456	212
885.520	1
885.561	293
885.600	539
885.667	388
885.680	283
885.760	-59
885.773	-132
885.840	685
885.878	1151
885.920	922
885.984	503
886.000	521
886.080	801
886.089	775
886.160	442
886.195	545
886.240	873
886.300	996
886.320	931
886.400	640
886.406	617
886.480	371
886.511	362
886.560	208
886.616	-339
886.640	-293
886.720	192
886.722	195
886.800	100
886.827	165
886.879	355
886.932	244
886.959	329
887.038	986
887.039	990
887.119	427
887.143	336
887.198	554
887.248	604
887.278	547
887.354	474
887.358	482
887.437	363
887.459	419
887.517	946
887.564	1279
887.596	1107
887.669	548
887.676	526
887.755	287
887.774	253
887.835	545
887.880	704
887.914	708
887.985	634
887.994	626
888.073	607
888.090	563
888.153	729
888.195	892
888.232	643
888.300	275
888.311	356
888.391	707
888.405	776
888.470	490
888.510	280
888.549	354
888.615	564
888.628	556
888.708	337
888.720	322
888.787	520
888.825	557
888.866	607
888.930	778
888.945	722
889.024	265
889.035	218
889.103	586
889.140	732
889.182	717
889.245	715
889.261	708
889.340	633
889.349	624
889.419	887
889.454	994
889.498	1067
889.559	1196
889.577	1217
889.656	1268
889.664	1271
889.735	1007
889.768	877
889.814	791
889.873	673
889.978	1234
890.083	1629
890.187	493
890.292	1276
890.397	844
890.501	217
890.606	871
890.710	1351
890.815	1219
890.919	1083
891.024	991
891.128	662
891.233	233
891.337	1562
891.442	495
891.546	822
891.650	773
891.755	1626
891.859	1724
891.963	1431
892.068	1264
892.172	737
892.276	368
892.380	614
892.484	-223
892.589	1319
892.693	356
892.797	589
892.901	612
893.005	1030
893.109	819
893.213	1319
893.317	673
893.421	456
893.525	677
893.629	712
893.733	804
893.837	650
893.941	494
894.045	2116
894.148	1253
894.252	2465
894.356	2111
894.460	1172
894.564	1010
894.667	211
894.771	497
894.875	410
894.978	-171
895.082	307
895.186	690
895.289	1405
895.393	659
895.496	954
895.600	452
895.703	208
895.807	193
895.910	762
896.014	101
896.117	880
896.221	819
896.324	429
896.427	420
896.531	504
896.634	-148
896.737	892
896.840	324
896.944	1287
897.047	-250
897.150	531
897.253	-159
897.356	949
897.460	543
897.563	885
897.666	333
897.769	65
897.872	256
897.975	324
898.078	302
898.181	1189
898.284	684
898.387	1042
898.490	-382
898.593	603
898.695	-139
898.798	1614
898.901	1162
899.004	63
899.107	1153
899.209	1258
899.312	733
899.415	376
899.518	-131
899.620	-84
899.723	1087
899.826	739
899.928	463
900.031	911
900.133	596
900.236	854
900.338	480
900.441	290
900.543	-45
900.646	797
900.748	78
900.851	364
900.953	836
901.055	657
901.158	80
901.260	77
901.362	614
901.465	-393
901.567	-141
901.669	1390
901.771	144
901.873	1026
901.976	266
902.078	737
902.180	288
902.282	577
902.384	98
902.486	400
902.588	716
902.690	877
902.792	-114
902.894	2002
902.996	233
903.098	612
903.200	582
903.302	834
903.404	-119
903.505	58
903.607	344
903.709	1440
903.811	1117
903.913	369
904.014	1288
904.116	216
904.218	-87
904.319	1196
904.421	607
904.523	1004
904.624	514
904.726	779
904.827	192
904.929	266
905.030	-337
905.132	885
905.233	357
905.335	217
905.436	261
905.537	692
905.639	116
905.740	25
905.841	147
905.943	636
906.044	-868
906.145	1310
906.247	-123
906.348	1768
906.449	1211
906.550	111
906.651	940
906.752	798
906.854	397
906.955	239
907.056	125
907.157	221
907.258	127
907.359	838
907.460	280
907.561	649
907.662	391
907.762	704
907.863	-84
907.964	665
908.065	46
908.166	195
908.267	48
908.367	-116
908.468	732
908.569	309
908.670	264
908.770	1141
908.871	331
908.971	1142
909.072	351
909.173	546
909.273	-58
909.374	1037
909.474	387
909.575	1262
909.675	270
909.776	1097
909.876	86
909.977	523
910.077	530
910.177	53
910.278	203
910.378	-84
910.478	160
910.579	1089
910.679	-324
910.779	884
910.879	215
910.980	-50
911.080	-63
911.180	471
911.280	651
911.380	234
911.480	99
911.580	961
911.680	522
911.780	283
911.880	830
911.980	267
912.080	-545
912.180	1204
912.280	-100
912.380	140
912.480	403
912.580	819
912.679	-596
912.779	861
912.879	1059
912.979	301
913.078	-207
913.178	605
913.278	614
913.377	159
913.477	330
913.577	734
913.676	385
913.776	427
913.875	379
913.975	911
914.074	318
914.174	352
914.273	229
914.373	701
914.472	66
914.572	-308
914.671	776
914.770	-114
914.870	-239
914.969	589
915.068	441
915.167	538
915.267	-143
915.366	411
915.465	-12
915.564	357
915.663	76
915.763	269
915.862	583
915.961	650
916.060	446
916.159	-337
916.258	-294
916.357	314
916.456	63
916.555	256
916.654	511
916.752	218
916.851	-70
916.950	795
917.049	-68
917.148	1032
917.247	244
917.345	1106
917.444	-21
917.543	-199
917.642	-119
917.740	85
917.839	294
917.937	-128
918.036	365
918.135	167
918.233	-192
918.332	369
918.430	17
918.529	217
918.627	533
918.726	937
918.824	-448
918.923	864
919.021	-93
919.119	279
919.218	319
919.316	-281
919.414	-234
919.512	-357
919.611	858
919.709	972
919.807	324
919.905	-81
920.003	286
920.102	740
920.200	17
920.298	-132
920.396	-523
920.494	303
920.592	-325
920.690	826
920.788	101
920.886	461
920.984	612
921.082	-124
921.180	241
921.277	484
921.375	-112
921.473	949
921.571	404
921.669	383
921.766	228
921.864	493
921.962	502
922.060	284
922.157	65
922.255	699
922.352	-285
922.450	1457
922.548	100
922.645	513
922.743	-310
922.840	148
922.938	285
923.035	211
923.133	195
923.230	768
923.327	189
923.425	1039
923.522	171
923.619	1087
923.717	199
923.814	328
923.911	110
924.008	1514
924.106	1560
924.203	765
924.300	-51
924.397	1564
924.494	558
924.591	963
924.688	524
924.786	1123
924.883	1168
924.979	941
925.077	-45
925.173	802
925.270	-216
925.367	1356
925.464	703
925.561	201
925.658	76
925.755	793
925.852	873
925.948	212
926.045	728
926.142	778
926.239	317
926.335	356
926.432	694
926.529	689
926.625	-6
926.722	217
926.818	149
926.915	304
927.011	820
927.108	658
927.204	163
927.301	1203
927.397	22
927.494	580
927.590	114
927.687	646
927.783	535
927.879	1291
927.976	-323
928.072	539
928.168	-102
928.264	62
928.361	160
928.457	931
928.553	-137
928.649	787
928.745	125
928.841	646
928.937	105
929.033	1021
929.129	120
929.225	560
929.321	588
929.417	582
929.513	257
929.609	450
929.705	-954
929.801	827
929.897	-40
929.993	252
930.089	308
930.184	571
930.280	246
930.376	1306
930.471	-258
930.567	50
930.663	748
930.758	928
930.854	511
930.950	-160
931.045	303
931.141	-205
931.236	739
931.332	1042
931.427	-58
931.523	601
931.618	80
931.714	287
931.809	-241
931.905	469
932.000	323
932.095	-313
932.191	326
932.286	686
932.381	-15
932.476	437
932.572	14
932.667	191
932.762	785
932.857	203
932.952	250
933.047	-193
933.142	408
933.237	365
933.332	-504
933.427	666
933.522	330
933.617	739
933.712	-89
933.807	248
933.902	-13
933.997	-130
934.092	-615
934.187	451
934.282	-30
934.376	200
934.471	653
934.566	-172
934.661	301
934.755	481
934.850	215
934.945	272
935.039	442
935.134	749
935.228	-260
935.323	790
935.417	250
935.512	527
935.606	-160
935.701	230
935.795	-30
935.890	515
935.984	-229
936.079	-26
936.173	672
936.267	277
936.362	-865
936.456	206
936.550	-83
936.644	557
936.738	240
936.833	553
936.927	418
937.021	406
937.115	112
937.209	-449
937.303	-141
937.397	151
937.491	144
937.585	768
937.679	319
937.773	69
937.867	-178
937.961	332
938.055	-626
938.149	265
938.243	328
938.337	719
938.430	-88
938.524	5
938.618	-65
938.712	-63
938.805	183
938.899	537
938.993	-194
939.086	135
939.180	-246
939.274	-176
939.367	-428
939.461	514
939.554	-312
939.648	36
939.741	235
939.835	136
939.928	81
940.022	666
940.115	-474
940.208	774
940.302	319
940.395	1034
940.488	-650
940.582	360
940.675	-811
940.768	-18
940.861	-821
940.954	611
941.048	-566
941.141	847
941.234	-454
941.327	29
941.420	428
941.513	-17
941.606	-127
941.699	185
941.792	-444
941.885	-103
941.978	-192
942.071	112
942.164	-27
942.257	1074
942.349	6
942.442	211
942.535	-589
942.628	432
942.721	-106
942.813	-459
942.906	752
942.999	-5
943.091	-469
943.184	147
943.277	-770
943.369	578
943.462	-312
943.554	516
943.647	-511
943.739	664
943.832	-208
943.924	-623
944.017	382
944.109	-855
944.201	3
944.294	475
944.386	543
944.478	-1
944.571	70
944.663	281
944.755	-272
944.847	735
944.940	-371
945.032	194
945.124	-159
945.216	316
945.308	216
945.400	138
945.492	-4
945.584	251
945.676	-418
945.768	-283
945.860	383
945.952	295
946.044	179
946.136	276
946.228	169
946.320	226
946.412	-425
946.503	-189
946.595	-152
946.687	563
946.779	-254
946.870	220
946.962	-757
947.054	249
947.145	19
947.237	208
947.329	-9
947.420	-866
947.512	-363
947.603	350
947.695	-107
947.786	-628
947.878	-141
947.969	564
948.061	-543
948.152	-320
948.243	-371
948.335	478
948.426	-528
948.517	293
948.609	-445
948.700	225
948.791	-270
948.882	953
948.973	13
949.065	-34
949.156	48
949.247	-414
949.338	21
949.429	-492
949.520	-868
949.611	-198
949.702	160
949.793	112
949.884	-928
949.975	342
950.066	-1386
950.157	-572
950.247	-334
950.338	148
950.429	-421
950.520	259
950.611	-590
950.701	-382
950.792	-252
950.883	807
950.973	-571
951.064	-273
951.155	-374
951.245	730
951.336	-114
951.427	-379
951.517	623
951.608	1094
951.698	-229
951.788	-53
951.879	-35
951.969	-423
952.060	-939
952.150	-905
952.240	467
952.331	-1005
952.421	176
952.511	-314
952.602	645
952.692	66
952.782	-210
952.872	-176
952.962	-550
953.052	176
953.143	-896
953.233	308
953.323	158
953.413	-118
953.503	774
953.593	185
953.683	-689
953.773	-163
953.863	-222
953.953	339
954.042	11
954.132	-431
954.222	-85
954.312	-809
954.402	-260
954.492	-64
954.581	543
954.671	321
954.761	-475
954.850	1238
954.940	-151
955.030	643
955.119	5
955.209	-383
955.298	-203
955.388	179
955.477	495
955.567	-318
955.656	-92
955.746	-256
955.835	-220
955.925	131
956.014	-185
956.103	120
956.193	-873
956.282	557
956.371	-966
956.461	774
956.550	-351
956.639	154
956.728	-1158
956.817	-176
956.906	41
956.995	1015
957.085	-170
957.174	53
957.263	-1013
957.352	695
957.441	-993
957.530	-484
957.619	-444
957.708	-644
957.796	-185
957.885	-22
957.974	-112
958.063	997
958.152	-349
958.241	-77
958.329	-521
958.418	-540
958.507	-699
958.596	1147
958.684	-719
958.773	228
958.861	-286
958.950	628
959.039	-71
959.127	133
959.216	21
959.304	-28
959.393	-75
959.481	264
959.570	416
959.658	-96
959.746	-190
959.835	939
959.923	621
960.011	507
960.100	90
960.188	1278
960.276	213
960.365	220
960.453	321
960.541	-307
960.629	-222
960.717	-104
960.805	-870
960.893	-146
960.981	-1188
961.069	222
961.158	128
961.245	-328
961.333	131
961.421	-670
961.509	-5
961.597	676
961.685	-511
961.773	12
961.861	-686
961.949	-372
962.036	-712
962.124	614
962.212	-999
962.299	-463
962.387	-978
962.475	321
962.562	-1429
962.650	186
962.738	-352
962.825	337
962.913	-463
963.000	7
963.088	-909
963.175	601
963.263	-96
963.350	-711
963.438	96
963.525	-408
963.612	362
963.700	1030
963.787	5013
963.874	2702
963.962	-449
964.049	-347
964.136	-406
964.223	-428
964.310	-437
964.398	-185
964.485	-1313
964.572	-407
964.659	-346
964.746	541
964.833	-326
964.920	-78
965.007	-933
965.094	-1053
965.181	-600
965.268	-405
965.355	-1126
965.441	-577
965.528	-1064
965.615	531
965.702	-256
965.789	-853
965.875	-944
965.962	-819
966.049	-1135
966.136	130
966.222	-249
966.309	-384
966.395	-1168
966.482	43
966.569	-334
966.655	-493
966.742	-1608
966.828	-235
966.915	-781
967.001	-430
967.087	-741
967.174	-307
967.260	436
967.347	-116
967.433	540
967.519	3242
967.605	294
967.692	-230
967.778	-1078
967.864	-1582
967.950	-515
968.036	-595
968.123	-193
968.209	-802
968.295	-1255
968.381	329
968.467	93
968.553	-1066
968.639	-164
968.725	-1494
968.811	535
968.897	951
968.983	-703
969.069	-533
969.154	-153
969.240	366
969.326	-712
969.412	-301
969.497	-1067
969.583	-99
969.669	-1233
969.755	-247
969.840	-762
969.926	-164
970.012	-560
970.097	56
970.183	-987
970.268	-329
970.354	56
970.439	286
970.525	1710
970.610	-66
970.696	-482
970.781	-732
970.866	-814
970.952	-137
971.037	-1035
971.122	-860
971.208	-464
971.293	-705
971.378	-1766
971.463	-1472
971.549	-895
971.634	-1319
971.719	-148
971.804	-72
971.889	96
971.974	-489
972.059	-876
972.144	658
972.229	-419
972.314	-744
972.399	-1324
972.484	-1043
972.569	-665
972.654	-335
972.739	637
972.824	432
972.908	-432
972.993	-757
973.078	-1076
973.163	-171
973.247	-945
973.332	-1003
973.417	211
973.501	-1348
973.586	-1161
973.671	-414
973.755	-742
973.840	-566
973.924	-153
974.009	-473
974.093	-1007
974.178	75
974.262	-783
974.346	321
974.431	-1408
974.515	-558
974.600	-1263
974.684	-464
974.768	-1206
974.852	-659
974.937	-1319
975.021	158
975.105	-1595
975.189	-756
975.273	-1245
975.358	-1052
975.442	-1331
975.526	-294
975.610	-1129
975.694	-678
975.778	-110
975.862	-170
975.946	-2760
976.030	951
976.114	-949
976.198	-207
976.281	-1970
976.365	166
976.449	-917
976.533	365
976.617	-1521
976.700	-435
976.784	-508
976.868	-1441
976.951	-827
977.035	-122
977.119	-34
977.202	-214
977.286	-856
977.369	-564
977.453	312
977.536	-364
977.620	-1735
977.703	-450
977.787	-1315
977.870	-1324
977.953	-282
978.037	-1902
978.120	-394
978.203	-216
978.287	-955
978.370	1044
978.453	-352
978.536	-1059
978.620	-104
978.703	175
978.786	-1043
978.869	-725
978.952	-1254
979.035	-196
979.118	-1057
979.201	-755
979.284	-233
979.367	-1077
979.450	-912
979.533	-893
979.616	-936
979.699	-802
979.782	-557
979.865	-1162
979.948	-1021
980.030	-1041
980.113	-856
980.196	-1731
980.279	-41
980.361	-889
980.444	-1517
980.526	-474
980.609	-857
980.692	-398
980.774	-990
980.857	-1458
980.939	-243
981.022	-1658
981.104	-884
981.187	-1273
981.269	-1030
981.352	-713
981.434	-2664
981.516	-1715
981.599	457
981.681	-593
981.763	-680
981.846	-33
981.928	-465
982.010	-699
982.092	-1893
982.174	-126
982.256	-1037
982.339	-356
982.421	-799
982.503	-720
982.585	-1879
982.667	-506
982.749	-372
982.831	-667
982.913	-1629
982.995	315
983.077	-1417
983.158	122
983.240	-1446
983.322	-766
983.404	-537
983.486	-1310
983.568	-854
983.649	-1089
983.731	-499
983.813	-1284
983.894	-583
983.976	-394
984.058	-1021
984.139	802
984.221	-1622
984.302	-480
984.384	-1090
984.465	-1244
984.547	-763
984.628	-1123
984.710	-1098
984.791	-938
984.872	-1611
984.954	-1888
985.035	-1580
985.116	-1044
985.198	-1094
985.279	-211
985.360	-2137
985.441	-1049
985.522	-616
985.604	-1105
985.685	-3231
985.766	-330
985.847	-426
985.928	-1432
986.009	-925
986.090	-954
986.171	-825
986.252	-1013
986.333	-1690
986.414	-954
986.495	-1019
986.576	-1086
986.656	-1367
986.737	-461
986.818	-825
986.899	-1648
986.980	-997
987.060	38
987.141	-2108
987.222	-114
987.302	-1094
987.383	-833
987.464	-1791
987.544	-329
987.625	-1138
987.705	-362
987.786	-1134
987.866	-1373
987.947	-1364
988.027	-885
988.108	-1309
988.188	-936
988.268	-1397
988.349	-277
988.429	-1814
988.509	-75
988.589	-1592
988.670	-3166
988.750	281
988.830	-800
988.910	-679
988.990	-1658
989.070	-1249
989.151	-948
989.231	-1852
989.311	-50
989.391	-1304
989.471	-318
989.551	-1756
989.631	-1182
989.711	-1035
989.791	-1880
989.870	-2303
989.950	27
990.030	-1725
990.110	-597
990.190	-949
990.269	-823
990.349	-1096
990.429	-89
990.509	-265
990.588	-1051
990.668	-626
990.747	-582
990.827	-1232
990.907	-652
990.986	-1181
991.066	-754
991.145	-913
991.225	-225
991.304	-1797
991.383	-517
991.463	-984
991.542	-1469
991.622	-1198
991.701	-1617
991.780	-1576
991.859	-651
991.939	-995
992.018	-1135
992.097	-956
992.176	-1597
992.256	-1569
992.335	-874
992.414	-36
992.493	-1276
992.572	-1314
992.651	-577
992.730	-1092
992.809	-1245
992.888	-1280
992.967	-189
993.046	-860
993.125	-1439
993.203	-1064
993.282	-675
993.361	-952
993.440	-904
993.519	-1856
993.597	-1144
993.676	-1899
993.755	-112
993.834	-452
993.912	-1533
993.991	-779
994.069	-1085
994.148	-1826
994.226	-1328
994.305	-1073
994.384	-814
994.462	-547
994.540	-1532
994.619	-718
994.697	-326
994.776	-1500
994.854	-582
994.932	-1076
995.011	-1198
995.089	-936
995.167	-887
995.245	-1162
995.324	-1705
995.402	-1332
995.480	-1085
995.558	-1201
995.636	-1695
995.714	-2198
995.792	-224
995.870	-1298
995.948	-614
996.026	-1035
996.104	-2665
996.182	-868
996.260	-1302
996.338	-1311
996.416	-982
996.494	-1371
996.572	-505
996.649	-1845
996.727	-1531
996.805	-1721
996.883	-508
996.960	-1411
997.038	-218
997.116	-1082
997.193	-1756
997.271	-963
997.348	-1288
997.426	-1326
997.504	-744
997.581	-1354
997.658	-51
997.736	-2224
997.813	-1294
997.891	-661
997.968	-1608
998.046	-1287
998.123	-1111
998.200	-996
998.277	-1207
998.355	-1282
998.432	-1583
998.509	-1253
998.586	-608
998.663	-889
998.741	-860
998.818	-1719
998.895	-1854
998.972	-1186
999.049	-1083
999.126	-1575
999.203	-596
999.280	-1257
999.357	-1566
999.434	-1381
999.511	-1229
999.587	-341
999.664	-837
999.741	-760
999.818	-853
999.895	-1205
999.971	-1447
1000.048	-1786
1000.125	-230
1000.202	-2291
1000.278	-759
1000.355	-577
1000.431	-478
1000.508	-1476
1000.584	-736
1000.661	-1231
1000.738	-1275
1000.814	-1324
1000.890	-1387
1000.967	-1647
1001.043	-1278
1001.120	-1334
1001.196	-505
1001.272	-1486
1001.349	-1259
1001.425	-1562
1001.501	-1373
1001.577	-2387
1001.654	-588
1001.730	-880
1001.806	-1234
1001.882	-1447
1001.958	-1036
1002.034	-1048
1002.110	-800
1002.186	-2258
1002.262	-1750
1002.338	-1612
1002.414	-634
1002.490	-961
1002.566	-1043
1002.642	-2017
1002.718	-433
1002.794	-1640
1002.870	-1481
1002.945	-1979
1003.021	-982
1003.097	-1178
1003.173	-276
1003.248	-1141
1003.324	-1535
1003.400	-2114
1003.475	-1676
1003.551	-1126
1003.626	-817
1003.702	-1761
1003.777	-1308
1003.853	-1587
1003.928	-1511
1004.004	-987
1004.079	-545
1004.155	-1820
1004.230	-1958
1004.305	-694
1004.381	-1501
1004.456	-1486
1004.531	-1371
1004.607	-1401
1004.682	-1301
1004.757	-1364
1004.832	-1556
1004.907	-708
1004.982	-1418
1005.057	-1527
1005.133	-758
1005.208	-1432
1005.283	-1802
1005.358	-1518
1005.433	-1489
1005.508	-1741
1005.583	-1761
1005.657	-1950
1005.732	535
1005.807	-2152
1005.882	-1280
1005.957	-1154
1006.032	-934
1006.106	-1857
1006.181	-848
1006.256	-1761
1006.331	-2062
1006.405	-1946
1006.480	-252
1006.554	-1466
1006.629	-1013
1006.704	-2634
1006.778	-639
1006.853	-1335
1006.927	-1926
1007.002	-1853
1007.076	-914
1007.150	-1608
1007.225	-1384
1007.299	-1456
1007.373	-1591
1007.448	-1616
1007.522	-1129
1007.596	-2116
1007.671	-1881
1007.745	-1308
1007.819	-1953
1007.893	-1476
1007.967	-1354
1008.041	-2355
1008.115	-618
1008.190	-1649
1008.264	-1182
1008.338	-3181
1008.412	-1080
1008.486	-1793
1008.560	-2431
1008.633	-2007
1008.707	-1654
1008.781	-785
1008.855	-1660
1008.929	-2005
1009.003	-1760
1009.076	-2101
1009.150	-838
1009.224	-1456
1009.298	-862
1009.371	-1748
1009.445	-1318
1009.519	-1414
1009.592	-1953
1009.666	-1493
1009.739	-1665
1009.813	-1846
1009.886	-860
1009.960	-2548
1010.033	-1032
1010.107	-1362
1010.180	-2161
1010.253	-2096
1010.327	-1688
1010.400	-1903
1010.473	-1432
1010.547	-456
1010.620	-2316
1010.693	-1268
1010.766	-1932
1010.840	-1389
1010.913	-958
1010.986	-2319
1011.059	-887
1011.132	-1857
1011.205	-1058
1011.278	-2510
1011.351	-1896
1011.424	-1640
1011.497	-2274
1011.570	-1642
1011.643	-1359
1011.716	-2041
1011.789	-1308
1011.862	-1399
1011.934	-997
1012.007	-2555
1012.080	-665
1012.153	-1791
1012.225	-1046
1012.298	-2385
1012.371	-1727
1012.443	-1256
1012.516	-1883
1012.588	-1602
1012.661	-1177
1012.733	-2154
1012.806	-448
1012.879	-2106
1012.951	-2032
1013.023	-1603
1013.096	-1233
1013.168	-2563
1013.241	-862
1013.313	-1766
1013.385	-1537
1013.458	-1431
1013.530	-1485
1013.602	-2106
1013.674	-1047
1013.746	-1669
1013.819	-2244
1013.891	-1791
1013.963	-2061
1014.035	-1959
1014.107	-829
1014.179	-1568
1014.251	-1894
1014.323	-1804
1014.395	-1771
1014.467	-800
1014.539	-1287
1014.611	-2188
1014.683	-1096
1014.754	-1782
1014.826	-1528
1014.898	-1500
1014.970	-2343
1015.042	-1284
1015.113	-1076
1015.185	-804
1015.257	-1661
1015.328	-767
1015.400	-1941
1015.471	-2015
1015.543	-2677
1015.615	-1672
1015.686	-2111
1015.757	-2666
1015.829	-1738
1015.901	-2178
1015.972	-1542
1016.043	-2803
1016.115	-832
1016.186	-1806
1016.257	-1543
1016.328	-1310
1016.400	-915
1016.471	-1353
1016.542	-1580
1016.613	-1923
1016.685	-1097
1016.756	-2244
1016.827	-990
1016.898	-2110
1016.969	-1264
1017.040	-1449
1017.111	-1477
1017.182	-1954
1017.253	-1859
1017.324	-2428
1017.395	-1499
1017.466	-1512
1017.537	-1441
1017.608	-1646
1017.678	-1991
1017.749	-2121
1017.820	-1803
1017.891	-1993
1017.961	-2238
1018.032	-1399
1018.103	-961
1018.173	-899
1018.244	-1905
1018.315	-1327
1018.385	-1214
1018.456	-2168
1018.526	-1743
1018.597	-1966
1018.667	-1618
1018.738	-2357
1018.808	-1413
1018.878	-2112
1018.949	-1510
1019.019	-1938
1019.089	-1480
1019.160	-1384
1019.230	-2406
1019.300	-1771
1019.371	-2456
1019.441	-1793
1019.511	-570
1019.581	-1191
1019.651	-535
1019.721	-914
1019.791	-755
1019.861	-2485
1019.931	-2004
1020.001	-2640
1020.071	-1209
1020.141	-2001
1020.211	-1663
1020.281	-3447
1020.351	-984
1020.421	-1627
1020.491	-1136
1020.560	-2154
1020.630	-1021
1020.700	-1313
1020.770	-1671
1020.839	-2294
1020.909	-1783
1020.979	-2544
1021.048	-1276
1021.118	-1774
1021.187	-1885
1021.257	-1495
1021.326	-1811
1021.396	-1927
1021.465	-1315
1021.535	-2450
1021.604	-2259
1021.674	-1552
1021.743	-1684
1021.812	-2025
1021.882	-824
1021.951	-1271
1022.020	-1714
1022.089	-1971
1022.159	-2091
1022.228	-1976
1022.297	-1516
1022.366	-2050
1022.435	-1541
1022.504	-1946
1022.573	-1561
1022.642	-1898
1022.711	-1790
1022.781	-1518
1022.849	-1530
1022.918	-2083
1022.987	-1555
1023.056	-1902
1023.125	-1589
1023.194	-1858
1023.263	-1439
1023.331	-1385
1023.400	-2179
1023.469	-2696
1023.538	-1590
1023.606	-1782
1023.675	-923
1023.744	-2927
1023.812	-1936
1023.881	-2132
1023.949	-1252
1024.018	-1813
1024.086	-1662
1024.155	-1986
1024.223	-2271
1024.292	-1724
1024.360	-499
1024.429	-1808
1024.497	-1530
1024.565	-1361
1024.634	-1973
1024.702	-1884
1024.770	-1318
1024.838	-1735
1024.907	-1522
1024.975	-1932
1025.043	-1842
1025.111	-2414
1025.179	-1588
1025.247	-2054
1025.315	-2469
1025.383	-2058
1025.451	-1038
1025.519	-2266
1025.587	-1719
1025.655	-1611
1025.723	-1199
1025.791	-1979
1025.859	-1748
1025.927	-1240
1025.995	-1895
1026.062	-1509
1026.130	-1148
1026.198	-987
1026.266	-2000
1026.333	-1909
1026.401	-1085
1026.469	-1817
1026.536	-1144
1026.604	-1549
1026.671	-1789
1026.739	-2529
1026.806	-2052
1026.874	-2269
1026.941	-1909
1027.009	-2306
1027.076	-2044
1027.144	-912
1027.211	-2548
1027.278	-2273
1027.345	-1682
1027.413	-2272
1027.480	-1387
1027.547	-2180
1027.614	-1745
1027.682	-1837
1027.749	-2120
1027.816	-2664
1027.883	-1407
1027.950	-2082
1028.017	-1444
1028.084	-1237
1028.151	-2053
1028.218	-1772
1028.285	-1768
1028.352	-2457
1028.419	-1667
1028.486	-2197
1028.553	-1478
1028.619	-2458
1028.686	-1769
1028.753	-1816
1028.820	-2175
1028.886	-2669
1028.953	-1931
1029.020	-2259
1029.086	-2432
1029.153	-1807
1029.220	-2039
1029.286	-1738
1029.353	-1513
1029.419	-2447
1029.486	-1917
1029.552	-2575
1029.619	-2688
1029.685	-2253
1029.751	-1622
1029.818	-2735
1029.884	-2028
1029.951	-1590
1030.017	-1532
1030.083	-2904
1030.149	-1865
1030.216	-2847
1030.282	-1936
1030.348	-2167
1030.414	-2546
1030.480	-2667
1030.546	-1760
1030.612	-1941
1030.678	-1603
1030.744	-2641
1030.810	-1667
1030.876	-3511
1030.942	-1854
1031.008	-2323
1031.074	-1480
1031.140	-2149
1031.206	-1962
1031.272	-2824
1031.337	-1478
1031.403	-1745
1031.469	-1866
1031.534	-2661
1031.600	-2062
1031.666	-2672
1031.731	-2553
1031.797	-2559
1031.863	-2056
1031.928	-2718
1031.994	-2086
1032.059	-1954
1032.125	-2783
1032.190	-2814
1032.256	-2591
1032.321	-2835
1032.386	-2014
1032.452	-2439
1032.517	-1926
1032.582	-2874
1032.647	-1778
1032.713	-2291
1032.778	-1704
1032.843	-1648
1032.908	-2325
1032.974	-2854
1033.039	-2162
1033.104	-2213
1033.169	-2381
1033.234	-2538
1033.299	-1993
1033.364	-2360
1033.429	-2902
1033.494	-2927
1033.559	-1948
1033.624	-1981
1033.688	-2492
1033.753	-2517
1033.818	-2251
1033.883	-1705
1033.948	-2178
1034.013	-2269
1034.077	-1592
1034.142	-1792
1034.207	-2237
1034.271	-2563
1034.336	-1899
1034.400	-2881
1034.465	-1591
1034.530	-2001
1034.594	-2740
1034.658	-2369
1034.723	-2551
1034.787	-2594
1034.852	-1921
1034.916	-2205
1034.981	-3039
1035.045	-2772
1035.109	-2248
1035.173	-2564
1035.238	-1855
1035.302	-2662
1035.366	-1254
1035.430	-2579
1035.495	-1750
1035.559	-2415
1035.623	-1619
1035.687	-3356
1035.751	-2228
1035.815	-2345
1035.879	-2397
1035.943	-3095
1036.007	-2926
1036.071	-2487
1036.135	-2295
1036.198	-2969
1036.262	-3159
1036.326	-1819
1036.390	-2782
1036.454	-3124
1036.517	-2832
1036.581	-1936
1036.645	-2186
1036.709	-2479
1036.772	-2155
1036.836	-2957
1036.900	-2583
1036.963	-2748
1037.026	-2525
1037.090	-2859
1037.154	-2758
1037.217	-2815
1037.280	-3300
1037.344	-2912
1037.407	-2196
1037.471	-2491
1037.534	-1709
1037.597	-2360
1037.661	-2301
1037.724	-2191
1037.787	-2658
1037.850	-2898
1037.913	-3070
1037.977	-1515
1038.040	-3033
1038.103	-2856
1038.166	-2622
1038.229	-2838
1038.292	-2901
1038.355	-2884
1038.418	-2339
1038.481	-1977
1038.544	-2387
1038.607	-2571
1038.670	-2708
1038.732	-3097
1038.795	-2828
1038.858	-2998
1038.921	-2476
1038.984	-2299
1039.046	-2715
1039.109	-2633
1039.172	-1563
1039.234	-3104
1039.297	-2280
1039.360	-2570
1039.422	-2470
1039.485	-3579
1039.547	-3134
1039.610	-2118
1039.672	-1858
1039.734	-3057
1039.797	-2292
1039.859	-3235
1039.922	-2534
1039.984	-3129
1040.046	-2934
1040.109	-2991
1040.171	-2614
1040.233	-2569
1040.295	-2092
1040.358	-2922
1040.420	-2694
1040.482	-2774
1040.544	-2741
1040.606	-3974
1040.668	-2044
1040.730	-1888
1040.792	-2209
1040.854	-2894
1040.916	-2561
1040.978	-3093
1041.040	-2624
1041.102	-2462
1041.164	-2539
1041.225	-2696
1041.287	-2358
1041.349	-3146
1041.411	-3192
1041.472	-2790
1041.534	-2116
1041.596	-3544
1041.657	-2210
1041.719	-2585
1041.781	-2990
1041.842	-3369
1041.904	-2634
1041.965	-3065
1042.027	-3077
1042.088	-1664
1042.150	-2582
1042.211	-3105
1042.272	-1284
1042.334	-2185
1042.395	-2733
1042.456	-3262
1042.518	-2375
1042.579	-2747
1042.640	-3309
1042.701	-2368
1042.763	-2035
1042.824	-2555
1042.885	-2717
1042.946	-2345
1043.007	-3067
1043.068	-3254
1043.129	-2165
1043.190	-2804
1043.251	-2304
1043.312	-2524
1043.373	-2469
1043.434	-2465
1043.495	-3010
1043.556	-2039
1043.616	-2729
1043.677	-2528
1043.738	-2081
1043.799	-2883
1043.859	-2217
1043.920	-2559
1043.981	-2408
1044.041	-2182
1044.102	-2773
1044.162	-3097
1044.223	-2680
1044.284	-2773
1044.344	-2181
1044.405	-2580
1044.465	-2347
1044.525	-2796
1044.586	-2253
1044.646	-2670
1044.707	-2266
1044.767	-3516
1044.827	-2657
1044.887	-2979
1044.948	-2283
1045.008	-2517
1045.068	-2623
1045.128	-1931
1045.188	-3134
1045.249	-1645
1045.309	-2624
1045.369	-2746
1045.429	-1919
1045.489	-2374
1045.549	-1765
1045.609	-2729
1045.669	-2555
1045.729	-2521
1045.789	-1855
1045.848	-2064
1045.908	-2500
1045.968	-1746
1046.028	-1733
1046.088	-2136
1046.147	-1060
1046.207	-2378
1046.267	-1896
1046.326	-1979
1046.386	-1529
1046.446	-2551
1046.505	-956
1046.565	-1821
1046.624	-962
1046.684	-1875
1046.743	-879
1046.803	-969
1046.862	-1034
1046.922	0
