'Start Wavelength	183.907
'End Wavelength	1046.922
'Gate Delay	5.000
'Gate Width (ms)	1.050
'Laser Output Level	0.000
'X Position	0.000
'Y Position	0.000
'Z Position	0.000
'Grid Point Number	1.000
'Shot Number	100.000
183.907	355.000
183.977	-563.000
184.047	-710
184.116	677
184.186	-399
184.256	385
184.325	11
184.395	-485
184.465	471
184.534	-377
184.604	-55
184.674	-782
184.743	-490
184.813	405
184.883	704
184.952	-257
185.022	145
185.092	68
185.161	-213
185.231	-13
185.301	-544
185.370	116
185.440	358
185.509	288
185.579	-67
185.649	130
185.718	-162
185.788	357
185.857	88
185.927	476
185.996	202
186.066	290
186.136	610
186.205	13
186.275	263
186.344	288
186.414	-88
186.483	-627
186.553	946
186.622	-300
186.692	104
186.761	-96
186.831	-76
186.900	-167
186.970	-157
187.039	-330
187.109	-253
187.178	-164
187.248	128
187.317	498
187.387	-256
187.456	532
187.526	-179
187.595	-126
187.664	-236
187.734	-411
187.803	335
187.873	14
187.942	165
188.012	178
188.081	-216
188.150	408
188.220	-139
188.289	-94
188.358	-364
188.428	-727
188.497	67
188.567	342
188.636	-474
188.705	-27
188.775	290
188.844	-1047
188.913	2
188.983	-222
189.052	45
189.121	326
189.191	-412
189.260	210
189.329	-421
189.399	-404
189.468	290
189.537	7
189.606	886
189.676	-131
189.745	-153
189.814	688
189.883	-250
189.953	-384
190.022	-157
190.091	-76
190.161	309
190.230	142
190.299	-306
190.368	-67
190.437	-427
190.507	304
190.576	-170
190.645	228
190.714	636
190.783	-59
190.853	-165
190.922	-540
190.991	-136
191.060	536
191.129	-264
191.198	447
191.268	470
191.337	-90
191.406	841
191.475	-67
191.544	-495
191.613	380
191.682	-189
191.752	91
191.821	8
191.890	-362
191.959	-475
192.028	566
192.097	-697
192.166	253
192.235	194
192.304	349
192.373	-105
192.442	444
192.511	-229
192.580	-329
192.650	456
192.719	-763
192.788	542
192.857	216
192.926	-530
192.995	-187
193.064	33
193.133	163
193.202	-98
193.271	322
193.340	164
193.409	-179
193.478	276
193.547	402
193.615	619
193.684	44
193.753	852
193.822	326
193.891	-246
193.960	-90
194.029	-330
194.098	-64
194.167	-488
194.236	412
194.305	-787
194.374	-952
194.443	-33
194.512	215
194.580	-137
194.649	-509
194.718	889
194.787	55
194.856	-261
194.925	313
194.994	-114
195.062	52
195.131	-318
195.200	414
195.269	82
195.338	-641
195.407	626
195.475	-294
195.544	-62
195.613	230
195.682	-42
195.751	-474
195.819	-181
195.888	120
195.957	801
196.026	108
196.094	301
196.163	444
196.232	234
196.301	-44
196.369	-278
196.438	-338
196.507	-213
196.576	113
196.644	-453
196.713	492
196.782	-176
196.850	121
196.919	174
196.988	-146
197.056	215
197.125	-164
197.194	-64
197.262	316
197.331	-519
197.400	28
197.468	-189
197.537	177
197.606	241
197.674	-197
197.743	-482
197.812	27
197.880	-144
197.949	-530
198.017	3
198.086	127
198.155	-293
198.223	81
198.292	883
198.360	-452
198.429	-98
198.497	-358
198.566	682
198.635	486
198.703	-202
198.772	-373
198.840	247
198.909	536
198.977	383
199.046	-604
199.114	-145
199.183	-158
199.251	-475
199.320	-500
199.388	35
199.457	-4
199.525	-208
199.594	125
199.662	105
199.731	-122
199.799	76
199.867	221
199.936	-207
200.004	-241
200.073	-474
200.141	46
200.210	-252
200.278	159
200.346	541
200.415	408
200.483	-178
200.552	223
200.620	-41
200.688	-451
200.757	265
200.825	-167
200.893	-17
200.962	-95
201.030	-904
201.098	-154
201.167	709
201.235	-254
201.303	349
201.372	192
201.440	257
201.508	129
201.577	-309
201.645	-201
201.713	-169
201.781	-697
201.850	447
201.918	128
201.986	-341
202.055	-280
202.123	-353
202.191	97
202.259	272
202.327	-670
202.396	386
202.464	-426
202.532	-871
202.600	391
202.669	-26
202.737	-278
202.805	-1059
202.873	211
202.941	509
203.009	-434
203.078	-641
203.146	322
203.214	-404
203.282	-252
203.350	170
203.418	99
203.487	574
203.555	-225
203.623	-273
203.691	328
203.759	-312
203.827	-459
203.895	-231
203.963	-684
204.031	-665
204.099	261
204.168	-424
204.236	481
204.304	674
204.372	347
204.440	77
204.508	-661
204.576	-830
204.644	-47
204.712	-338
204.780	457
204.848	-168
204.916	41
204.984	78
205.052	-547
205.120	142
205.188	-282
205.256	-585
205.324	-926
205.392	429
205.460	386
205.528	232
205.596	128
205.664	-320
205.732	-194
205.799	133
205.867	239
205.935	-668
206.003	63
206.071	-133
206.139	-110
206.207	-11
206.275	-389
206.343	-79
206.411	-159
206.478	167
206.546	315
206.614	-397
206.682	-138
206.750	60
206.818	258
206.885	453
206.953	-907
207.021	308
207.089	119
207.157	-330
207.225	-466
207.292	-517
207.360	-233
207.428	64
207.496	-276
207.563	-560
207.631	-238
207.699	-56
207.767	-110
207.834	-475
207.902	-498
207.970	-134
208.038	-244
208.105	-212
208.173	-655
208.241	275
208.309	175
208.376	-479
208.444	-373
208.512	726
208.579	-584
208.647	507
208.715	426
208.782	-1114
208.850	-161
208.918	-426
208.985	-33
209.053	125
209.120	122
209.188	-824
209.256	-698
209.323	-387
209.391	38
209.459	742
209.526	355
209.594	-256
209.661	279
209.729	-269
209.796	165
209.864	740
209.932	-762
209.999	729
210.067	535
210.134	-290
210.202	352
210.269	866
210.337	782
210.404	-622
210.472	227
210.539	274
210.607	-488
210.674	317
210.742	379
210.809	153
210.877	-44
210.944	838
211.012	-324
211.079	1278
211.146	-25
211.214	766
211.281	-45
211.349	417
211.416	-823
211.484	-504
211.551	-33
211.618	-338
211.686	271
211.753	61
211.821	162
211.888	0
211.955	-481
212.023	-192
212.090	432
212.157	-376
212.225	-183
212.292	479
212.359	1373
212.427	1049
212.494	1111
212.561	474
212.629	443
212.696	418
212.763	475
212.831	-680
212.898	455
212.965	-415
213.032	780
213.100	283
213.167	-519
213.234	534
213.301	174
213.369	199
213.436	448
213.503	-208
213.570	268
213.638	59
213.705	-323
213.772	115
213.839	231
213.906	124
213.973	738
214.041	-601
214.108	440
214.175	-561
214.242	299
214.309	727
214.376	535
214.444	-46
214.511	-152
214.578	178
214.645	-100
214.712	778
214.779	113
214.846	892
214.913	1028
214.980	718
215.048	375
215.115	343
215.182	211
215.249	195
215.316	556
215.383	161
215.450	167
215.517	322
215.584	222
215.651	-39
215.718	354
215.785	981
215.852	-268
215.919	-271
215.986	463
216.053	135
216.120	-826
216.187	-246
216.254	595
216.321	-114
216.388	260
216.455	-409
216.522	-227
216.589	527
216.656	947
216.722	416
216.789	739
216.856	564
216.923	292
216.990	1048
217.057	631
217.124	604
217.191	24
217.258	675
217.324	-5
217.391	1491
217.458	-392
217.525	693
217.592	501
217.659	-293
217.725	818
217.792	448
217.859	256
217.926	-288
217.993	805
218.059	167
218.126	316
218.193	191
218.260	-340
218.327	-377
218.393	-246
218.460	-261
218.527	-49
218.594	70
218.660	18
218.727	1052
218.794	-641
218.860	1345
218.927	323
218.994	-182
219.061	602
219.127	31
219.194	295
219.261	-81
219.327	63
219.394	476
219.461	-611
219.527	255
219.594	546
219.661	76
219.727	-441
219.794	1045
219.860	-439
219.927	657
219.994	90
220.060	162
220.127	351
220.193	553
220.260	-151
220.326	1109
220.393	1513
220.460	1225
220.526	1229
220.593	304
220.659	1613
220.726	679
220.792	1406
220.859	1001
220.925	2960
220.992	3178
221.058	2818
221.125	2735
221.191	1716
221.258	493
221.324	1197
221.391	274
221.457	45
221.524	1017
221.590	108
221.657	1329
221.723	395
221.789	554
221.856	1292
221.922	256
221.989	1488
222.055	-51
222.121	-1274
222.188	998
222.254	560
222.321	254
222.387	325
222.453	-266
222.520	121
222.586	-337
222.652	774
222.719	-319
222.785	88
222.851	20
222.918	-198
222.984	220
223.050	600
223.116	-914
223.183	570
223.249	-740
223.315	-255
223.382	35
223.448	16
223.514	-545
223.580	-104
223.647	-394
223.713	-393
223.779	-12
223.845	-313
223.911	-344
223.978	-511
224.044	56
224.110	-438
224.176	18
224.242	625
224.309	-744
224.375	-65
224.441	-144
224.507	-204
224.573	-918
224.639	308
224.705	-38
224.772	-203
224.838	-265
224.904	250
224.970	916
225.036	-465
225.102	-176
225.168	1042
225.234	-48
225.300	-779
225.366	385
225.432	393
225.499	-25
225.565	684
225.631	9
225.697	9
225.763	484
225.829	855
225.895	-149
225.961	274
226.027	-313
226.093	-364
226.159	522
226.225	1055
226.291	3021
226.357	4466
226.423	2857
226.489	1318
226.554	944
226.620	770
226.686	899
226.752	1113
226.818	2641
226.884	5315
226.950	3414
227.016	2451
227.082	1822
227.148	420
227.214	1070
227.279	718
227.345	304
227.411	536
227.477	492
227.543	1265
227.609	438
227.674	1152
227.740	-7
227.806	522
227.872	-370
227.938	207
228.003	-90
228.069	-253
228.135	249
228.201	537
228.267	-15
228.332	-208
228.398	-673
228.464	468
228.530	-341
228.595	186
228.661	-367
228.727	-18
228.792	288
228.858	-244
228.924	-1772
228.990	899
229.055	-1224
229.121	880
229.187	-686
229.252	154
229.318	402
229.384	-92
229.449	-384
229.515	-1715
229.581	-1276
229.646	717
229.712	-392
229.777	111
229.843	40
229.909	343
229.974	945
230.040	579
230.105	269
230.171	-67
230.236	434
230.302	847
230.368	146
230.433	33
230.499	-46
230.564	266
230.630	543
230.695	334
230.761	1052
230.826	-548
230.892	718
230.957	61
231.023	150
231.088	261
231.154	895
231.219	661
231.284	-709
231.350	549
231.415	-658
231.481	619
231.546	174
231.612	58
231.677	-133
231.742	-1224
231.808	389
231.873	-941
231.939	-1599
232.004	1152
232.069	1186
232.135	284
232.200	-580
232.265	-49
232.331	-90
232.396	-601
232.461	-152
232.527	235
232.592	-350
232.657	719
232.723	-360
232.788	-456
232.853	-65
232.918	208
232.984	-109
233.049	-652
233.114	-940
233.179	-170
233.245	693
233.310	-760
233.375	-1013
233.440	129
233.506	-547
233.571	-123
233.636	110
233.701	265
233.766	-82
233.832	303
233.897	-255
233.962	-1269
234.027	1435
234.092	7
234.157	213
234.222	-140
234.288	-30
234.353	752
234.418	1027
234.483	1317
234.548	70
234.613	1027
234.678	685
234.743	-122
234.808	2063
234.873	320
234.938	1559
235.004	584
235.069	765
235.134	-218
235.199	679
235.264	477
235.329	-346
235.394	443
235.459	564
235.524	-598
235.589	468
235.654	-139
235.719	-891
235.784	821
235.849	269
235.913	905
235.978	380
236.043	134
236.108	130
236.173	374
236.238	232
236.303	-727
236.368	-377
236.433	469
236.498	587
236.563	1161
236.627	2469
236.692	6698
236.757	6244
236.822	2804
236.887	1355
236.952	1330
237.017	-377
237.081	2063
237.146	963
237.211	4587
237.276	6834
237.341	8490
237.405	4915
237.470	3003
237.535	1261
237.600	1164
237.664	1056
237.729	-37
237.794	101
237.859	3153
237.923	1008
237.988	-264
238.053	872
238.118	-37
238.182	1389
238.247	1735
238.312	-97
238.376	1604
238.441	-1297
238.506	1146
238.570	-559
238.635	556
238.700	165
238.764	113
238.829	516
238.893	-289
238.958	767
239.023	-239
239.087	643
239.152	1174
239.216	-41
239.281	623
239.346	109
239.410	203
239.475	343
239.539	1303
239.604	-291
239.668	1347
239.733	-414
239.797	447
239.862	2726
239.926	891
239.991	1219
240.055	-19
240.120	-415
240.184	82
240.249	-30
240.313	140
240.378	-164
240.442	-363
240.507	784
240.571	-309
240.635	-144
240.700	222
240.764	59
240.829	586
240.893	-1008
240.957	-244
241.022	1078
241.086	1160
241.151	-517
241.215	-680
241.279	821
241.344	-309
241.408	730
241.472	-155
241.537	1076
241.601	659
241.665	-245
241.730	397
241.794	1352
241.858	-199
241.922	286
241.987	467
242.051	891
242.115	2
242.179	874
242.244	-1098
242.308	670
242.372	859
242.436	36
242.501	712
242.565	493
242.629	-474
242.693	1431
242.757	-152
242.822	566
242.886	924
242.950	305
243.014	-469
243.078	58
243.142	625
243.206	-369
243.271	322
243.335	503
243.399	1585
243.463	3122
243.527	7152
243.591	1563
243.655	735
243.719	-388
243.783	1045
243.847	1114
243.911	1962
243.975	958
244.040	130
244.104	1707
244.168	873
244.232	148
244.296	319
244.360	423
244.424	-193
244.488	482
244.552	530
244.615	-1146
244.679	-196
244.743	-116
244.807	-674
244.871	-116
244.935	331
244.999	-1878
245.063	-469
245.127	778
245.191	388
245.255	303
245.319	94
245.383	-1011
245.446	1060
245.510	-465
245.574	733
245.638	516
245.702	-1272
245.766	666
245.829	1043
245.893	-1207
245.957	519
246.021	559
246.085	12
246.149	-378
246.212	1624
246.276	1766
246.340	499
246.404	1012
246.467	1219
246.531	-541
246.595	744
246.659	1688
246.722	-880
246.786	545
246.850	491
246.913	705
246.977	-238
247.041	594
247.104	-135
247.168	715
247.232	1161
247.295	1859
247.359	1461
247.423	-12
247.486	567
247.550	1265
247.614	-321
247.677	-72
247.741	-365
247.804	1112
247.868	377
247.932	688
247.995	3488
248.059	327
248.122	-727
248.186	833
248.249	1295
248.313	4815
248.376	4905
248.440	3005
248.503	-608
248.567	2113
248.630	789
248.694	2388
248.757	2852
248.821	5347
248.884	4238
248.948	2632
249.011	4185
249.075	6603
249.138	5834
249.202	1891
249.265	1763
249.328	2841
249.392	548
249.455	1382
249.519	793
249.582	885
249.645	1894
249.709	732
249.772	910
249.835	194
249.899	439
249.962	998
250.025	502
250.089	2478
250.152	3273
250.215	1324
250.279	110
250.342	1704
250.405	1566
250.468	843
250.532	324
250.595	2306
250.658	7394
250.721	11759
250.785	4193
250.848	3069
250.911	612
250.974	1769
251.038	2414
251.101	3189
251.164	1977
251.227	2036
251.290	1607
251.354	3352
251.417	10134
251.480	10631
251.543	8453
251.606	17482
251.669	14582
251.732	5703
251.795	4872
251.859	5635
251.922	11726
251.985	6364
252.048	3523
252.111	1997
252.174	1083
252.237	2817
252.300	6009
252.363	6812
252.426	14629
252.489	5097
252.552	2704
252.615	992
252.678	2266
252.741	5161
252.804	6712
252.867	15686
252.930	9225
252.993	3874
253.056	3183
253.119	2110
253.182	580
253.245	1487
253.308	2715
253.371	-428
253.434	1608
253.497	1461
253.559	3045
253.622	1142
253.685	1182
253.748	1313
253.811	432
253.874	1148
253.937	-206
254.000	507
254.062	1589
254.125	1873
254.188	3320
254.251	1784
254.314	1624
254.376	1422
254.439	1673
254.502	1177
254.565	1020
254.628	3774
254.690	1295
254.753	-374
254.816	117
254.878	160
254.941	1767
255.004	1672
255.067	1537
255.129	-274
255.192	328
255.255	-730
255.317	9
255.380	325
255.443	-551
255.505	-423
255.568	-861
255.631	-523
255.693	65
255.756	-1270
255.819	965
255.881	-949
255.944	-500
256.006	-667
256.069	-850
256.132	-274
256.194	137
256.257	649
256.319	-381
256.382	501
256.444	825
256.507	627
256.569	182
256.632	495
256.694	671
256.757	5223
256.819	13293
256.882	5262
256.944	2152
257.007	1862
257.069	864
257.132	-25
257.194	1332
257.257	296
257.319	-134
257.381	-114
257.444	4253
257.506	14106
257.569	15654
257.631	5035
257.693	3217
257.756	890
257.818	324
257.880	76
257.943	595
258.005	-898
258.067	300
258.130	-99
258.192	542
258.254	657
258.317	257
258.379	307
258.441	610
258.503	1561
258.566	664
258.628	1428
258.690	-285
258.753	558
258.815	903
258.877	-54
258.939	592
259.001	1014
259.064	225
259.126	-32
259.188	595
259.250	885
259.312	223
259.375	1156
259.437	562
259.499	392
259.561	48
259.623	191
259.685	-314
259.747	585
259.809	1387
259.872	2328
259.934	4429
259.996	4472
260.058	2222
260.120	-530
260.182	435
260.244	567
260.306	-434
260.368	669
260.430	-251
260.492	1002
260.554	2297
260.616	34
260.678	2083
260.740	1099
260.802	-213
260.864	1457
260.926	-1200
260.988	773
261.050	142
261.112	2621
261.174	5346
261.236	1788
261.298	796
261.359	461
261.421	1280
261.483	-451
261.545	753
261.607	-261
261.669	-174
261.731	506
261.793	1090
261.854	-888
261.916	690
261.978	-201
262.040	795
262.102	112
262.164	-151
262.225	166
262.287	147
262.349	712
262.411	757
262.472	511
262.534	-423
262.596	134
262.658	583
262.719	-923
262.781	490
262.843	-439
262.904	-28
262.966	215
263.028	-61
263.090	2733
263.151	9743
263.213	2784
263.275	1458
263.336	-783
263.398	469
263.459	-634
263.521	-4
263.583	1657
263.644	865
263.706	-113
263.767	-1221
263.829	-216
263.891	-255
263.952	-393
264.014	-640
264.075	532
264.137	3218
264.198	258
264.260	-839
264.321	-45
264.383	488
264.444	5583
264.506	694
264.567	5
264.629	1589
264.690	3080
264.752	485
264.813	342
264.875	-685
264.936	892
264.998	-215
265.059	-253
265.120	-56
265.182	379
265.243	7366
265.305	8188
265.366	1826
265.427	355
265.489	909
265.550	-1080
265.611	477
265.673	-413
265.734	-40
265.795	410
265.857	-1105
265.918	-945
265.979	2050
266.040	11520
266.102	10902
266.163	3263
266.224	2345
266.286	833
266.347	-563
266.408	-280
266.469	-106
266.530	120
266.592	29
266.653	642
266.714	269
266.775	-465
266.836	77
266.898	-934
266.959	1122
267.020	202
267.081	1380
267.142	-235
267.203	-746
267.264	-713
267.326	634
267.387	-515
267.448	-763
267.509	391
267.570	51
267.631	-799
267.692	-970
267.753	49
267.814	-845
267.875	771
267.936	2379
267.997	1980
268.058	1929
268.119	1246
268.180	-55
268.241	-603
268.302	-53
268.363	-529
268.424	-658
268.485	63
268.546	-734
268.607	-671
268.668	-337
268.729	-523
268.790	-312
268.851	-275
268.912	552
268.972	468
269.033	-345
269.094	-1238
269.155	-186
269.216	-623
269.277	-708
269.338	-867
269.398	372
269.459	-237
269.520	861
269.581	-146
269.642	429
269.702	-172
269.763	457
269.824	36
269.885	-159
269.945	317
270.006	456
270.067	-463
270.128	-787
270.188	-514
270.249	-1011
270.310	-826
270.370	544
270.431	56
270.492	-212
270.553	-484
270.613	-498
270.674	1329
270.734	271
270.795	-605
270.856	698
270.916	-434
270.977	-272
271.038	211
271.098	69
271.159	533
271.219	99
271.280	720
271.340	-388
271.401	-332
271.462	110
271.522	-586
271.583	-644
271.643	-599
271.704	-536
271.764	227
271.825	780
271.885	5826
271.946	6894
272.006	2117
272.066	3577
272.127	4859
272.187	1669
272.248	-411
272.308	-287
272.369	2909
272.429	867
272.489	1297
272.550	1018
272.610	1023
272.671	137
272.731	773
272.791	1032
272.852	-116
272.912	76
272.972	-285
273.033	-670
273.093	-741
273.153	177
273.214	388
273.274	-711
273.334	3371
273.394	5393
273.455	777
273.515	1272
273.575	3902
273.635	1344
273.696	1196
273.756	4122
273.816	816
273.876	-107
273.936	732
273.997	2016
274.057	-347
274.117	-495
274.177	283
274.237	6131
274.297	4915
274.358	1928
274.418	2201
274.478	3228
274.538	-184
274.598	-1252
274.658	1492
274.718	1425
274.778	38
274.838	273
274.898	-503
274.958	2845
275.018	3470
275.078	2220
275.138	-108
275.198	-1127
275.258	136
275.318	278
275.378	1246
275.438	879
275.498	283
275.558	1038
275.618	3764
275.678	1889
275.738	1548
275.798	1403
275.858	438
275.918	-1407
275.978	70
276.038	207
276.098	-1180
276.157	147
276.217	3156
276.277	1321
276.337	-299
276.397	-757
276.457	-557
276.517	-91
276.576	-660
276.636	-292
276.696	285
276.756	1723
276.815	397
276.875	-694
276.935	-337
276.995	-930
277.055	-162
277.114	415
277.174	-675
277.234	2365
277.293	17
277.353	-57
277.413	-601
277.472	-477
277.532	-131
277.592	-591
277.651	1062
277.711	2513
277.771	-88
277.830	3972
277.890	3203
277.950	1779
278.009	7204
278.069	2751
278.128	2595
278.188	2529
278.248	1814
278.307	3399
278.367	2146
278.426	410
278.486	-617
278.545	-427
278.605	-134
278.664	-152
278.724	162
278.783	1228
278.843	4398
278.902	680
278.962	-365
279.021	586
279.081	1215
279.140	1270
279.199	626
279.259	421
279.318	-150
279.378	836
279.437	1678
279.496	6717
279.556	17693
279.615	12672
279.675	3117
279.734	2324
279.793	3966
279.853	5561
279.912	2364
279.971	361
280.031	451
280.090	1380
280.149	3630
280.208	1884
280.268	12397
280.327	12294
280.386	2085
280.445	2179
280.505	1790
280.564	1272
280.623	-92
280.682	892
280.742	2123
280.801	343
280.860	-175
280.919	-514
280.978	-382
281.037	265
281.097	-1144
281.156	-502
281.215	476
281.274	25
281.333	3152
281.392	1274
281.451	-109
281.510	-303
281.569	-51
281.628	14
281.688	-559
281.747	274
281.806	-508
281.865	-309
281.924	-587
281.983	-550
282.042	-477
282.101	-555
282.160	-649
282.219	-553
282.278	-169
282.337	1272
282.396	66
282.454	-956
282.513	215
282.572	2693
282.631	1052
282.690	-524
282.749	-1738
282.808	-463
282.867	-515
282.926	-1
282.985	64
283.043	-71
283.102	-1522
283.161	-306
283.220	613
283.279	2928
283.338	402
283.396	-514
283.455	-569
283.514	-88
283.573	358
283.631	599
283.690	-689
283.749	-271
283.808	555
283.866	1177
283.925	-374
283.984	-851
284.043	-69
284.101	271
284.160	-633
284.219	177
284.277	-303
284.336	516
284.395	3867
284.453	2406
284.512	344
284.570	1200
284.629	394
284.688	-19
284.746	153
284.805	1132
284.863	432
284.922	2128
284.981	2235
285.039	2613
285.098	6958
285.156	17178
285.215	32155
285.273	32054
285.332	21416
285.390	10557
285.449	5856
285.507	3662
285.566	2172
285.624	1905
285.683	1640
285.741	319
285.799	264
285.858	23
285.916	-530
285.975	-127
286.033	-149
286.091	-72
286.150	-181
286.208	-485
286.267	243
286.325	-419
286.383	594
286.442	875
286.500	-756
286.558	150
286.616	-16
286.675	-116
286.733	-312
286.791	-818
286.850	-363
286.908	271
286.966	1222
287.024	-423
287.083	-887
287.141	-681
287.199	-163
287.257	-127
287.315	-926
287.374	-94
287.432	1306
287.490	860
287.548	-785
287.606	-230
287.664	-727
287.723	18
287.781	-155
287.839	162
287.897	-447
287.955	498
288.013	1010
288.071	4328
288.129	18017
288.187	47061
288.245	23222
288.303	6898
288.361	3796
288.419	1585
288.477	870
288.535	528
288.593	101
288.651	-73
288.709	-565
288.767	-288
288.825	-369
288.883	-516
288.941	-457
288.999	-463
289.057	-757
289.115	-861
289.173	-651
289.231	-123
289.289	236
289.346	-817
289.404	-131
289.462	159
289.520	258
289.578	-761
289.636	-455
289.694	-1061
289.751	-670
289.809	-732
289.867	-1130
289.925	311
289.983	-781
290.040	-509
290.098	-1238
290.156	-249
290.214	-679
290.271	-36
290.329	-861
290.387	-936
290.444	-506
290.502	-978
290.560	-661
290.617	-528
290.675	-598
290.733	-847
290.790	-351
290.848	-468
290.906	-1256
290.963	-349
291.021	-999
291.078	-861
291.136	-579
291.194	1313
291.251	4731
291.309	121
291.366	-183
291.424	-494
291.481	-62
291.539	-1624
291.596	-882
291.654	-909
291.711	-660
291.769	-503
291.826	247
291.884	-710
291.941	-922
291.999	-494
292.056	-1313
292.114	-664
292.171	-585
292.228	72
292.286	-325
292.343	-227
292.401	108
292.458	-64
292.515	-1008
292.573	-638
292.630	-526
292.687	221
292.745	-301
292.802	147
292.859	2240
292.917	4487
292.974	1584
293.031	279
293.089	-546
293.146	-1508
293.203	-987
293.260	-565
293.318	-901
293.375	278
293.432	-129
293.489	-435
293.546	-799
293.604	-670
293.661	1610
293.718	6297
293.775	3041
293.832	-162
293.889	324
293.947	-111
294.004	-991
294.061	93
294.118	1121
294.175	4508
294.232	7401
294.289	2461
294.346	495
294.403	1570
294.460	198
294.517	-349
294.574	-761
294.631	-665
294.688	-728
294.745	1662
294.802	8189
294.859	11241
294.916	3307
294.973	726
295.030	367
295.087	-36
295.144	279
295.201	-212
295.258	123
295.315	-339
295.372	2258
295.429	4957
295.486	1616
295.542	682
295.599	4781
295.656	9867
295.713	5175
295.770	4462
295.827	1909
295.883	499
295.940	107
295.997	289
296.054	296
296.111	-557
296.167	215
296.224	-361
296.281	-842
296.338	-237
296.394	441
296.451	361
296.508	1095
296.564	3656
296.621	3230
296.678	6022
296.734	8723
296.791	3150
296.848	1266
296.904	1417
296.961	3497
297.018	6185
297.074	4306
297.131	1648
297.187	647
297.244	770
297.301	5553
297.357	10998
297.414	2860
297.470	527
297.527	-333
297.583	668
297.640	-146
297.696	221
297.753	-574
297.809	-165
297.866	-1405
297.922	-709
297.979	-1079
298.035	-628
298.092	340
298.148	2814
298.204	3341
298.261	607
298.317	2805
298.374	7899
298.430	4256
298.486	1264
298.543	473
298.599	901
298.656	784
298.712	1850
298.768	6971
298.824	5054
298.881	1037
298.937	598
298.993	610
299.050	-107
299.106	660
299.162	-629
299.218	-260
299.275	225
299.331	23
299.387	483
299.443	6375
299.500	7517
299.556	1817
299.612	892
299.668	959
299.724	1375
299.780	1214
299.837	215
299.893	1432
299.949	5669
300.005	6202
300.061	5746
300.117	10303
300.173	4069
300.229	1310
300.285	1432
300.341	2824
300.397	873
300.453	47
300.510	-669
300.566	-630
300.622	511
300.678	3648
300.734	6546
300.790	5774
300.845	5935
300.901	3664
300.957	6626
301.013	3532
301.069	604
301.125	549
301.181	347
301.237	-27
301.293	-444
301.349	40
301.405	-243
301.461	-886
301.516	-55
301.572	-17
301.628	835
301.684	1251
301.740	1953
301.796	3605
301.851	1548
301.907	3127
301.963	3752
302.019	6385
302.074	18455
302.130	18130
302.186	9388
302.242	2815
302.297	1616
302.353	1951
302.409	3437
302.464	3109
302.520	2637
302.576	6261
302.631	7888
302.687	3762
302.743	1539
302.798	-10
302.854	727
302.910	898
302.965	696
303.021	2118
303.076	2139
303.132	1882
303.187	1999
303.243	215
303.299	340
303.354	632
303.410	491
303.465	-478
303.521	-504
303.576	791
303.632	-4
303.687	1665
303.743	5472
303.798	5322
303.853	1749
303.909	489
303.964	916
304.020	790
304.075	1857
304.130	1717
304.186	3804
304.241	4605
304.297	2817
304.352	850
304.358	787
304.407	270
304.449	653
304.463	788
304.518	33
304.539	7
304.573	-60
304.629	95
304.630	131
304.684	1728
304.720	3001
304.739	3640
304.794	7385
304.811	6177
304.850	3303
304.902	1000
304.905	849
304.960	495
304.992	331
305.015	227
305.071	555
305.083	633
305.126	882
305.173	210
305.181	108
305.236	-352
305.264	-47
305.292	217
305.347	-38
305.354	-38
305.402	47
305.445	617
305.457	750
305.512	629
305.535	492
305.567	373
305.622	501
305.626	565
305.678	1723
305.716	4820
305.733	6074
305.788	6734
305.807	5862
305.843	4241
305.897	5352
305.898	5363
305.953	5626
305.988	3483
306.008	2283
306.063	1289
306.078	1136
306.118	837
306.168	176
306.173	105
306.228	555
306.259	414
306.283	400
306.338	402
306.349	458
306.393	478
306.440	508
306.448	559
306.503	595
306.530	620
306.558	664
306.613	2629
306.620	2737
306.668	3717
306.711	5864
306.723	6220
306.778	4886
306.801	3634
306.833	2173
306.888	1235
306.892	1159
306.943	311
306.982	288
306.997	357
307.052	126
307.072	286
307.107	283
307.162	519
307.163	520
307.217	1461
307.253	1963
307.272	1928
307.327	1618
307.343	1461
307.381	1278
307.434	852
307.436	864
307.491	2443
307.524	4056
307.546	4942
307.600	5562
307.614	5176
307.655	3169
307.704	1152
307.710	1055
307.765	1478
307.795	1705
307.819	1892
307.874	4091
307.885	4045
307.929	3642
307.975	3370
307.984	3429
308.038	4994
308.065	6578
308.093	10518
308.148	22133
308.156	24736
308.202	38174
308.246	45726
308.257	45357
308.312	28752
308.336	21936
308.366	15972
308.421	8803
308.426	8295
308.475	5834
308.517	4528
308.530	4131
308.585	3150
308.607	2854
308.639	2777
308.694	2883
308.697	2934
308.748	4285
308.787	5443
308.803	5541
308.857	4768
308.877	4279
308.912	3529
308.967	3476
308.967	3477
309.021	4973
309.058	6478
309.076	7867
309.130	14165
309.148	16761
309.185	26947
309.238	45254
309.239	45402
309.293	51659
309.328	49814
309.348	45081
309.402	25693
309.418	21019
309.457	14466
309.508	8790
309.511	8584
309.566	6456
309.598	5830
309.620	5639
309.674	5412
309.688	5393
309.729	5278
309.778	4565
309.783	4463
309.837	3687
309.868	3302
309.892	3670
309.946	5390
309.959	5965
310.001	7942
310.049	9241
310.055	9021
310.109	6166
310.139	4568
310.163	3643
310.218	1887
310.229	1619
310.272	1547
310.319	1579
310.326	1508
310.381	1061
310.409	885
310.435	1183
310.489	1614
310.499	1738
310.543	1771
310.589	1446
310.598	1382
310.652	1283
310.679	1249
310.706	1367
310.760	1337
310.769	1322
310.814	1390
310.859	1713
310.868	1692
310.923	1203
310.948	1047
310.977	1190
311.031	1500
311.038	1530
311.085	1339
311.128	1045
311.139	1077
311.193	1429
311.218	1503
311.247	1622
311.301	1875
311.308	1899
311.356	2087
311.398	2237
311.410	2102
311.464	1416
311.488	1101
311.518	1195
311.572	1336
311.578	1356
311.626	1392
311.668	1340
311.680	1470
311.734	2035
311.758	2302
311.788	2176
311.842	1902
311.847	1869
311.896	2588
311.937	3191
311.950	2997
312.004	2093
312.027	1692
312.058	1928
312.112	2360
312.117	2398
312.165	1809
312.207	1299
312.297	2267
312.386	2397
312.476	2715
312.566	2732
312.656	1855
312.745	1278
312.835	2177
312.925	1781
313.015	1325
313.104	1638
313.194	2408
313.284	1339
313.374	1542
313.463	1639
313.553	1674
313.643	1515
313.732	2375
313.822	1316
313.912	1878
314.001	1737
314.091	2031
314.180	2715
314.270	2791
314.360	2194
314.449	1239
314.539	1175
314.628	2007
314.718	1893
314.808	1724
314.897	1552
314.987	2180
315.076	1429
315.166	2134
315.255	1676
315.345	1791
315.434	2167
315.524	2684
315.613	1597
315.703	1977
315.792	2038
315.881	2836
315.971	2412
316.060	2994
316.150	1737
316.239	2905
316.328	1393
316.418	2341
316.507	1356
316.597	1914
316.686	1686
316.775	2032
316.865	2783
316.954	1622
317.043	1335
317.133	1555
317.222	1240
317.311	2113
317.400	279
317.490	2393
317.579	1538
317.668	1623
317.757	1404
317.847	3282
317.936	2905
318.025	3703
318.114	2107
318.203	1842
318.293	2687
318.382	4419
318.471	4287
318.560	5600
318.649	11531
318.738	2941
318.828	2117
318.917	1813
319.006	2253
319.095	4405
319.184	13788
319.273	7717
319.362	3972
319.451	1658
319.540	1477
319.629	2927
319.718	3789
319.807	2705
319.896	4192
319.985	17010
320.074	6293
320.163	2572
320.252	2322
320.341	3689
320.430	2181
320.519	2818
320.608	1382
320.697	2691
320.786	1895
320.875	2147
320.964	2368
321.053	3657
321.142	2951
321.230	4713
321.319	3055
321.408	6805
321.497	3482
321.586	3124
321.675	3807
321.764	4717
321.852	3211
321.941	3874
322.030	2342
322.119	3087
322.207	6270
322.296	5173
322.385	2535
322.474	2689
322.562	6511
322.651	4925
322.740	2313
322.829	4754
322.917	3317
323.006	2379
323.095	2264
323.183	2350
323.272	2492
323.361	4377
323.449	9473
323.538	4492
323.626	6910
323.715	4534
323.804	2017
323.892	6030
323.981	3687
324.069	2771
324.158	2958
324.246	3768
324.335	2408
324.424	3076
324.512	1680
324.601	3003
324.689	6598
324.778	13886
324.866	4760
324.954	2179
325.043	1560
325.131	2256
325.220	3759
325.308	3474
325.397	1507
325.485	1947
325.574	1737
325.662	1266
325.750	1373
325.839	2291
325.927	1613
326.015	2311
326.104	1788
326.192	2540
326.280	1447
326.369	1359
326.457	1682
326.545	3226
326.634	1818
326.722	2307
326.810	1437
326.898	2058
326.987	1314
327.075	2129
327.163	2932
327.251	2569
327.340	6379
327.428	10263
327.516	1849
327.604	2120
327.692	880
327.781	1869
327.869	1979
327.957	1969
328.045	1401
328.133	2286
328.221	1172
328.309	2050
328.397	866
328.485	2524
328.574	2041
328.662	3908
328.750	3451
328.838	1833
328.926	1977
329.014	1731
329.102	2018
329.190	3900
329.278	2804
329.366	2140
329.454	834
329.542	1854
329.630	1719
329.718	2985
329.806	2277
329.893	3292
329.981	4260
330.069	8584
330.157	26197
330.245	46880
330.333	34206
330.421	11375
330.509	5737
330.597	6167
330.684	4351
330.772	3465
330.860	2495
330.948	3721
331.036	1995
331.123	2136
331.211	1843
331.299	1759
331.387	3148
331.475	4543
331.562	1547
331.650	1220
331.738	961
331.825	1868
331.913	1037
332.001	1912
332.089	1299
332.176	2567
332.264	3326
332.352	2985
332.439	1415
332.527	1850
332.614	484
332.702	2105
332.790	1080
332.877	1835
332.965	2560
333.052	1916
333.140	1628
333.228	1905
333.315	1094
333.403	1749
333.490	2018
333.578	2523
333.665	1244
333.753	1730
333.840	669
333.928	1622
334.015	1781
334.103	4711
334.190	15306
334.278	5069
334.365	2496
334.452	2107
334.540	1281
334.627	2341
334.715	2246
334.802	2506
334.889	9551
334.977	10925
335.064	2255
335.151	1936
335.239	1408
335.326	2456
335.413	8323
335.501	13112
335.588	2683
335.675	2487
335.762	1796
335.850	3923
335.937	2169
336.024	4423
336.111	13932
336.199	7709
336.286	1771
336.373	1870
336.460	888
336.547	1752
336.635	1143
336.722	1628
336.809	1098
336.896	1632
336.983	4869
337.070	12234
337.157	17413
337.245	8414
337.332	5151
337.419	2029
337.506	911
337.593	1809
337.680	3970
337.767	14165
337.854	3824
337.941	4640
338.028	3525
338.115	1635
338.202	2356
338.289	2201
338.376	6347
338.463	3572
338.550	7275
338.637	9833
338.724	1908
338.811	3562
338.898	1291
338.984	1895
339.071	1057
339.158	1986
339.245	1725
339.332	3231
339.419	1803
339.506	2069
339.593	667
339.679	1661
339.766	1319
339.853	1459
339.940	1652
340.027	1636
340.113	1086
340.200	1755
340.287	1134
340.374	2183
340.460	2022
340.547	1137
340.634	1576
340.720	5444
340.807	2430
340.894	1590
340.980	1221
341.067	808
341.154	1554
341.240	2347
341.327	2533
341.414	1531
341.500	1320
341.587	2347
341.674	828
341.760	1781
341.847	2365
341.933	1282
342.020	653
342.106	1198
342.193	1024
342.279	1486
342.366	1103
342.452	3068
342.539	741
342.625	2751
342.712	5369
342.798	2489
342.885	943
342.971	573
343.058	994
343.144	1243
343.230	1259
343.317	1538
343.403	941
343.490	1693
343.576	175
343.662	934
343.749	1008
343.835	1651
343.921	2080
344.008	10208
344.094	22064
344.180	6678
344.267	1829
344.353	6275
344.439	6231
344.525	3343
344.612	6741
344.698	8391
344.784	3292
344.870	2563
344.957	1119
345.043	2521
345.129	1004
345.215	2629
345.301	1462
345.387	1627
345.474	927
345.560	1498
345.646	593
345.732	2045
345.818	1192
345.904	1427
345.990	759
346.076	1341
346.162	1749
346.249	1648
346.335	1441
346.421	2635
346.507	1966
346.593	9323
346.679	1419
346.765	2325
346.851	1216
346.937	1046
347.023	1599
347.108	1215
347.194	195
347.280	1488
347.366	1634
347.452	2965
347.538	8868
347.624	9347
347.710	7278
347.796	1303
347.882	1110
347.967	1450
348.053	746
348.139	1772
348.225	312
348.311	755
348.397	714
348.482	1689
348.568	1208
348.654	1330
348.740	709
348.825	1386
348.911	2208
348.997	5534
349.083	9807
349.168	2384
349.254	1219
349.340	1641
349.425	1210
349.511	1316
349.597	123
349.682	2472
349.768	8147
349.854	3331
349.939	1649
350.025	867
350.110	1540
350.196	1128
350.282	28
350.367	1078
350.453	699
350.538	1255
350.624	1232
350.709	1955
350.795	850
350.880	1876
350.966	1331
351.051	1731
351.137	1191
351.222	1685
351.308	2562
351.393	6328
351.479	1682
351.564	575
351.649	275
351.735	1689
351.820	727
351.906	647
351.991	1535
352.076	3490
352.162	6487
352.247	1239
352.332	1513
352.418	1886
352.503	1880
352.588	9015
352.673	6527
352.759	2161
352.844	960
352.929	1300
353.014	805
353.100	2161
353.185	317
353.270	1570
353.355	1869
353.441	1012
353.526	591
353.611	1624
353.696	1452
353.781	2565
353.866	-122
353.952	2184
354.037	1446
354.122	3875
354.207	2579
354.292	1892
354.377	1373
354.462	799
354.547	1439
354.632	2384
354.717	1813
354.802	1292
354.887	614
354.972	1906
355.057	903
355.142	730
355.227	830
355.312	1608
355.397	1743
355.482	5136
355.567	2090
355.652	2891
355.737	3362
355.822	6843
355.907	5615
355.991	2522
356.076	507
356.161	1709
356.246	1294
356.331	1097
356.416	1593
356.501	10426
356.585	10684
356.670	1682
356.755	2670
356.840	2324
356.924	5689
357.009	22235
357.094	10234
357.179	1844
357.263	2193
357.348	2655
357.433	2058
357.517	2337
357.602	1830
357.687	1838
357.771	2088
357.856	7949
357.941	5594
358.025	6053
358.110	25158
358.195	13177
358.279	2640
358.364	1659
358.448	4001
358.533	12764
358.617	9242
358.702	10625
358.787	4289
358.871	2562
358.956	2626
359.040	1484
359.125	676
359.209	1740
359.294	3086
359.378	6863
359.462	2529
359.547	2579
359.631	1081
359.716	1158
359.800	734
359.885	1872
359.969	413
360.053	1864
360.138	1013
360.222	1428
360.306	1902
360.391	1931
360.475	3907
360.559	8731
360.644	4469
360.728	3209
360.812	5869
360.896	16680
360.981	6616
361.065	4223
361.149	1576
361.233	1270
361.318	607
361.402	1120
361.486	2080
361.570	582
361.654	1373
361.739	2344
361.823	9235
361.907	16933
361.991	3201
362.075	1576
362.159	2368
362.243	4027
362.327	2635
362.411	5580
362.495	1630
362.580	2251
362.664	1204
362.748	840
362.832	1751
362.916	2217
363.000	7690
363.084	15455
363.168	19582
363.252	5515
363.336	2018
363.420	3460
363.503	10981
363.587	15507
363.671	2251
363.755	1665
363.839	2461
363.923	920
364.007	2003
364.091	3423
364.175	2625
364.258	21333
364.342	14281
364.426	14749
364.510	6934
364.594	5291
364.677	4404
364.761	13434
364.845	10916
364.929	4005
365.013	2769
365.096	2098
365.180	2261
365.264	5957
365.347	19846
365.431	8726
365.515	2367
365.598	1913
365.682	2102
365.766	2252
365.849	3020
365.933	1185
366.017	2691
366.100	1677
366.184	592
366.267	2397
366.351	1275
366.435	1579
366.518	131
366.602	1187
366.685	2035
366.769	1580
366.852	1023
366.936	3691
367.019	1746
367.103	1585
367.186	4188
367.270	1826
367.353	1096
367.436	2662
367.520	202
367.603	2214
367.687	-21
367.770	2716
367.853	2355
367.937	6198
368.020	8941
368.104	2331
368.187	2120
368.270	3620
368.353	2650
368.437	2615
368.520	4610
368.603	3572
368.687	4394
368.770	11177
368.853	2858
368.936	2889
369.020	3797
369.103	2157
369.186	669
369.269	2333
369.352	1754
369.436	2499
369.519	1867
369.602	205
369.685	2103
369.768	1136
369.851	307
369.934	437
370.018	370
370.101	1280
370.184	3193
370.267	2556
370.350	2058
370.433	3769
370.516	8113
370.599	10394
370.682	1596
370.765	7186
370.848	7202
370.931	12032
371.014	5626
371.097	953
371.180	1823
371.263	1605
371.346	-290
371.429	1832
371.511	294
371.594	2114
371.677	3266
371.760	5453
371.843	2834
371.926	11352
372.009	26676
372.091	11923
372.174	5422
372.257	13889
372.340	5057
372.423	4611
372.505	6419
372.588	2582
372.671	3298
372.754	11489
372.836	6840
372.919	5636
373.002	12845
373.085	4064
373.167	2451
373.250	5684
373.332	12507
373.415	15655
373.498	27856
373.580	13110
373.663	14208
373.746	21179
373.828	4411
373.911	3416
373.993	2512
374.076	12020
374.159	10674
374.241	4122
374.324	10114
374.406	7992
374.489	8517
374.571	27613
374.654	11616
374.736	5425
374.819	15308
374.901	21989
374.983	22575
375.066	5068
375.148	1321
375.231	8101
375.313	18894
375.395	6482
375.478	1665
375.560	1986
375.643	2105
375.725	5129
375.807	16443
375.890	14886
375.972	4138
376.054	3593
376.136	3520
376.219	1251
376.301	5449
376.383	15362
376.465	6392
376.548	3389
376.630	4511
376.712	13486
376.794	6300
376.877	2201
376.959	408
377.041	1729
377.123	2206
377.205	4724
377.287	778
377.369	1445
377.452	729
377.534	1445
377.616	745
377.698	1562
377.780	-331
377.862	1201
377.944	1672
378.026	906
378.108	524
378.190	959
378.272	1521
378.354	1487
378.436	321
378.518	1079
378.600	4729
378.682	4451
378.764	6390
378.846	6838
378.928	1789
379.010	2551
379.091	1623
379.173	1826
379.255	-623
379.337	778
379.419	2034
379.501	11072
379.583	4340
379.664	1825
379.746	1036
379.828	8180
379.910	8859
379.991	10070
380.073	1583
380.155	1792
380.237	1346
380.318	1217
380.400	872
380.482	2339
380.564	2261
380.645	2002
380.727	1508
380.809	2702
380.890	753
380.972	750
381.053	154
381.135	2152
381.217	1630
381.298	8818
381.380	3718
381.461	3018
381.543	11088
381.624	16313
381.706	3640
381.787	2589
381.869	2289
381.951	5316
382.032	20138
382.113	17501
382.195	2222
382.276	3312
382.358	2302
382.439	13143
382.521	13027
382.602	22188
382.684	9433
382.765	15155
382.846	12548
382.928	12128
383.009	6776
383.090	5453
383.172	15732
383.253	25895
383.334	10322
383.416	17530
383.497	10042
383.578	3742
383.659	3842
383.741	14273
383.822	39807
383.903	19275
383.984	9398
384.066	22885
384.147	13273
384.228	4420
384.309	1813
384.390	1863
384.471	884
384.553	2319
384.634	1370
384.715	3084
384.796	321
384.877	1842
384.958	6088
385.039	7734
385.120	3427
385.201	3115
385.282	1359
385.363	2733
385.444	1378
385.525	4008
385.606	10427
385.687	11002
385.768	2669
385.849	2263
385.930	11666
386.011	22899
386.092	6390
386.173	1523
386.254	1438
386.335	2069
386.416	2033
386.496	4829
386.577	8500
386.658	3211
386.739	1386
386.820	2402
386.901	717
386.981	2830
387.062	1233
387.143	1187
387.224	7101
387.304	7342
387.385	3204
387.466	1747
387.547	2585
387.627	1249
387.708	2568
387.789	13259
387.869	16317
387.950	6450
388.031	855
388.111	220
388.192	3474
388.273	4958
388.353	2237
388.434	1381
388.514	2285
388.595	11479
388.676	16650
388.756	8325
388.837	6355
388.917	4057
388.998	209
389.078	1860
389.159	1395
389.239	951
389.320	2497
389.400	294
389.480	3503
389.561	9425
389.641	5058
389.722	1971
389.802	1446
389.883	4216
389.963	10538
390.043	7244
390.124	705
390.204	3832
390.284	7683
390.365	4735
390.445	6479
390.525	14631
390.605	13032
390.686	5272
390.766	2480
390.846	2280
390.927	366
391.007	1025
391.087	1825
391.167	1208
391.247	-728
391.328	2339
391.408	2750
391.488	3427
391.568	-315
391.648	1311
391.728	1671
391.808	1567
391.888	1767
391.969	4751
392.049	7367
392.129	5495
392.209	3235
392.289	11139
392.369	6271
392.449	6096
392.529	3259
392.609	3293
392.689	3002
392.769	9864
392.849	7675
392.929	6617
393.009	14069
393.089	9325
393.169	5226
393.248	14732
393.328	69640
393.408	80900
393.488	20168
393.568	6177
393.648	2716
393.728	2359
393.807	1378
393.887	2861
393.967	2234
394.047	2217
394.127	2970
394.206	6250
394.286	17560
394.366	72225
394.446	85080
394.525	25668
394.605	6870
394.685	5424
394.764	8605
394.844	13843
394.924	9737
395.003	2832
395.083	1817
395.163	2607
395.242	1322
395.322	2708
395.402	274
395.481	4144
395.561	3407
395.640	14518
395.720	11305
395.799	16604
395.879	14629
395.958	9387
396.038	28603
396.117	92102
396.197	108432
396.276	43601
396.356	14355
396.435	8825
396.515	5583
396.594	4270
396.673	5855
396.753	17632
396.832	66668
396.912	53837
396.991	12316
397.070	4648
397.150	1007
397.229	2745
397.308	2245
397.388	5601
397.467	2589
397.546	1724
397.625	-1357
397.705	3025
397.784	1785
397.863	868
397.942	689
398.022	1549
398.101	3445
398.180	14894
398.259	8180
398.338	3514
398.417	862
398.497	662
398.576	2034
398.655	205
398.734	1348
398.813	1505
398.892	3486
398.971	15212
399.050	7495
399.129	1557
399.208	440
399.287	2274
399.366	172
399.445	1159
399.524	683
399.603	-294
399.682	1818
399.761	3479
399.840	14377
399.919	12834
399.998	953
400.077	592
400.156	-622
400.235	3003
400.313	206
400.392	818
400.471	4008
400.550	7602
400.629	911
400.708	1139
400.786	152
400.865	3254
400.944	2804
401.023	3630
401.102	-291
401.180	904
401.259	415
401.338	1145
401.416	1031
401.495	637
401.574	1051
401.652	231
401.731	1016
401.810	780
401.888	638
401.967	713
402.046	476
402.124	1513
402.203	397
402.281	1853
402.360	809
402.438	4810
402.517	3216
402.596	1700
402.674	717
402.753	693
402.831	565
402.910	2345
402.988	2013
403.066	9127
403.145	5673
403.223	3577
403.302	8498
403.380	7633
403.459	5633
403.537	2580
403.615	1069
403.694	278
403.772	1370
403.850	1006
403.929	444
404.007	904
404.085	2188
404.164	1282
404.242	1853
404.320	10010
404.398	32769
404.477	30792
404.555	23653
404.633	22595
404.711	25534
404.789	19707
404.868	3930
404.946	737
405.024	1391
405.102	1261
405.180	242
405.258	-257
405.336	926
405.415	256
405.493	1082
405.571	1688
405.649	56
405.727	-231
405.805	1802
405.883	1491
405.961	1487
406.039	777
406.117	-253
406.195	1552
406.273	1141
406.351	14583
406.429	9810
406.507	2495
406.585	-329
406.663	874
406.740	458
406.818	-28
406.896	-295
406.974	1399
407.052	-203
407.130	9355
407.208	12889
407.285	3559
407.363	-64
407.441	698
407.519	-224
407.596	1090
407.674	1612
407.752	6296
407.830	6408
407.907	3238
407.985	-664
408.063	1251
408.141	490
408.218	1965
408.296	130
408.373	485
408.451	379
408.529	632
408.606	-475
408.684	868
408.762	943
408.839	405
408.917	366
408.994	849
409.072	-1181
409.149	502
409.227	811
409.304	1027
409.382	240
409.459	1125
409.537	1022
409.614	1395
409.692	838
409.769	668
409.846	946
409.924	2238
410.001	-507
410.079	918
410.156	956
410.233	849
410.311	736
410.388	938
410.465	535
410.543	695
410.620	246
410.697	1391
410.775	360
410.852	-353
410.929	1210
411.006	2727
411.083	-628
411.161	1563
411.238	2045
411.315	1326
411.392	163
411.469	1845
411.547	833
411.624	-209
411.701	-7
411.778	975
411.855	-34
411.932	931
412.009	-360
412.086	685
412.163	500
412.240	416
412.317	984
412.394	469
412.471	1567
412.548	4
412.625	-165
412.702	1748
412.779	571
412.856	1160
412.933	-12
413.010	743
413.087	334
413.164	3091
413.241	5965
413.318	203
413.395	1676
413.471	775
413.548	397
413.625	1193
413.702	-547
413.779	836
413.855	-55
413.932	419
414.009	-797
414.086	716
414.162	91
414.239	1461
414.316	2716
414.393	8832
414.469	2161
414.546	624
414.623	-430
414.699	461
414.776	182
414.853	-432
414.929	350
415.006	720
415.082	1019
415.159	481
415.236	-90
415.312	950
415.389	432
415.465	124
415.542	134
415.618	-263
415.695	731
415.771	364
415.848	-540
415.924	447
416.000	-330
416.077	656
416.153	-292
416.230	407
416.306	320
416.383	-185
416.459	82
416.535	901
416.612	151
416.688	113
416.764	-389
416.841	104
416.917	-120
416.993	778
417.069	193
417.146	849
417.222	2396
417.298	1386
417.374	161
417.451	49
417.527	-553
417.603	147
417.679	-8
417.755	1003
417.831	-399
417.908	872
417.984	-694
418.060	-260
418.136	431
418.212	510
418.288	366
418.364	946
418.440	-782
418.516	1042
418.592	755
418.668	1304
418.744	1219
418.820	1368
418.896	-488
418.972	-894
419.048	190
419.124	1694
419.200	-1
419.276	1081
419.352	-999
419.428	415
419.504	-366
419.579	593
419.655	-201
419.731	152
419.807	921
419.883	1331
419.959	722
420.034	856
420.110	346
420.186	4665
420.262	4165
420.337	1431
420.413	17
420.489	1224
420.565	544
420.640	408
420.716	902
420.792	-465
420.867	371
420.943	48
421.019	-405
421.094	-157
421.170	581
421.245	-221
421.321	1116
421.397	473
421.472	1568
421.548	2943
421.623	3370
421.699	1704
421.774	181
421.850	822
421.925	1933
422.001	1936
422.076	1532
422.152	1990
422.227	2563
422.302	5118
422.378	6508
422.453	11770
422.529	28093
422.604	72871
422.679	112484
422.755	89571
422.830	37237
422.905	16677
422.981	8037
423.056	5619
423.131	3555
423.207	3232
423.282	1391
423.357	2755
423.432	1606
423.508	2297
423.583	1557
423.658	1968
423.733	692
423.808	1132
423.883	1107
423.959	1241
424.034	-144
424.109	1918
424.184	263
424.259	726
424.334	808
424.409	-239
424.484	-46
424.559	98
424.634	-650
424.709	1095
424.784	1166
424.859	662
424.934	-142
425.009	3727
425.084	4974
425.159	3255
425.234	570
425.309	53
425.384	2793
425.459	5074
425.534	1403
425.609	-78
425.683	-128
425.758	142
425.833	-12
425.908	433
425.983	902
426.058	5409
426.132	2638
426.207	1093
426.282	1171
426.357	666
426.431	134
426.506	115
426.581	-197
426.655	10
426.730	-608
426.805	156
426.879	835
426.954	204
427.029	-196
427.103	4713
427.178	13854
427.253	7414
427.327	-46
427.402	1562
427.476	4440
427.551	2642
427.625	350
427.700	458
427.774	-425
427.849	518
427.923	-648
427.998	97
428.072	-539
428.147	1837
428.221	4717
428.296	17859
428.370	9869
428.444	1378
428.519	1559
428.593	2081
428.667	1998
428.742	2879
428.816	3182
428.890	10317
428.965	20475
429.039	7271
429.113	3290
429.188	1011
429.262	-162
429.336	1175
429.410	2625
429.485	2013
429.559	2556
429.633	2605
429.707	85
429.781	2300
429.855	10520
429.930	19189
430.004	8970
430.078	14284
430.152	12986
430.226	24035
430.300	27234
430.374	4301
430.448	1689
430.522	3350
430.596	12964
430.670	9608
430.744	16035
430.818	26259
430.892	4293
430.966	944
431.040	248
431.114	202
431.188	225
431.262	-7
431.336	-1490
431.410	1417
431.484	3157
431.557	3243
431.631	-800
431.705	369
431.779	2369
431.853	16192
431.927	12150
432.000	1448
432.074	170
432.148	571
432.222	-147
432.295	966
432.369	-1161
432.443	760
432.516	4385
432.590	14344
432.664	5889
432.737	352
432.811	-299
432.885	-260
432.958	-84
433.032	-33
433.106	-470
433.179	-62
433.253	-1011
433.326	433
433.400	-334
433.473	-49
433.547	-941
433.620	-250
433.694	-512
433.767	470
433.841	-809
433.914	-239
433.988	-530
434.061	524
434.134	-231
434.208	-394
434.281	-653
434.355	506
434.428	41
434.501	-370
434.575	174
434.648	-577
434.721	-520
434.795	-149
434.868	-1048
434.941	-108
435.014	-580
435.088	-195
435.161	-702
435.234	197
435.307	53
435.381	170
435.454	53
435.527	94
435.600	178
435.673	1026
435.746	-304
435.819	611
435.892	-569
435.966	64
436.039	-1189
436.112	624
436.185	-386
436.258	341
436.331	-878
436.404	8
436.477	-949
436.550	157
436.623	73
436.696	450
436.769	-426
436.842	530
436.915	-758
436.987	-341
437.060	-190
437.133	476
437.206	-1054
437.279	220
437.352	-628
437.425	132
437.498	-33
437.570	1031
437.643	996
437.716	970
437.789	-468
437.861	871
437.934	1370
438.007	625
438.080	-544
438.152	392
438.225	619
438.298	6636
438.370	20013
438.443	10750
438.516	2160
438.588	-336
438.661	-72
438.734	145
438.806	75
438.879	427
438.951	-470
439.024	1149
439.096	-187
439.169	-100
439.241	-370
439.314	-296
439.386	-851
439.459	746
439.531	360
439.604	1582
439.676	65
439.749	-499
439.821	-586
439.893	637
439.966	-809
440.038	-396
440.110	-374
440.183	-46
440.255	-1164
440.327	530
440.400	1873
440.472	12696
440.544	9717
440.617	1261
440.689	746
440.761	635
440.833	415
440.905	1112
440.978	-697
441.050	183
441.122	-168
441.194	182
441.266	-507
441.338	280
441.411	510
441.483	3177
441.555	5730
441.627	1505
441.699	325
441.771	98
441.843	-282
441.915	311
441.987	-677
442.059	47
442.131	227
442.203	1061
442.275	818
442.347	1795
442.419	898
442.491	6315
442.563	18696
442.635	8645
442.706	3362
442.778	4122
442.850	-46
442.922	541
442.994	-92
443.066	-441
443.137	682
443.209	502
443.281	14
443.353	1955
443.425	8535
443.496	34761
443.568	36733
443.640	13476
443.711	2362
443.783	671
443.855	597
443.926	-141
443.998	-615
444.070	602
444.141	353
444.213	584
444.285	565
444.356	1007
444.428	335
444.499	80
444.571	-438
444.642	98
444.714	-1099
444.785	1243
444.857	-37
444.928	2318
445.000	1065
445.071	2002
445.143	2212
445.214	1288
445.285	2295
445.357	7995
445.428	21997
445.500	58350
445.571	39412
445.642	18976
445.714	6818
445.785	6008
445.856	1249
445.928	1029
445.999	927
446.070	78
446.141	301
446.213	1560
446.284	303
446.355	534
446.426	-957
446.497	54
446.569	72
446.640	906
446.711	-340
446.782	516
446.853	-371
446.924	644
446.995	-185
447.066	360
447.138	255
447.209	754
447.280	-584
447.351	-237
447.422	-527
447.493	648
447.564	-129
447.635	114
447.706	-374
447.777	384
447.847	-385
447.918	-206
447.989	473
448.060	898
448.131	1572
448.202	1442
448.273	1182
448.344	1427
448.414	-453
448.485	137
448.556	-433
448.627	32
448.698	595
448.768	-290
448.839	12
448.910	773
448.981	165
449.051	809
449.122	-202
449.193	-26
449.263	-104
449.334	112
449.405	901
449.475	1627
449.546	569
449.616	1294
449.687	1208
449.758	824
449.828	-352
449.899	522
449.969	493
450.040	690
450.110	-488
450.181	726
450.251	348
450.322	1212
450.392	266
450.463	787
450.533	365
450.604	598
450.674	-859
450.744	536
450.815	-1277
450.885	489
450.955	71
451.026	-82
451.096	-523
451.166	32
451.237	833
451.307	2942
451.377	1360
451.447	143
451.518	-751
451.588	661
451.658	170
451.728	452
451.799	2320
451.869	5661
451.939	12
452.009	518
452.079	-405
452.149	1027
452.219	664
452.289	3750
452.360	3195
452.430	253
452.500	-339
452.570	408
452.640	284
452.710	2086
452.780	5229
452.850	2830
452.920	1488
452.990	547
453.060	541
453.129	486
453.199	777
453.269	3948
453.339	11765
453.409	19630
453.479	14064
453.549	24081
453.619	25980
453.688	12756
453.758	1692
453.828	584
453.898	-522
453.968	204
454.037	-211
454.087	504
454.107	792
454.168	-257
454.177	-418
454.247	-66
454.249	-70
454.316	-412
454.330	-249
454.386	368
454.411	490
454.456	524
454.492	2362
454.525	4029
454.574	1945
454.595	1004
454.655	284
454.665	183
454.734	-104
454.736	-68
454.804	860
454.817	1352
454.873	3050
454.898	3768
454.943	4997
454.979	2869
455.013	975
455.060	1036
455.082	1127
455.141	844
455.152	791
455.221	2778
455.222	2849
455.291	6019
455.303	6231
455.360	6736
455.384	8285
455.430	10037
455.465	8691
455.499	7582
455.546	4838
455.569	3538
455.627	2831
455.638	2773
455.707	572
455.708	580
455.777	83
455.789	110
455.846	273
455.869	323
455.916	376
455.950	136
455.985	-100
456.031	191
456.054	336
456.112	-8
456.124	-47
456.193	222
456.193	213
456.262	-353
456.274	-101
456.332	1174
456.355	829
456.401	-38
456.436	211
456.470	614
456.516	315
456.540	53
456.597	-7
456.609	-14
456.678	-255
456.678	-260
456.747	322
456.759	209
456.817	-413
456.840	-208
456.886	120
456.920	281
456.955	442
457.001	209
457.024	123
457.082	540
457.093	628
457.162	1125
457.163	1133
457.232	937
457.243	900
457.301	541
457.324	220
457.370	-103
457.405	353
457.439	732
457.485	285
457.508	15
457.566	190
457.577	271
457.646	574
457.647	588
457.715	1524
457.727	1428
457.784	1131
457.808	1610
457.853	2295
457.889	2909
457.922	3011
457.969	2383
457.991	2489
458.050	2592
458.060	2633
458.129	4061
458.130	4121
458.198	4656
458.211	4432
458.267	3248
458.292	2168
458.336	932
458.372	1094
458.405	1785
458.453	2362
458.474	2670
458.533	4313
458.543	4490
458.611	6962
458.614	7071
458.680	5993
458.694	4861
458.749	2389
458.775	1844
458.818	812
458.855	384
458.887	478
458.936	728
458.955	544
459.016	-102
459.024	-48
459.093	947
459.097	954
459.162	-221
459.177	-313
459.230	294
459.257	671
459.299	988
459.338	973
459.368	984
459.418	1228
459.437	1172
459.499	719
459.505	711
459.574	571
459.579	605
459.643	742
459.659	600
459.711	412
459.740	480
459.780	551
459.820	573
459.849	592
459.900	1170
459.917	1327
459.981	1254
459.986	1255
460.054	866
460.061	908
460.123	1079
460.141	1048
460.191	961
460.222	1123
460.260	1401
460.302	1482
460.328	1503
460.382	1245
460.397	1184
460.462	1497
460.465	1553
460.534	2673
460.543	2876
460.602	9420
460.623	11767
460.671	17979
460.703	24993
460.739	24296
460.783	20917
460.808	18410
460.864	4445
460.876	3138
460.944	1489
460.945	1464
461.013	1043
461.024	1005
461.081	893
461.104	967
461.150	1129
461.184	1097
461.218	1035
461.264	1040
461.286	1031
461.345	496
461.355	439
461.423	1019
461.425	1023
461.491	767
461.505	804
461.559	2187
461.585	2568
461.628	3894
461.665	5393
461.696	6063
461.745	7603
461.764	6620
461.825	2779
461.832	2799
461.901	1243
461.905	1266
461.969	1268
461.985	1068
462.037	1036
462.065	1295
462.105	1246
462.145	1064
462.173	1863
462.225	3740
462.241	4088
462.305	5050
462.310	4862
462.378	2402
462.385	1981
462.446	1286
462.465	1241
462.514	858
462.545	777
462.582	1229
462.625	1774
462.650	1677
462.705	1156
462.718	1131
462.785	1663
462.786	1679
462.854	1633
462.865	1750
462.922	2754
462.945	3067
462.990	2095
463.025	1401
463.058	1606
463.104	1491
463.126	1234
463.184	905
463.194	966
463.262	1051
463.264	1074
463.330	1166
463.344	1160
463.398	1799
463.424	2076
463.466	1491
463.504	825
463.533	1211
463.583	1926
463.601	1850
463.663	1634
463.669	1666
463.737	2152
463.743	2174
463.805	3351
463.823	3794
463.873	6162
463.903	7506
463.940	7566
463.982	7847
464.008	6394
464.062	2805
464.076	2547
464.142	918
464.144	933
464.211	1793
464.221	2002
464.279	2025
464.301	1866
464.347	1687
464.381	1559
464.414	1735
464.461	2245
464.482	2459
464.540	2957
464.550	2893
464.617	1935
464.620	1917
464.685	2738
464.699	2823
464.753	3260
464.779	3629
464.820	4215
464.859	4698
464.888	4413
464.938	3894
464.956	3930
465.018	3726
465.023	3704
465.091	3745
465.098	3709
465.158	3845
465.177	3975
465.226	3453
465.257	3025
465.293	3328
465.336	3754
465.361	3768
465.416	3636
465.428	3972
465.495	5844
465.496	5870
465.563	8383
465.575	8851
465.631	11156
465.654	12153
465.698	8471
465.734	5150
465.765	4605
465.813	3639
465.833	3585
465.893	3816
465.900	3855
465.968	3946
465.972	3956
466.035	3896
466.052	3861
466.102	4006
466.131	4120
466.170	3796
466.210	3349
466.237	3821
466.290	4864
466.304	4838
466.369	4578
466.372	4614
466.439	5651
466.449	5754
466.506	5330
466.528	5231
466.573	6882
466.607	7992
466.641	10336
466.687	13729
466.708	14738
466.766	17415
466.775	16316
466.842	7887
466.845	7473
466.909	6758
466.925	6599
466.977	6534
467.004	6503
467.044	6325
467.083	6166
467.111	6427
467.163	6854
467.178	7189
467.242	8566
467.245	8522
467.312	7388
467.321	7230
467.379	6780
467.400	6600
467.446	7080
467.480	7414
467.559	7652
467.638	5826
467.717	5600
467.796	5456
467.875	6377
467.955	6100
468.034	8404
468.113	14473
468.192	21482
468.271	6440
468.350	5116
468.429	5038
468.508	6040
468.588	5130
468.667	4584
468.746	4081
468.825	4649
468.904	4233
468.983	5154
469.062	6096
469.141	8343
469.220	4720
469.299	4288
469.378	4071
469.456	6954
469.535	6401
469.614	5517
469.693	5239
469.772	6550
469.851	7195
469.930	5920
470.009	4485
470.088	5055
470.166	5173
470.245	4966
470.324	5043
470.403	5566
470.482	4174
470.560	5027
470.639	4762
470.718	5439
470.797	3584
470.875	4790
470.954	4953
471.033	6758
471.111	3241
471.190	4284
471.269	3792
471.347	4130
471.426	3592
471.505	5125
471.583	5203
471.662	5889
471.740	3994
471.819	4122
471.898	3768
471.976	4265
472.055	3913
472.133	5391
472.212	6149
472.290	5672
472.369	3555
472.447	4043
472.526	3338
472.604	4776
472.683	3749
472.761	4076
472.839	4170
472.918	3739
472.996	3491
473.075	5253
473.153	3893
473.231	3531
473.310	3996
473.388	4523
473.466	3452
473.545	5173
473.623	4608
473.701	4603
473.780	4334
473.858	2983
473.936	4883
474.014	4197
474.093	4793
474.171	5556
474.249	7031
474.327	4749
474.405	3183
474.484	4214
474.562	3509
474.640	3424
474.718	4046
474.796	4413
474.874	4287
474.952	3422
475.030	3930
475.108	4722
475.187	4922
475.265	4911
475.343	4934
475.421	5057
475.499	3554
475.577	4255
475.655	5437
475.733	7537
475.811	11543
475.889	11239
475.966	8081
476.044	3522
476.122	3444
476.200	4133
476.278	3567
476.356	2819
476.434	3961
476.512	4662
476.590	3572
476.667	5140
476.745	3164
476.823	4279
476.901	3635
476.979	2991
477.056	3903
477.134	3943
477.212	4458
477.290	3591
477.367	3217
477.445	3327
477.523	2367
477.601	3102
477.678	2967
477.756	4191
477.834	4240
477.911	3312
477.989	3220
478.066	2403
478.144	3611
478.222	4525
478.299	3416
478.377	3733
478.454	2897
478.532	3491
478.609	2310
478.687	3871
478.764	2815
478.842	4024
478.919	1864
478.997	2608
479.074	2967
479.152	3845
479.229	3607
479.307	3893
479.384	3281
479.461	3806
479.539	1915
479.616	4715
479.694	3028
479.771	3149
479.848	3082
479.926	3081
480.003	4878
480.080	2864
480.157	3395
480.235	2439
480.312	2288
480.389	3006
480.467	4415
480.544	5792
480.621	3084
480.698	3401
480.775	3708
480.853	3919
480.930	2992
481.007	3066
481.084	2857
481.161	4953
481.238	3853
481.315	3004
481.392	2185
481.470	2862
481.547	2002
481.624	2865
481.701	3202
481.778	3262
481.855	2935
481.932	3847
482.009	6831
482.086	4873
482.163	2517
482.240	3350
482.317	3871
482.393	3442
482.470	2133
482.547	3495
482.624	2914
482.701	3154
482.778	2587
482.855	2275
482.932	2430
483.009	2299
483.085	2379
483.162	3259
483.239	3675
483.316	2226
483.393	2973
483.469	2924
483.546	3391
483.623	3095
483.699	2844
483.776	3272
483.853	2453
483.930	4649
484.006	9405
484.083	18823
484.160	13628
484.236	23510
484.313	18487
484.389	12585
484.466	12731
484.543	9701
484.619	10517
484.696	12340
484.772	11523
484.849	12143
484.925	10143
485.002	10681
485.078	10759
485.155	10463
485.231	10584
485.308	10258
485.384	10003
485.461	10879
485.537	13709
485.614	16189
485.690	9826
485.766	9096
485.843	9152
485.919	10731
485.995	10855
486.072	9255
486.148	7796
486.224	9646
486.301	8933
486.377	9277
486.453	8887
486.530	9810
486.606	13808
486.682	16288
486.758	14881
486.835	16050
486.911	12666
486.987	18147
487.063	15709
487.139	17065
487.215	13924
487.292	10284
487.368	9560
487.444	10495
487.520	10558
487.596	10297
487.672	13392
487.748	21845
487.824	30684
487.900	16433
487.976	9577
488.052	9427
488.128	10118
488.204	8833
488.280	9138
488.356	10617
488.432	14334
488.508	20886
488.584	9609
488.660	7690
488.736	7790
488.812	8051
488.888	10106
488.964	11027
489.039	14090
489.115	20649
489.191	14033
489.267	8325
489.343	7342
489.418	7213
489.494	6204
489.570	5769
489.646	7439
489.722	7509
489.797	7230
489.873	9322
489.949	17108
490.024	13197
490.100	6994
490.176	7268
490.251	6759
490.327	7556
490.403	6231
490.478	7170
490.554	5857
490.629	5841
490.705	6164
490.781	6383
490.856	5595
490.932	6759
491.007	6096
491.083	6664
491.158	5314
491.234	7923
491.309	12329
491.385	12849
491.460	5584
491.536	7053
491.611	6398
491.686	6157
491.762	6743
491.837	8970
491.913	14009
491.988	17802
492.063	20062
492.139	10235
492.214	6402
492.289	5370
492.365	4417
492.440	5952
492.515	4245
492.590	5389
492.666	4270
492.741	5513
492.816	7316
492.891	5795
492.967	4938
493.042	5223
493.117	4936
493.192	5906
493.267	8554
493.342	27327
493.418	37181
493.493	7452
493.568	4071
493.643	4259
493.718	4731
493.793	5674
493.868	5949
493.943	4998
494.018	4865
494.093	4286
494.168	3820
494.243	3544
494.318	3705
494.393	4570
494.468	3274
494.543	3297
494.618	4566
494.693	4107
494.768	3898
494.842	3586
494.917	2952
494.992	4597
495.067	4588
495.142	3190
495.217	3961
495.292	3812
495.366	4752
495.441	4911
495.516	6135
495.591	7467
495.665	15814
495.740	34653
495.815	14555
495.890	5609
495.964	2262
496.039	6432
496.114	5425
496.188	6122
496.263	5741
496.338	5015
496.412	4800
496.487	6756
496.561	6300
496.636	6227
496.710	6049
496.785	6480
496.860	6871
496.934	5834
497.009	5929
497.083	6248
497.158	6454
497.232	8085
497.307	9182
497.381	7708
497.455	8731
497.530	10817
497.604	9486
497.679	10447
497.753	14585
497.827	18856
497.902	19682
497.976	21716
498.050	34541
498.125	106877
498.199	108090
498.273	27411
498.348	23604
498.422	19196
498.496	16881
498.570	15267
498.645	12650
498.719	11623
498.793	12287
498.867	14220
498.941	16299
499.016	41104
499.090	110655
499.164	38265
499.238	7251
499.312	7084
499.386	6543
499.460	7154
499.534	5534
499.609	7283
499.683	10256
499.757	9423
499.831	16689
499.905	69890
499.979	63578
500.053	11002
500.127	8691
500.201	5859
500.275	4707
500.349	5288
500.422	5753
500.496	7900
500.570	11891
500.644	35113
500.718	70264
500.792	16050
500.866	5526
500.940	7279
501.013	5883
501.087	5675
501.161	7611
501.235	9910
501.309	20931
501.382	60565
501.456	51651
501.530	11390
501.603	20156
501.677	8313
501.751	3174
501.825	6471
501.898	8132
501.972	23255
502.046	14349
502.119	5147
502.193	10402
502.266	26442
502.340	11925
502.413	12221
502.487	21104
502.561	12141
502.634	4422
502.708	4109
502.781	2977
502.855	3617
502.928	2241
503.002	4154
503.075	2484
503.149	3797
503.222	2726
503.295	2874
503.369	3833
503.442	5783
503.516	16478
503.589	42299
503.662	26135
503.736	8403
503.809	19512
503.882	16209
503.956	24577
504.029	20915
504.102	10619
504.175	14990
504.249	6148
504.322	5861
504.395	3981
504.468	3353
504.542	3103
504.615	2741
504.688	2528
504.761	2156
504.834	3625
504.907	3528
504.980	4483
505.053	3239
505.127	2093
505.200	6184
505.273	3893
505.346	3323
505.419	2112
505.492	4164
505.565	2583
505.638	2129
505.711	2529
505.784	1767
505.857	2000
505.930	3742
506.003	1044
506.076	3987
506.149	2601
506.221	2790
506.294	4722
506.367	8617
506.440	32577
506.513	17334
506.586	3896
506.659	2966
506.731	1608
506.804	2801
506.877	3053
506.950	3466
507.022	1935
507.095	2093
507.168	3809
507.241	2871
507.313	1888
507.386	2026
507.459	3102
507.531	2699
507.604	1040
507.677	2533
507.749	1136
507.822	3954
507.894	6026
507.967	10716
508.040	5166
508.112	5686
508.185	4444
508.257	3345
508.330	5779
508.402	5137
508.475	3908
508.547	4292
508.620	3967
508.692	6850
508.765	4246
508.837	2636
508.909	3758
508.982	2681
509.054	4466
509.127	2903
509.199	3913
509.271	3465
509.344	3598
509.416	3318
509.488	2918
509.560	3854
509.633	2585
509.705	3832
509.777	4271
509.849	4863
509.922	3520
509.994	4469
510.066	3976
510.138	4417
510.210	10603
510.283	9064
510.355	7709
510.427	6711
510.499	5065
510.571	5357
510.643	4857
510.715	6235
510.787	3923
510.859	6757
510.931	4222
511.003	6395
511.076	6422
511.148	5276
511.219	5368
511.291	8460
511.363	8434
511.435	5150
511.507	3895
511.579	5840
511.651	4644
511.723	4613
511.795	4009
511.867	3736
511.939	4955
512.010	6726
512.082	6362
512.154	3406
512.226	4923
512.298	7140
512.369	9563
512.441	8496
512.513	6406
512.585	4624
512.656	6134
512.728	5054
512.800	4550
512.871	5950
512.943	4871
513.015	4902
513.086	5634
513.158	4872
513.230	3385
513.301	4834
513.373	6268
513.444	4992
513.516	4843
513.588	4915
513.659	4547
513.731	4615
513.802	4742
513.874	7418
513.945	9116
514.016	4881
514.088	5017
514.159	4567
514.231	5791
514.302	9058
514.374	7325
514.445	5098
514.516	10914
514.588	6802
514.659	5003
514.730	8547
514.802	8714
514.873	6238
514.944	10923
515.016	6471
515.087	6130
515.158	7419
515.229	10336
515.301	9826
515.372	13502
515.443	8565
515.514	6626
515.585	4181
515.656	5316
515.728	5307
515.799	3467
515.870	5277
515.941	5013
516.012	4179
516.083	7581
516.154	6093
516.225	7142
516.296	7009
516.367	5513
516.438	5145
516.509	5989
516.580	8417
516.651	16483
516.722	43754
516.793	23206
516.864	8326
516.935	6596
517.006	9001
517.077	9671
517.148	16819
517.219	46810
517.289	71137
517.360	34653
517.431	14927
517.502	5019
517.573	5744
517.643	5313
517.714	6278
517.785	5946
517.856	5364
517.926	7339
517.997	7753
518.068	7599
518.138	10912
518.209	11801
518.280	31127
518.350	111996
518.421	41133
518.492	8187
518.562	7065
518.633	6526
518.703	5169
518.774	10326
518.845	17854
518.915	16585
518.986	8259
519.056	6569
519.127	10085
519.197	14437
519.268	33997
519.338	24303
519.408	7161
519.479	6392
519.549	5605
519.620	5474
519.690	4197
519.760	4905
519.831	4462
519.901	3819
519.971	4656
520.042	4661
520.112	4493
520.182	5452
520.253	5624
520.323	4360
520.393	5588
520.463	8981
520.534	3803
520.604	10986
520.674	6382
520.744	5617
520.814	9840
520.885	10617
520.955	11908
521.025	40644
521.095	16456
521.165	6188
521.235	4149
521.305	3551
521.375	3984
521.445	4559
521.515	3853
521.585	4516
521.655	2930
521.725	4999
521.795	5545
521.865	2586
521.935	6744
522.005	4464
522.075	3869
522.145	4523
522.215	3195
522.285	6053
522.355	6468
522.424	10544
522.494	9267
522.564	5407
522.634	6279
522.704	17661
522.774	7581
522.843	3806
522.913	2972
522.983	3661
523.053	2842
523.122	3903
523.192	4209
523.262	8231
523.331	8863
523.401	4053
523.471	3327
523.540	2884
523.610	2421
523.680	3458
523.749	3257
523.819	3421
523.888	3091
523.958	2930
524.027	3770
524.097	3320
524.166	3587
524.236	1919
524.305	5588
524.375	2206
524.444	2429
524.514	4857
524.583	2602
524.653	2190
524.722	4148
524.791	2342
524.861	3834
524.930	2405
524.999	2422
525.069	3894
525.138	3474
525.207	4018
525.277	3909
525.346	3377
525.415	3851
525.484	3378
525.554	2813
525.623	3076
525.692	4373
525.761	2830
525.830	3858
525.900	3622
525.969	5560
526.038	7160
526.107	10926
526.176	32400
526.245	26599
526.314	12893
526.383	18346
526.452	22902
526.522	41344
526.591	41803
526.660	11901
526.729	7095
526.797	9565
526.867	14900
526.935	60625
527.004	97454
527.073	52116
527.142	7048
527.211	4481
527.280	3886
527.349	3114
527.418	2290
527.487	4000
527.555	1529
527.624	2340
527.693	1605
527.762	4669
527.831	794
527.899	3252
527.968	2540
528.037	1773
528.106	3218
528.174	4305
528.243	4308
528.312	5696
528.380	5452
528.449	3462
528.518	3938
528.586	1482
528.655	3822
528.723	2149
528.792	2099
528.861	2640
528.929	1246
528.998	3348
529.066	2194
529.135	5368
529.203	3908
529.272	3726
529.340	7569
529.409	6489
529.477	5040
529.545	5173
529.614	7979
529.682	5633
529.751	8266
529.819	10114
529.887	8892
529.956	8026
530.024	8179
530.092	6228
530.161	7181
530.229	7865
530.297	6574
530.365	8960
530.434	8018
530.502	7843
530.570	7927
530.638	5286
530.707	6805
530.775	8170
530.843	5100
530.911	7289
530.979	7007
531.047	7134
531.115	7433
531.183	7175
531.252	7096
531.320	6431
531.388	5156
531.456	7078
531.524	5438
531.592	8274
531.660	9724
531.728	8068
531.796	8109
531.864	8035
531.932	7582
532.000	6411
532.067	8168
532.135	9184
532.203	9547
532.271	9489
532.339	11111
532.407	14800
532.475	11338
532.542	9888
532.610	10075
532.678	9024
532.746	21269
532.814	42028
532.881	16454
532.949	10064
533.017	7660
533.084	8138
533.152	7601
533.220	7160
533.287	7108
533.355	8487
533.423	8307
533.490	7494
533.558	7620
533.625	8108
533.693	7795
533.761	7537
533.828	8742
533.896	7417
533.963	10344
534.031	12097
534.098	13094
534.166	8968
534.233	7764
534.300	9897
534.368	8369
534.435	6675
534.503	7085
534.570	8302
534.637	7350
534.705	8102
534.772	7965
534.840	7948
534.907	19768
534.974	22776
535.041	6904
535.109	7401
535.176	4448
535.243	7275
535.310	5261
535.378	5270
535.445	5928
535.512	5979
535.579	6282
535.646	3930
535.714	5808
535.781	7699
535.848	6010
535.915	8713
535.982	8183
536.049	8659
536.116	8534
536.183	5585
536.250	4912
536.317	4738
536.384	6117
536.451	5923
536.518	6173
536.585	4909
536.652	7669
536.719	7113
536.786	4409
536.853	6092
536.920	6638
536.987	8116
537.053	6749
537.120	19980
537.187	19970
537.254	5055
537.321	4713
537.388	5717
537.454	4421
537.521	4885
537.588	4722
537.654	5764
537.721	5700
537.788	6010
537.855	4759
537.921	5137
537.988	4930
538.055	5734
538.121	3983
538.188	5242
538.254	5379
538.321	6037
538.388	5586
538.454	4933
538.521	4632
538.587	4808
538.654	4623
538.720	4952
538.787	4836
538.853	5601
538.920	4507
538.986	4598
539.053	3764
539.119	4897
539.185	4512
539.252	4776
539.318	4960
539.385	6477
539.451	4525
539.517	6473
539.583	5853
539.650	8466
539.716	15976
539.782	7870
539.849	4333
539.915	6064
539.981	3064
540.047	4902
540.114	4661
540.180	5216
540.246	4345
540.312	5372
540.378	6546
540.444	8124
540.510	7560
540.576	17228
540.643	8017
540.709	4314
540.775	4368
540.841	4243
540.907	6094
540.973	8095
541.039	6809
541.105	5949
541.171	4548
541.237	5147
541.303	6254
541.369	7064
541.435	5165
541.500	6411
541.566	5056
541.632	4626
541.698	3902
541.764	4961
541.830	3891
541.896	4137
541.961	4807
542.027	4532
542.093	4994
542.159	4196
542.224	3815
542.290	7072
542.356	7021
542.421	7319
542.487	5617
542.553	4899
542.618	5102
542.684	4556
542.750	4416
542.815	6272
542.881	5825
542.947	13817
543.012	13691
543.078	4539
543.143	4846
543.209	5781
543.274	4198
543.340	6281
543.405	7917
543.471	10293
543.536	5232
543.602	5963
543.667	3328
543.732	5830
543.798	3402
543.863	5916
543.928	4448
543.994	3984
544.059	4986
544.124	5487
544.190	4192
544.255	5664
544.320	5110
544.386	4297
544.451	4950
544.516	6404
544.581	4824
544.646	10716
544.712	16498
544.777	7505
544.842	6437
544.907	5859
544.972	5058
545.037	5528
545.102	5956
545.168	5820
545.233	5672
545.298	6812
545.363	5675
545.428	7492
545.493	8887
545.558	12819
545.623	8745
545.688	5936
545.753	6164
545.818	5865
545.883	6611
545.947	6242
546.012	6146
546.077	6048
546.142	7419
546.207	6159
546.272	7244
546.337	6059
546.401	7408
546.466	7697
546.531	6288
546.596	6690
546.661	7323
546.725	8450
546.790	6718
546.855	7704
546.919	6558
546.984	9482
547.049	8106
547.113	9535
547.178	8516
547.243	11220
547.307	12096
547.372	11554
547.436	12804
547.501	12657
547.565	13502
547.630	13425
547.695	12855
547.759	13650
547.823	11852
547.888	12705
547.952	12526
548.017	13358
548.081	14395
548.146	14036
548.210	13677
548.274	14459
548.339	14631
548.403	13566
548.468	13061
548.532	12027
548.596	11845
548.660	12118
548.725	13770
548.789	14660
548.853	15551
548.917	14765
548.982	13955
549.046	15337
549.110	12027
549.174	11106
549.238	13000
549.303	13588
549.367	15675
549.431	15170
549.495	13083
549.559	13760
549.623	14578
549.687	16760
549.751	17458
549.815	18741
549.879	19763
549.943	17984
550.007	19328
550.071	19289
550.135	17882
550.199	16545
550.263	16202
550.327	17273
550.391	17194
550.455	17636
550.519	17953
550.582	19395
550.646	21260
550.710	22017
550.774	22434
550.838	21164
550.901	22372
550.965	22113
551.029	22809
551.093	25349
551.156	26933
551.220	30135
551.284	30820
551.347	25214
551.411	29714
551.475	30838
551.538	23987
551.602	22275
551.666	21330
551.729	20609
551.793	20834
551.856	20960
551.920	19999
551.983	21283
552.047	19157
552.110	20674
552.174	19748
552.237	20604
552.301	19654
552.364	18415
552.428	18740
552.491	19123
552.554	19561
552.618	19492
552.681	18656
552.745	18195
552.808	19832
552.871	21890
552.934	20236
552.998	18747
553.061	20235
553.124	19238
553.187	18838
553.251	19790
553.314	20365
553.377	21753
553.440	24970
553.503	42623
553.567	61026
553.630	26751
553.693	20971
553.756	20725
553.819	20965
553.882	20707
553.945	20873
554.008	20796
554.071	19718
554.134	22586
554.197	20241
554.260	20252
554.323	21356
554.386	20205
554.449	20538
554.512	21698
554.575	19282
554.638	20043
554.701	19492
554.764	20467
554.827	19399
554.889	19584
554.952	18222
555.015	18661
555.078	18067
555.141	18385
555.203	17945
555.266	17590
555.329	17971
555.391	17445
555.454	16868
555.517	15999
555.580	15854
555.642	14814
555.705	14839
555.768	15522
555.830	15393
555.893	14762
555.955	13476
556.018	13579
556.080	12987
556.143	13741
556.206	12479
556.268	13446
556.330	13268
556.393	13648
556.455	13464
556.518	13765
556.580	14515
556.643	12443
556.705	11699
556.767	10864
556.830	11615
556.892	11488
556.955	11214
557.017	10760
557.079	10823
557.142	10290
557.204	9908
557.266	13569
557.328	11205
557.391	9442
557.453	9346
557.515	10013
557.577	10847
557.639	10319
557.701	9312
557.764	9641
557.826	9075
557.888	10393
557.950	8964
558.012	10073
558.074	10569
558.136	16025
558.198	29691
558.260	16125
558.322	9071
558.384	9305
558.446	10816
558.508	11088
558.570	13101
558.632	15500
558.694	19156
558.756	23062
558.818	53720
558.880	131482
558.942	45664
559.003	31001
559.065	19122
559.127	11528
559.189	11107
559.251	12961
559.312	14636
559.374	26384
559.436	80603
559.498	45359
559.559	11479
559.621	11350
559.683	11607
559.744	16040
559.806	38098
559.868	58369
559.929	15031
559.991	12520
560.052	12979
560.114	27561
560.176	20535
560.237	17772
560.299	25689
560.360	10613
560.422	7867
560.483	8390
560.545	7267
560.606	6975
560.667	6929
560.729	7035
560.790	7275
560.852	7905
560.913	6860
560.974	7663
561.036	6675
561.097	7353
561.158	6823
561.220	7554
561.281	6694
561.342	7100
561.403	7691
561.465	7958
561.526	10632
561.587	12693
561.648	6867
561.709	7636
561.771	6724
561.832	6767
561.893	7183
561.954	8076
562.015	6450
562.076	7618
562.137	6815
562.198	7064
562.259	7854
562.320	7636
562.381	7471
562.442	8125
562.503	7203
562.564	7985
562.625	7248
562.686	7937
562.747	6444
562.808	7500
562.869	7103
562.930	8516
562.991	7948
563.051	7526
563.112	6730
563.173	6900
563.234	6842
563.294	6912
563.355	6870
563.416	7511
563.477	6944
563.537	6980
563.598	7553
563.659	7869
563.720	7246
563.780	7767
563.841	7292
563.901	8418
563.962	6492
564.023	8160
564.083	7690
564.144	6974
564.204	7187
564.265	7192
564.325	7511
564.386	9857
564.446	8491
564.507	7724
564.567	7183
564.628	7548
564.688	7357
564.749	8493
564.809	8033
564.869	8178
564.930	6891
564.990	7697
565.050	8229
565.111	7790
565.171	6704
565.231	7046
565.292	8528
565.352	7108
565.412	8477
565.472	8494
565.532	7912
565.593	8026
565.653	6702
565.713	7712
565.773	8292
565.833	8911
565.893	9409
565.953	7839
566.013	8474
566.074	8406
566.134	9782
566.194	11311
566.254	11555
566.314	11432
566.374	8752
566.434	9395
566.494	9950
566.554	9411
566.614	10199
566.673	10512
566.733	10910
566.793	10866
566.853	11039
566.913	12573
566.973	11985
567.033	12524
567.092	11885
567.152	11763
567.212	12328
567.272	13367
567.331	12986
567.391	12207
567.451	14778
567.511	14629
567.570	15354
567.630	13228
567.690	12442
567.749	12048
567.809	14291
567.868	16805
567.928	15679
567.988	18934
568.047	23182
568.107	28485
568.166	37090
568.226	57457
568.285	84316
568.345	73507
568.404	57291
568.464	47552
568.523	43777
568.582	44080
568.642	47756
568.701	60261
568.761	85560
568.820	137807
568.879	140794
568.939	102024
568.998	72342
569.057	55410
569.116	43396
569.176	35757
569.235	29500
569.294	25609
569.353	22206
569.413	20776
569.472	18101
569.531	16637
569.590	14418
569.649	13147
569.708	13281
569.767	14316
569.827	11865
569.886	12029
569.945	10375
570.004	11626
570.063	9879
570.122	9909
570.181	9610
570.240	10382
570.299	9412
570.358	10812
570.417	8261
570.475	9333
570.534	8487
570.593	8439
570.652	7816
570.711	8870
570.770	7777
570.829	8357
570.887	7441
570.946	8650
571.005	7843
571.064	7942
571.122	8133
571.181	9110
571.240	7518
571.299	7783
571.357	7153
571.416	7506
571.475	7867
571.533	8905
571.592	7590
571.650	8410
571.709	6658
571.768	8373
571.826	7444
571.885	7908
571.943	7272
572.002	6953
572.060	7381
572.119	7621
572.177	7844
572.236	7719
572.294	7027
572.352	7577
572.411	7224
572.469	6797
572.528	7205
572.586	6876
572.644	7058
572.703	8160
572.761	6179
572.819	7464
572.877	7017
572.936	7079
572.994	6742
573.052	7437
573.110	6605
573.169	6726
573.227	6340
573.285	6611
573.343	7434
573.401	6817
573.459	7074
573.517	7736
573.576	6093
573.634	7427
573.692	6260
573.750	7466
573.808	6449
573.866	6718
573.924	7076
573.982	7451
574.040	6300
574.098	7004
574.155	6406
574.213	6776
574.271	6783
574.329	7216
574.387	5793
574.445	6022
574.503	5896
574.560	7018
574.618	6165
574.676	6135
574.734	6320
574.792	6442
574.849	6065
574.907	6193
574.965	5435
575.022	6843
575.080	6707
575.138	7200
575.195	5487
575.253	5984
575.311	5531
575.368	7324
575.426	6322
575.483	7594
575.541	6622
575.598	7084
575.656	6168
575.713	6957
575.771	6055
575.828	6823
575.886	6704
575.943	6433
576.001	6037
576.058	6249
576.115	6547
576.173	7109
576.230	6832
576.287	7858
576.345	6451
576.402	6781
576.459	6959
576.517	7107
576.574	6796
576.631	7087
576.688	7641
576.746	7905
576.803	7207
576.860	7158
576.917	6947
576.974	7311
577.031	7366
577.089	6983
577.146	6782
577.203	7218
577.260	7437
577.317	7841
577.374	6751
577.431	6498
577.488	7376
577.545	6513
577.602	7765
577.659	7923
577.716	7658
577.773	8350
577.830	7354
577.886	7998
577.943	6773
578.000	8605
578.057	7923
578.114	8689
578.171	9443
578.227	12468
578.284	11217
578.341	10090
578.398	8636
578.454	8850
578.511	7551
578.568	8727
578.625	7376
578.681	8013
578.738	7412
578.794	7752
578.851	7662
578.908	8289
578.964	8808
579.021	9379
579.077	8980
579.134	7530
579.190	7950
579.247	8923
579.303	8134
579.360	7174
579.416	7399
579.473	7999
579.529	7339
579.586	8601
579.642	8113
579.698	8471
579.755	8492
579.811	8633
579.867	8977
579.924	9384
579.980	8570
580.036	10166
580.093	11464
580.149	15871
580.205	18253
580.261	13319
580.317	10468
580.374	10956
580.430	10190
580.486	10453
580.542	8707
580.598	9242
580.619	9569
580.654	10142
580.692	9904
580.710	9797
580.765	8587
580.767	8550
580.823	10242
580.838	10051
580.879	9577
580.911	9085
580.935	8730
580.984	9894
580.991	10058
581.047	9739
581.057	9836
581.103	10318
581.130	10537
581.159	10742
581.203	12051
581.215	12401
581.270	11611
581.276	11475
581.326	10227
581.349	10067
581.382	9862
581.422	10319
581.438	10499
581.494	10286
581.494	10281
581.550	10057
581.567	10220
581.606	10484
581.640	10086
581.661	9892
581.713	11601
581.717	11732
581.773	10327
581.786	10591
581.829	11476
581.859	10957
581.885	10557
581.932	12082
581.940	12353
581.996	12149
582.004	12202
582.052	12415
582.077	11989
582.107	11561
582.150	12228
582.163	12404
582.219	11336
582.223	11387
582.274	12020
582.296	11935
582.330	11837
582.368	12952
582.386	13455
582.441	12200
582.441	12197
582.497	13095
582.514	13016
582.552	12965
582.587	13694
582.608	14059
582.659	12895
582.663	12821
582.719	13881
582.732	13972
582.774	14076
582.805	14200
582.830	14414
582.877	14516
582.885	14518
582.941	14831
582.950	14913
582.996	15389
583.023	16051
583.052	16885
583.095	17144
583.107	17199
583.162	20014
583.168	20163
583.218	21181
583.240	20233
583.273	18772
583.313	17761
583.328	17389
583.384	16585
583.385	16591
583.439	16953
583.458	17056
583.494	17125
583.531	16690
583.549	16570
583.603	16772
583.605	16773
583.660	16432
583.676	16564
583.715	17116
583.748	17635
583.770	17916
583.820	18260
583.825	18290
583.881	18074
583.893	18154
583.936	18497
583.965	18438
583.991	18492
584.038	19066
584.046	19125
584.101	19262
584.110	19203
584.156	19227
584.183	19832
584.211	20391
584.255	20862
584.266	21000
584.321	20747
584.328	20823
584.376	21406
584.400	21454
584.431	21634
584.472	21850
584.486	21875
584.541	23056
584.545	23049
584.596	23488
584.617	23532
584.651	23662
584.689	24472
584.706	24703
584.761	24803
584.762	24790
584.816	25033
584.834	25356
584.871	26128
584.906	26610
584.926	26928
584.978	27275
584.980	27306
585.035	28092
585.051	28367
585.090	29050
585.123	29295
585.145	29534
585.195	30014
585.200	30119
585.254	31684
585.267	31821
585.309	32206
585.340	33296
585.364	34134
585.412	35050
585.419	35198
585.473	36295
585.484	36370
585.528	37668
585.556	39593
585.583	42118
585.628	46687
585.637	48543
585.692	63153
585.700	66125
585.747	78655
585.772	75188
585.801	63652
585.845	47763
585.856	45617
585.910	43101
585.917	42804
585.965	43279
585.989	43350
586.019	43648
586.061	44274
586.074	44699
586.128	47155
586.133	47135
586.183	46761
586.205	47208
586.237	48339
586.277	49236
586.292	49771
586.346	51298
586.349	51346
586.401	52905
586.421	53547
586.455	55069
586.493	56322
586.509	57198
586.564	60002
586.565	60013
586.618	64971
586.637	65966
586.672	65943
586.709	64701
586.727	64925
586.781	68518
586.781	68631
586.835	70211
586.853	71037
586.889	73118
586.925	74144
586.944	75092
586.996	78314
586.998	78542
587.052	82415
587.068	83496
587.106	86283
587.140	87887
587.161	89512
587.212	93965
587.215	94337
587.269	98253
587.284	99463
587.323	103341
587.356	106245
587.377	109222
587.427	115749
587.431	116434
587.485	123490
587.499	125165
587.539	130310
587.571	134100
587.593	137984
587.643	145483
587.648	146589
587.702	157331
587.715	159615
587.755	167853
587.786	173629
587.810	179484
587.858	191404
587.864	193275
587.917	209402
587.930	212814
587.971	226635
588.001	236103
588.025	246236
588.073	266061
588.079	269221
588.133	293692
588.145	298739
588.187	321858
588.217	337746
588.241	354267
588.288	386387
588.295	391881
588.348	433048
588.360	441014
588.402	479390
588.431	506983
588.456	535546
588.503	587462
588.510	596730
588.564	665146
588.575	678490
588.617	737593
588.646	776929
588.671	810925
588.718	871010
588.725	877276
588.778	910555
588.789	914245
588.832	870422
588.861	829147
588.886	756430
588.932	592128
588.939	582811
588.993	520300
589.004	521159
589.047	713843
589.075	837302
589.100	905979
589.147	1007624
589.154	1010672
589.207	1008183
589.218	1005728
589.261	985253
589.290	970564
589.314	970307
589.361	968471
589.368	969466
589.421	966203
589.433	963050
589.475	884218
589.504	815073
589.528	743211
589.576	585546
589.582	598973
589.635	766188
589.647	801571
589.689	914535
589.718	975769
589.742	954049
589.790	896771
589.795	889040
589.849	797839
589.861	774868
589.902	707205
589.932	655811
589.955	625369
590.004	558067
590.009	554024
590.062	496049
590.075	481071
590.115	449071
590.146	422597
590.168	408053
590.218	372282
590.222	370844
590.275	340624
590.289	331970
590.328	314527
590.360	298911
590.381	291351
590.431	270855
590.435	270580
590.488	253590
590.503	248333
590.541	238379
590.574	228299
590.594	223509
590.645	209686
590.647	209882
590.700	199336
590.716	195566
590.753	188672
590.787	181247
590.806	178797
590.859	170501
590.859	170860
590.912	162057
590.930	158746
590.965	155531
591.001	151459
591.018	150154
591.071	144810
591.072	144319
591.124	138751
591.143	136173
591.177	133028
591.214	128829
591.230	128214
591.283	125052
591.285	124530
591.336	120395
591.356	118350
591.389	116276
591.427	112857
591.442	112171
591.495	108254
591.498	107643
591.547	106772
591.569	105850
591.600	103984
591.640	100825
591.653	100567
591.706	97981
591.711	97405
591.759	95914
591.782	94717
591.811	94663
591.853	93718
591.864	93336
591.917	89942
591.924	89148
591.969	88088
591.995	87097
592.022	86700
592.066	85161
592.075	85272
592.127	84351
592.137	83897
592.180	82944
592.208	81799
592.233	80780
592.279	78159
592.285	78298
592.338	77291
592.350	76804
592.390	75292
592.421	73727
592.443	73530
592.491	72301
592.495	72521
592.548	72228
592.562	71903
592.600	71057
592.633	69891
592.653	69555
592.704	67702
592.705	68067
592.775	66742
592.846	64303
592.916	64578
592.987	63830
593.058	62536
593.128	61762
593.199	59905
593.270	58516
593.341	56755
593.411	55988
593.482	55879
593.553	55385
593.623	54470
593.694	54342
593.764	52165
593.835	51978
593.906	52106
593.976	50266
594.047	50069
594.117	50714
594.188	50394
594.258	49340
594.329	46585
594.399	48019
594.470	47875
594.540	46971
594.611	46003
594.681	45397
594.751	45727
594.822	44699
594.892	44453
594.963	45132
595.033	44021
595.103	43915
595.174	43682
595.244	47900
595.314	47420
595.384	43561
595.455	45306
595.525	43568
595.595	43831
595.665	44635
595.736	43494
595.806	43416
595.876	42669
595.946	42322
596.016	42953
596.087	43131
596.157	43134
596.227	42863
596.297	43548
596.367	42981
596.437	45160
596.507	46548
596.577	47164
596.647	44855
596.717	44684
596.787	44978
596.857	45167
596.927	43912
596.997	44758
597.067	44941
597.137	47900
597.207	46168
597.277	45666
597.347	43448
597.417	43270
597.487	44987
597.557	44147
597.626	43985
597.696	45770
597.766	45103
597.836	47319
597.906	42218
597.975	41843
598.045	42069
598.115	43649
598.185	43490
598.254	46328
598.324	48859
598.394	48680
598.464	47663
598.533	46922
598.603	45337
598.672	45054
598.742	45277
598.812	45993
598.881	46827
598.951	46340
599.020	46450
599.090	47109
599.159	47634
599.229	47925
599.299	45895
599.368	47614
599.437	47979
599.507	46610
599.576	46149
599.646	46739
599.715	47892
599.785	45771
599.854	44659
599.924	45822
599.993	45756
600.062	46795
600.132	47022
600.201	47891
600.270	52502
600.340	52750
600.409	52970
600.478	52035
600.547	53752
600.617	52308
600.686	49135
600.755	47711
600.824	46701
600.894	47724
600.963	47467
601.032	48301
601.101	47414
601.170	47434
601.239	47707
601.308	48784
601.378	49605
601.447	51278
601.516	50314
601.585	51514
601.654	51795
601.723	53741
601.792	54130
601.861	56216
601.930	60450
601.999	60441
602.068	59043
602.137	59016
602.206	59887
602.275	59245
602.343	61094
602.412	61755
602.481	60991
602.550	61522
602.619	62299
602.688	61217
602.756	62669
602.825	64220
602.894	64762
602.963	63245
603.032	63789
603.100	65235
603.169	63722
603.238	65619
603.307	63513
603.375	62855
603.444	65568
603.513	62245
603.581	62134
603.650	65442
603.719	56231
603.787	54016
603.856	54783
603.924	55692
603.993	56641
604.061	58110
604.130	59771
604.198	61100
604.267	62346
604.335	62913
604.404	62880
604.472	64210
604.541	64054
604.609	66741
604.678	67894
604.746	69346
604.815	71095
604.883	70015
604.951	68220
605.020	68746
605.088	64996
605.156	62356
605.225	62331
605.293	60966
605.361	61048
605.429	63269
605.498	63796
605.566	63039
605.634	64170
605.702	65227
605.771	64475
605.839	68750
605.907	63673
605.975	66840
606.043	63446
606.111	62245
606.180	66195
606.248	62656
606.316	61689
606.384	65863
606.452	54937
606.520	47407
606.588	46590
606.656	46414
606.724	45858
606.792	43934
606.860	42047
606.928	38704
606.996	37181
607.064	37249
607.132	37432
607.200	39649
607.267	40515
607.335	40630
607.403	42119
607.471	40515
607.539	39775
607.607	39928
607.674	35472
607.742	36052
607.810	35677
607.878	35388
607.946	35154
608.013	36980
608.081	36634
608.149	37929
608.216	38168
608.284	40136
608.352	37768
608.419	38270
608.487	40198
608.555	37054
608.622	38837
608.690	39640
608.757	40767
608.825	42818
608.893	40337
608.960	39438
609.028	39994
609.095	39963
609.163	38086
609.230	35413
609.298	33402
609.365	34490
609.432	37317
609.500	39499
609.567	43505
609.635	48001
609.702	48201
609.769	49178
609.837	39588
609.904	35512
609.971	34881
610.039	39634
610.106	45958
610.173	69604
610.241	132834
610.308	111531
610.375	63658
610.442	40573
610.509	36695
610.577	37868
610.644	36617
610.711	37665
610.778	38872
610.845	39502
610.912	41349
610.980	44807
611.047	47676
611.114	44370
611.181	40885
611.248	40173
611.315	42944
611.382	42829
611.449	44612
611.516	44130
611.583	44437
611.650	44539
611.717	45255
611.784	44849
611.851	47657
611.918	48917
611.984	53991
612.051	68678
612.118	117621
612.185	246810
612.252	180521
612.319	64801
612.386	54727
612.452	51531
612.519	50219
612.586	50803
612.653	50049
612.719	51809
612.786	50043
612.853	45928
612.919	45442
612.986	46058
613.053	42339
613.120	41779
613.186	41450
613.253	42304
613.319	40943
613.386	41026
613.453	41307
613.519	42027
613.586	41713
613.652	44597
613.719	42860
613.785	42786
613.852	42726
613.918	41910
613.985	43155
614.051	46094
614.118	52649
614.184	51294
614.250	42015
614.317	43011
614.383	40792
614.449	41673
614.516	42956
614.582	42621
614.648	42103
614.715	41903
614.781	40307
614.847	42444
614.914	41936
614.980	41344
615.046	42528
615.112	43764
615.179	44600
615.245	47679
615.311	56546
615.377	80340
615.443	88712
615.509	61752
615.575	51914
615.642	47211
615.708	49580
615.774	50866
615.840	56227
615.906	64554
615.972	89706
616.038	153435
616.104	218435
616.170	329629
616.236	291253
616.302	94943
616.368	66398
616.434	54961
616.500	51569
616.565	52192
616.631	55755
616.697	52647
616.763	52711
616.829	61480
616.895	86732
616.961	86418
617.026	56703
617.092	46991
617.158	45013
617.224	43996
617.289	41645
617.355	41208
617.421	41421
617.487	41796
617.552	39118
617.618	38501
617.684	38049
617.749	41000
617.815	38908
617.880	37820
617.946	37377
618.012	38160
618.077	39281
618.143	38454
618.208	39620
618.274	40383
618.339	40930
618.405	37117
618.470	36516
618.536	36611
618.601	36478
618.667	34893
618.732	34457
618.798	33359
618.863	33694
618.928	34061
618.994	34753
619.059	35392
619.124	34834
619.190	35404
619.255	33780
619.320	33767
619.386	33540
619.451	32560
619.516	33122
619.581	32809
619.647	34191
619.712	34756
619.777	33431
619.842	34351
619.907	34788
619.972	33657
620.038	34114
620.103	33713
620.168	33397
620.233	34525
620.298	33952
620.363	33808
620.428	35471
620.493	35716
620.558	34826
620.623	36289
620.688	35219
620.753	35073
620.818	34993
620.883	35356
620.948	36956
621.013	36681
621.078	34442
621.143	34584
621.207	37547
621.272	35794
621.337	36177
621.402	36848
621.467	37492
621.532	38597
621.596	36303
621.661	36565
621.726	35164
621.791	35707
621.855	35813
621.920	35754
621.985	36295
622.049	37708
622.114	37152
622.179	37777
622.243	38433
622.308	38913
622.373	39574
622.437	38946
622.502	37107
622.566	37754
622.631	35709
622.695	38160
622.760	38260
622.824	36989
622.889	36999
622.953	38206
623.018	41010
623.082	40389
623.147	37560
623.211	38560
623.276	37973
623.340	36202
623.404	35403
623.469	36535
623.533	36541
623.597	35954
623.662	36406
623.726	34829
623.790	33394
623.854	33489
623.919	33291
623.983	33334
624.047	33756
624.111	32927
624.176	33397
624.240	33358
624.304	35000
624.368	33324
624.432	33254
624.496	34960
624.560	35455
624.625	34992
624.689	34661
624.753	34590
624.817	33274
624.881	33378
624.945	32058
625.009	31561
625.073	31730
625.137	32116
625.201	33469
625.265	33779
625.329	32603
625.393	30466
625.456	31736
625.520	32698
625.584	33220
625.648	34894
625.712	36786
625.776	48391
625.839	50335
625.903	32870
625.967	28220
626.031	35428
626.095	39866
626.158	30243
626.222	25451
626.286	25027
626.349	23803
626.413	22419
626.477	24799
626.540	23706
626.604	22613
626.668	23669
626.731	22190
626.795	23547
626.858	22638
626.922	21881
626.986	21409
627.049	21062
627.113	22987
627.176	22323
627.240	21166
627.303	20732
627.366	21188
627.430	21237
627.493	20933
627.557	19847
627.620	22444
627.684	21363
627.747	20169
627.810	19330
627.874	19773
627.937	17655
628.000	20779
628.064	19718
628.127	16629
628.190	17402
628.253	16992
628.317	16319
628.380	17217
628.443	15976
628.506	16305
628.569	16382
628.632	14565
628.696	15575
628.759	15094
628.822	14657
628.885	14176
628.948	13863
629.011	15274
629.074	14142
629.137	14207
629.200	13566
629.263	15001
629.326	12680
629.389	13240
629.452	14701
629.515	13663
629.578	13629
629.641	14155
629.704	13326
629.767	13276
629.830	14018
629.892	13563
629.955	12377
630.018	14658
630.081	12324
630.144	12871
630.207	12774
630.269	13776
630.332	13275
630.395	12112
630.458	12268
630.520	12327
630.583	12686
630.646	12950
630.708	12727
630.771	11297
630.834	12994
630.896	11854
630.959	11769
631.021	12311
631.084	12173
631.146	11682
631.209	12841
631.272	11738
631.334	12105
631.397	12181
631.459	11595
631.522	12083
631.584	11772
631.646	11453
631.709	12106
631.771	11697
631.834	12166
631.896	11717
631.958	11368
632.021	12235
632.083	11002
632.145	11654
632.208	10850
632.270	12012
632.332	10514
632.395	10466
632.457	11581
632.519	10174
632.581	12130
632.643	10500
632.706	12579
632.768	9855
632.830	11081
632.892	11219
632.954	10363
633.016	12105
633.078	10461
633.141	10640
633.203	10823
633.265	11286
633.327	10767
633.389	9526
633.451	11719
633.513	10539
633.575	11963
633.637	10325
633.698	10824
633.760	11101
633.822	10887
633.884	10299
633.946	10566
634.008	11202
634.070	10891
634.132	12352
634.193	12491
634.255	12261
634.317	11390
634.379	11917
634.441	10120
634.502	10600
634.564	9888
634.626	10154
634.687	10317
634.749	10308
634.811	10491
634.873	9107
634.934	9261
634.996	9889
635.057	9539
635.119	9517
635.181	10138
635.242	10654
635.304	8789
635.365	11534
635.427	9420
635.488	9473
635.550	9229
635.611	9545
635.673	8390
635.734	10945
635.796	9635
635.857	11101
635.918	9107
635.980	10657
636.041	9947
636.102	10015
636.164	10173
636.225	11049
636.286	8669
636.348	9881
636.409	9264
636.470	8509
636.531	9705
636.593	9400
636.654	10012
636.715	9083
636.776	9082
636.838	8597
636.899	9993
636.960	8436
637.021	9161
637.082	9087
637.143	9474
637.204	8042
637.265	8010
637.326	9915
637.387	9286
637.448	8167
637.509	9022
637.570	8707
637.631	9632
637.692	8257
637.753	7993
637.814	8493
637.875	9136
637.936	8523
637.997	8291
638.058	8391
638.119	9330
638.179	8710
638.240	7640
638.301	8993
638.362	7756
638.423	8415
638.483	10270
638.544	7182
638.605	8829
638.666	7624
638.726	9226
638.787	9400
638.848	7619
638.908	8080
638.969	7905
639.030	8126
639.090	8020
639.151	7222
639.211	8213
639.272	8439
639.332	9464
639.393	8310
639.453	7209
639.514	8232
639.574	8593
639.635	7850
639.695	7738
639.756	6746
639.816	8473
639.877	7473
639.937	9116
639.997	9531
640.058	6496
640.118	7090
640.178	7957
640.239	7149
640.299	8317
640.359	7380
640.420	6892
640.480	8036
640.540	8837
640.600	6940
640.661	7750
640.721	7160
640.781	9768
640.841	7201
640.901	8771
640.961	7518
641.021	7524
641.082	7196
641.142	8419
641.202	8136
641.262	6224
641.322	8409
641.382	6745
641.442	7363
641.502	7406
641.562	7394
641.622	6949
641.682	7204
641.742	7523
641.802	7892
641.861	8401
641.921	6733
641.981	7484
642.041	7440
642.101	6982
642.161	5676
642.221	7163
642.280	6519
642.340	6259
642.400	5074
642.460	7025
642.519	6211
642.579	6772
642.639	7977
642.698	4699
642.758	8972
642.818	6953
642.877	5898
642.937	6566
642.997	7583
643.056	8093
643.116	5272
643.175	9423
643.235	6959
643.294	6990
643.354	6582
643.414	7671
643.473	8575
643.532	8645
643.592	9396
643.651	14003
643.711	21226
643.770	37566
643.830	81835
643.889	169272
643.948	46307
644.008	11466
644.067	8595
644.126	6994
644.186	7706
644.245	6850
644.304	5195
644.363	8211
644.423	5357
644.482	6992
644.541	7347
644.600	5158
644.659	7578
644.719	7230
644.778	9544
644.837	11269
644.896	20736
644.955	40260
645.014	18108
645.073	9082
645.132	6411
645.191	6734
645.250	6326
645.309	7817
645.368	6106
645.427	8337
645.486	7937
645.545	12167
645.604	6466
645.663	6389
645.722	5740
645.781	7361
645.840	6957
645.898	6997
645.957	9931
646.016	10719
646.075	20295
646.134	33415
646.192	81475
646.251	118394
646.310	22220
646.369	9286
646.427	8910
646.486	5862
646.545	6415
646.603	6404
646.662	6289
646.721	6409
646.779	5257
646.838	5291
646.896	7032
646.955	7286
647.014	8520
647.072	12249
647.131	25801
647.189	15685
647.248	4915
647.306	5882
647.365	5871
647.423	3600
647.481	6281
647.540	3239
647.598	5214
647.657	5171
647.715	5527
647.773	4916
647.832	5982
647.890	3862
647.948	4906
648.007	6168
648.065	3966
648.123	4172
648.181	6760
648.240	6649
648.298	4892
648.356	4645
648.414	5128
648.472	5481
648.531	5043
648.589	5729
648.647	4613
648.705	5261
648.763	4864
648.821	5034
648.879	4065
648.937	4696
648.995	5581
649.053	5898
649.111	7648
649.169	9507
649.227	14553
649.285	25804
649.343	69509
649.401	35006
649.459	9771
649.516	8013
649.574	5215
649.632	9959
649.690	11076
649.748	7753
649.806	8875
649.863	14777
649.921	19431
649.979	13424
650.037	5984
650.094	3095
650.152	4559
650.210	3854
650.268	5332
650.325	5079
650.383	4271
650.440	3916
650.498	4408
650.556	4122
650.613	3449
650.671	4867
650.728	4030
650.786	4658
650.843	3646
650.901	2330
650.958	4154
651.016	4064
651.073	3379
651.131	3605
651.188	3423
651.246	3829
651.303	2980
651.360	4262
651.418	3558
651.475	4344
651.532	1962
651.590	4278
651.647	2858
651.704	3198
651.762	2334
651.819	4105
651.876	2888
651.933	3539
651.990	3899
652.048	2849
652.105	3076
652.162	3396
652.219	3511
652.276	3216
652.333	4212
652.390	3315
652.448	3526
652.505	3704
652.562	2992
652.619	3415
652.676	5946
652.733	6462
652.790	3771
652.847	1664
652.904	3961
652.961	2840
653.017	3085
653.074	3957
653.131	2827
653.188	2667
653.245	3227
653.302	3407
653.359	3080
653.415	4675
653.472	3079
653.529	4150
653.586	2579
653.642	2834
653.699	3485
653.756	2582
653.813	2428
653.869	3419
653.926	2447
653.983	2316
654.039	3315
654.096	3008
654.152	3222
654.209	2541
654.266	4182
654.322	2534
654.379	3846
654.435	3410
654.492	2205
654.548	3170
654.605	4380
654.661	4326
654.717	3061
654.774	3362
654.830	3120
654.887	2899
654.943	2888
655.000	3257
655.056	3807
655.112	3584
655.168	1638
655.225	2436
655.281	2977
655.337	2993
655.394	4567
655.450	3420
655.506	2727
655.562	3452
655.618	4460
655.675	2270
655.731	3554
655.787	2610
655.843	3293
655.899	2051
655.955	3540
656.011	3648
656.067	2420
656.123	2710
656.179	3045
656.235	4170
656.291	1659
656.347	3716
656.403	2494
656.459	3213
656.515	3072
656.571	2843
656.627	2610
656.683	3343
656.739	3573
656.795	3003
656.850	3495
656.906	3127
656.962	3559
657.018	2396
657.074	3022
657.129	2907
657.185	4301
657.241	4467
657.297	3018
657.352	3758
657.408	2680
657.464	3382
657.519	2640
657.575	2361
657.630	2203
657.686	2850
657.742	2479
657.797	2779
657.853	2250
657.908	3469
657.964	2171
658.019	3765
658.075	2903
658.130	2946
658.186	1855
658.241	2691
658.297	2176
658.352	1938
658.407	2940
658.463	2307
658.518	2496
658.573	3511
658.629	2178
658.684	2482
658.739	3431
658.795	1925
658.850	2060
658.905	2008
658.960	3241
659.016	2068
659.071	2129
659.126	3028
659.181	2491
659.236	3781
659.291	3425
659.346	2663
659.401	3695
659.457	4208
659.512	4649
659.567	3887
659.622	2818
659.677	2435
659.732	1897
659.787	2739
659.842	3282
659.897	3862
659.952	3155
660.007	3217
660.061	2191
660.116	2205
660.171	1897
660.226	2182
660.281	3168
660.336	2523
660.391	3460
660.445	1992
660.500	3158
660.555	2458
660.610	2285
660.664	2945
660.719	1427
660.774	2036
660.828	3577
660.883	2314
660.938	2441
660.992	1113
661.047	2828
661.101	2285
661.156	1963
661.211	2433
661.265	2532
661.320	2364
661.374	2239
661.429	1257
661.483	2840
661.538	1610
661.592	2379
661.647	2012
661.701	2560
661.755	1896
661.810	2172
661.864	1995
661.919	1978
661.973	3273
662.027	2135
662.081	1385
662.136	1712
662.190	2954
662.244	2613
662.299	2668
662.353	2883
662.407	3013
662.461	2762
662.515	2903
662.569	2041
662.624	3403
662.678	1395
662.732	2679
662.786	2271
662.840	1922
662.894	2257
662.948	3131
663.002	2015
663.056	2005
663.110	1693
663.164	1883
663.218	2053
663.272	2275
663.326	2898
663.380	1961
663.434	2409
663.488	2024
663.542	2888
663.595	2196
663.649	2123
663.703	2482
663.757	1973
663.811	1753
663.864	1587
663.918	2508
663.972	1849
664.026	1713
664.079	2205
664.133	2658
664.187	1314
664.240	2236
664.294	2277
664.348	2702
664.401	1799
664.455	2830
664.508	1634
664.562	3460
664.615	2423
664.669	1682
664.722	2350
664.776	2197
664.829	2508
664.883	2032
664.936	1578
664.990	2006
665.043	1484
665.097	2743
665.150	3691
665.203	2346
665.257	1770
665.310	2321
665.363	2586
665.417	2747
665.470	2430
665.523	2218
665.576	2326
665.630	2125
665.683	2125
665.736	2751
665.789	2080
665.842	1616
665.895	1953
665.949	2638
666.002	1973
666.055	1992
666.108	3358
666.161	2528
666.214	2673
666.267	1877
666.320	2810
666.373	2584
666.426	1510
666.479	1920
666.532	2121
666.585	1949
666.638	2194
666.691	1676
666.744	2300
666.796	2141
666.849	1794
666.902	2123
666.955	2500
667.008	2455
667.060	2113
667.113	1978
667.166	2366
667.219	2667
667.271	2055
667.324	1919
667.377	1570
667.430	2803
667.482	2413
667.535	2859
667.587	3170
667.640	2760
667.693	1828
667.745	2429
667.798	2751
667.850	2575
667.903	2648
667.955	2249
668.008	2081
668.060	2177
668.113	1706
668.165	2979
668.218	2851
668.270	2442
668.322	2228
668.375	1910
668.427	2642
668.479	2667
668.532	2810
668.584	2960
668.636	2153
668.689	2989
668.741	1936
668.793	2303
668.845	1698
668.898	2991
668.950	2170
669.002	2247
669.054	2172
669.106	1694
669.158	2687
669.211	3035
669.263	2106
669.315	2990
669.367	3713
669.419	1542
669.471	3426
669.523	2081
669.575	2955
669.627	2075
669.679	2055
669.731	1930
669.783	2999
669.835	2851
669.886	2327
669.938	2808
669.990	2006
670.042	1731
670.094	2290
670.146	2993
670.197	3984
670.249	4574
670.301	4119
670.353	6505
670.404	9417
670.456	12561
670.508	20013
670.560	31984
670.611	53945
670.663	94460
670.715	201964
670.766	301583
670.818	110763
670.869	23743
670.921	11467
670.972	9340
671.024	5870
671.075	4797
671.127	4686
671.178	3814
671.230	3767
671.281	2641
671.333	2438
671.384	2988
671.436	3131
671.487	3547
671.538	2994
671.590	3838
671.641	4973
671.692	6187
671.744	10219
671.795	8269
671.846	4669
671.897	2260
671.949	2854
672.000	3169
672.051	2069
672.102	3069
672.153	2640
672.204	2942
672.256	2141
672.307	2026
672.358	1987
672.409	1871
672.460	1855
672.511	1193
672.562	1933
672.613	2123
672.664	2003
672.715	1835
672.766	1793
672.817	2125
672.868	1740
672.919	1668
672.970	1511
673.021	1447
673.071	1232
673.122	1818
673.173	1538
673.224	1937
673.275	1740
673.326	1731
673.376	2143
673.427	1164
673.478	1260
673.528	2146
673.579	1328
673.630	2222
673.680	2249
673.731	1662
673.782	1417
673.832	2100
673.883	1787
673.934	1918
673.984	1898
674.035	1659
674.085	1751
674.136	2387
674.186	1617
674.237	1585
674.287	2196
674.338	2267
674.388	1235
674.438	1647
674.489	973
674.539	2052
674.589	1392
674.640	1189
674.690	1731
674.740	1584
674.791	1750
674.841	1362
674.891	1560
674.942	1125
674.992	1020
675.042	1627
675.092	929
675.142	1544
675.193	590
675.243	1223
675.293	1083
675.343	1038
675.393	896
675.443	1914
675.493	1135
675.543	1927
675.593	1541
675.643	1883
675.693	1294
675.743	1636
675.793	1150
675.843	412
675.893	1546
675.943	1363
675.993	1395
676.043	1059
676.093	1771
676.142	1641
676.192	1243
676.242	1928
676.292	878
676.341	1836
676.391	780
676.441	886
676.491	994
676.540	769
676.590	1148
676.640	517
676.689	748
676.739	658
676.789	1282
676.838	1299
676.888	1754
676.937	1158
676.987	1659
677.037	1437
677.086	-130
677.136	1401
677.185	917
677.235	1504
677.284	1153
677.333	791
677.383	804
677.432	621
677.482	771
677.531	1362
677.580	299
677.630	471
677.679	789
677.728	997
677.778	1886
677.827	1112
677.876	776
677.925	1421
677.975	1011
678.024	1210
678.073	1299
678.122	1881
678.171	923
678.220	1278
678.269	1657
678.319	864
678.368	1157
678.417	1572
678.466	1065
678.515	784
678.564	1119
678.613	1188
678.662	685
678.711	1020
678.760	1540
678.809	1294
678.857	1360
678.906	1389
678.955	600
679.004	1743
679.053	1046
679.102	1870
679.151	1131
679.199	1178
679.248	1418
679.297	533
679.346	1023
679.394	1041
679.443	1834
679.492	1079
679.540	726
679.589	1265
679.638	750
679.686	2007
679.735	1130
679.784	373
679.832	1331
679.881	485
679.929	1215
679.978	765
680.026	757
680.075	1479
680.123	1038
680.172	914
680.220	477
680.268	744
680.317	291
680.365	728
680.414	758
680.462	1563
680.510	1224
680.559	1024
680.607	930
680.655	391
680.703	640
680.752	1405
680.800	626
680.848	1121
680.896	167
680.945	321
680.993	509
681.041	856
681.089	879
681.137	1232
681.185	4
681.233	561
681.258	826
681.281	1062
681.329	886
681.377	1357
681.380	1391
681.425	1761
681.473	266
681.502	865
681.521	1242
681.569	782
681.617	1061
681.624	1038
681.665	794
681.713	2122
681.745	1350
681.761	948
681.809	694
681.857	1289
681.867	1168
681.904	695
681.952	1465
681.989	1288
682.000	1219
682.048	906
682.096	1332
682.111	1228
682.143	930
682.191	1065
682.233	1597
682.239	1668
682.286	1045
682.334	1075
682.354	1305
682.382	1587
682.430	1408
682.476	1025
682.477	1001
682.525	1538
682.572	1683
682.598	1065
682.620	527
682.667	1658
682.715	1341
682.720	1425
682.763	2062
682.810	1516
682.841	1723
682.857	1827
682.905	1448
682.952	2469
682.963	2286
683.000	1511
683.047	1841
683.085	2426
683.095	2578
683.142	1624
683.190	1817
683.206	1608
683.237	1232
683.284	1171
683.328	1763
683.332	1794
683.379	1699
683.426	1630
683.449	1690
683.473	1773
683.521	1739
683.568	1838
683.571	1849
683.615	1777
683.662	2215
683.693	2122
683.709	2030
683.757	1949
683.804	1861
683.814	1815
683.851	1702
683.898	1916
683.936	2048
683.945	2055
683.992	2665
684.039	1988
684.057	2171
684.086	2438
684.133	1769
684.179	1913
684.180	1909
684.227	2546
684.274	2633
684.300	2496
684.321	2349
684.368	2261
684.415	2677
684.422	2673
684.462	2667
684.509	2376
684.543	2593
684.556	2658
684.603	2756
684.649	2378
684.665	2371
684.696	2327
684.743	2643
684.786	3385
684.790	3436
684.837	3002
684.883	2871
684.908	2924
684.930	2958
684.977	3567
685.023	3149
685.029	3153
685.070	3119
685.117	3239
685.150	3086
685.164	3062
685.210	3610
685.257	3571
685.272	3692
685.303	3703
685.350	3439
685.393	3333
685.396	3334
685.443	4173
685.490	3335
685.514	3283
685.536	3235
685.583	3531
685.629	3571
685.636	3592
685.675	3559
685.722	3683
685.757	3544
685.768	3522
685.815	3990
685.861	3662
685.878	3618
685.908	3485
685.954	3598
686.000	3869
686.000	3874
686.047	3781
686.093	4495
686.121	4778
686.139	4778
686.185	3692
686.232	4313
686.242	4247
686.278	4125
686.324	3959
686.363	3674
686.370	3627
686.416	4189
686.463	4449
686.484	4312
686.509	4153
686.555	3770
686.601	3739
686.606	3783
686.647	4069
686.693	4021
686.727	3999
686.739	4037
686.785	4359
686.831	4223
686.848	4511
686.877	4877
686.923	3592
686.969	3721
686.969	3722
687.015	3731
687.061	4307
687.090	4377
687.107	4365
687.153	4731
687.199	4080
687.211	4147
687.245	4407
687.291	4095
687.332	4791
687.336	4857
687.382	4375
687.428	4469
687.453	4634
687.474	4709
687.520	4933
687.565	5044
687.574	4886
687.611	4510
687.657	4716
687.695	4993
687.702	5040
687.748	4959
687.794	5778
687.816	5735
687.839	5443
687.885	5282
687.931	4547
687.937	4465
687.976	4272
688.022	4726
688.058	4645
688.067	4646
688.113	4337
688.158	4662
688.179	4686
688.204	4627
688.249	4842
688.295	4354
688.300	4343
688.340	4585
688.386	5125
688.421	5408
688.431	5397
688.477	4907
688.522	5165
688.542	5115
688.567	5182
688.613	5271
688.658	4869
688.663	4900
688.703	5278
688.749	5137
688.784	5382
688.794	5435
688.839	5175
688.884	5599
688.905	5478
688.930	5224
688.975	4901
689.020	5623
689.026	5511
689.065	5091
689.110	5468
689.146	5596
689.155	5601
689.201	5959
689.246	5924
689.267	5866
689.291	5764
689.336	5504
689.381	5479
689.388	5412
689.426	5143
689.471	5149
689.509	5064
689.516	5057
689.561	5397
689.606	5898
689.630	5571
689.651	5349
689.696	5413
689.741	5526
689.750	5505
689.785	5463
689.830	5871
689.871	5650
689.875	5621
689.920	5828
689.965	5499
689.992	5581
690.010	5764
690.054	5989
690.099	6194
690.112	6268
690.144	6159
690.189	5567
690.233	5659
690.233	5670
690.278	5541
690.323	5862
690.354	5778
690.367	5772
690.412	6464
690.457	6204
690.474	6472
690.501	6825
690.546	6674
690.590	7039
690.595	6982
690.635	6787
690.680	7454
690.716	7484
690.724	7575
690.769	8356
690.813	9279
690.836	9605
690.857	10586
690.902	13061
690.946	15704
690.957	16385
690.991	22253
691.035	30686
691.077	37681
691.080	37717
691.124	35889
691.168	33304
691.198	32046
691.213	29638
691.257	22960
691.301	16206
691.318	13630
691.346	12617
691.390	10734
691.434	9123
691.439	8929
691.478	8658
691.522	8425
691.559	7839
691.567	7766
691.611	7825
691.655	7493
691.680	7251
691.699	7129
691.743	7465
691.787	6889
691.800	6875
691.831	7008
691.875	6860
691.919	7310
691.921	7286
691.964	7031
692.008	7081
692.041	7149
692.052	7163
692.096	7187
692.139	7531
692.162	7324
692.183	7064
692.227	6717
692.271	6656
692.282	6536
692.315	6492
692.359	7079
692.402	7021
692.403	7036
692.447	7515
692.490	7687
692.523	8018
692.534	8068
692.578	7701
692.622	7640
692.643	7565
692.666	7474
692.709	7376
692.753	6981
692.763	6964
692.797	7332
692.840	7638
692.884	7552
692.884	7567
692.928	7868
692.971	8055
693.004	7889
693.015	7847
693.059	8008
693.102	7950
693.124	7853
693.146	7946
693.189	8171
693.233	8618
693.245	8689
693.276	9012
693.320	9618
693.363	9601
693.365	9604
693.407	10459
693.450	10981
693.485	11387
693.493	11799
693.537	14235
693.580	16307
693.605	17511
693.624	19906
693.667	25842
693.710	31571
693.725	33793
693.753	44918
693.797	62773
693.840	80706
693.845	82419
693.883	78495
693.926	72927
693.966	69247
693.970	67854
694.013	52070
694.056	36462
694.086	25582
694.099	24317
694.142	20387
694.185	16369
694.206	14330
694.229	13673
694.272	12841
694.315	11766
694.326	11479
694.358	11075
694.401	10306
694.444	9732
694.446	9669
694.487	9447
694.530	9435
694.566	9411
694.573	9403
694.616	8987
694.659	8981
694.686	8656
694.702	8547
694.745	8496
694.787	8216
694.806	8126
694.830	8083
694.873	8279
694.916	8065
694.926	7993
694.959	7789
695.002	7657
695.044	7459
695.046	7433
695.087	7741
695.130	8087
695.166	8298
695.172	8312
695.215	8254
695.258	8315
695.286	8087
695.301	8034
695.343	8313
695.386	8507
695.406	8421
695.428	8319
695.471	8331
695.514	8303
695.526	8268
695.556	8369
695.599	8580
695.641	8557
695.646	8553
695.684	8608
695.726	8551
695.766	8631
695.769	8641
695.811	8385
695.854	8087
695.886	7830
695.896	7878
695.938	7978
695.981	7997
696.005	8054
696.023	8142
696.065	8302
696.108	8401
696.125	8477
696.150	8525
696.192	8367
696.235	8492
696.245	8444
696.277	8456
696.319	8468
696.361	8520
696.365	8509
696.404	8772
696.446	9014
696.485	9042
696.488	9082
696.530	9314
696.572	9740
696.604	9965
696.614	9871
696.656	9284
696.698	8831
696.724	8534
696.740	8604
696.783	8521
696.825	8725
696.844	8653
696.867	8585
696.909	8646
696.951	8544
696.964	8537
696.992	8561
697.034	8473
697.076	8391
697.083	8355
697.118	8435
697.160	8535
697.202	8578
697.203	8556
697.244	8431
697.286	8292
697.323	8135
697.327	8188
697.369	8418
697.411	8712
697.442	8863
697.453	8821
697.494	8566
697.536	8372
697.562	8194
697.578	8274
697.620	8417
697.661	8603
697.682	8631
697.703	8593
697.744	8523
697.786	8511
697.801	8465
697.828	8714
697.869	9034
697.911	9434
697.921	9482
697.952	9277
697.994	9033
698.035	8769
698.040	8719
698.077	8749
698.118	8672
698.160	8617
698.160	8592
698.201	8762
698.243	8924
698.279	9053
698.284	9072
698.325	9019
698.367	8934
698.399	8822
698.408	8880
698.449	9073
698.491	9270
698.518	9348
698.532	9350
698.573	9311
698.614	9263
698.638	9211
698.656	9328
698.697	9531
698.738	9749
698.757	9822
698.779	9782
698.820	9670
698.862	9537
698.877	9468
698.903	9838
698.944	10381
698.985	10924
698.996	11048
699.026	10657
699.067	10076
699.116	9358
699.235	9485
699.354	8767
699.474	8627
699.593	9381
699.713	9804
699.832	9173
699.951	9616
700.070	9671
700.190	8908
700.309	8752
700.428	8848
700.547	7909
700.667	7971
700.786	8143
700.905	9137
701.024	8618
701.143	8551
701.262	8049
701.381	8354
701.500	8300
701.619	9148
701.738	8903
701.857	8377
701.976	8228
702.095	8486
702.214	8920
702.333	8482
702.452	9000
702.571	7972
702.690	8197
702.809	8212
702.928	8054
703.047	8086
703.165	8433
703.284	7594
703.403	8089
703.522	8091
703.640	8815
703.759	8711
703.878	10262
703.997	7657
704.115	6927
704.234	8306
704.353	8003
704.471	7952
704.590	7596
704.708	8200
704.827	8663
704.946	7673
705.064	7686
705.183	7825
705.301	8397
705.420	11231
705.538	10748
705.656	9312
705.775	10661
705.893	15553
706.012	20959
706.130	10003
706.249	9811
706.367	10047
706.485	9889
706.604	9821
706.722	9046
706.840	10703
706.958	11708
707.077	10628
707.195	9232
707.313	9068
707.431	8637
707.549	8144
707.668	7342
707.786	9563
707.904	7770
708.022	9132
708.140	9573
708.258	8514
708.376	7614
708.494	8242
708.612	8709
708.730	11815
708.848	10324
708.966	10039
709.084	10018
709.202	9675
709.320	9959
709.438	9575
709.556	9857
709.674	10131
709.791	10873
709.909	9181
710.027	9623
710.145	9145
710.263	9732
710.380	9229
710.498	9318
710.616	9437
710.733	9356
710.851	9269
710.969	9246
711.086	9006
711.204	8749
711.322	9436
711.439	8792
711.557	8821
711.674	8829
711.792	9296
711.909	9690
712.027	10124
712.144	8746
712.262	9035
712.379	9120
712.497	11355
712.614	12912
712.732	10735
712.849	10129
712.966	10121
713.084	10163
713.201	10434
713.318	10383
713.436	10254
713.553	10839
713.670	10099
713.787	10510
713.905	11021
714.022	10242
714.139	9445
714.256	11269
714.373	12555
714.490	16149
714.608	31130
714.725	113390
714.842	139482
714.959	16650
715.076	10744
715.193	10049
715.310	9962
715.427	9950
715.544	8554
715.661	9386
715.778	9362
715.895	10686
716.011	10210
716.128	9193
716.245	9105
716.362	8682
716.479	9407
716.596	9333
716.713	9000
716.829	8996
716.946	9336
717.063	8224
717.180	9202
717.296	8025
717.413	8550
717.530	8752
717.646	7377
717.763	8343
717.880	7137
717.996	8098
718.113	7904
718.229	7464
718.346	7431
718.462	7952
718.579	8885
718.695	8909
718.812	8168
718.928	9638
719.045	7587
719.161	7490
719.277	8103
719.394	8259
719.510	7784
719.626	8738
719.743	7877
719.859	8785
719.975	12575
720.092	31730
720.208	76917
720.324	14983
720.440	9194
720.557	7799
720.673	9358
720.789	11185
720.905	19276
721.021	9794
721.137	8680
721.253	7838
721.369	7943
721.486	7465
721.602	9633
721.718	7404
721.834	7282
721.950	7096
722.066	6209
722.181	6537
722.297	7011
722.413	7349
722.529	7682
722.645	6851
722.761	6407
722.877	6370
722.993	6265
723.108	6608
723.224	6698
723.340	6907
723.456	6874
723.571	6540
723.687	5980
723.803	6948
723.918	5460
724.034	5943
724.150	6628
724.265	6635
724.381	8812
724.497	10825
724.612	6432
724.728	6247
724.843	6438
724.959	6154
725.074	8420
725.190	10420
725.305	6205
725.421	6890
725.536	6311
725.651	5645
725.767	5627
725.882	5582
725.997	5737
726.113	7336
726.228	5814
726.343	6272
726.459	5349
726.574	5287
726.689	5035
726.804	5763
726.920	5530
727.035	5969
727.150	5574
727.265	5261
727.380	6078
727.495	6118
727.610	5212
727.725	5668
727.841	6532
727.956	10638
728.071	9228
728.186	5892
728.301	4632
728.416	5507
728.531	5401
728.645	5305
728.760	5057
728.875	4653
728.990	4830
729.105	5385
729.220	5118
729.335	5510
729.449	5516
729.564	5056
729.679	5340
729.794	4467
729.908	5200
730.023	4960
730.138	5646
730.253	4902
730.367	4443
730.482	5522
730.596	4459
730.711	4952
730.826	5765
730.940	5575
731.055	5732
731.169	5269
731.284	4113
731.398	4818
731.513	6060
731.627	5126
731.742	5684
731.856	6622
731.970	4894
732.085	6142
732.199	6241
732.313	8883
732.428	13699
732.542	34204
732.656	22400
732.771	6744
732.885	5258
732.999	5976
733.113	6306
733.227	5991
733.342	4870
733.456	4716
733.570	4943
733.684	5018
733.798	5455
733.912	5276
734.026	4430
734.140	4891
734.254	5505
734.368	6548
734.482	7183
734.596	5246
734.710	5618
734.824	4909
734.938	4560
735.052	4325
735.166	4810
735.280	5507
735.393	5095
735.507	4732
735.621	4633
735.735	7573
735.849	5643
735.962	4158
736.076	5419
736.190	4458
736.303	5396
736.417	6511
736.531	4741
736.644	4770
736.758	4334
736.872	4414
736.985	4911
737.099	4821
737.212	4511
737.326	4880
737.439	5207
737.553	4597
737.666	4398
737.780	4113
737.893	4939
738.007	4476
738.120	4807
738.233	5412
738.347	3842
738.460	4427
738.573	3899
738.687	4019
738.800	5305
738.913	4532
739.026	4536
739.140	5052
739.253	4514
739.366	4587
739.479	4222
739.592	3941
739.705	4028
739.818	3345
739.932	4335
740.045	4778
740.158	4013
740.271	4712
740.384	3917
740.497	4364
740.610	5299
740.723	4143
740.836	4339
740.949	3968
741.062	4156
741.174	4601
741.287	3863
741.400	4455
741.513	4614
741.626	4531
741.739	3725
741.851	3731
741.964	4799
742.077	4821
742.189	3682
742.302	4811
742.415	4559
742.527	4754
742.640	4651
742.753	4889
742.865	3680
742.978	3709
743.090	4586
743.203	4534
743.316	3672
743.428	4129
743.541	4394
743.653	3732
743.766	4222
743.878	4177
743.990	4358
744.103	4520
744.215	3519
744.327	4281
744.440	4237
744.552	4950
744.664	3422
744.777	3450
744.889	4041
745.001	5104
745.113	3273
745.226	3890
745.338	3945
745.450	4050
745.562	4360
745.674	3050
745.786	4458
745.898	3919
746.010	4551
746.122	3474
746.234	4136
746.347	4409
746.459	4099
746.570	4102
746.682	5189
746.794	4615
746.906	3968
747.018	3437
747.130	3544
747.242	3895
747.354	4294
747.466	4526
747.577	4044
747.689	4123
747.801	3858
747.913	4039
748.024	3995
748.136	3365
748.248	4381
748.359	4501
748.471	4056
748.583	3836
748.694	3942
748.806	4564
748.918	4088
749.029	4960
749.141	4349
749.252	5016
749.364	4197
749.475	4806
749.587	4000
749.698	3939
749.809	4624
749.921	4398
750.032	4062
750.144	3273
750.255	3263
750.366	3559
750.478	4281
750.589	4777
750.700	3885
750.811	4986
750.923	4858
751.034	4599
751.145	5202
751.256	4028
751.367	4849
751.479	4516
751.590	3542
751.701	4190
751.812	3936
751.923	4473
752.034	4193
752.145	4128
752.256	2919
752.367	4482
752.478	4284
752.589	3749
752.700	3730
752.811	3865
752.922	4041
753.032	4022
753.143	4299
753.254	4495
753.365	3600
753.476	4660
753.586	4377
753.697	3662
753.808	4415
753.919	3790
754.029	4473
754.140	3857
754.251	3769
754.361	4113
754.472	4484
754.582	3948
754.693	4843
754.804	4835
754.914	4311
755.025	4182
755.135	4123
755.246	4299
755.356	4125
755.466	5296
755.577	4517
755.687	3962
755.798	3885
755.908	4655
756.018	4329
756.129	4218
756.239	4124
756.349	4629
756.460	4374
756.570	4640
756.680	4260
756.790	5238
756.900	4192
757.011	4549
757.121	5237
757.231	4757
757.341	5154
757.451	4475
757.561	4347
757.671	4690
757.781	4406
757.891	6107
758.001	4845
758.111	5029
758.221	5728
758.331	4930
758.441	5252
758.551	5487
758.661	5278
758.771	5750
758.880	5301
758.990	5306
759.100	5408
759.210	5810
759.320	5399
759.429	6691
759.539	5410
759.649	6055
759.758	5546
759.868	5832
759.978	5933
760.087	6704
760.197	6806
760.307	7546
760.416	6066
760.526	6453
760.635	7234
760.745	6725
760.854	7760
760.964	7675
761.073	7091
761.182	8240
761.292	8439
761.401	8320
761.511	8559
761.620	8865
761.729	8116
761.839	8187
761.948	8865
762.057	8854
762.166	9310
762.276	8954
762.385	10543
762.494	10382
762.603	9767
762.712	10989
762.822	11151
762.931	11081
763.040	11587
763.149	12091
763.258	12982
763.367	13149
763.476	14215
763.585	14704
763.694	16495
763.803	16415
763.912	17426
764.021	17888
764.130	19651
764.238	20894
764.347	22287
764.456	24646
764.565	26680
764.674	28259
764.783	30050
764.891	33358
765.000	37762
765.109	43310
765.217	49582
765.326	58848
765.435	69547
765.543	83758
765.652	106446
765.761	136848
765.869	185269
765.978	262146
766.086	381797
766.195	559004
766.303	729115
766.412	601419
766.520	627947
766.629	681694
766.737	493300
766.846	333609
766.954	231955
767.062	172234
767.171	131529
767.279	104416
767.387	83726
767.496	69854
767.604	61535
767.712	53294
767.820	46244
767.928	44202
768.037	39989
768.145	37975
768.253	36794
768.361	34530
768.469	34850
768.577	34567
768.685	37096
768.793	39856
768.901	43342
769.009	50219
769.117	61562
769.225	78268
769.333	109548
769.441	164886
769.549	268931
769.657	456747
769.765	650119
769.873	572277
769.981	595680
770.088	394546
770.196	236919
770.304	155093
770.412	111696
770.519	85885
770.627	67271
770.735	55703
770.842	45976
770.950	39723
771.058	34105
771.165	30962
771.273	28498
771.380	24761
771.488	23335
771.595	21026
771.703	19564
771.810	19276
771.918	17028
772.025	16071
772.133	15228
772.240	14916
772.348	14280
772.455	13749
772.562	12707
772.670	12275
772.777	11399
772.884	11044
772.991	11355
773.099	10393
773.206	9872
773.313	10004
773.420	9343
773.528	9096
773.635	8442
773.742	9972
773.849	8930
773.956	8600
774.063	8580
774.170	7817
774.277	8535
774.384	8125
774.491	6745
774.598	6702
774.705	6648
774.812	6839
774.919	6326
775.026	6823
775.133	6429
775.239	6715
775.346	5935
775.453	6058
775.560	5503
775.667	5895
775.773	5855
775.880	6484
775.987	5997
776.093	5567
776.200	5299
776.307	5418
776.413	6189
776.520	4749
776.627	5386
776.733	5921
776.840	3891
776.946	6593
777.053	4764
777.159	5456
777.266	3485
777.372	5037
777.478	5469
777.585	5319
777.691	5011
777.798	4261
777.904	4309
778.010	5226
778.117	4674
778.223	5011
778.329	3589
778.435	4032
778.542	4400
778.648	4993
778.754	3467
778.860	4488
778.966	4557
779.072	4202
779.178	4505
779.284	4359
779.391	4498
779.497	4425
779.603	8123
779.708	10675
779.815	26832
779.920	94260
780.026	134123
780.132	21148
780.238	6501
780.344	5413
780.450	4584
780.556	4284
780.661	3212
780.767	3824
780.873	3678
780.979	3580
781.085	2952
781.190	3118
781.296	2751
781.402	2925
781.507	3060
781.613	3332
781.719	2057
781.824	3034
781.930	3237
782.035	2965
782.141	2610
782.246	2297
782.352	2555
782.457	2904
782.563	2898
782.668	2326
782.773	2561
782.879	2691
782.984	2328
783.090	3184
783.195	3305
783.300	2936
783.405	2357
783.511	2764
783.616	2960
783.721	3055
783.826	2977
783.932	2861
784.037	2583
784.142	2952
784.247	2092
784.352	2544
784.457	1835
784.562	1598
784.667	1855
784.772	2146
784.877	1500
784.982	2413
785.087	1908
785.192	3033
785.297	1611
785.402	1933
785.507	1911
785.611	2460
785.716	2440
785.821	2545
785.926	1947
786.031	2600
786.135	2156
786.240	3335
786.345	467
786.450	2291
786.554	2478
786.659	1907
786.763	1268
786.868	2520
786.973	2782
787.077	1633
787.182	2575
787.286	2096
787.391	2387
787.495	2155
787.600	2015
787.704	2093
787.809	1869
787.913	2043
788.017	1814
788.122	2430
788.226	1770
788.330	1512
788.435	1860
788.539	1630
788.643	1408
788.747	1809
788.852	1420
788.956	1692
789.060	2068
789.164	1650
789.268	1732
789.372	2009
789.476	1250
789.580	1864
789.684	1049
789.788	1798
789.892	1826
789.996	1590
790.100	1129
790.204	1866
790.308	1624
790.412	719
790.516	1128
790.620	1198
790.724	1875
790.828	2402
790.931	791
791.035	2167
791.139	1563
791.242	474
791.346	2248
791.450	1496
791.554	1521
791.657	1083
791.761	1947
791.864	1950
791.968	1731
792.072	1368
792.175	1551
792.279	2457
792.382	1470
792.486	2144
792.589	803
792.693	2048
792.796	223
792.899	2228
793.003	2515
793.106	320
793.209	1154
793.313	2056
793.416	-292
793.519	1831
793.623	1674
793.726	1413
793.829	852
793.932	1345
794.035	766
794.138	2423
794.242	2627
794.345	2959
794.448	6214
794.551	14908
794.654	53347
794.757	81005
794.860	13249
794.963	2804
795.066	1936
795.169	2553
795.272	1864
795.375	1671
795.477	709
795.580	1527
795.683	203
795.786	987
795.889	-135
795.991	2421
796.094	1548
796.197	-651
796.300	1150
796.402	1653
796.505	831
796.608	1601
796.710	1752
796.813	1081
796.915	1203
797.018	1767
797.120	1354
797.223	-175
797.326	2110
797.428	730
797.530	473
797.633	733
797.735	1479
797.838	1981
797.940	929
798.042	360
798.145	623
798.247	1622
798.349	630
798.452	1698
798.554	786
798.656	-87
798.758	1251
798.860	857
798.962	268
799.065	826
799.167	-17
799.269	981
799.371	1704
799.473	794
799.575	-292
799.677	826
799.779	1611
799.881	271
799.983	1146
800.085	752
800.187	603
800.289	-209
800.390	773
800.492	1619
800.594	1505
800.696	399
800.798	713
800.899	-93
801.001	226
801.103	267
801.205	1298
801.306	471
801.408	-295
801.509	665
801.611	659
801.713	1055
801.814	262
801.916	676
802.017	1302
802.119	77
802.220	615
802.322	-171
802.423	2099
802.525	519
802.626	1098
802.727	1310
802.829	925
802.930	-1176
803.031	2101
803.133	450
803.234	176
803.335	1386
803.436	-204
803.538	1075
803.639	-129
803.740	1047
803.841	249
803.942	980
804.043	1002
804.144	859
804.245	156
804.346	-313
804.447	-498
804.548	433
804.649	1531
804.750	644
804.851	340
804.952	445
805.053	417
805.154	-496
805.255	1376
805.355	771
805.456	785
805.557	115
805.658	-231
805.758	1475
805.859	462
805.960	441
806.061	393
806.161	47
806.262	852
806.362	522
806.463	543
806.564	999
806.664	632
806.765	79
806.865	743
806.966	680
807.066	214
807.166	794
807.267	696
807.367	224
807.468	532
807.568	-390
807.668	380
807.769	1281
807.869	-131
807.969	1370
808.069	1356
808.170	1022
808.270	37
808.370	1217
808.470	566
808.570	-649
808.670	299
808.770	675
808.870	-163
808.970	942
809.070	-67
809.170	20
809.271	478
809.370	139
809.470	163
809.570	-232
809.670	47
809.770	344
809.870	1021
809.970	393
810.070	216
810.169	1234
810.269	-524
810.369	373
810.469	78
810.568	121
810.668	121
810.768	262
810.867	525
810.967	187
811.066	535
811.166	1455
811.265	611
811.365	623
811.464	333
811.564	812
811.663	616
811.763	-366
811.862	1317
811.962	1425
812.061	344
812.160	298
812.260	461
812.359	1003
812.458	496
812.557	2601
812.657	2753
812.756	1783
812.855	481
812.954	496
813.053	889
813.153	344
813.252	464
813.351	-262
813.450	783
813.549	-150
813.648	1069
813.747	395
813.846	802
813.945	419
814.044	506
814.143	1037
814.242	1055
814.341	111
814.439	941
814.538	1323
814.637	695
814.736	920
814.835	2187
814.933	603
815.032	1129
815.131	1419
815.229	143
815.328	2015
815.427	1277
815.525	1879
815.624	1578
815.722	2004
815.821	1704
815.919	1236
816.018	1403
816.116	2062
816.215	1516
816.313	1775
816.412	1825
816.510	2309
816.609	3519
816.707	2374
816.805	2827
816.904	3067
817.002	3905
817.100	3326
817.198	4860
817.296	5356
817.395	5981
817.493	8184
817.591	8553
817.689	12320
817.787	16602
817.885	25781
817.983	42002
818.081	79468
818.179	162846
818.277	311048
818.375	291663
818.473	142340
818.571	69628
818.669	42439
818.767	34531
818.865	33669
818.963	38879
819.061	51058
819.158	78718
819.256	141957
819.354	258060
819.452	381851
819.549	305256
819.647	177618
819.745	93820
819.842	56299
819.940	37293
820.038	25514
820.135	21099
820.233	16788
820.330	13718
820.428	10668
820.525	9798
820.623	8644
820.720	6869
820.818	5862
820.915	5456
821.012	5133
821.110	2777
821.207	4527
821.304	3264
821.402	3058
821.499	3615
821.596	2905
821.693	2064
821.791	2842
821.888	2522
821.985	2495
822.082	1662
822.179	2804
822.276	2383
822.373	2457
822.470	1779
822.567	1777
822.664	493
822.761	1498
822.858	464
822.955	1334
823.052	-163
823.149	1218
823.246	1094
823.343	551
823.440	1482
823.536	675
823.633	565
823.730	335
823.827	227
823.923	801
824.020	1568
824.117	-17
824.213	459
824.310	1364
824.407	289
824.503	79
824.600	936
824.696	-600
824.793	1413
824.889	-1061
824.986	-152
825.082	415
825.179	1310
825.275	-134
825.371	407
825.468	942
825.564	-173
825.660	803
825.757	21
825.853	339
825.949	-363
826.045	848
826.142	-358
826.238	376
826.334	815
826.430	200
826.526	491
826.622	-740
826.718	51
826.814	-103
826.910	1347
827.006	-915
827.102	-753
827.198	48
827.294	78
827.390	598
827.486	393
827.582	-878
827.678	-1144
827.774	518
827.869	-468
827.965	1766
828.061	-681
828.157	-369
828.252	262
828.348	-721
828.444	1152
828.539	-942
828.635	-622
828.731	573
828.826	-508
828.922	494
829.017	-1846
829.113	776
829.208	-685
829.304	105
829.399	1458
829.495	-627
829.590	24
829.685	-526
829.781	-119
829.876	-187
829.971	-385
830.066	-856
830.162	-130
830.257	-339
830.352	-317
830.447	1214
830.543	212
830.638	-972
830.733	1182
830.828	-947
830.923	-421
831.018	-584
831.113	-276
831.208	-462
831.303	-12
831.398	435
831.493	-1165
831.588	-92
831.683	-72
831.778	-700
831.873	-97
831.967	481
832.062	-86
832.157	-211
832.252	300
832.346	-626
832.441	34
832.536	-226
832.631	586
832.725	525
832.820	-403
832.914	-267
833.009	-286
833.104	72
833.198	312
833.293	-863
833.387	-639
833.482	-63
833.576	-680
833.670	302
833.765	-424
833.859	-699
833.954	64
834.048	-533
834.142	-7
834.237	-938
834.331	-442
834.425	500
834.519	-746
834.613	-154
834.708	-751
834.802	-509
834.896	-1954
834.990	-485
835.084	324
835.178	-577
835.272	-840
835.366	-665
835.460	-90
835.554	-889
835.648	-228
835.742	-539
835.836	-262
835.930	-1313
836.024	785
836.117	105
836.211	-503
836.305	-28
836.399	980
836.493	-969
836.586	1187
836.680	-350
836.774	-452
836.867	299
836.961	-693
837.055	-1010
837.148	-472
837.242	-917
837.335	-1264
837.429	-723
837.522	-252
837.616	-753
837.709	462
837.803	-397
837.896	-90
837.989	-887
838.083	-49
838.176	711
838.269	513
838.363	11
838.456	-230
838.549	-260
838.642	-756
838.735	484
838.829	204
838.922	-724
839.015	-4
839.108	-738
839.201	-486
839.294	-384
839.387	-193
839.480	-1455
839.573	-148
839.666	-361
839.759	-370
839.852	-1535
839.945	-780
840.038	-349
840.131	-867
840.223	-509
840.316	5
840.409	-232
840.502	-552
840.594	1035
840.687	-1530
840.780	-60
840.873	-913
840.965	-1004
841.058	-233
841.150	160
841.243	-941
841.336	136
841.428	-770
841.521	-821
841.613	-923
841.706	-450
841.798	-6
841.890	-677
841.983	-918
842.075	39
842.167	-917
842.260	-481
842.352	-615
842.444	-873
842.537	-436
842.629	1442
842.721	-919
842.813	-40
842.905	-1059
842.997	-286
843.090	-832
843.182	-333
843.274	-532
843.366	1757
843.458	4143
843.550	3246
843.642	-624
843.734	-266
843.826	-1160
843.918	94
844.009	-171
844.101	-737
844.193	-457
844.285	-529
844.377	-527
844.469	-534
844.560	-410
844.652	-89
844.744	-343
844.835	-842
844.927	-682
845.019	-533
845.110	-793
845.202	-254
845.293	-299
845.385	-219
845.476	-931
845.568	576
845.659	-780
845.751	-155
845.842	-905
845.934	-334
846.025	-854
846.116	-427
846.208	-862
846.299	-1018
846.390	-107
846.482	-847
846.573	-502
846.664	-488
846.755	-532
846.846	28
846.937	-2234
847.029	-292
847.120	-596
847.211	-1122
847.302	467
847.393	-996
847.484	860
847.575	-1197
847.666	-1618
847.757	-1546
847.847	-1132
847.938	506
848.029	-826
848.120	-430
848.211	-1257
848.302	-1190
848.392	-951
848.483	-609
848.574	-1487
848.664	-1701
848.755	-282
848.846	228
848.936	-831
849.027	-756
849.118	-843
849.208	-686
849.299	-872
849.389	-896
849.480	-81
849.570	190
849.661	1453
849.751	2806
849.841	518
849.932	-658
850.022	-1039
850.112	-1338
850.203	-494
850.293	-900
850.383	-446
850.474	-1142
850.564	-1286
850.654	86
850.744	-1090
850.834	-1167
850.924	-417
851.014	-1150
851.104	-516
851.194	-1109
851.284	-569
851.374	-441
851.464	-1136
851.554	-642
851.644	-530
851.734	-871
851.824	551
851.914	803
852.004	2922
852.094	2624
852.183	-815
852.273	-781
852.363	-541
852.452	-664
852.542	-1389
852.632	-578
852.721	-517
852.811	-1201
852.901	-116
852.990	-656
853.080	-274
853.169	-1036
853.259	-1292
853.348	-735
853.438	-1550
853.527	-549
853.617	-874
853.706	-37
853.795	-132
853.885	3565
853.974	7344
854.063	14039
854.152	26425
854.242	9995
854.331	1052
854.420	9
854.509	-339
854.598	239
854.687	-734
854.777	-1162
854.866	-1217
854.955	177
855.044	-1388
855.133	-1040
855.222	-1671
855.311	-1103
855.400	-909
855.488	-1501
855.577	-846
855.666	-479
855.755	-398
855.844	-1235
855.933	-854
856.021	-463
856.110	-703
856.199	-1439
856.288	-1466
856.376	-1320
856.465	-1417
856.554	-1431
856.642	-806
856.731	-795
856.819	-805
856.908	-1403
856.996	-1347
857.085	-1387
857.173	-947
857.262	-1013
857.350	-860
857.438	-1774
857.527	-1156
857.615	-644
857.703	-710
857.792	-813
857.880	-1294
857.968	-723
858.056	-851
858.145	-977
858.233	-1436
858.321	-583
858.409	-115
858.497	-1253
858.585	-1103
858.673	-1206
858.761	-1653
858.849	-647
858.937	-1301
859.025	-774
859.113	-121
859.201	-1410
859.289	-1082
859.377	-925
859.465	-1628
859.552	-1478
859.640	-1387
859.728	-1055
859.816	-1049
859.903	-667
859.991	-1091
860.079	-347
860.166	-1242
860.254	-974
860.342	369
860.429	-1701
860.517	-1335
860.604	-785
860.692	-1389
860.779	-1356
860.867	-1860
860.954	-1411
861.042	-1177
861.129	-1049
861.216	-487
861.304	-1308
861.391	-1397
861.478	-1172
861.565	-399
861.653	-89
861.740	-1238
861.827	-588
861.914	-523
862.001	-974
862.089	-1742
862.176	-681
862.263	-1137
862.350	-699
862.437	-926
862.524	-1688
862.611	-893
862.698	-1213
862.785	-640
862.871	-258
862.958	-1994
863.045	-951
863.132	-681
863.219	-1267
863.306	-1405
863.392	-373
863.479	-1034
863.566	-792
863.652	-1513
863.739	-1339
863.826	-285
863.912	-1114
863.999	-1679
864.086	-1388
864.172	-1940
864.259	-987
864.345	-630
864.432	-995
864.518	-1239
864.604	-563
864.691	-1157
864.777	-965
864.863	-296
864.950	-1421
865.036	-1110
865.122	-611
865.209	-989
865.295	-1138
865.381	-422
865.467	-1191
865.553	-499
865.639	-771
865.726	-1072
865.812	243
865.898	3643
865.984	5109
866.070	9021
866.156	13228
866.242	3385
866.328	225
866.414	-631
866.499	-865
866.585	-1475
866.671	-604
866.757	-70
866.843	-518
866.928	-1364
867.014	-665
867.100	-377
867.186	-710
867.271	-152
867.357	-494
867.442	-1390
867.528	-719
867.614	-1180
867.699	-1460
867.785	-319
867.870	-1051
867.956	-865
868.041	5
868.127	-1039
868.212	-594
868.297	-758
868.383	-356
868.468	-895
868.553	-103
868.639	-64
868.724	-601
868.809	597
868.894	-363
868.979	-930
869.065	-460
869.150	-1626
869.235	-1243
869.320	-925
869.405	-1045
869.490	-891
869.575	-970
869.660	-1161
869.745	-775
869.830	-358
869.915	-896
870.000	-753
870.085	-621
870.169	84
870.254	-581
870.339	-1654
870.424	-831
870.509	-553
870.593	-752
870.678	-1229
870.763	-281
870.847	-1080
870.932	-1627
871.016	-746
871.101	-1467
871.186	-922
871.270	-1035
871.355	-1157
871.439	-795
871.523	-871
871.608	-906
871.692	-907
871.777	-871
871.861	-631
871.945	-1139
872.030	-1065
872.114	-1078
872.198	-940
872.282	-1321
872.367	-741
872.451	-648
872.535	-1459
872.619	-1150
872.703	-1317
872.787	-1144
872.871	-1126
872.955	-1265
873.039	-1682
873.123	-1687
873.207	-1311
873.291	-1007
873.375	-1739
873.459	-971
873.543	-965
873.627	-1374
873.711	-988
873.794	-1528
873.878	-1795
873.962	-1879
874.045	-1220
874.129	-1156
874.137	-1139
874.213	-977
874.245	-1099
874.296	-1295
874.352	-1691
874.380	-1884
874.460	-1547
874.464	-1536
874.547	-419
874.568	-609
874.631	-1163
874.676	-1194
874.714	-1220
874.784	-995
874.798	-954
874.881	564
874.892	296
874.965	-1528
874.999	-1447
875.048	-1367
875.107	-1337
875.131	-1311
875.215	-1583
875.215	-1582
875.298	-1122
875.323	-1109
875.381	-1058
875.430	-1034
875.465	-1031
875.538	-898
875.548	-884
875.631	-1215
875.646	-1281
875.714	-1562
875.753	-1454
875.798	-1316
875.861	-1433
875.881	-1493
875.964	-406
875.968	-451
876.047	-1110
876.076	-1019
876.130	-919
876.183	-910
876.213	-884
876.291	-798
876.296	-795
876.379	-1486
876.398	-1387
876.462	-1074
876.506	-974
876.545	-884
876.613	-1117
876.628	-1158
876.711	-1302
876.721	-1260
876.794	-922
876.828	-1070
876.877	-1277
876.935	-833
876.960	-709
877.043	-1029
877.043	-1031
877.125	-1053
877.150	-936
877.208	-839
877.258	-958
877.291	-893
877.365	-968
877.374	-1005
877.456	-286
877.472	-406
877.539	-848
877.579	-782
877.622	-800
877.687	-1112
877.704	-1146
877.787	-586
877.794	-583
877.869	-566
877.901	-535
877.952	-530
878.008	-766
878.034	-891
878.115	-798
878.117	-792
878.199	-1231
878.222	-929
878.282	-242
878.329	-493
878.364	-652
878.437	-420
878.447	-385
878.529	-1049
878.544	-951
878.611	-644
878.651	-699
878.694	-659
878.758	-721
878.776	-701
878.858	-411
878.865	-395
878.941	-539
878.972	-540
879.023	-434
879.078	-700
879.105	-820
879.185	-976
879.187	-975
879.269	-1013
879.292	-1055
879.351	-1334
879.399	-1057
879.433	-708
879.506	-404
879.516	-392
879.598	-329
879.613	-344
879.680	-427
879.720	-419
879.762	-350
879.827	-830
879.844	-931
879.926	-787
879.933	-773
880.007	-811
880.040	-903
880.089	-911
880.147	-829
880.171	-885
880.253	-505
880.254	-507
880.335	-222
880.360	-253
880.417	-687
880.467	-908
880.499	-654
880.574	662
880.580	717
880.662	202
880.680	13
880.744	-568
880.787	-544
880.825	-519
880.893	-825
880.907	-885
880.989	-770
881.000	-721
881.070	-37
881.106	-80
881.152	-460
881.213	-613
881.233	-696
881.315	-1082
881.319	-1112
881.396	-895
881.426	-864
881.478	-1078
881.532	-927
881.559	-725
881.639	-321
881.641	-322
881.722	-459
881.745	-550
881.803	-356
881.852	-378
881.885	-535
881.958	-642
881.966	-674
882.047	-570
882.064	-748
882.129	-1000
882.171	-652
882.210	-597
882.277	-726
882.291	-677
882.372	-759
882.383	-770
882.454	-800
882.489	-658
882.535	-731
882.596	-1121
882.616	-1048
882.697	-387
882.702	-382
882.778	-933
882.808	-806
882.859	-277
882.914	-125
882.940	-101
883.020	-526
883.021	-526
883.102	-325
883.127	-242
883.183	-210
883.233	-494
883.264	-465
883.339	353
883.345	354
883.426	-552
883.445	-716
883.507	-582
883.551	-363
883.587	-355
883.657	-424
883.668	-417
883.749	-369
883.763	-361
883.830	-445
883.869	-587
883.910	-522
883.975	-316
883.991	-327
884.072	-369
884.081	-374
884.152	-5
884.187	87
884.233	-112
884.292	-260
884.314	-275
884.394	-712
884.398	-689
884.475	-193
884.504	-304
884.555	38
884.610	252
884.636	78
884.716	155
884.716	159
884.797	-24
884.821	-176
884.877	16
884.927	304
884.958	270
885.033	-34
885.038	-57
885.118	-457
885.139	-512
885.199	-122
885.244	141
885.279	-4
885.350	-380
885.359	-367
885.439	-426
885.456	-416
885.520	-378
885.561	-267
885.600	-328
885.667	-593
885.680	-577
885.760	-432
885.773	-415
885.840	-259
885.878	-123
885.920	8
885.984	-28
886.000	-53
886.080	45
886.089	37
886.160	-205
886.195	-295
886.240	-140
886.300	-76
886.320	-60
886.400	264
886.406	272
886.480	140
886.511	131
886.560	-36
886.616	-493
886.640	-469
886.720	-84
886.722	-82
886.800	-167
886.827	-164
886.879	-83
886.932	-36
886.959	-2
887.038	184
887.039	186
887.119	-152
887.143	-174
887.198	-154
887.248	-256
887.278	-241
887.354	-79
887.358	-64
887.437	191
887.459	201
887.517	-185
887.564	-462
887.596	-431
887.669	-259
887.676	-263
887.755	-397
887.774	-489
887.835	-706
887.880	-688
887.914	-409
887.985	54
887.994	14
888.073	-393
888.090	-499
888.153	-186
888.195	118
888.232	119
888.300	-11
888.311	-15
888.391	-8
888.405	-21
888.470	-224
888.510	-330
888.549	-335
888.615	-346
888.628	-340
888.708	-402
888.720	-395
888.787	220
888.825	532
888.866	183
888.930	-358
888.945	-338
889.024	-223
889.035	-208
889.103	106
889.140	243
889.182	321
889.245	471
889.261	478
889.340	510
889.349	507
889.419	-125
889.454	-432
889.498	-275
889.559	-52
889.577	86
889.656	680
889.664	736
889.735	354
889.768	168
889.814	549
889.873	1050
889.978	-529
890.083	646
890.187	-203
890.292	82
890.397	-237
890.501	784
890.606	-298
890.710	498
890.815	185
890.919	824
891.024	-45
891.128	546
891.233	85
891.337	512
891.442	-36
891.546	-74
891.650	-237
891.755	894
891.859	647
891.963	-243
892.068	633
892.172	954
892.276	-351
892.380	-76
892.484	-119
892.589	770
892.693	45
892.797	134
892.901	-34
893.005	198
893.109	-389
893.213	-87
893.317	7
893.421	482
893.525	-71
893.629	-232
893.733	4
893.837	-642
893.941	-389
894.045	1339
894.148	569
894.252	677
894.356	737
894.460	604
894.564	-570
894.667	156
894.771	-799
894.875	-198
894.978	593
895.082	-444
895.186	-126
895.289	396
895.393	397
895.496	-240
895.600	-323
895.703	544
895.807	-360
895.910	544
896.014	-416
896.117	618
896.221	-513
896.324	496
896.427	-399
896.531	273
896.634	-582
896.737	800
896.840	-305
896.944	124
897.047	181
897.150	399
897.253	-573
897.356	300
897.460	102
897.563	396
897.666	-593
897.769	473
897.872	-153
897.975	206
898.078	912
898.181	198
898.284	148
898.387	413
898.490	-191
898.593	619
898.695	-255
898.798	1073
898.901	212
899.004	110
899.107	60
899.209	-297
899.312	-177
899.415	579
899.518	-855
899.620	-18
899.723	-317
899.826	194
899.928	737
900.031	406
900.133	-293
900.236	82
900.338	-155
900.441	792
900.543	-508
900.646	474
900.748	-93
900.851	574
900.953	146
901.055	-461
901.158	-281
901.260	-430
901.362	69
901.465	218
901.567	-1211
901.669	300
901.771	-434
901.873	100
901.976	-182
902.078	596
902.180	421
902.282	-534
902.384	-35
902.486	616
902.588	331
902.690	226
902.792	-320
902.894	1290
902.996	41
903.098	135
903.200	-344
903.302	619
903.404	81
903.505	307
903.607	524
903.709	24
903.811	597
903.913	804
904.014	-146
904.116	-48
904.218	-476
904.319	399
904.421	267
904.523	-187
904.624	-81
904.726	454
904.827	567
904.929	502
905.030	-92
905.132	562
905.233	55
905.335	200
905.436	578
905.537	311
905.639	418
905.740	370
905.841	709
905.943	520
906.044	356
906.145	483
906.247	-498
906.348	1000
906.449	102
906.550	40
906.651	911
906.752	182
906.854	-234
906.955	446
907.056	412
907.157	322
907.258	470
907.359	96
907.460	-381
907.561	17
907.662	76
907.762	-203
907.863	74
907.964	961
908.065	254
908.166	-57
908.267	140
908.367	205
908.468	-436
908.569	117
908.670	585
908.770	375
908.871	-97
908.971	85
909.072	132
909.173	606
909.273	-190
909.374	33
909.474	-388
909.575	149
909.675	-829
909.776	684
909.876	-154
909.977	657
910.077	365
910.177	-402
910.278	-81
910.378	-60
910.478	-177
910.579	248
910.679	-451
910.779	140
910.879	-2
910.980	-226
911.080	58
911.180	309
911.280	693
911.380	92
911.480	-715
911.580	-436
911.680	-122
911.780	502
911.880	456
911.980	-345
912.080	7
912.180	201
912.280	-519
912.380	113
912.480	-28
912.580	82
912.679	-223
912.779	-160
912.879	383
912.979	194
913.078	-186
913.178	-72
913.278	-496
913.377	68
913.477	-683
913.577	-15
913.676	812
913.776	214
913.875	540
913.975	122
914.074	128
914.174	136
914.273	-711
914.373	272
914.472	152
914.572	-17
914.671	-405
914.770	206
914.870	-188
914.969	-243
915.068	-177
915.167	390
915.267	-536
915.366	-676
915.465	-360
915.564	-231
915.663	-207
915.763	-364
915.862	196
915.961	242
916.060	-49
916.159	359
916.258	-396
916.357	-229
916.456	149
916.555	177
916.654	-396
916.752	-313
916.851	407
916.950	-341
917.049	-123
917.148	445
917.247	-89
917.345	117
917.444	-103
917.543	302
917.642	-34
917.740	-136
917.839	289
917.937	1137
918.036	-229
918.135	-40
918.233	-517
918.332	218
918.430	-490
918.529	471
918.627	-740
918.726	660
918.824	-937
918.923	-167
919.021	-136
919.119	208
919.218	-1122
919.316	-283
919.414	-432
919.512	469
919.611	-432
919.709	394
919.807	-213
919.905	200
920.003	-689
920.102	-572
920.200	-407
920.298	-402
920.396	66
920.494	-128
920.592	-672
920.690	813
920.788	-1198
920.886	273
920.984	184
921.082	-272
921.180	506
921.277	2
921.375	99
921.473	-44
921.571	6
921.669	-32
921.766	-973
921.864	163
921.962	-196
922.060	143
922.157	359
922.255	-198
922.352	-591
922.450	-132
922.548	-350
922.645	2
922.743	834
922.840	346
922.938	264
923.035	-514
923.133	35
923.230	-197
923.327	-97
923.425	-277
923.522	-21
923.619	13
923.717	-230
923.814	32
923.911	159
924.008	802
924.106	444
924.203	407
924.300	-22
924.397	-413
924.494	354
924.591	230
924.688	-482
924.786	216
924.883	-410
924.979	-31
925.077	48
925.173	-465
925.270	-269
925.367	-296
925.464	-873
925.561	-175
925.658	-186
925.755	55
925.852	-123
925.948	18
926.045	68
926.142	-341
926.239	294
926.335	485
926.432	-106
926.529	66
926.625	-591
926.722	7
926.818	-261
926.915	179
927.011	-540
927.108	-556
927.204	-448
927.301	-338
927.397	-740
927.494	55
927.590	-176
927.687	-167
927.783	-258
927.879	-13
927.976	-1274
928.072	113
928.168	-947
928.264	331
928.361	-138
928.457	-196
928.553	-985
928.649	179
928.745	-548
928.841	-158
928.937	-327
929.033	-67
929.129	79
929.225	-676
929.321	-363
929.417	-299
929.513	-558
929.609	-414
929.705	-154
929.801	-502
929.897	-269
929.993	-386
930.089	257
930.184	-148
930.280	-406
930.376	190
930.471	-1119
930.567	-488
930.663	74
930.758	-730
930.854	-810
930.950	-308
931.045	70
931.141	-506
931.236	-537
931.332	-236
931.427	-770
931.523	-239
931.618	-1208
931.714	-514
931.809	-249
931.905	201
932.000	-381
932.095	-795
932.191	-853
932.286	28
932.381	-842
932.476	-180
932.572	-661
932.667	-279
932.762	-986
932.857	-100
932.952	-170
933.047	-393
933.142	-158
933.237	-293
933.332	-289
933.427	519
933.522	94
933.617	-289
933.712	-256
933.807	341
933.902	-868
933.997	-338
934.092	-1009
934.187	-371
934.282	-314
934.376	-710
934.471	-743
934.566	-998
934.661	-503
934.755	-494
934.850	-694
934.945	-570
935.039	-157
935.134	332
935.228	-362
935.323	-810
935.417	-890
935.512	-650
935.606	-929
935.701	-763
935.795	-611
935.890	-492
935.984	-935
936.079	35
936.173	-784
936.267	-212
936.362	-204
936.456	-46
936.550	-252
936.644	-1225
936.738	-601
936.833	-562
936.927	-60
937.021	-590
937.115	-465
937.209	-201
937.303	-590
937.397	-310
937.491	-172
937.585	-169
937.679	-145
937.773	-776
937.867	-1053
937.961	-668
938.055	-740
938.149	-471
938.243	172
938.337	-318
938.430	-1055
938.524	207
938.618	-796
938.712	-272
938.805	-47
938.899	-677
938.993	-429
939.086	-174
939.180	-545
939.274	182
939.367	-1066
939.461	318
939.554	-557
939.648	-620
939.741	-1165
939.835	-679
939.928	-718
940.022	364
940.115	-998
940.208	-253
940.302	-1036
940.395	-559
940.488	-1488
940.582	518
940.675	-466
940.768	-274
940.861	-1104
940.954	96
941.048	-861
941.141	-148
941.234	22
941.327	-132
941.420	-328
941.513	240
941.606	-111
941.699	471
941.792	-333
941.885	-643
941.978	-248
942.071	-200
942.164	-1015
942.257	166
942.349	-526
942.442	96
942.535	-57
942.628	71
942.721	-751
942.813	-1313
942.906	-254
942.999	-1109
943.091	-1015
943.184	161
943.277	-646
943.369	-88
943.462	-518
943.554	-391
943.647	-961
943.739	-220
943.832	-711
943.924	-971
944.017	111
944.109	-738
944.201	-1046
944.294	-59
944.386	-784
944.478	-646
944.571	-1577
944.663	-722
944.755	-553
944.847	-409
944.940	-417
945.032	-297
945.124	-222
945.216	302
945.308	-215
945.400	-146
945.492	-931
945.584	-34
945.676	-405
945.768	-275
945.860	146
945.952	-363
946.044	-459
946.136	-320
946.228	-715
946.320	-341
946.412	-942
946.503	-837
946.595	494
946.687	-213
946.779	-1061
946.870	295
946.962	-1439
947.054	-167
947.145	-913
947.237	-428
947.329	-670
947.420	-757
947.512	-1467
947.603	-1294
947.695	-751
947.786	-747
947.878	-1290
947.969	35
948.061	-904
948.152	-389
948.243	-1050
948.335	-301
948.426	-1232
948.517	-851
948.609	-1113
948.700	-114
948.791	-912
948.882	-104
948.973	-1556
949.065	-7
949.156	-914
949.247	-440
949.338	-191
949.429	-589
949.520	-471
949.611	-911
949.702	-124
949.793	89
949.884	-1020
949.975	-747
950.066	-463
950.157	-1570
950.247	-1299
950.338	-632
950.429	-1667
950.520	-336
950.611	-834
950.701	-1027
950.792	-1389
950.883	-284
950.973	-262
951.064	-186
951.155	-1354
951.245	-823
951.336	-828
951.427	-650
951.517	-333
951.608	705
951.698	-901
951.788	-571
951.879	-1247
951.969	-620
952.060	-1028
952.150	-805
952.240	-1224
952.331	-1712
952.421	461
952.511	-888
952.602	-568
952.692	-75
952.782	-1247
952.872	-415
952.962	-677
953.052	-372
953.143	-428
953.233	-58
953.323	-516
953.413	-899
953.503	-712
953.593	-330
953.683	-727
953.773	-479
953.863	-764
953.953	24
954.042	-255
954.132	-1521
954.222	-298
954.312	-1303
954.402	-590
954.492	-251
954.581	-768
954.671	-881
954.761	-1563
954.850	-196
954.940	-1270
955.030	546
955.119	-997
955.209	-274
955.298	-1420
955.388	48
955.477	-198
955.567	-849
955.656	-1548
955.746	-678
955.835	-1100
955.925	-1284
956.014	-520
956.103	-704
956.193	-536
956.282	-703
956.371	-79
956.461	-864
956.550	-1031
956.639	-520
956.728	-1374
956.817	-831
956.906	-1321
956.995	-1170
957.085	-685
957.174	-1413
957.263	-1078
957.352	126
957.441	-1604
957.530	-766
957.619	-756
957.708	-1207
957.796	-1323
957.885	-807
957.974	-766
958.063	-875
958.152	-1674
958.241	-136
958.329	-779
958.418	-603
958.507	-2434
958.596	586
958.684	-1196
958.773	229
958.861	-1227
958.950	-385
959.039	-226
959.127	-397
959.216	-890
959.304	-424
959.393	-1823
959.481	-449
959.570	-334
959.658	-1258
959.746	-1297
959.835	-258
959.923	-1227
960.011	-711
960.100	-1127
960.188	-579
960.276	-1058
960.365	-614
960.453	-898
960.541	-1538
960.629	-1659
960.717	-1760
960.805	-1003
960.893	-198
960.981	-1405
961.069	-509
961.158	-823
961.245	-917
961.333	-388
961.421	-1388
961.509	-672
961.597	-606
961.685	-948
961.773	-775
961.861	-1263
961.949	-13
962.036	-1323
962.124	-839
962.212	-1087
962.299	-874
962.387	-1799
962.475	-541
962.562	-1987
962.650	-895
962.738	-1729
962.825	-950
962.913	-1301
963.000	-939
963.088	-1333
963.175	-1055
963.263	-2037
963.350	-1474
963.438	-971
963.525	-1333
963.612	-430
963.700	-794
963.787	825
963.874	548
963.962	-1426
964.049	-517
964.136	-930
964.223	-1060
964.310	-1290
964.398	-435
964.485	-1105
964.572	-857
964.659	-612
964.746	-1230
964.833	-1414
964.920	-1685
965.007	-1577
965.094	-777
965.181	-1624
965.268	-1080
965.355	-1360
965.441	-1707
965.528	-2224
965.615	126
965.702	-1434
965.789	-1215
965.875	-1072
965.962	-951
966.049	-1970
966.136	-323
966.222	-2181
966.309	-642
966.395	-1575
966.482	-1176
966.569	-1407
966.655	-1308
966.742	-1535
966.828	-744
966.915	-1207
967.001	-1354
967.087	-1423
967.174	-1934
967.260	-1129
967.347	-1726
967.433	-810
967.519	229
967.605	-1637
967.692	-1668
967.778	-1662
967.864	-1328
967.950	-1461
968.036	-1044
968.123	-1864
968.209	-1243
968.295	-1442
968.381	88
968.467	-2193
968.553	-1866
968.639	-705
968.725	-764
968.811	-655
968.897	-1152
968.983	-1373
969.069	-1540
969.154	-1387
969.240	-744
969.326	-1624
969.412	-859
969.497	-1107
969.583	-1595
969.669	-1299
969.755	-438
969.840	-2079
969.926	-1351
970.012	-1666
970.097	-649
970.183	-1718
970.268	-235
970.354	-566
970.439	-1675
970.525	-33
970.610	-1792
970.696	-901
970.781	-1382
970.866	-1551
970.952	-364
971.037	-1617
971.122	-1454
971.208	-1492
971.293	-1005
971.378	-1517
971.463	-942
971.549	-1354
971.634	-1316
971.719	-2268
971.804	-1043
971.889	-534
971.974	-1903
972.059	-1189
972.144	-824
972.229	-865
972.314	-1718
972.399	-1466
972.484	-1123
972.569	-1392
972.654	-1526
972.739	-1157
972.824	-998
972.908	-1641
972.993	-956
973.078	-768
973.163	-945
973.247	-1603
973.332	-2093
973.417	-47
973.501	-1524
973.586	-2046
973.671	-1292
973.755	-1624
973.840	-532
973.924	-1702
974.009	-791
974.093	-1384
974.178	-370
974.262	-726
974.346	-1293
974.431	-1314
974.515	-875
974.600	-1026
974.684	-1385
974.768	-1041
974.852	-496
974.937	-2608
975.021	-1083
975.105	-1585
975.189	-1022
975.273	-830
975.358	-998
975.442	-1495
975.526	-46
975.610	-2250
975.694	-1859
975.778	-610
975.862	-1190
975.946	-2704
976.030	-19
976.114	-1371
976.198	-588
976.281	-2108
976.365	-436
976.449	-967
976.533	-728
976.617	-1398
976.700	-739
976.784	-985
976.868	-1063
976.951	-1373
977.035	-1653
977.119	-775
977.202	-1514
977.286	-1315
977.369	-1331
977.453	-850
977.536	-1323
977.620	-1702
977.703	-383
977.787	-2539
977.870	-582
977.953	-293
978.037	-2115
978.120	-1081
978.203	-1456
978.287	-1241
978.370	-709
978.453	-786
978.536	-1583
978.620	-301
978.703	-1190
978.786	-1472
978.869	-1077
978.952	-2314
979.035	26
979.118	-254
979.201	-1099
979.284	-1592
979.367	-1877
979.450	-1255
979.533	-1516
979.616	-1866
979.699	-1153
979.782	-1234
979.865	-1759
979.948	-849
980.030	-944
980.113	-1378
980.196	-1655
980.279	-1654
980.361	-1421
980.444	-1336
980.526	-517
980.609	-1653
980.692	-545
980.774	-1486
980.857	-1265
980.939	-529
981.022	-1040
981.104	-1366
981.187	-1714
981.269	-912
981.352	-981
981.434	-1489
981.516	-1761
981.599	-1030
981.681	-438
981.763	-1098
981.846	-623
981.928	-2041
982.010	-1329
982.092	-1424
982.174	-732
982.256	-1323
982.339	-1180
982.421	-1562
982.503	-412
982.585	-2003
982.667	-1113
982.749	-1614
982.831	-925
982.913	-2433
982.995	-746
983.077	-2196
983.158	-588
983.240	-1749
983.322	-1174
983.404	-1249
983.486	-1748
983.568	-1269
983.649	-1840
983.731	-1277
983.813	-1698
983.894	-1169
983.976	-1802
984.058	-1386
984.139	-1401
984.221	-2236
984.302	-288
984.384	-1877
984.465	-1786
984.547	-730
984.628	-1613
984.710	-890
984.791	-953
984.872	-1381
984.954	-746
985.035	-1837
985.116	-1417
985.198	-2171
985.279	-376
985.360	-2265
985.441	-1082
985.522	-1663
985.604	-1922
985.685	-2545
985.766	-498
985.847	-1202
985.928	-1339
986.009	-1068
986.090	-1147
986.171	-996
986.252	-1679
986.333	-772
986.414	-1231
986.495	-1692
986.576	-1440
986.656	-2030
986.737	-999
986.818	-1636
986.899	-1625
986.980	-1325
987.060	-416
987.141	-1632
987.222	-1082
987.302	-1427
987.383	-1284
987.464	-1693
987.544	-1210
987.625	-1936
987.705	-741
987.786	-1870
987.866	-2138
987.947	-1735
988.027	-1270
988.108	-2705
988.188	-958
988.268	-1475
988.349	-1003
988.429	-903
988.509	-1250
988.589	-1782
988.670	-2994
988.750	-454
988.830	-1477
988.910	-1405
988.990	-2238
989.070	-2179
989.151	-889
989.231	-1743
989.311	-1160
989.391	-1714
989.471	-1333
989.551	-2206
989.631	-1749
989.711	-1038
989.791	-1905
989.870	-2009
989.950	-806
990.030	-1745
990.110	-1571
990.190	-2179
990.269	-1808
990.349	-1799
990.429	-1262
990.509	-984
990.588	-1710
990.668	-1609
990.747	-831
990.827	-1832
990.907	-1091
990.986	-1931
991.066	-1428
991.145	-2209
991.225	-953
991.304	-1306
991.383	-1004
991.463	-1935
991.542	-1234
991.622	-1786
991.701	-999
991.780	-1200
991.859	-1729
991.939	-1739
992.018	-976
992.097	-2164
992.176	-2008
992.256	-2406
992.335	-2120
992.414	-975
992.493	-1096
992.572	-1864
992.651	-291
992.730	-2068
992.809	-853
992.888	-1688
992.967	-843
993.046	-1986
993.125	-1286
993.203	-1376
993.282	-1147
993.361	-1254
993.440	-701
993.519	-1878
993.597	-1142
993.676	-1774
993.755	-1553
993.834	-1813
993.912	-2442
993.991	-662
994.069	-1879
994.148	-2025
994.226	-1577
994.305	-520
994.384	-1967
994.462	-188
994.540	-2876
994.619	-1963
994.697	-980
994.776	-2857
994.854	-937
994.932	-2115
995.011	-1122
995.089	-2046
995.167	-1404
995.245	-2063
995.324	-2135
995.402	-1485
995.480	-1600
995.558	-2229
995.636	-2445
995.714	-1761
995.792	-859
995.870	-1957
995.948	-1232
996.026	-1685
996.104	-1611
996.182	-1857
996.260	-1601
996.338	-2154
996.416	-1885
996.494	-2541
996.572	-369
996.649	-1883
996.727	-2256
996.805	-1523
996.883	-1384
996.960	-2173
997.038	-876
997.116	-1597
997.193	-1944
997.271	-1112
997.348	-2365
997.426	-1953
997.504	-2039
997.581	-1874
997.658	-1048
997.736	-2366
997.813	-1945
997.891	-1377
997.968	-2073
998.046	-2291
998.123	-1317
998.200	-1758
998.277	-2010
998.355	-2120
998.432	-2252
998.509	-1768
998.586	-1414
998.663	-2199
998.741	-2032
998.818	-1333
998.895	-2362
998.972	-1628
999.049	-1611
999.126	-1815
999.203	-1854
999.280	-2499
999.357	-1566
999.434	-1617
999.511	-446
999.587	-1407
999.664	-2152
999.741	-1890
999.818	-581
999.895	-2295
999.971	-2222
1000.048	-1721
1000.125	-579
1000.202	-2042
1000.278	-2185
1000.355	-1717
1000.431	-1553
1000.508	-2023
1000.584	-1296
1000.661	-1570
1000.738	-2487
1000.814	-2105
1000.890	-849
1000.967	-1632
1001.043	-1022
1001.120	-2747
1001.196	-1858
1001.272	-2629
1001.349	-2234
1001.425	-1520
1001.501	-1807
1001.577	-1871
1001.654	-1591
1001.730	-2210
1001.806	-2045
1001.882	-2220
1001.958	-1227
1002.034	-1890
1002.110	-1104
1002.186	-2566
1002.262	-1674
1002.338	-2551
1002.414	-973
1002.490	-1337
1002.566	-2048
1002.642	-2435
1002.718	-1408
1002.794	-2892
1002.870	-2085
1002.945	-2093
1003.021	-1494
1003.097	-2226
1003.173	-771
1003.248	-2811
1003.324	-2254
1003.400	-2535
1003.475	-2029
1003.551	-2613
1003.626	-1754
1003.702	-2231
1003.777	-1535
1003.853	-2203
1003.928	-1729
1004.004	-2277
1004.079	-2004
1004.155	-1349
1004.230	-2856
1004.305	-1658
1004.381	-2272
1004.456	-2072
1004.531	-2023
1004.607	-1797
1004.682	-1597
1004.757	-1491
1004.832	-2027
1004.907	-2769
1004.982	-1117
1005.057	-2010
1005.133	-1845
1005.208	-1889
1005.283	-1928
1005.358	-1308
1005.433	-2489
1005.508	-1569
1005.583	-2203
1005.657	-3044
1005.732	-1240
1005.807	-3180
1005.882	-1720
1005.957	-1496
1006.032	-668
1006.106	-2588
1006.181	-1624
1006.256	-2465
1006.331	-1878
1006.405	-2422
1006.480	-1263
1006.554	-2486
1006.629	-1677
1006.704	-2289
1006.778	-1643
1006.853	-1952
1006.927	-1671
1007.002	-1829
1007.076	-2499
1007.150	-2455
1007.225	-1410
1007.299	-1357
1007.373	-1900
1007.448	-2451
1007.522	-1363
1007.596	-1526
1007.671	-2311
1007.745	-1956
1007.819	-3061
1007.893	-1957
1007.967	-1741
1008.041	-2678
1008.115	-1555
1008.190	-2770
1008.264	-1680
1008.338	-2256
1008.412	-1718
1008.486	-2111
1008.560	-2303
1008.633	-2574
1008.707	-2096
1008.781	-2076
1008.855	-1706
1008.929	-1840
1009.003	-2322
1009.076	-3061
1009.150	-1515
1009.224	-1824
1009.298	-1385
1009.371	-2235
1009.445	-1356
1009.519	-2140
1009.592	-3308
1009.666	-1925
1009.739	-1149
1009.813	-2961
1009.886	-955
1009.960	-2603
1010.033	-1233
1010.107	-1693
1010.180	-1972
1010.253	-1860
1010.327	-3108
1010.400	-2373
1010.473	-1733
1010.547	-1384
1010.620	-2275
1010.693	-2121
1010.766	-2278
1010.840	-1776
1010.913	-1955
1010.986	-2752
1011.059	-2395
1011.132	-2305
1011.205	-1188
1011.278	-2439
1011.351	-1864
1011.424	-1731
1011.497	-1767
1011.570	-1844
1011.643	-1561
1011.716	-2076
1011.789	-2498
1011.862	-1637
1011.934	-1366
1012.007	-2607
1012.080	-1092
1012.153	-2576
1012.225	-1323
1012.298	-2562
1012.371	-2043
1012.443	-1493
1012.516	-2751
1012.588	-2520
1012.661	-1524
1012.733	-2528
1012.806	-1165
1012.879	-2774
1012.951	-2192
1013.023	-1697
1013.096	-1823
1013.168	-2516
1013.241	-1031
1013.313	-2071
1013.385	-1885
1013.458	-1988
1013.530	-1561
1013.602	-3023
1013.674	-1026
1013.746	-2324
1013.819	-2597
1013.891	-1876
1013.963	-2084
1014.035	-2370
1014.107	-1664
1014.179	-717
1014.251	-2402
1014.323	-2017
1014.395	-2016
1014.467	-1264
1014.539	-1837
1014.611	-2440
1014.683	-1910
1014.754	-1978
1014.826	-1671
1014.898	-1836
1014.970	-1854
1015.042	-747
1015.113	-2195
1015.185	-2036
1015.257	-1831
1015.328	-1587
1015.400	-1769
1015.471	-2398
1015.543	-2751
1015.615	-1511
1015.686	-2443
1015.757	-2521
1015.829	-1879
1015.901	-2355
1015.972	-1464
1016.043	-2300
1016.115	-1541
1016.186	-1852
1016.257	-2449
1016.328	-2415
1016.400	-1614
1016.471	-2880
1016.542	-2385
1016.613	-2660
1016.685	-2100
1016.756	-1640
1016.827	-1653
1016.898	-2938
1016.969	-1444
1017.040	-1815
1017.111	-2019
1017.182	-2316
1017.253	-1502
1017.324	-1922
1017.395	-2175
1017.466	-1548
1017.537	-1782
1017.608	-2209
1017.678	-2319
1017.749	-2712
1017.820	-2602
1017.891	-2936
1017.961	-1753
1018.032	-2593
1018.103	-1973
1018.173	-1968
1018.244	-2129
1018.315	-2681
1018.385	-2526
1018.456	-2788
1018.526	-2089
1018.597	-2190
1018.667	-1500
1018.738	-2774
1018.808	-1368
1018.878	-1973
1018.949	-1962
1019.019	-2048
1019.089	-1897
1019.160	-2050
1019.230	-1866
1019.300	-2264
1019.371	-3614
1019.441	-1887
1019.511	-2222
1019.581	-2441
1019.651	-1660
1019.721	-2619
1019.791	-1623
1019.861	-1368
1019.931	-1939
1020.001	-2207
1020.071	-2031
1020.141	-2914
1020.211	-1459
1020.281	-2345
1020.351	-2213
1020.421	-2645
1020.491	-1899
1020.560	-2498
1020.630	-1603
1020.700	-2200
1020.770	-2295
1020.839	-1791
1020.909	-2001
1020.979	-2551
1021.048	-1905
1021.118	-2733
1021.187	-1894
1021.257	-2249
1021.326	-1729
1021.396	-2200
1021.465	-2025
1021.535	-2430
1021.604	-2152
1021.674	-2119
1021.743	-2015
1021.812	-2464
1021.882	-1978
1021.951	-1892
1022.020	-2439
1022.089	-1701
1022.159	-2783
1022.228	-2295
1022.297	-2322
1022.366	-2330
1022.435	-1646
1022.504	-2552
1022.573	-2375
1022.642	-1834
1022.711	-1880
1022.781	-1848
1022.849	-1693
1022.918	-3038
1022.987	-1981
1023.056	-3039
1023.125	-2061
1023.194	-2282
1023.263	-2446
1023.331	-2638
1023.400	-2534
1023.469	-3199
1023.538	-1614
1023.606	-3095
1023.675	-2434
1023.744	-2604
1023.812	-2172
1023.881	-2133
1023.949	-2076
1024.018	-3064
1024.086	-2412
1024.155	-1912
1024.223	-1847
1024.292	-1785
1024.360	-1182
1024.429	-1370
1024.497	-2256
1024.565	-2326
1024.634	-1496
1024.702	-1651
1024.770	-2426
1024.838	-2379
1024.907	-1737
1024.975	-2431
1025.043	-1775
1025.111	-2461
1025.179	-1476
1025.247	-2134
1025.315	-2508
1025.383	-2685
1025.451	-2131
1025.519	-2274
1025.587	-1764
1025.655	-2762
1025.723	-2508
1025.791	-3571
1025.859	-2245
1025.927	-1553
1025.995	-2144
1026.062	-2628
1026.130	-1113
1026.198	-1285
1026.266	-1245
1026.333	-2209
1026.401	-1085
1026.469	-2881
1026.536	-1901
1026.604	-2292
1026.671	-2588
1026.739	-2003
1026.806	-2110
1026.874	-2279
1026.941	-2216
1027.009	-2490
1027.076	-2322
1027.144	-2105
1027.211	-2267
1027.278	-2171
1027.345	-2192
1027.413	-1815
1027.480	-2328
1027.547	-2391
1027.614	-1735
1027.682	-2177
1027.749	-2290
1027.816	-2374
1027.883	-1589
1027.950	-2462
1028.017	-2771
1028.084	-1553
1028.151	-2014
1028.218	-2120
1028.285	-1825
1028.352	-2631
1028.419	-1872
1028.486	-2070
1028.553	-1888
1028.619	-2737
1028.686	-2970
1028.753	-2011
1028.820	-2192
1028.886	-2656
1028.953	-2844
1029.020	-2295
1029.086	-2331
1029.153	-2561
1029.220	-1502
1029.286	-1803
1029.353	-2097
1029.419	-1848
1029.486	-1344
1029.552	-2418
1029.619	-2561
1029.685	-2483
1029.751	-2363
1029.818	-2129
1029.884	-2539
1029.951	-1733
1030.017	-2610
1030.083	-2881
1030.149	-2207
1030.216	-2269
1030.282	-2128
1030.348	-2068
1030.414	-2374
1030.480	-1971
1030.546	-2468
1030.612	-1829
1030.678	-2202
1030.744	-2154
1030.810	-2255
1030.876	-2584
1030.942	-1916
1031.008	-2505
1031.074	-1746
1031.140	-2081
1031.206	-1340
1031.272	-2314
1031.337	-2353
1031.403	-1584
1031.469	-2464
1031.534	-2354
1031.600	-1791
1031.666	-1961
1031.731	-2078
1031.797	-3277
1031.863	-2066
1031.928	-2377
1031.994	-1469
1032.059	-2369
1032.125	-2330
1032.190	-3438
1032.256	-2337
1032.321	-2522
1032.386	-2923
1032.452	-1622
1032.517	-2191
1032.582	-2871
1032.647	-2352
1032.713	-2386
1032.778	-2125
1032.843	-1654
1032.908	-1881
1032.974	-2353
1033.039	-1974
1033.104	-1415
1033.169	-2409
1033.234	-3248
1033.299	-1674
1033.364	-1957
1033.429	-2357
1033.494	-2805
1033.559	-2434
1033.624	-1955
1033.688	-2655
1033.753	-2090
1033.818	-2214
1033.883	-1493
1033.948	-1714
1034.013	-2320
1034.077	-1651
1034.142	-2807
1034.207	-2451
1034.271	-2408
1034.336	-1750
1034.400	-2358
1034.465	-2249
1034.530	-2676
1034.594	-1911
1034.658	-2618
1034.723	-2486
1034.787	-2128
1034.852	-1270
1034.916	-1635
1034.981	-1872
1035.045	-2420
1035.109	-1459
1035.173	-2380
1035.238	-2494
1035.302	-2426
1035.366	-2083
1035.430	-2550
1035.495	-1177
1035.559	-2415
1035.623	-1868
1035.687	-2679
1035.751	-1862
1035.815	-2775
1035.879	-2094
1035.943	-1986
1036.007	-2266
1036.071	-2657
1036.135	-2597
1036.198	-1981
1036.262	-2433
1036.326	-2443
1036.390	-1421
1036.454	-1566
1036.517	-1267
1036.581	-3196
1036.645	-1501
1036.709	-1569
1036.772	-1840
1036.836	-1980
1036.900	-1956
1036.963	-2736
1037.026	-2833
1037.090	-3222
1037.154	-2790
1037.217	-2443
1037.280	-1970
1037.344	-2170
1037.407	-1890
1037.471	-2483
1037.534	-1474
1037.597	-2579
1037.661	-2499
1037.724	-2814
1037.787	-2589
1037.850	-1857
1037.913	-2141
1037.977	-2177
1038.040	-2504
1038.103	-3020
1038.166	-2277
1038.229	-2381
1038.292	-2278
1038.355	-2504
1038.418	-2144
1038.481	-2494
1038.544	-2315
1038.607	-2946
1038.670	-1879
1038.732	-2662
1038.795	-3220
1038.858	-2505
1038.921	-2145
1038.984	-2777
1039.046	-2077
1039.109	-1940
1039.172	-2065
1039.234	-2670
1039.297	-2042
1039.360	-1756
1039.422	-2152
1039.485	-2011
1039.547	-1607
1039.610	-1909
1039.672	-2445
1039.734	-3185
1039.797	-2648
1039.859	-2570
1039.922	-2362
1039.984	-2196
1040.046	-2540
1040.109	-2393
1040.171	-2515
1040.233	-2512
1040.295	-2066
1040.358	-2199
1040.420	-2571
1040.482	-3089
1040.544	-1639
1040.606	-2699
1040.668	-2465
1040.730	-2757
1040.792	-1431
1040.854	-2435
1040.916	-1868
1040.978	-2771
1041.040	-1331
1041.102	-2726
1041.164	-1406
1041.225	-2287
1041.287	-2618
1041.349	-2774
1041.411	-2553
1041.472	-2389
1041.534	-2450
1041.596	-2892
1041.657	-2534
1041.719	-2130
1041.781	-1456
1041.842	-3331
1041.904	-1661
1041.965	-2120
1042.027	-2187
1042.088	-2752
1042.150	-2445
1042.211	-2598
1042.272	-2866
1042.334	-2874
1042.395	-2929
1042.456	-2828
1042.518	-2612
1042.579	-2200
1042.640	-2801
1042.701	-2728
1042.763	-1705
1042.824	-2679
1042.885	-2229
1042.946	-2409
1043.007	-2290
1043.068	-2944
1043.129	-2115
1043.190	-3099
1043.251	-1920
1043.312	-2510
1043.373	-1645
1043.434	-2501
1043.495	-1802
1043.556	-2071
1043.616	-1815
1043.677	-2577
1043.738	-1588
1043.799	-2184
1043.859	-2401
1043.920	-2193
1043.981	-2752
1044.041	-2776
1044.102	-3002
1044.162	-2350
1044.223	-2198
1044.284	-3094
1044.344	-1952
1044.405	-2695
1044.465	-1823
1044.525	-2195
1044.586	-1879
1044.646	-2767
1044.707	-2141
1044.767	-2789
1044.827	-1979
1044.887	-2198
1044.948	-2529
1045.008	-2395
1045.068	-1462
1045.128	-2389
1045.188	-2371
1045.249	-2027
1045.309	-2593
1045.369	-1861
1045.429	-1774
1045.489	-2006
1045.549	-1625
1045.609	-2714
1045.669	-2899
1045.729	-1945
1045.789	-1766
1045.848	-2783
1045.908	-2277
1045.968	-1596
1046.028	-3093
1046.088	-2450
1046.147	-2279
1046.207	-1465
1046.267	-1927
1046.326	-2134
1046.386	-2101
1046.446	-1718
1046.505	-1701
1046.565	-1057
1046.624	-1217
1046.684	-1500
1046.743	-896
1046.803	-1575
1046.862	-657
1046.922	0
