'Start Wavelength	183.907
'End Wavelength	1046.922
'Gate Delay	5.000
'Gate Width (ms)	1.050
'Laser Output Level	0.000
'X Position	0.000
'Y Position	0.000
'Z Position	0.000
'Grid Point Number	1.000
'Shot Number	100.000
183.907	386.000
183.977	-291.000
184.047	-254
184.116	94
184.186	583
184.256	-1150
184.325	-465
184.395	-947
184.465	-199
184.534	-990
184.604	169
184.674	-14
184.743	-22
184.813	-67
184.883	-243
184.952	-734
185.022	-614
185.092	287
185.161	345
185.231	-112
185.301	160
185.370	189
185.440	-616
185.509	-209
185.579	256
185.649	-1
185.718	4
185.788	351
185.857	-1077
185.927	-181
185.996	-129
186.066	-638
186.136	-186
186.205	-286
186.275	-60
186.344	-201
186.414	-271
186.483	-873
186.553	675
186.622	527
186.692	-371
186.761	-1073
186.831	371
186.900	-323
186.970	308
187.039	-704
187.109	-287
187.178	12
187.248	129
187.317	-522
187.387	-916
187.456	-216
187.526	-92
187.595	-422
187.664	-213
187.734	278
187.803	46
187.873	286
187.942	139
188.012	-636
188.081	-282
188.150	-285
188.220	-592
188.289	123
188.358	-224
188.428	255
188.497	-539
188.567	-58
188.636	272
188.705	-245
188.775	333
188.844	-612
188.913	572
188.983	-248
189.052	-156
189.121	-309
189.191	-973
189.260	251
189.329	-202
189.399	-410
189.468	-521
189.537	-83
189.606	-636
189.676	-463
189.745	-20
189.814	-484
189.883	-181
189.953	-504
190.022	-108
190.091	-709
190.161	635
190.230	-189
190.299	-469
190.368	475
190.437	7
190.507	-118
190.576	-530
190.645	-392
190.714	25
190.783	-560
190.853	237
190.922	-308
190.991	-48
191.060	242
191.129	-154
191.198	43
191.268	-669
191.337	-179
191.406	478
191.475	-783
191.544	332
191.613	-179
191.682	-435
191.752	-6
191.821	-944
191.890	-359
191.959	444
192.028	-414
192.097	-437
192.166	-8
192.235	-337
192.304	73
192.373	-195
192.442	288
192.511	-268
192.580	-572
192.650	-606
192.719	-398
192.788	-205
192.857	-30
192.926	97
192.995	-619
193.064	-809
193.133	-346
193.202	396
193.271	-195
193.340	163
193.409	-427
193.478	474
193.547	-715
193.615	322
193.684	55
193.753	647
193.822	-69
193.891	103
193.960	118
194.029	-507
194.098	-798
194.167	-406
194.236	-399
194.305	-211
194.374	-519
194.443	-71
194.512	-353
194.580	-11
194.649	48
194.718	87
194.787	-415
194.856	-265
194.925	-46
194.994	-299
195.062	809
195.131	-261
195.200	-394
195.269	-280
195.338	20
195.407	140
195.475	-304
195.544	-332
195.613	-704
195.682	-160
195.751	-709
195.819	-903
195.888	-706
195.957	-184
196.026	-525
196.094	276
196.163	-206
196.232	-364
196.301	-381
196.369	139
196.438	34
196.507	64
196.576	-689
196.644	119
196.713	-454
196.782	-87
196.850	-442
196.919	244
196.988	471
197.056	-540
197.125	-207
197.194	1006
197.262	-710
197.331	-143
197.400	-167
197.468	73
197.537	-155
197.606	-232
197.674	-457
197.743	-103
197.812	-956
197.880	209
197.949	-561
198.017	-135
198.086	-997
198.155	97
198.223	439
198.292	550
198.360	-84
198.429	-330
198.497	-99
198.566	-426
198.635	574
198.703	79
198.772	-305
198.840	692
198.909	126
198.977	235
199.046	-123
199.114	75
199.183	-361
199.251	-14
199.320	-347
199.388	-322
199.457	-121
199.525	161
199.594	-619
199.662	184
199.731	-257
199.799	185
199.867	434
199.936	-783
200.004	254
200.073	554
200.141	-331
200.210	-376
200.278	-804
200.346	22
200.415	-794
200.483	-674
200.552	-422
200.620	-443
200.688	-11
200.757	-25
200.825	45
200.893	-273
200.962	-352
201.030	-66
201.098	-798
201.167	-325
201.235	-825
201.303	-214
201.372	-607
201.440	-30
201.508	-340
201.577	-1120
201.645	-749
201.713	-100
201.781	-497
201.850	49
201.918	-435
201.986	-948
202.055	-179
202.123	-157
202.191	-638
202.259	-469
202.327	69
202.396	-108
202.464	84
202.532	-1065
202.600	-4
202.669	-461
202.737	-1026
202.805	-262
202.873	-349
202.941	-413
203.009	-535
203.078	-77
203.146	-422
203.214	288
203.282	-844
203.350	-416
203.418	-582
203.487	415
203.555	-501
203.623	-630
203.691	201
203.759	-214
203.827	-293
203.895	-142
203.963	-466
204.031	-622
204.099	-481
204.168	21
204.236	-234
204.304	-1188
204.372	239
204.440	-527
204.508	-774
204.576	-506
204.644	6
204.712	-1241
204.780	-768
204.848	-424
204.916	-989
204.984	-115
205.052	-634
205.120	-278
205.188	-783
205.256	-279
205.324	-562
205.392	-705
205.460	339
205.528	-741
205.596	-518
205.664	-333
205.732	-631
205.799	35
205.867	31
205.935	-825
206.003	303
206.071	-739
206.139	-158
206.207	-241
206.275	-231
206.343	-226
206.411	-245
206.478	-379
206.546	-143
206.614	-411
206.682	-763
206.750	-727
206.818	-887
206.885	2
206.953	-1553
207.021	61
207.089	484
207.157	-806
207.225	-773
207.292	-251
207.360	-1429
207.428	-620
207.496	-565
207.563	-510
207.631	-472
207.699	-166
207.767	-941
207.834	-338
207.902	-31
207.970	-348
208.038	-468
208.105	-548
208.173	-531
208.241	-316
208.309	-229
208.376	-115
208.444	-229
208.512	-776
208.579	-1473
208.647	-85
208.715	89
208.782	-679
208.850	404
208.918	-393
208.985	-337
209.053	63
209.120	-765
209.188	127
209.256	-78
209.323	-1030
209.391	-608
209.459	1239
209.526	-853
209.594	-395
209.661	-380
209.729	-376
209.796	-1010
209.864	90
209.932	-240
209.999	559
210.067	33
210.134	-178
210.202	-226
210.269	826
210.337	-240
210.404	-558
210.472	-323
210.539	223
210.607	-43
210.674	98
210.742	-354
210.809	-71
210.877	134
210.944	465
211.012	-376
211.079	933
211.146	-582
211.214	31
211.281	-710
211.349	-80
211.416	61
211.484	-197
211.551	-1376
211.618	4
211.686	-812
211.753	-493
211.821	261
211.888	70
211.955	-404
212.023	-265
212.090	-576
212.157	-515
212.225	-736
212.292	-188
212.359	149
212.427	1069
212.494	644
212.561	-285
212.629	-310
212.696	5
212.763	-238
212.831	-720
212.898	-65
212.965	-845
213.032	-171
213.100	-61
213.167	-558
213.234	379
213.301	-640
213.369	666
213.436	-782
213.503	-36
213.570	-283
213.638	-469
213.705	56
213.772	-650
213.839	-491
213.906	-229
213.973	-475
214.041	-6
214.108	218
214.175	97
214.242	-830
214.309	284
214.376	-547
214.444	-1011
214.511	-408
214.578	-868
214.645	262
214.712	290
214.779	-418
214.846	146
214.913	638
214.980	278
215.048	-1086
215.115	315
215.182	-205
215.249	-379
215.316	-545
215.383	469
215.450	-960
215.517	-679
215.584	-434
215.651	-688
215.718	-101
215.785	-64
215.852	-467
215.919	673
215.986	-357
216.053	-537
216.120	-720
216.187	-312
216.254	45
216.321	-194
216.388	-1139
216.455	-290
216.522	405
216.589	-411
216.656	72
216.722	45
216.789	301
216.856	748
216.923	364
216.990	-218
217.057	-622
217.124	574
217.191	165
217.258	-370
217.324	26
217.391	234
217.458	-532
217.525	72
217.592	-182
217.659	-857
217.725	907
217.792	510
217.859	-84
217.926	-647
217.993	-586
218.059	284
218.126	-355
218.193	-270
218.260	63
218.327	-1010
218.393	-1216
218.460	-253
218.527	-1737
218.594	-282
218.660	-576
218.727	494
218.794	-471
218.860	135
218.927	-557
218.994	-102
219.061	-969
219.127	-651
219.194	196
219.261	-614
219.327	-712
219.394	122
219.461	-1929
219.527	-148
219.594	-373
219.661	-76
219.727	-1046
219.794	587
219.860	-1097
219.927	-1082
219.994	-496
220.060	-634
220.127	-114
220.193	41
220.260	-404
220.326	239
220.393	544
220.460	907
220.526	43
220.593	-248
220.659	1697
220.726	495
220.792	1054
220.859	226
220.925	1232
220.992	2160
221.058	1236
221.125	1125
221.191	269
221.258	436
221.324	-256
221.391	74
221.457	-502
221.524	557
221.590	-335
221.657	543
221.723	-65
221.789	275
221.856	778
221.922	-691
221.989	-127
222.055	-236
222.121	-1453
222.188	686
222.254	-443
222.321	-805
222.387	-914
222.453	-628
222.520	-851
222.586	-1337
222.652	-38
222.719	-714
222.785	-272
222.851	-363
222.918	-453
222.984	-23
223.050	-754
223.116	-1167
223.183	107
223.249	-870
223.315	-782
223.382	-846
223.448	-1263
223.514	-850
223.580	-1245
223.647	-835
223.713	-846
223.779	-382
223.845	-939
223.911	-793
223.978	-1235
224.044	-221
224.110	-825
224.176	-31
224.242	-424
224.309	-1221
224.375	-178
224.441	-113
224.507	-824
224.573	-966
224.639	-111
224.705	-868
224.772	-862
224.838	-1339
224.904	-170
224.970	-588
225.036	-846
225.102	-760
225.168	-365
225.234	-23
225.300	-491
225.366	-997
225.432	-336
225.499	-196
225.565	-559
225.631	-406
225.697	-204
225.763	-894
225.829	-716
225.895	-301
225.961	-236
226.027	-236
226.093	-589
226.159	170
226.225	615
226.291	1444
226.357	3603
226.423	648
226.489	180
226.554	14
226.620	172
226.686	71
226.752	-70
226.818	1302
226.884	4000
226.950	3783
227.016	805
227.082	1050
227.148	-701
227.214	641
227.279	-227
227.345	-215
227.411	-199
227.477	-188
227.543	125
227.609	-6
227.674	664
227.740	3
227.806	-428
227.872	97
227.938	-185
228.003	-91
228.069	-485
228.135	-795
228.201	-1005
228.267	116
228.332	-334
228.398	-903
228.464	-164
228.530	-712
228.595	551
228.661	-554
228.727	-874
228.792	348
228.858	-789
228.924	-2117
228.990	1037
229.055	-1513
229.121	-379
229.187	-318
229.252	-639
229.318	-1427
229.384	-79
229.449	-747
229.515	-2333
229.581	-1736
229.646	441
229.712	-605
229.777	-462
229.843	-142
229.909	-547
229.974	-138
230.040	-245
230.105	302
230.171	-879
230.236	-93
230.302	144
230.368	37
230.433	-396
230.499	-278
230.564	161
230.630	-585
230.695	-1007
230.761	-22
230.826	-1332
230.892	532
230.957	-1603
231.023	341
231.088	-459
231.154	-130
231.219	-305
231.284	-713
231.350	-97
231.415	-1236
231.481	-110
231.546	-489
231.612	-832
231.677	-886
231.742	-2609
231.808	-240
231.873	-1522
231.939	-2822
232.004	-287
232.069	49
232.135	-1490
232.200	-1299
232.265	-438
232.331	-713
232.396	-1382
232.461	-309
232.527	-1476
232.592	-1037
232.657	-945
232.723	-1594
232.788	-530
232.853	41
232.918	-726
232.984	-1410
233.049	-1433
233.114	-724
233.179	-957
233.245	294
233.310	-257
233.375	-311
233.440	-396
233.506	-1205
233.571	-501
233.636	-1010
233.701	-1182
233.766	-549
233.832	-1392
233.897	-1321
233.962	-1762
234.027	421
234.092	-607
234.157	-1032
234.222	-1220
234.288	-830
234.353	339
234.418	512
234.483	-825
234.548	-510
234.613	-834
234.678	-695
234.743	-1232
234.808	996
234.873	-1345
234.938	436
235.004	-789
235.069	-256
235.134	-916
235.199	-686
235.264	-623
235.329	-1917
235.394	-180
235.459	-107
235.524	-1815
235.589	-732
235.654	-894
235.719	-1725
235.784	-212
235.849	8
235.913	-770
235.978	-13
236.043	-219
236.108	-876
236.173	-1199
236.238	758
236.303	-1275
236.368	-950
236.433	-256
236.498	-205
236.563	-535
236.627	849
236.692	4964
236.757	4443
236.822	1131
236.887	-560
236.952	137
237.017	-1504
237.081	348
237.146	-364
237.211	1721
237.276	4868
237.341	8102
237.405	2949
237.470	348
237.535	84
237.600	-67
237.664	-143
237.729	-856
237.794	-133
237.859	1591
237.923	-496
237.988	-32
238.053	457
238.118	-504
238.182	1598
238.247	2397
238.312	-332
238.376	-215
238.441	-2503
238.506	1105
238.570	-1133
238.635	-314
238.700	-940
238.764	-1067
238.829	-162
238.893	-779
238.958	176
239.023	-809
239.087	-1143
239.152	-455
239.216	-1296
239.281	-427
239.346	-506
239.410	-1124
239.475	-432
239.539	1361
239.604	-1268
239.668	-93
239.733	-1086
239.797	-248
239.862	1298
239.926	116
239.991	230
240.055	-872
240.120	-965
240.184	-869
240.249	-1498
240.313	-1060
240.378	-687
240.442	-654
240.507	742
240.571	-1366
240.635	-323
240.700	-409
240.764	-457
240.829	-375
240.893	-1631
240.957	-208
241.022	34
241.086	588
241.151	-1183
241.215	-891
241.279	-175
241.344	-701
241.408	122
241.472	-857
241.537	793
241.601	-182
241.665	-1228
241.730	-1304
241.794	342
241.858	-1035
241.922	-1254
241.987	-356
242.051	-1243
242.115	-960
242.179	-267
242.244	-243
242.308	-222
242.372	-960
242.436	-1283
242.501	-174
242.565	-1371
242.629	-1142
242.693	-271
242.757	-927
242.822	-1229
242.886	-91
242.950	340
243.014	-1577
243.078	-913
243.142	-990
243.206	-1754
243.271	-658
243.335	160
243.399	-91
243.463	1170
243.527	5861
243.591	1037
243.655	77
243.719	-946
243.783	-142
243.847	-446
243.911	869
243.975	-791
244.040	-1258
244.104	1057
244.168	-761
244.232	-689
244.296	-909
244.360	351
244.424	-1425
244.488	466
244.552	149
244.615	-1985
244.679	-588
244.743	-932
244.807	-650
244.871	-196
244.935	-942
244.999	-1524
245.063	-980
245.127	201
245.191	-424
245.255	-1125
245.319	-1228
245.383	-2017
245.446	-391
245.510	-1402
245.574	-723
245.638	121
245.702	-1641
245.766	-128
245.829	-357
245.893	-1707
245.957	-1273
246.021	4
246.085	-919
246.149	-457
246.212	410
246.276	398
246.340	-1359
246.404	-488
246.467	-85
246.531	-1281
246.595	197
246.659	65
246.722	-1212
246.786	377
246.850	17
246.913	-756
246.977	-1781
247.041	-1148
247.104	-766
247.168	617
247.232	157
247.295	1724
247.359	420
247.423	-545
247.486	101
247.550	-50
247.614	-1087
247.677	-145
247.741	-1009
247.804	-824
247.868	-402
247.932	78
247.995	2088
248.059	-798
248.122	-1734
248.186	-256
248.249	-343
248.313	3782
248.376	3221
248.440	1567
248.503	-615
248.567	842
248.630	-190
248.694	730
248.757	1366
248.821	3726
248.884	3178
248.948	588
249.011	3159
249.075	4792
249.138	3216
249.202	-23
249.265	-706
249.328	495
249.392	-883
249.455	-204
249.519	-769
249.582	-52
249.645	-236
249.709	-26
249.772	-460
249.835	312
249.899	-1286
249.962	-431
250.025	-1130
250.089	825
250.152	1375
250.215	-290
250.279	-405
250.342	86
250.405	-378
250.468	-634
250.532	-573
250.595	1496
250.658	5095
250.721	12001
250.785	1945
250.848	2210
250.911	-935
250.974	-179
251.038	-597
251.101	1809
251.164	117
251.227	328
251.290	-143
251.354	2027
251.417	8779
251.480	8023
251.543	5257
251.606	20478
251.669	13269
251.732	4663
251.795	3637
251.859	4183
251.922	10442
251.985	5270
252.048	2244
252.111	178
252.174	-316
252.237	1547
252.300	4985
252.363	5478
252.426	15028
252.489	3854
252.552	1597
252.615	35
252.678	987
252.741	4398
252.804	5260
252.867	15052
252.930	6641
252.993	3269
253.056	1667
253.119	438
253.182	308
253.245	458
253.308	1390
253.371	-503
253.434	174
253.497	724
253.559	2117
253.622	201
253.685	640
253.748	958
253.811	-596
253.874	351
253.937	-1238
254.000	-111
254.062	500
254.125	1791
254.188	2144
254.251	1041
254.314	-674
254.376	-431
254.439	1036
254.502	73
254.565	62
254.628	2365
254.690	751
254.753	-1151
254.816	-589
254.878	-202
254.941	529
255.004	897
255.067	-643
255.129	-365
255.192	-1038
255.255	-2129
255.317	-857
255.380	-951
255.443	-1096
255.505	-1453
255.568	-1492
255.631	-1313
255.693	-1356
255.756	-1257
255.819	226
255.881	-763
255.944	-352
256.006	-1251
256.069	-1285
256.132	-1415
256.194	-241
256.257	469
256.319	-271
256.382	-1402
256.444	-32
256.507	-1342
256.569	-370
256.632	-846
256.694	-1489
256.757	2211
256.819	8518
256.882	1502
256.944	-140
257.007	663
257.069	-110
257.132	-275
257.194	164
257.257	-909
257.319	-1314
257.381	-1489
257.444	1533
257.506	9595
257.569	10117
257.631	2516
257.693	1181
257.756	-63
257.818	-316
257.880	-293
257.943	-441
258.005	-922
258.067	-780
258.130	-535
258.192	-715
258.254	-303
258.317	-1040
258.379	-165
258.441	-359
258.503	627
258.566	302
258.628	2025
258.690	-1196
258.753	889
258.815	-539
258.877	-581
258.939	-1063
259.001	-411
259.064	-639
259.126	-1348
259.188	-1465
259.250	-468
259.312	-1229
259.375	486
259.437	-686
259.499	-698
259.561	-1042
259.623	-43
259.685	-1048
259.747	90
259.809	1443
259.872	2173
259.934	4988
259.996	4794
260.058	276
260.120	-709
260.182	-597
260.244	-517
260.306	-755
260.368	-488
260.430	-2127
260.492	-225
260.554	1817
260.616	-593
260.678	1496
260.740	2247
260.802	-1169
260.864	-247
260.926	-1797
260.988	167
261.050	-1035
261.112	1004
261.174	4339
261.236	1069
261.298	-1035
261.359	303
261.421	786
261.483	-1605
261.545	156
261.607	-2229
261.669	-71
261.731	-585
261.793	1107
261.854	-1128
261.916	-398
261.978	-916
262.040	284
262.102	-554
262.164	-1829
262.225	-719
262.287	-1087
262.349	-728
262.411	-671
262.472	-375
262.534	-1231
262.596	-146
262.658	44
262.719	-1536
262.781	118
262.843	-736
262.904	-544
262.966	-1105
263.028	-655
263.090	2947
263.151	8585
263.213	2353
263.275	276
263.336	-829
263.398	-283
263.459	-1952
263.521	-1232
263.583	251
263.644	216
263.706	-1439
263.767	-1511
263.829	-230
263.891	-1694
263.952	-895
264.014	-1618
264.075	23
264.137	2369
264.198	632
264.260	-471
264.321	-723
264.383	308
264.444	3575
264.506	-345
264.567	-288
264.629	1516
264.690	2088
264.752	-851
264.813	-736
264.875	-1368
264.936	120
264.998	-1375
265.059	-1477
265.120	-1099
265.182	-264
265.243	3532
265.305	3612
265.366	-515
265.427	-883
265.489	-637
265.550	-1970
265.611	-1853
265.673	-924
265.734	-983
265.795	-376
265.857	-1703
265.918	-978
265.979	378
266.040	6731
266.102	5356
266.163	928
266.224	101
266.286	-535
266.347	-1170
266.408	-607
266.469	-756
266.530	-827
266.592	-1088
266.653	-481
266.714	-898
266.775	-327
266.836	-912
266.898	-1701
266.959	-619
267.020	-871
267.081	-804
267.142	-1597
267.203	-984
267.264	-1333
267.326	-1307
267.387	-1586
267.448	-1739
267.509	-864
267.570	-1007
267.631	-859
267.692	-2785
267.753	-904
267.814	-1470
267.875	-973
267.936	-536
267.997	-57
268.058	24
268.119	-1119
268.180	-1020
268.241	-1745
268.302	-1021
268.363	-1807
268.424	-1230
268.485	-462
268.546	-1758
268.607	-1529
268.668	-1595
268.729	-1296
268.790	-1351
268.851	-1171
268.912	-356
268.972	-586
269.033	-682
269.094	-1769
269.155	-950
269.216	-1036
269.277	-1027
269.338	-947
269.398	-1712
269.459	-1457
269.520	-600
269.581	-725
269.642	-657
269.702	-747
269.763	-1206
269.824	-1445
269.885	-1196
269.945	-605
270.006	-1088
270.067	-1696
270.128	-1241
270.188	-736
270.249	-1593
270.310	-1531
270.370	-912
270.431	-1245
270.492	-1487
270.553	-1296
270.613	-1483
270.674	121
270.734	-953
270.795	-452
270.856	-884
270.916	-1921
270.977	-1017
271.038	-789
271.098	-1402
271.159	-1120
271.219	-1234
271.280	-1071
271.340	-792
271.401	-1680
271.462	-1681
271.522	-884
271.583	-1132
271.643	-468
271.704	-911
271.764	-300
271.825	-493
271.885	2832
271.946	4661
272.006	336
272.066	1204
272.127	4223
272.187	244
272.248	-1342
272.308	-1068
272.369	1743
272.429	326
272.489	-31
272.550	-282
272.610	-71
272.671	-755
272.731	110
272.791	-409
272.852	-672
272.912	-469
272.972	-1247
273.033	-1566
273.093	-866
273.153	-632
273.214	-621
273.274	-806
273.334	1293
273.394	3591
273.455	-182
273.515	853
273.575	2274
273.635	352
273.696	915
273.756	2161
273.816	413
273.876	-452
273.936	235
273.997	2055
274.057	-904
274.117	-1243
274.177	-345
274.237	3640
274.297	4298
274.358	1017
274.418	1365
274.478	1276
274.538	-353
274.598	-1387
274.658	553
274.718	1129
274.778	-482
274.838	-1205
274.898	-477
274.958	2149
275.018	2454
275.078	840
275.138	-351
275.198	-844
275.258	-662
275.318	-733
275.378	-924
275.438	-625
275.498	-334
275.558	1005
275.618	3279
275.678	1305
275.738	605
275.798	525
275.858	-596
275.918	-1381
275.978	-1173
276.038	-467
276.098	-1261
276.157	-493
276.217	1244
276.277	-326
276.337	-1059
276.397	-1236
276.457	-1026
276.517	-555
276.576	-1258
276.636	-1659
276.696	-818
276.756	1198
276.815	-581
276.875	-1744
276.935	-634
276.995	-640
277.055	-1322
277.114	-1131
277.174	-721
277.234	1073
277.293	-558
277.353	-726
277.413	-422
277.472	-1209
277.532	-1331
277.592	-894
277.651	570
277.711	971
277.771	-1004
277.830	2333
277.890	1426
277.950	486
278.009	4743
278.069	1059
278.128	1000
278.188	1203
278.248	-24
278.307	1130
278.367	20
278.426	-940
278.486	-1005
278.545	-1506
278.605	-631
278.664	-948
278.724	-1043
278.783	726
278.843	4149
278.902	-199
278.962	-1193
279.021	-503
279.081	124
279.140	-618
279.199	-329
279.259	-735
279.318	-1044
279.378	200
279.437	1970
279.496	7935
279.556	29213
279.615	16799
279.675	3085
279.734	875
279.793	2459
279.853	4397
279.912	849
279.971	-638
280.031	-17
280.090	900
280.149	3371
280.208	2487
280.268	19429
280.327	15305
280.386	1985
280.445	1110
280.505	440
280.564	512
280.623	-158
280.682	-656
280.742	141
280.801	-1332
280.860	-1265
280.919	-1256
280.978	-340
281.037	-1657
281.097	-2194
281.156	-1047
281.215	-984
281.274	-2050
281.333	2398
281.392	1280
281.451	-1797
281.510	-1403
281.569	-1435
281.628	-391
281.688	-1396
281.747	-952
281.806	-1619
281.865	-1308
281.924	-1014
281.983	-1577
282.042	-1295
282.101	-1457
282.160	-561
282.219	-1282
282.278	-1650
282.337	-633
282.396	-34
282.454	-606
282.513	-753
282.572	1167
282.631	-127
282.690	-961
282.749	-1831
282.808	-1096
282.867	-869
282.926	-637
282.985	-841
283.043	-1636
283.102	-1494
283.161	-1531
283.220	-700
283.279	1955
283.338	-1167
283.396	-1602
283.455	-448
283.514	-1148
283.573	-81
283.631	-671
283.690	-218
283.749	-1627
283.808	-752
283.866	-170
283.925	-1461
283.984	-999
284.043	-980
284.101	-772
284.160	-878
284.219	-771
284.277	-1231
284.336	-926
284.395	1615
284.453	1631
284.512	-756
284.570	-1130
284.629	-594
284.688	-703
284.746	-783
284.805	-824
284.863	-1077
284.922	-764
284.981	-242
285.039	117
285.098	1995
285.156	8987
285.215	29734
285.273	28580
285.332	11960
285.390	4454
285.449	2367
285.507	942
285.566	193
285.624	-37
285.683	-338
285.741	-605
285.799	-636
285.858	-1280
285.916	-911
285.975	-1082
286.033	-1705
286.091	-541
286.150	-1444
286.208	-868
286.267	-972
286.325	-1613
286.383	163
286.442	-420
286.500	-1281
286.558	-954
286.616	-909
286.675	-949
286.733	-685
286.791	-1469
286.850	-529
286.908	-1093
286.966	-532
287.024	-1065
287.083	-1193
287.141	-1269
287.199	-936
287.257	-519
287.315	-1027
287.374	-1681
287.432	522
287.490	-506
287.548	-703
287.606	-948
287.664	-1037
287.723	-497
287.781	-736
287.839	-960
287.897	-861
287.955	-709
288.013	-97
288.071	2441
288.129	13338
288.187	41921
288.245	17061
288.303	3901
288.361	1672
288.419	996
288.477	411
288.535	-363
288.593	-622
288.651	-1126
288.709	-1553
288.767	-1540
288.825	-618
288.883	-1087
288.941	-251
288.999	-1449
289.057	-212
289.115	-1334
289.173	-652
289.231	-1302
289.289	-1499
289.346	-1203
289.404	-725
289.462	-1325
289.520	-1462
289.578	-644
289.636	-821
289.694	-1196
289.751	-1776
289.809	-1020
289.867	-1286
289.925	-1334
289.983	-1144
290.040	-1157
290.098	-1820
290.156	-1761
290.214	-885
290.271	-1610
290.329	-541
290.387	-1314
290.444	-1911
290.502	-2051
290.560	-709
290.617	-1000
290.675	-1313
290.733	-975
290.790	-767
290.848	-1316
290.906	-1546
290.963	-913
291.021	-526
291.078	-1300
291.136	-1182
291.194	931
291.251	3350
291.309	-134
291.366	-656
291.424	-1402
291.481	-522
291.539	-1577
291.596	-858
291.654	-1468
291.711	-1323
291.769	-1327
291.826	-1175
291.884	-700
291.941	-1398
291.999	-991
292.056	-1247
292.114	-1156
292.171	-927
292.228	-1041
292.286	-734
292.343	-975
292.401	-899
292.458	-2102
292.515	-1276
292.573	-1003
292.630	-771
292.687	-859
292.745	-968
292.802	-748
292.859	1224
292.917	2231
292.974	900
293.031	-1168
293.089	-1431
293.146	-940
293.203	-1377
293.260	-2007
293.318	-91
293.375	291
293.432	-580
293.489	-2213
293.546	-1372
293.604	-729
293.661	378
293.718	4657
293.775	1869
293.832	-301
293.889	-717
293.947	-1068
294.004	-617
294.061	-812
294.118	-41
294.175	3000
294.232	6020
294.289	2379
294.346	-12
294.403	-199
294.460	-591
294.517	-507
294.574	-1611
294.631	-1239
294.688	-753
294.745	623
294.802	6355
294.859	8466
294.916	2563
294.973	406
295.030	-196
295.087	-292
295.144	-276
295.201	-886
295.258	-818
295.315	-1372
295.372	1689
295.429	2924
295.486	1020
295.542	305
295.599	4270
295.656	7014
295.713	4016
295.770	3522
295.827	706
295.883	569
295.940	116
295.997	7
296.054	-566
296.111	-974
296.167	-282
296.224	-1092
296.281	-508
296.338	-2040
296.394	-1210
296.451	-745
296.508	582
296.564	3235
296.621	1471
296.678	3949
296.734	7092
296.791	1797
296.848	296
296.904	899
296.961	1391
297.018	4067
297.074	3200
297.131	22
297.187	-692
297.244	324
297.301	4299
297.357	8317
297.414	1925
297.470	575
297.527	-1294
297.583	-943
297.640	-828
297.696	-1292
297.753	-1550
297.809	-1006
297.866	-1372
297.922	-330
297.979	-1079
298.035	-1397
298.092	-395
298.148	2134
298.204	1476
298.261	-384
298.317	2419
298.374	5852
298.430	2459
298.486	-123
298.543	-1585
298.599	-476
298.656	-135
298.712	713
298.768	2845
298.824	2085
298.881	-123
298.937	-809
298.993	81
299.050	-1065
299.106	-846
299.162	-605
299.218	-735
299.275	-1712
299.331	-409
299.387	298
299.443	3949
299.500	5756
299.556	1373
299.612	109
299.668	-163
299.724	-513
299.780	-361
299.837	-1120
299.893	-276
299.949	3345
300.005	4757
300.061	4025
300.117	7892
300.173	2691
300.229	566
300.285	-191
300.341	1249
300.397	-1075
300.453	-176
300.510	-1291
300.566	-1120
300.622	-554
300.678	1555
300.734	3506
300.790	3733
300.845	4481
300.901	2193
300.957	3551
301.013	2800
301.069	-552
301.125	-263
301.181	-1091
301.237	-487
301.293	-1840
301.349	-745
301.405	-607
301.461	-539
301.516	-352
301.572	-976
301.628	-120
301.684	-69
301.740	355
301.796	1999
301.851	1113
301.907	1794
301.963	2457
302.019	4663
302.074	14515
302.130	14979
302.186	6055
302.242	2461
302.297	434
302.353	518
302.409	1814
302.464	1277
302.520	536
302.576	3878
302.631	5669
302.687	2439
302.743	676
302.798	-171
302.854	-720
302.910	-1021
302.965	-1098
303.021	241
303.076	311
303.132	687
303.187	747
303.243	-308
303.299	-554
303.354	-860
303.410	-829
303.465	-1438
303.521	-942
303.576	-785
303.632	-684
303.687	663
303.743	3507
303.798	3382
303.853	645
303.909	-213
303.964	-1491
304.020	-240
304.075	474
304.130	173
304.186	916
304.241	3119
304.297	1609
304.352	-59
304.358	-179
304.407	-1153
304.449	-70
304.463	298
304.518	-794
304.539	-732
304.573	-653
304.629	-837
304.630	-812
304.684	294
304.720	1803
304.739	2551
304.794	4521
304.811	3910
304.850	2320
304.902	278
304.905	153
304.960	-224
304.992	-501
305.015	-721
305.071	-996
305.083	-898
305.126	-499
305.173	-954
305.181	-1029
305.236	-1070
305.264	-876
305.292	-690
305.347	-238
305.354	-264
305.402	-449
305.445	-568
305.457	-606
305.512	-134
305.535	-28
305.567	173
305.622	-394
305.626	-335
305.678	1057
305.716	3435
305.733	4243
305.788	6442
305.807	5586
305.843	4191
305.897	4659
305.898	4659
305.953	5460
305.988	3544
306.008	2419
306.063	697
306.078	445
306.118	37
306.168	-472
306.173	-508
306.228	-65
306.259	51
306.283	98
306.338	196
306.349	200
306.393	262
306.440	-17
306.448	-87
306.503	-271
306.530	-65
306.558	540
306.613	2428
306.620	2646
306.668	4149
306.711	5479
306.723	5503
306.778	4396
306.801	3251
306.833	1891
306.888	368
306.892	284
306.943	-84
306.982	246
306.997	284
307.052	-15
307.072	-173
307.107	-165
307.162	526
307.163	533
307.217	1635
307.253	2449
307.272	2660
307.327	2172
307.343	1964
307.381	1525
307.434	1332
307.436	1392
307.491	3048
307.524	5264
307.546	5928
307.600	5286
307.614	4752
307.655	2960
307.704	904
307.710	828
307.765	1160
307.795	1690
307.819	2291
307.874	4928
307.885	4923
307.929	3764
307.975	3103
307.984	3184
308.038	3791
308.065	4734
308.093	9258
308.148	21218
308.156	23868
308.202	39753
308.246	50341
308.257	48458
308.312	25638
308.336	16393
308.366	11825
308.421	6811
308.426	6394
308.475	3946
308.517	2573
308.530	2321
308.585	1643
308.607	1520
308.639	1706
308.694	2064
308.697	2110
308.748	4188
308.787	6434
308.803	6594
308.857	5387
308.877	4415
308.912	3141
308.967	3018
308.967	3007
309.021	4332
309.058	5538
309.076	6903
309.130	12463
309.148	14676
309.185	30759
309.238	57509
309.239	57750
309.293	65538
309.328	61767
309.348	52178
309.402	23468
309.418	15889
309.457	10551
309.508	5870
309.511	5734
309.566	4827
309.598	4149
309.620	4065
309.674	4252
309.688	4397
309.729	4219
309.778	3417
309.783	3378
309.837	2900
309.868	2915
309.892	3800
309.946	5990
309.959	6625
310.001	9197
310.049	11835
310.055	11421
310.109	6646
310.139	3784
310.163	2839
310.218	1388
310.229	1103
310.272	1096
310.319	1269
310.326	1217
310.381	837
310.409	656
310.435	800
310.489	837
310.499	908
310.543	1265
310.589	1486
310.598	1514
310.652	1653
310.679	1704
310.706	1558
310.760	947
310.769	936
310.814	797
310.859	233
310.868	262
310.923	744
310.948	791
310.977	856
311.031	1311
311.038	1343
311.085	1172
311.128	955
311.139	971
311.193	1144
311.218	1177
311.247	997
311.301	626
311.308	589
311.356	741
311.398	735
311.410	732
311.464	741
311.488	774
311.518	784
311.572	710
311.578	694
311.626	1180
311.668	1693
311.680	1745
311.734	1870
311.758	1912
311.788	1981
311.842	2085
311.847	2091
311.896	2427
311.937	2697
311.950	2515
312.004	1694
312.027	1321
312.058	1010
312.112	467
312.117	416
312.165	1014
312.207	1530
312.297	3063
312.386	2254
312.476	1095
312.566	2973
312.656	1326
312.745	1442
312.835	2070
312.925	1635
313.015	1339
313.104	934
313.194	1185
313.284	906
313.374	1393
313.463	941
313.553	1088
313.643	825
313.732	1268
313.822	1261
313.912	1311
314.001	1578
314.091	1308
314.180	2293
314.270	2200
314.360	2117
314.449	1505
314.539	1602
314.628	1182
314.718	2105
314.808	1355
314.897	1925
314.987	429
315.076	1372
315.166	960
315.255	1797
315.345	1159
315.434	1470
315.524	1740
315.613	1486
315.703	1305
315.792	1527
315.881	2946
315.971	2006
316.060	2799
316.150	3820
316.239	3592
316.328	1905
316.418	1014
316.507	1272
316.597	1773
316.686	1580
316.775	1057
316.865	4165
316.954	1282
317.043	881
317.133	1267
317.222	884
317.311	895
317.400	-138
317.490	1507
317.579	1721
317.668	825
317.757	997
317.847	1690
317.936	4443
318.025	2480
318.114	1574
318.203	2170
318.293	2446
318.382	5642
318.471	4846
318.560	6154
318.649	18404
318.738	3921
318.828	1640
318.917	1596
319.006	2712
319.095	5712
319.184	22852
319.273	10410
319.362	3729
319.451	1045
319.540	1636
319.629	2883
319.718	4262
319.807	2631
319.896	5928
319.985	26681
320.074	8068
320.163	1319
320.252	2852
320.341	3778
320.430	3070
320.519	2746
320.608	1612
320.697	2297
320.786	964
320.875	1238
320.964	1757
321.053	2412
321.142	3618
321.230	4826
321.319	3565
321.408	8263
321.497	4140
321.586	2412
321.675	3801
321.764	4795
321.852	2535
321.941	4503
322.030	3167
322.119	3471
322.207	7233
322.296	6474
322.385	3669
322.474	2944
322.562	8294
322.651	5797
322.740	2536
322.829	4878
322.917	5306
323.006	2146
323.095	2540
323.183	2139
323.272	3387
323.361	5359
323.449	17496
323.538	6027
323.626	11490
323.715	8093
323.804	2721
323.892	10594
323.981	6032
324.069	2068
324.158	5114
324.246	6101
324.335	1952
324.424	3289
324.512	1420
324.601	2590
324.689	8166
324.778	18534
324.866	5207
324.954	1392
325.043	1750
325.131	1833
325.220	5023
325.308	5197
325.397	3523
325.485	2684
325.574	973
325.662	1525
325.750	-182
325.839	1096
325.927	1131
326.015	1211
326.104	1560
326.192	2447
326.280	818
326.369	985
326.457	1725
326.545	2178
326.634	923
326.722	978
326.810	721
326.898	1022
326.987	1348
327.075	1696
327.163	2715
327.251	1983
327.340	5740
327.428	12353
327.516	2254
327.604	668
327.692	1182
327.781	1087
327.869	1598
327.957	821
328.045	782
328.133	1030
328.221	503
328.309	1463
328.397	854
328.485	1706
328.574	1930
328.662	4457
328.750	2873
328.838	765
328.926	1408
329.014	1229
329.102	1857
329.190	4445
329.278	2452
329.366	1578
329.454	397
329.542	722
329.630	1399
329.718	1929
329.806	1384
329.893	2397
329.981	3063
330.069	5628
330.157	19634
330.245	60323
330.333	33964
330.421	5347
330.509	2581
330.597	5391
330.684	4905
330.772	2985
330.860	3365
330.948	4666
331.036	2424
331.123	639
331.211	1461
331.299	1517
331.387	3900
331.475	7290
331.562	2219
331.650	446
331.738	1024
331.825	1680
331.913	1494
332.001	-234
332.089	1285
332.176	2592
332.264	4948
332.352	4309
332.439	1430
332.527	249
332.614	832
332.702	1736
332.790	1208
332.877	1961
332.965	5841
333.052	802
333.140	293
333.228	1619
333.315	945
333.403	1437
333.490	2696
333.578	2540
333.665	2094
333.753	1197
333.840	604
333.928	1472
334.015	3763
334.103	6840
334.190	26220
334.278	6664
334.365	2220
334.452	1077
334.540	801
334.627	1164
334.715	1461
334.802	3669
334.889	18693
334.977	20918
335.064	2812
335.151	818
335.239	1859
335.326	2706
335.413	13065
335.501	19565
335.588	2387
335.675	747
335.762	1604
335.850	4532
335.937	2158
336.024	4968
336.111	25264
336.199	10951
336.286	2044
336.373	1969
336.460	1177
336.547	990
336.635	1366
336.722	924
336.809	489
336.896	2053
336.983	7661
337.070	20735
337.157	29143
337.245	14914
337.332	10543
337.419	1724
337.506	1583
337.593	1424
337.680	7059
337.767	23051
337.854	5529
337.941	5372
338.028	4126
338.115	763
338.202	3368
338.289	3097
338.376	13026
338.463	5282
338.550	11875
338.637	14645
338.724	3539
338.811	4367
338.898	1261
338.984	638
339.071	974
339.158	1963
339.245	2086
339.332	2241
339.419	2157
339.506	2553
339.593	-7
339.679	1226
339.766	123
339.853	1325
339.940	2049
340.027	1036
340.113	1146
340.200	1311
340.287	547
340.374	614
340.460	1974
340.547	523
340.634	1877
340.720	5802
340.807	3654
340.894	669
340.980	1219
341.067	492
341.154	1576
341.240	807
341.327	2082
341.414	1457
341.500	304
341.587	1041
341.674	654
341.760	2692
341.847	1279
341.933	333
342.020	279
342.106	588
342.193	1135
342.279	744
342.366	737
342.452	1632
342.539	961
342.625	2408
342.712	5607
342.798	2086
342.885	851
342.971	-68
343.058	421
343.144	-192
343.230	776
343.317	841
343.403	-227
343.490	-251
343.576	655
343.662	514
343.749	1098
343.835	449
343.921	2139
344.008	14817
344.094	40476
344.180	7937
344.267	2815
344.353	9491
344.439	10529
344.525	2957
344.612	2257
344.698	1877
344.784	987
344.870	1203
344.957	-413
345.043	1921
345.129	-542
345.215	2102
345.301	721
345.387	535
345.474	522
345.560	75
345.646	607
345.732	1532
345.818	691
345.904	89
345.990	983
346.076	590
346.162	1482
346.249	1407
346.335	580
346.421	1408
346.507	3696
346.593	14866
346.679	2922
346.765	1452
346.851	512
346.937	-6
347.023	1045
347.108	1159
347.194	82
347.280	453
347.366	716
347.452	3546
347.538	17062
347.624	12928
347.710	9728
347.796	1756
347.882	605
347.967	89
348.053	1471
348.139	814
348.225	748
348.311	-190
348.397	669
348.482	1394
348.568	1180
348.654	104
348.740	718
348.825	-728
348.911	2263
348.997	6677
349.083	17460
349.168	2474
349.254	271
349.340	1044
349.425	973
349.511	504
349.597	956
349.682	1860
349.768	9881
349.854	4625
349.939	1257
350.025	127
350.110	991
350.196	279
350.282	-457
350.367	820
350.453	956
350.538	539
350.624	498
350.709	1160
350.795	307
350.880	73
350.966	1048
351.051	1427
351.137	504
351.222	884
351.308	1521
351.393	7047
351.479	1494
351.564	115
351.649	537
351.735	499
351.820	-115
351.906	524
351.991	620
352.076	3800
352.162	6348
352.247	1595
352.332	989
352.418	844
352.503	1978
352.588	9826
352.673	7754
352.759	1381
352.844	818
352.929	1184
353.014	597
353.100	658
353.185	-190
353.270	1355
353.355	2310
353.441	580
353.526	1066
353.611	1149
353.696	1578
353.781	1185
353.866	-47
353.952	1315
354.037	776
354.122	3731
354.207	3245
354.292	1442
354.377	-295
354.462	447
354.547	192
354.632	903
354.717	1528
354.802	84
354.887	762
354.972	284
355.057	-50
355.142	-904
355.227	704
355.312	1232
355.397	2153
355.482	5039
355.567	2276
355.652	1841
355.737	2022
355.822	10153
355.907	8407
355.991	1612
356.076	-336
356.161	588
356.246	220
356.331	90
356.416	1890
356.501	17840
356.585	19739
356.670	1908
356.755	3395
356.840	1382
356.924	8828
357.009	40892
357.094	15888
357.179	2180
357.263	1039
357.348	1793
357.433	1732
357.517	1214
357.602	1211
357.687	1387
357.771	1524
357.856	7614
357.941	5251
358.025	7477
358.110	43590
358.195	20560
358.279	2220
358.364	1606
358.448	4587
358.533	15980
358.617	11957
358.702	12599
358.787	4086
358.871	2193
358.956	1444
359.040	112
359.125	159
359.209	385
359.294	3748
359.378	6457
359.462	1812
359.547	1161
359.631	136
359.716	241
359.800	958
359.885	1495
359.969	1024
360.053	903
360.138	273
360.222	400
360.306	917
360.391	1640
360.475	4059
360.559	8384
360.644	5038
360.728	3226
360.812	8505
360.896	29294
360.981	10812
361.065	4981
361.149	1796
361.233	860
361.318	-125
361.402	1913
361.486	1643
361.570	709
361.654	925
361.739	1989
361.823	15475
361.907	28967
361.991	4364
362.075	1398
362.159	2264
362.243	3237
362.327	2025
362.411	4321
362.495	1170
362.580	831
362.664	1175
362.748	142
362.832	810
362.916	242
363.000	6112
363.084	17618
363.168	32310
363.252	6489
363.336	2787
363.420	2500
363.503	18530
363.587	24030
363.671	3062
363.755	1308
363.839	2967
363.923	655
364.007	2031
364.091	2879
364.175	4873
364.258	31863
364.342	17129
364.426	12008
364.510	5150
364.594	4216
364.677	5155
364.761	23541
364.845	18628
364.929	4066
365.013	2694
365.096	2383
365.180	3041
365.264	7040
365.347	33861
365.431	13565
365.515	2770
365.598	302
365.682	2033
365.766	1883
365.849	4315
365.933	988
366.017	3032
366.100	1052
366.184	-224
366.267	683
366.351	-241
366.435	337
366.518	-307
366.602	795
366.685	734
366.769	319
366.852	2789
366.936	4321
367.019	1429
367.103	1050
367.186	5544
367.270	1066
367.353	-406
367.436	1107
367.520	-172
367.603	605
367.687	53
367.770	2251
367.853	1071
367.937	6929
368.020	12486
368.104	2309
368.187	1517
368.270	2791
368.353	1636
368.437	2192
368.520	8677
368.603	4692
368.687	6676
368.770	12817
368.853	2766
368.936	2783
369.020	4443
369.103	679
369.186	438
369.269	827
369.352	1762
369.436	1447
369.519	1410
369.602	-1139
369.685	1738
369.768	350
369.851	953
369.934	342
370.018	720
370.101	245
370.184	2963
370.267	1395
370.350	2230
370.433	2968
370.516	11038
370.599	14736
370.682	576
370.765	6139
370.848	8744
370.931	18999
371.014	8193
371.097	394
371.180	867
371.263	769
371.346	-421
371.429	673
371.511	-259
371.594	712
371.677	2922
371.760	4864
371.843	2500
371.926	12804
372.009	36963
372.091	12757
372.174	5325
372.257	20095
372.340	6837
372.423	4320
372.505	8616
372.588	2685
372.671	4548
372.754	16129
372.836	8356
372.919	8422
373.002	21378
373.085	4578
373.167	2857
373.250	5214
373.332	16896
373.415	21885
373.498	49475
373.580	17089
373.663	19260
373.746	31310
373.828	6269
373.911	2957
373.993	2201
374.076	18806
374.159	17592
374.241	5033
374.324	12807
374.406	8522
374.489	11678
374.571	43599
374.654	16865
374.736	6122
374.819	24335
374.901	35008
374.983	38533
375.066	6112
375.148	2680
375.231	13076
375.313	31587
375.395	10603
375.478	921
375.560	1315
375.643	1964
375.725	5927
375.807	30271
375.890	25863
375.972	6883
376.054	3298
376.136	6617
376.219	2430
376.301	7621
376.383	26702
376.465	10211
376.548	2376
376.630	5116
376.712	22081
376.794	9915
376.877	1347
376.959	502
377.041	1005
377.123	3613
377.205	4273
377.287	223
377.369	670
377.452	-87
377.534	510
377.616	158
377.698	-29
377.780	-1224
377.862	473
377.944	1694
378.026	-443
378.108	717
378.190	-207
378.272	1009
378.354	-123
378.436	-136
378.518	942
378.600	6903
378.682	4483
378.764	8899
378.846	7254
378.928	2138
379.010	1835
379.091	1450
379.173	675
379.255	-134
379.337	451
379.419	3134
379.501	13492
379.583	6000
379.664	925
379.746	1833
379.828	8815
379.910	11488
379.991	12245
380.073	936
380.155	382
380.237	727
380.318	247
380.400	-88
380.482	931
380.564	1731
380.645	1205
380.727	1347
380.809	1816
380.890	-102
380.972	147
381.053	257
381.135	1253
381.217	1471
381.298	9624
381.380	4227
381.461	2979
381.543	18605
381.624	26393
381.706	4439
381.787	1504
381.869	2189
381.951	8086
382.032	37120
382.113	24387
382.195	3068
382.276	3024
382.358	4126
382.439	17573
382.521	21410
382.602	37239
382.684	13371
382.765	21932
382.846	17141
382.928	12017
383.009	6038
383.090	4091
383.172	15534
383.253	28214
383.334	12441
383.416	27516
383.497	14874
383.578	2533
383.659	4182
383.741	14173
383.822	43702
383.903	21926
383.984	11582
384.066	32812
384.147	18947
384.228	3987
384.309	1658
384.390	1345
384.471	944
384.553	1112
384.634	2002
384.715	1874
384.796	344
384.877	1398
384.958	7309
385.039	9096
385.120	3110
385.201	2544
385.282	2410
385.363	2324
385.444	886
385.525	2339
385.606	14573
385.687	14856
385.768	3375
385.849	2168
385.930	16217
386.011	33185
386.092	8550
386.173	1528
386.254	863
386.335	1586
386.416	567
386.496	5164
386.577	9704
386.658	4078
386.739	1777
386.820	2942
386.901	964
386.981	1697
387.062	480
387.143	264
387.224	7590
387.304	8975
387.385	3181
387.466	734
387.547	2932
387.627	1037
387.708	1971
387.789	16416
387.869	22716
387.950	6055
388.031	586
388.111	-202
388.192	4755
388.273	7337
388.353	2810
388.434	1699
388.514	2487
388.595	17710
388.676	23702
388.756	9490
388.837	7008
388.917	4810
388.998	-93
389.078	1975
389.159	905
389.239	-438
389.320	1911
389.400	394
389.480	3497
389.561	10520
389.641	6619
389.722	1490
389.802	1874
389.883	3964
389.963	14412
390.043	8235
390.124	2246
390.204	2980
390.284	8524
390.365	5778
390.445	9383
390.525	22143
390.605	17384
390.686	4640
390.766	2141
390.846	953
390.927	229
391.007	-353
391.087	1332
391.167	291
391.247	-759
391.328	1783
391.408	3783
391.488	2601
391.568	-734
391.648	1043
391.728	1656
391.808	1359
391.888	642
391.969	4676
392.049	8987
392.129	4966
392.209	3819
392.289	13305
392.369	7348
392.449	8173
392.529	3684
392.609	2763
392.689	2907
392.769	11166
392.849	10515
392.929	7786
393.009	19176
393.089	12379
393.169	5522
393.248	19178
393.328	112885
393.408	130348
393.488	25411
393.568	5529
393.648	2641
393.728	1084
393.807	734
393.887	2006
393.967	2093
394.047	1694
394.127	2060
394.206	4212
394.286	17577
394.366	94075
394.446	110900
394.525	24080
394.605	5300
394.685	4579
394.764	11236
394.844	19504
394.924	13260
395.003	3472
395.083	1654
395.163	1734
395.242	417
395.322	2400
395.402	-525
395.481	2753
395.561	5911
395.640	20081
395.720	13331
395.799	24086
395.879	19396
395.958	8449
396.038	26537
396.117	122681
396.197	149436
396.276	42653
396.356	12885
396.435	8773
396.515	4568
396.594	3326
396.673	6223
396.753	25024
396.832	108110
396.912	79150
396.991	14381
397.070	4184
397.150	683
397.229	2324
397.308	1405
397.388	3314
397.467	2238
397.546	953
397.625	-1255
397.705	2354
397.784	653
397.863	-609
397.942	27
398.022	164
398.101	5788
398.180	21723
398.259	11339
398.338	2169
398.417	232
398.497	386
398.576	1712
398.655	-1531
398.734	713
398.813	418
398.892	5637
398.971	24207
399.050	11215
399.129	333
399.208	-74
399.287	1022
399.366	-531
399.445	-304
399.524	568
399.603	-1106
399.682	673
399.761	4305
399.840	23879
399.919	20016
399.998	1273
400.077	-923
400.156	-969
400.235	1877
400.313	-301
400.392	-367
400.471	4475
400.550	7672
400.629	440
400.708	422
400.786	-123
400.865	4506
400.944	4779
401.023	2929
401.102	-848
401.180	-332
401.259	-82
401.338	-31
401.416	1059
401.495	-253
401.574	1041
401.652	-493
401.731	1420
401.810	-898
401.888	103
401.967	32
402.046	-248
402.124	762
402.203	708
402.281	731
402.360	789
402.438	5871
402.517	3837
402.596	1414
402.674	923
402.753	102
402.831	636
402.910	255
402.988	691
403.066	7319
403.145	5179
403.223	2439
403.302	5742
403.380	3692
403.459	3369
403.537	795
403.615	-312
403.694	-1060
403.772	-64
403.850	95
403.929	-848
404.007	-525
404.085	1561
404.164	221
404.242	354
404.320	3321
404.398	10094
404.477	11295
404.555	28602
404.633	25622
404.711	8819
404.789	4677
404.868	254
404.946	-1196
405.024	-163
405.102	543
405.180	-212
405.258	-1129
405.336	280
405.415	-519
405.493	1345
405.571	1083
405.649	-706
405.727	-1089
405.805	1296
405.883	277
405.961	97
406.039	136
406.117	-1631
406.195	657
406.273	3411
406.351	21382
406.429	14160
406.507	1975
406.585	-122
406.663	-213
406.740	620
406.818	-409
406.896	-1140
406.974	552
407.052	301
407.130	10091
407.208	16612
407.285	2515
407.363	-759
407.441	-226
407.519	-263
407.596	145
407.674	1022
407.752	7058
407.830	8060
407.907	3328
407.985	-731
408.063	17
408.141	-943
408.218	1270
408.296	-350
408.373	-33
408.451	-665
408.529	-891
408.606	-293
408.684	-264
408.762	128
408.839	-351
408.917	-926
408.994	-356
409.072	-1158
409.149	-192
409.227	-744
409.304	-560
409.382	-280
409.459	-987
409.537	597
409.614	-424
409.692	383
409.769	-1041
409.846	-235
409.924	1501
410.001	-57
410.079	-670
410.156	407
410.233	13
410.311	-728
410.388	-671
410.465	-197
410.543	-1042
410.620	-88
410.697	-586
410.775	-161
410.852	-1654
410.929	268
411.006	606
411.083	-856
411.161	35
411.238	1251
411.315	658
411.392	-722
411.469	-90
411.547	149
411.624	-1386
411.701	-962
411.778	-767
411.855	-102
411.932	-924
412.009	-566
412.086	-706
412.163	44
412.240	426
412.317	243
412.394	-39
412.471	-293
412.548	-384
412.625	-468
412.702	-637
412.779	158
412.856	817
412.933	-1235
413.010	-686
413.087	531
413.164	2649
413.241	5149
413.318	-566
413.395	142
413.471	-332
413.548	-162
413.625	36
413.702	-897
413.779	-332
413.855	-162
413.932	-1480
414.009	-1449
414.086	-373
414.162	-673
414.239	337
414.316	2279
414.393	8626
414.469	1238
414.546	-661
414.623	-612
414.699	-1010
414.776	-692
414.853	-964
414.929	-327
415.006	-605
415.082	213
415.159	-333
415.236	-616
415.312	28
415.389	-369
415.465	-326
415.542	-186
415.618	-1795
415.695	637
415.771	47
415.848	-923
415.924	-1428
416.000	-872
416.077	257
416.153	-1599
416.230	-1708
416.306	-560
416.383	-956
416.459	225
416.535	-560
416.612	-339
416.688	-593
416.764	-859
416.841	-764
416.917	-615
416.993	109
417.069	-272
417.146	-528
417.222	84
417.298	-214
417.374	-999
417.451	-353
417.527	-880
417.603	-419
417.679	-481
417.755	-964
417.831	-991
417.908	-1304
417.984	-751
418.060	-1499
418.136	-517
418.212	-220
418.288	-477
418.364	156
418.440	-1029
418.516	15
418.592	446
418.668	1518
418.744	1348
418.820	687
418.896	-961
418.972	-1420
419.048	-1439
419.124	1237
419.200	-1608
419.276	-544
419.352	-814
419.428	-720
419.504	-770
419.579	-1101
419.655	-1073
419.731	-1220
419.807	319
419.883	951
419.959	310
420.034	-37
420.110	833
420.186	4282
420.262	3558
420.337	-865
420.413	-1403
420.489	-253
420.565	-469
420.640	-1234
420.716	82
420.792	-1432
420.867	-42
420.943	-633
421.019	-121
421.094	-1304
421.170	206
421.245	-1305
421.321	-621
421.397	-706
421.472	220
421.548	1850
421.623	1760
421.699	-270
421.774	182
421.850	-532
421.925	-59
422.001	-2
422.076	331
422.152	-113
422.227	120
422.302	1345
422.378	1805
422.453	4267
422.529	14880
422.604	56667
422.679	123827
422.755	71100
422.830	17931
422.905	5968
422.981	2497
423.056	1148
423.131	395
423.207	515
423.282	-326
423.357	1360
423.432	-220
423.508	-52
423.583	347
423.658	638
423.733	-495
423.808	-72
423.883	-68
423.959	-864
424.034	-1598
424.109	389
424.184	-1429
424.259	-1366
424.334	-900
424.409	-818
424.484	-1224
424.559	-1231
424.634	-1089
424.709	-1271
424.784	-451
424.859	-1040
424.934	-1062
425.009	1995
425.084	5331
425.159	1294
425.234	-1391
425.309	-950
425.384	1211
425.459	2497
425.534	-26
425.609	-719
425.683	-278
425.758	-1015
425.833	-423
425.908	106
425.983	-61
426.058	5779
426.132	1892
426.207	-913
426.282	1399
426.357	641
426.431	-1448
426.506	-525
426.581	-847
426.655	-410
426.730	-1543
426.805	-1370
426.879	244
426.954	-1129
427.029	49
427.103	5576
427.178	18030
427.253	8190
427.327	273
427.402	-471
427.476	3928
427.551	1388
427.625	72
427.700	334
427.774	-1836
427.849	68
427.923	-1262
427.998	-901
428.072	-967
428.147	922
428.221	3590
428.296	15998
428.370	8328
428.444	-83
428.519	924
428.593	3440
428.667	2641
428.742	4178
428.816	3827
428.890	10507
428.965	18593
429.039	6723
429.113	4452
429.188	1669
429.262	-659
429.336	-274
429.410	2210
429.485	1892
429.559	2800
429.633	2563
429.707	-353
429.781	320
429.855	12389
429.930	18647
430.004	11692
430.078	21975
430.152	18692
430.226	23180
430.300	27198
430.374	2888
430.448	379
430.522	4512
430.596	21015
430.670	11490
430.744	16111
430.818	28212
430.892	5542
430.966	-578
431.040	-89
431.114	-1083
431.188	-1432
431.262	-1083
431.336	-1111
431.410	1764
431.484	4310
431.557	2392
431.631	-1778
431.705	-592
431.779	1481
431.853	12486
431.927	9899
432.000	-712
432.074	-1005
432.148	-518
432.222	-841
432.295	-333
432.369	-911
432.443	-613
432.516	5032
432.590	18607
432.664	7467
432.737	-261
432.811	-1116
432.885	-458
432.958	-268
433.032	-1004
433.106	-1435
433.179	-1511
433.253	-1012
433.326	-1600
433.400	-1245
433.473	-1024
433.547	-1121
433.620	-641
433.694	-1167
433.767	181
433.841	-2029
433.914	-1662
433.988	-1149
434.061	-954
434.134	-1293
434.208	-1374
434.281	-802
434.355	-1121
434.428	-1069
434.501	-783
434.575	-1053
434.648	-880
434.721	-1565
434.795	-1001
434.868	-1346
434.941	-1703
435.014	-1824
435.088	-1564
435.161	-539
435.234	-1400
435.307	-383
435.381	-1378
435.454	-662
435.527	-1293
435.600	-1056
435.673	-819
435.746	-1435
435.819	-1271
435.892	-570
435.966	-1736
436.039	-1127
436.112	-817
436.185	-1958
436.258	-1095
436.331	-1622
436.404	-826
436.477	-2160
436.550	-608
436.623	-1325
436.696	-1960
436.769	-1572
436.842	-1054
436.915	-1293
436.987	-1289
437.060	-1620
437.133	-1024
437.206	-1500
437.279	-1411
437.352	-1852
437.425	-1009
437.498	-963
437.570	67
437.643	-304
437.716	-2083
437.789	-980
437.861	-266
437.934	1215
438.007	366
438.080	-1035
438.152	-1218
438.225	131
438.298	7896
438.370	29752
438.443	12521
438.516	1563
438.588	-1079
438.661	-872
438.734	-1179
438.806	-1243
438.879	-399
438.951	-896
439.024	-741
439.096	-1242
439.169	-637
439.241	-425
439.314	-1262
439.386	-887
439.459	300
439.531	-174
439.604	-602
439.676	-703
439.749	-1189
439.821	-1497
439.893	-1493
439.966	-1472
440.038	-1042
440.110	-515
440.183	-1179
440.255	-1053
440.327	178
440.400	2432
440.472	16869
440.544	11789
440.617	1238
440.689	-717
440.761	355
440.833	948
440.905	518
440.978	-1222
441.050	-631
441.122	-104
441.194	-1435
441.266	-1165
441.338	-1673
441.411	-1527
441.483	2486
441.555	5791
441.627	179
441.699	-64
441.771	179
441.843	-1241
441.915	-997
441.987	-897
442.059	-1434
442.131	-1265
442.203	-530
442.275	-200
442.347	-440
442.419	0
442.491	4121
442.563	13857
442.635	8413
442.706	3970
442.778	4093
442.850	-160
442.922	-1401
442.994	-934
443.066	-57
443.137	-464
443.209	-342
443.281	-690
443.353	1144
443.425	7090
443.496	28269
443.568	31592
443.640	12071
443.711	1328
443.783	-109
443.855	-194
443.926	-757
443.998	-1208
444.070	-95
444.141	-197
444.213	189
444.285	-335
444.356	-30
444.428	-461
444.499	-1369
444.571	-1145
444.642	-1491
444.714	-1661
444.785	28
444.857	43
444.928	2930
445.000	1694
445.071	1751
445.143	2170
445.214	647
445.285	1015
445.357	7063
445.428	19951
445.500	54451
445.571	36967
445.642	16015
445.714	7400
445.785	7525
445.856	940
445.928	169
445.999	-178
446.070	-958
446.141	-233
446.213	154
446.284	-308
446.355	-345
446.426	-868
446.497	-1479
446.569	68
446.640	948
446.711	-160
446.782	-625
446.853	-788
446.924	-869
446.995	-1244
447.066	-632
447.138	296
447.209	554
447.280	-1315
447.351	-650
447.422	-1615
447.493	-847
447.564	269
447.635	-520
447.706	-578
447.777	-1372
447.847	-1402
447.918	-1700
447.989	-460
448.060	-233
448.131	2211
448.202	1994
448.273	637
448.344	-465
448.414	-1224
448.485	-1315
448.556	-1115
448.627	-588
448.698	9
448.768	-1782
448.839	-277
448.910	-114
448.981	233
449.051	-692
449.122	-1023
449.193	-1235
449.263	-1663
449.334	-719
449.405	-1116
449.475	-158
449.546	362
449.616	731
449.687	1181
449.758	-674
449.828	-1220
449.899	-710
449.969	-906
450.040	-618
450.110	-284
450.181	366
450.251	-580
450.322	-99
450.392	-1065
450.463	-463
450.533	-863
450.604	-801
450.674	-947
450.744	-86
450.815	-971
450.885	-944
450.955	-851
451.026	-1359
451.096	-1173
451.166	-623
451.237	127
451.307	4420
451.377	2007
451.447	-1633
451.518	-734
451.588	-1248
451.658	-852
451.728	116
451.799	4810
451.869	6441
451.939	943
452.009	-653
452.079	-1138
452.149	148
452.219	208
452.289	5269
452.360	5032
452.430	133
452.500	-313
452.570	-760
452.640	665
452.710	2552
452.780	6098
452.850	3151
452.920	1478
452.990	478
453.060	182
453.129	-567
453.199	163
453.269	4938
453.339	16269
453.409	27653
453.479	23915
453.549	37315
453.619	42221
453.688	18489
453.758	2397
453.828	-689
453.898	-696
453.968	-407
454.037	-118
454.087	-775
454.107	-1048
454.168	-1100
454.177	-1119
454.247	-302
454.249	-301
454.316	-515
454.330	-667
454.386	-1274
454.411	36
454.456	2144
454.492	3394
454.525	4532
454.574	1997
454.595	882
454.655	-807
454.665	-1073
454.734	-145
454.736	-117
454.804	280
454.817	1155
454.873	4557
454.898	5505
454.943	7242
454.979	4534
455.013	2113
455.060	711
455.082	116
455.141	390
455.152	415
455.221	2780
455.222	2872
455.291	8531
455.303	8147
455.360	6212
455.384	8336
455.430	11957
455.465	9605
455.499	7405
455.546	5966
455.569	5204
455.627	3084
455.638	2730
455.707	-358
455.708	-356
455.777	-1125
455.789	-1034
455.846	-741
455.869	-684
455.916	-564
455.950	-408
455.985	-203
456.031	-312
456.054	-414
456.112	-388
456.124	-354
456.193	-176
456.193	-183
456.262	-782
456.274	-577
456.332	316
456.355	52
456.401	-557
456.436	-724
456.470	-821
456.516	-517
456.540	-404
456.597	-801
456.609	-889
456.678	-277
456.678	-281
456.747	-545
456.759	-638
456.817	-1010
456.840	-830
456.886	-602
456.920	-771
456.955	-854
457.001	-308
457.024	-80
457.082	-506
457.093	-581
457.162	151
457.163	159
457.232	225
457.243	155
457.301	-187
457.324	-380
457.370	-739
457.405	-511
457.439	-224
457.485	-207
457.508	-303
457.566	-288
457.577	-245
457.646	-222
457.647	-214
457.715	196
457.727	252
457.784	636
457.808	1141
457.853	1860
457.889	2401
457.922	2456
457.969	1496
457.991	1402
458.050	1294
458.060	1326
458.129	2919
458.130	2971
458.198	3443
458.211	3137
458.267	2025
458.292	1360
458.336	110
458.372	-145
458.405	387
458.453	785
458.474	981
458.533	3028
458.543	3276
458.611	5635
458.614	5709
458.680	4692
458.694	3873
458.749	1989
458.775	1355
458.818	350
458.855	117
458.887	173
458.936	-38
458.955	-121
459.016	662
459.024	793
459.093	595
459.097	618
459.162	-42
459.177	-174
459.230	121
459.257	333
459.299	218
459.338	36
459.368	210
459.418	716
459.437	630
459.499	-94
459.505	-99
459.574	349
459.579	343
459.643	134
459.659	168
459.711	166
459.740	169
459.780	197
459.820	156
459.849	262
459.900	665
459.917	684
459.981	556
459.986	534
460.054	462
460.061	469
460.123	631
460.141	571
460.191	489
460.222	492
460.260	529
460.302	631
460.328	771
460.382	1151
460.397	1093
460.462	204
460.465	225
460.534	1516
460.543	1645
460.602	5318
460.623	6978
460.671	12058
460.703	17470
460.739	17240
460.783	15817
460.808	15097
460.864	4610
460.876	3153
460.944	432
460.945	411
461.013	501
461.024	494
461.081	373
461.104	573
461.150	749
461.184	542
461.218	513
461.264	603
461.286	554
461.345	202
461.355	159
461.423	443
461.425	446
461.491	1200
461.505	1296
461.559	1705
461.585	2079
461.628	3816
461.665	5309
461.696	5719
461.745	7637
461.764	7066
461.825	2971
461.832	2913
461.901	992
461.905	984
461.969	529
461.985	475
462.037	943
462.065	1284
462.105	1471
462.145	1350
462.173	1798
462.225	3040
462.241	3394
462.305	4861
462.310	4727
462.378	2858
462.385	2460
462.446	1088
462.465	893
462.514	833
462.545	992
462.582	1226
462.625	1222
462.650	1014
462.705	783
462.718	784
462.785	857
462.786	866
462.854	1154
462.865	1247
462.922	2069
462.945	2462
462.990	2211
463.025	1455
463.058	1121
463.104	1099
463.126	1160
463.184	1404
463.194	1427
463.262	1281
463.264	1282
463.330	1013
463.344	944
463.398	1576
463.424	1926
463.466	1497
463.504	1095
463.533	1291
463.583	1402
463.601	1173
463.663	718
463.669	814
463.737	1733
463.743	1817
463.805	3034
463.823	3367
463.873	5189
463.903	6538
463.940	7051
463.982	7925
464.008	6881
464.062	3473
464.076	3231
464.142	1852
464.144	1824
464.211	1237
464.221	1173
464.279	1111
464.301	1112
464.347	1455
464.381	1760
464.414	1729
464.461	1619
464.482	1937
464.540	2784
464.550	2629
464.617	1459
464.620	1418
464.685	1805
464.699	1869
464.753	2081
464.779	2227
464.820	2496
464.859	2823
464.888	2902
464.938	2921
464.956	3147
465.018	4087
465.023	3971
465.091	2009
465.098	1834
465.158	2076
465.177	2107
465.226	2641
465.257	3040
465.293	2736
465.336	2383
465.361	2518
465.416	2801
465.428	3121
465.495	4811
465.496	4832
465.563	7059
465.575	7490
465.631	9485
465.654	10485
465.698	7383
465.734	4267
465.765	3662
465.813	2656
465.833	2629
465.893	2952
465.900	2889
465.968	2214
465.972	2169
466.035	2391
466.052	2476
466.102	2301
466.131	2160
466.170	2153
466.210	2095
466.237	2610
466.290	3664
466.304	3574
466.369	3157
466.372	3171
466.439	3469
466.449	3505
466.506	3449
466.528	3428
466.573	5239
466.607	6574
466.641	8636
466.687	11500
466.708	12465
466.766	15226
466.775	14259
466.842	6804
466.845	6438
466.909	4469
466.925	4041
466.977	3436
467.004	3141
467.044	3992
467.083	4837
467.111	4665
467.163	4342
467.178	4463
467.242	4948
467.245	4940
467.312	4728
467.321	4695
467.379	4235
467.400	4066
467.446	4515
467.480	4835
467.559	5038
467.638	2527
467.717	3685
467.796	4026
467.875	3926
467.955	3109
468.034	6766
468.113	13129
468.192	19653
468.271	5125
468.350	2664
468.429	2935
468.508	3712
468.588	3077
468.667	3337
468.746	2691
468.825	4339
468.904	2485
468.983	3456
469.062	4756
469.141	6470
469.220	2621
469.299	3115
469.378	2187
469.456	4409
469.535	4560
469.614	3794
469.693	3160
469.772	4483
469.851	5683
469.930	4459
470.009	2941
470.088	3292
470.166	2892
470.245	2960
470.324	2751
470.403	2843
470.482	2607
470.560	1755
470.639	2072
470.718	3100
470.797	3407
470.875	2974
470.954	2835
471.033	4714
471.111	2017
471.190	2555
471.269	1579
471.347	2254
471.426	1787
471.505	3070
471.583	3453
471.662	3472
471.740	2684
471.819	2992
471.898	1355
471.976	2758
472.055	2027
472.133	4014
472.212	3969
472.290	4813
472.369	2579
472.447	1858
472.526	2024
472.604	3101
472.683	1725
472.761	2042
472.839	2235
472.918	2811
472.996	2479
473.075	3542
473.153	2330
473.231	2178
473.310	3285
473.388	2386
473.466	2318
473.545	3028
473.623	2917
473.701	3133
473.780	2107
473.858	980
473.936	3431
474.014	2543
474.093	2183
474.171	3540
474.249	6381
474.327	4267
474.405	1961
474.484	1991
474.562	2394
474.640	2329
474.718	2439
474.796	1590
474.874	2625
474.952	1806
475.030	2499
475.108	2541
475.187	3162
475.265	2946
475.343	2419
475.421	3308
475.499	1875
475.577	2302
475.655	3098
475.733	5829
475.811	10887
475.889	9498
475.966	6798
476.044	2601
476.122	1989
476.200	2649
476.278	1353
476.356	1977
476.434	2650
476.512	2309
476.590	3336
476.667	2726
476.745	1629
476.823	2727
476.901	2860
476.979	2466
477.056	2456
477.134	2835
477.212	2473
477.290	2634
477.367	2158
477.445	2417
477.523	1217
477.601	1877
477.678	2065
477.756	2911
477.834	3697
477.911	2694
477.989	2308
478.066	1725
478.144	2189
478.222	1851
478.299	1733
478.377	2967
478.454	1548
478.532	1522
478.609	1966
478.687	2842
478.764	945
478.842	1898
478.919	1539
478.997	2799
479.074	2211
479.152	2153
479.229	2709
479.307	1452
479.384	2164
479.461	2181
479.539	1336
479.616	2352
479.694	1605
479.771	1583
479.848	1455
479.926	2616
480.003	4378
480.080	1429
480.157	1369
480.235	2808
480.312	1775
480.389	2147
480.467	3779
480.544	4469
480.621	1997
480.698	1999
480.775	1935
480.853	2427
480.930	2090
481.007	2272
481.084	2633
481.161	3223
481.238	2908
481.315	1917
481.392	1212
481.470	2126
481.547	1453
481.624	978
481.701	1489
481.778	2031
481.855	1743
481.932	4095
482.009	5540
482.086	4163
482.163	2107
482.240	2699
482.317	2262
482.393	2429
482.470	1676
482.547	1855
482.624	1003
482.701	1656
482.778	2094
482.855	1612
482.932	1664
483.009	1777
483.085	2105
483.162	1259
483.239	1244
483.316	1509
483.393	1997
483.469	2237
483.546	2247
483.623	2401
483.699	1877
483.776	1253
483.853	1408
483.930	2850
484.006	9061
484.083	17323
484.160	7431
484.236	12012
484.313	8548
484.389	5707
484.466	5921
484.543	4472
484.619	4686
484.696	6754
484.772	5879
484.849	5842
484.925	5651
485.002	5185
485.078	5842
485.155	5104
485.231	4126
485.308	4473
485.384	5370
485.461	6399
485.537	9017
485.614	11874
485.690	5644
485.766	5120
485.843	3709
485.919	5838
485.995	5291
486.072	3881
486.148	4387
486.224	3957
486.301	4781
486.377	4556
486.453	5083
486.530	4679
486.606	7267
486.682	7573
486.758	8194
486.835	9474
486.911	6339
486.987	12770
487.063	8974
487.139	8882
487.215	7226
487.292	5667
487.368	4257
487.444	4770
487.520	6253
487.596	5087
487.672	7511
487.748	14329
487.824	18779
487.900	8381
487.976	5222
488.052	4088
488.128	5652
488.204	4607
488.280	4849
488.356	6119
488.432	10441
488.508	16670
488.584	5432
488.660	3253
488.736	3900
488.812	3820
488.888	4372
488.964	4986
489.039	7775
489.115	11747
489.191	8268
489.267	4349
489.343	3929
489.418	3083
489.494	2334
489.570	2389
489.646	4261
489.722	3156
489.797	4459
489.873	6040
489.949	12459
490.024	10032
490.100	3340
490.176	3316
490.251	3827
490.327	4815
490.403	2866
490.478	3003
490.554	2755
490.629	3907
490.705	2745
490.781	3298
490.856	2508
490.932	4005
491.007	2488
491.083	2500
491.158	3109
491.234	5013
491.309	8540
491.385	8573
491.460	2870
491.536	4204
491.611	2651
491.686	3824
491.762	2964
491.837	5594
491.913	8547
491.988	11576
492.063	12538
492.139	6621
492.214	4126
492.289	2474
492.365	1948
492.440	3420
492.515	2657
492.590	2603
492.666	2226
492.741	3265
492.816	5278
492.891	2506
492.967	2144
493.042	2649
493.117	2601
493.192	3021
493.267	4484
493.342	14177
493.418	20252
493.493	4052
493.568	2337
493.643	2521
493.718	1976
493.793	3915
493.868	3990
493.943	2829
494.018	2839
494.093	1569
494.168	2685
494.243	1556
494.318	2260
494.393	1935
494.468	1819
494.543	1445
494.618	1963
494.693	2018
494.768	2067
494.842	2430
494.917	1301
494.992	2763
495.067	1839
495.142	2151
495.217	2326
495.292	1510
495.366	1622
495.441	3121
495.516	3601
495.591	3518
495.665	9960
495.740	23190
495.815	9470
495.890	3988
495.964	755
496.039	4477
496.114	2653
496.188	2432
496.263	2488
496.338	2114
496.412	2242
496.487	3522
496.561	2983
496.636	3125
496.710	2905
496.785	3671
496.860	4313
496.934	2476
497.009	2709
497.083	3482
497.158	3477
497.232	4363
497.307	4741
497.381	3518
497.455	5258
497.530	6419
497.604	5839
497.679	5564
497.753	9009
497.827	11946
497.902	11545
497.976	12816
498.050	24930
498.125	88913
498.199	87871
498.273	15904
498.348	12761
498.422	10999
498.496	7878
498.570	7598
498.645	6712
498.719	4920
498.793	7383
498.867	10187
498.941	12341
499.016	34256
499.090	95257
499.164	32453
499.238	4813
499.312	3901
499.386	4306
499.460	4184
499.534	3847
499.609	4438
499.683	7120
499.757	8013
499.831	14513
499.905	60415
499.979	56168
500.053	8541
500.127	7402
500.201	4168
500.275	3217
500.349	3749
500.422	3865
500.496	5068
500.570	8965
500.644	31540
500.718	61602
500.792	14277
500.866	4195
500.940	4337
501.013	3953
501.087	3258
501.161	6104
501.235	7215
501.309	18902
501.382	56943
501.456	47147
501.530	10272
501.603	16785
501.677	6703
501.751	2331
501.825	4983
501.898	7152
501.972	21322
502.046	14493
502.119	2708
502.193	9466
502.266	24972
502.340	10398
502.413	9577
502.487	19807
502.561	11020
502.634	3672
502.708	2418
502.781	1099
502.855	2707
502.928	1114
503.002	1638
503.075	1352
503.149	1357
503.222	2376
503.295	2641
503.369	2933
503.442	4943
503.516	14695
503.589	39296
503.662	24468
503.736	7523
503.809	18844
503.882	14778
503.956	22560
504.029	19346
504.102	8103
504.175	9815
504.249	3121
504.322	3172
504.395	2807
504.468	2664
504.542	2486
504.615	1956
504.688	1637
504.761	142
504.834	2140
504.907	1478
504.980	2722
505.053	1348
505.127	562
505.200	4570
505.273	3113
505.346	1965
505.419	522
505.492	1905
505.565	845
505.638	875
505.711	973
505.784	250
505.857	505
505.930	2810
506.003	270
506.076	3368
506.149	2250
506.221	2262
506.294	3731
506.367	7553
506.440	30470
506.513	14714
506.586	3642
506.659	1459
506.731	1704
506.804	1903
506.877	679
506.950	844
507.022	1362
507.095	507
507.168	2308
507.241	2950
507.313	1072
507.386	616
507.459	2140
507.531	958
507.604	36
507.677	2646
507.749	-364
507.822	2633
507.894	2637
507.967	4126
508.040	1762
508.112	3300
508.185	1601
508.257	828
508.330	3486
508.402	924
508.475	1504
508.547	2789
508.620	1139
508.692	3839
508.765	2716
508.837	1311
508.909	1697
508.982	1667
509.054	1582
509.127	1529
509.199	1630
509.271	423
509.344	316
509.416	750
509.488	447
509.560	1479
509.633	113
509.705	1306
509.777	1327
509.849	2331
509.922	964
509.994	586
510.066	2312
510.138	798
510.210	5135
510.283	3322
510.355	2889
510.427	3339
510.499	2080
510.571	2002
510.643	2011
510.715	3847
510.787	1417
510.859	3424
510.931	2029
511.003	2607
511.076	2510
511.148	1488
511.219	847
511.291	3984
511.363	4680
511.435	1627
511.507	398
511.579	2114
511.651	2151
511.723	745
511.795	1173
511.867	1737
511.939	2129
512.010	4021
512.082	3602
512.154	1328
512.226	1808
512.298	2856
512.369	2823
512.441	3366
512.513	2480
512.585	1349
512.656	2150
512.728	1936
512.800	1488
512.871	2071
512.943	1744
513.015	1109
513.086	1976
513.158	2573
513.230	474
513.301	1598
513.373	2711
513.444	1713
513.516	1080
513.588	1301
513.659	2229
513.731	1612
513.802	673
513.874	4007
513.945	3897
514.016	1627
514.088	2532
514.159	599
514.231	2330
514.302	3391
514.374	2503
514.445	1252
514.516	7600
514.588	4568
514.659	2231
514.730	4418
514.802	3623
514.873	1885
514.944	5560
515.016	2786
515.087	2314
515.158	4333
515.229	6068
515.301	2557
515.372	5754
515.443	3399
515.514	1919
515.585	157
515.656	2785
515.728	2347
515.799	611
515.870	2258
515.941	1130
516.012	1365
516.083	2651
516.154	1374
516.225	2723
516.296	3139
516.367	1809
516.438	1465
516.509	2344
516.580	4430
516.651	8811
516.722	23672
516.793	12678
516.864	4730
516.935	4525
517.006	4594
517.077	5032
517.148	9574
517.219	23720
517.289	36847
517.360	30500
517.431	11744
517.502	1697
517.573	2479
517.643	2281
517.714	2483
517.785	2842
517.856	2041
517.926	2747
517.997	3783
518.068	1599
518.138	5788
518.209	4104
518.280	13905
518.350	54828
518.421	19294
518.492	4173
518.562	3091
518.633	3652
518.703	2090
518.774	6692
518.845	10730
518.915	10866
518.986	4577
519.056	3516
519.127	5808
519.197	9003
519.268	29841
519.338	21581
519.408	4027
519.479	2890
519.549	1598
519.620	3522
519.690	1616
519.760	1065
519.831	2031
519.901	1254
519.971	1475
520.042	792
520.112	2094
520.182	3122
520.253	3596
520.323	1957
520.393	1533
520.463	5928
520.534	1068
520.604	7288
520.674	4255
520.744	2768
520.814	6444
520.885	6069
520.955	9981
521.025	38723
521.095	15832
521.165	2373
521.235	1845
521.305	1063
521.375	1628
521.445	1892
521.515	1389
521.585	3253
521.655	1155
521.725	3075
521.795	2713
521.865	-337
521.935	4974
522.005	1586
522.075	1396
522.145	2521
522.215	1792
522.285	2990
522.355	3981
522.424	7694
522.494	6580
522.564	3025
522.634	3982
522.704	10816
522.774	3445
522.843	2373
522.913	1414
522.983	725
523.053	1265
523.122	1347
523.192	1718
523.262	4436
523.331	3505
523.401	1852
523.471	1396
523.540	1769
523.610	264
523.680	391
523.749	2253
523.819	1990
523.888	1829
523.958	732
524.027	645
524.097	740
524.166	1295
524.236	-304
524.305	2301
524.375	603
524.444	7
524.514	2612
524.583	707
524.653	1527
524.722	2546
524.791	437
524.861	2435
524.930	18
524.999	1123
525.069	1462
525.138	1841
525.207	1845
525.277	2677
525.346	632
525.415	1485
525.484	443
525.554	864
525.623	993
525.692	1734
525.761	1531
525.830	2504
525.900	1952
525.969	2880
526.038	4219
526.107	6125
526.176	22794
526.245	16297
526.314	7096
526.383	12611
526.452	13022
526.522	27893
526.591	27483
526.660	7178
526.729	3072
526.797	6252
526.867	8339
526.935	40985
527.004	64440
527.073	31965
527.142	3648
527.211	1928
527.280	2225
527.349	2782
527.418	-422
527.487	2400
527.555	93
527.624	830
527.693	128
527.762	2701
527.831	-199
527.899	1534
527.968	1061
528.037	-1212
528.106	1562
528.174	2079
528.243	3151
528.312	2806
528.380	2379
528.449	714
528.518	1796
528.586	-513
528.655	1127
528.723	739
528.792	-426
528.861	49
528.929	-344
528.998	1860
529.066	33
529.135	807
529.203	366
529.272	-129
529.340	1213
529.409	2061
529.477	518
529.545	142
529.614	2600
529.682	481
529.751	2207
529.819	3847
529.887	1512
529.956	214
530.024	996
530.092	263
530.161	1615
530.229	1300
530.297	689
530.365	2041
530.434	1409
530.502	289
530.570	860
530.638	-628
530.707	1272
530.775	2549
530.843	288
530.911	1244
530.979	1273
531.047	886
531.115	1417
531.183	1026
531.252	859
531.320	796
531.388	-445
531.456	934
531.524	-791
531.592	1956
531.660	3063
531.728	847
531.796	106
531.864	1647
531.932	827
532.000	621
532.067	1119
532.135	1424
532.203	2435
532.271	1468
532.339	2356
532.407	4007
532.475	2754
532.542	2139
532.610	2115
532.678	1492
532.746	9715
532.814	23922
532.881	5831
532.949	1250
533.017	1023
533.084	960
533.152	289
533.220	547
533.287	470
533.355	1081
533.423	1968
533.490	1238
533.558	672
533.625	1166
533.693	396
533.761	1348
533.828	1612
533.896	745
533.963	2498
534.031	3116
534.098	3634
534.166	815
534.233	250
534.300	3382
534.368	1469
534.435	566
534.503	569
534.570	1394
534.637	625
534.705	1671
534.772	1662
534.840	2209
534.907	10883
534.974	11085
535.041	1751
535.109	1405
535.176	962
535.243	1213
535.310	1106
535.378	-2
535.445	440
535.512	1201
535.579	1579
535.646	382
535.714	908
535.781	2069
535.848	1714
535.915	2379
535.982	1499
536.049	504
536.116	1433
536.183	925
536.250	358
536.317	829
536.384	1504
536.451	1756
536.518	1864
536.585	-83
536.652	2791
536.719	2805
536.786	965
536.853	557
536.920	2631
536.987	3566
537.053	2073
537.120	12551
537.187	10613
537.254	1573
537.321	442
537.388	2834
537.454	662
537.521	573
537.588	236
537.654	1277
537.721	1214
537.788	2135
537.855	-149
537.921	1257
537.988	269
538.055	2540
538.121	221
538.188	1152
538.254	238
538.321	2709
538.388	1564
538.454	1240
538.521	1240
538.587	731
538.654	61
538.720	609
538.787	1141
538.853	776
538.920	1169
538.986	1704
539.053	1300
539.119	1392
539.185	813
539.252	2242
539.318	84
539.385	3268
539.451	-2
539.517	2106
539.583	2828
539.650	2896
539.716	7878
539.782	2547
539.849	210
539.915	1967
539.981	213
540.047	986
540.114	967
540.180	1980
540.246	-94
540.312	914
540.378	2340
540.444	3784
540.510	3106
540.576	9518
540.643	2875
540.709	433
540.775	-154
540.841	650
540.907	1886
540.973	3407
541.039	1348
541.105	2431
541.171	254
541.237	42
541.303	1880
541.369	3656
541.435	1772
541.500	2003
541.566	290
541.632	1018
541.698	1128
541.764	1774
541.830	158
541.896	535
541.961	1092
542.027	1015
542.093	307
542.159	1440
542.224	36
542.290	1650
542.356	1295
542.421	2330
542.487	1972
542.553	1388
542.618	1099
542.684	981
542.750	751
542.815	2315
542.881	1764
542.947	8486
543.012	6386
543.078	1233
543.143	577
543.209	1429
543.274	298
543.340	1616
543.405	2422
543.471	3808
543.536	1582
543.602	1455
543.667	-127
543.732	2536
543.798	269
543.863	1983
543.928	314
543.994	-226
544.059	737
544.124	944
544.190	-37
544.255	1403
544.320	1127
544.386	676
544.451	2413
544.516	2196
544.581	1179
544.646	4838
544.712	8575
544.777	2202
544.842	1727
544.907	2249
544.972	1638
545.037	2440
545.102	1907
545.168	831
545.233	2802
545.298	3227
545.363	1694
545.428	2676
545.493	3610
545.558	6039
545.623	3213
545.688	1385
545.753	1859
545.818	1890
545.883	1878
545.947	1028
546.012	3033
546.077	1360
546.142	2843
546.207	1658
546.272	2211
546.337	1073
546.401	2520
546.466	1396
546.531	114
546.596	1802
546.661	1854
546.725	2461
546.790	727
546.855	2385
546.919	933
546.984	2758
547.049	2203
547.113	3324
547.178	1972
547.243	3384
547.307	3233
547.372	4252
547.436	4205
547.501	2961
547.565	3825
547.630	4234
547.695	3619
547.759	4133
547.823	3620
547.888	3706
547.952	3337
548.017	4903
548.081	4644
548.146	5818
548.210	4403
548.274	4262
548.339	3478
548.403	4874
548.468	3034
548.532	2958
548.596	3826
548.660	3244
548.725	4251
548.789	3599
548.853	4971
548.917	3859
548.982	5199
549.046	5876
549.110	2962
549.174	3371
549.238	4336
549.303	2358
549.367	5184
549.431	3852
549.495	4252
549.559	3726
549.623	4062
549.687	4715
549.751	4878
549.815	5226
549.879	5606
549.943	3651
550.007	4886
550.071	5111
550.135	5215
550.199	4394
550.263	4171
550.327	5693
550.391	4886
550.455	5246
550.519	5055
550.582	6815
550.646	5868
550.710	6191
550.774	5521
550.838	5831
550.901	5146
550.965	6555
551.029	7624
551.093	9358
551.156	9186
551.220	13089
551.284	13687
551.347	9256
551.411	12588
551.475	15480
551.538	6960
551.602	5831
551.666	5540
551.729	4259
551.793	5126
551.856	5370
551.920	5086
551.983	5110
552.047	4906
552.110	5287
552.174	3650
552.237	4718
552.301	4405
552.364	4693
552.428	4199
552.491	4257
552.554	4491
552.618	4922
552.681	5485
552.745	4055
552.808	5367
552.871	5456
552.934	5664
552.998	4526
553.061	4988
553.124	5362
553.187	5575
553.251	4881
553.314	5423
553.377	6031
553.440	8226
553.503	17832
553.567	27496
553.630	7501
553.693	5646
553.756	5140
553.819	4407
553.882	4833
553.945	4118
554.008	4120
554.071	4070
554.134	5103
554.197	4413
554.260	4408
554.323	4653
554.386	5220
554.449	3680
554.512	4809
554.575	3705
554.638	4248
554.701	3803
554.764	4923
554.827	4111
554.889	3946
554.952	3963
555.015	3426
555.078	3978
555.141	4747
555.203	2856
555.266	3778
555.329	4236
555.391	3514
555.454	3599
555.517	5226
555.580	3197
555.642	3187
555.705	2432
555.768	3374
555.830	2990
555.893	3341
555.955	3039
556.018	3275
556.080	3534
556.143	3683
556.206	2823
556.268	3544
556.330	3422
556.393	4282
556.455	2994
556.518	4103
556.580	3504
556.643	2577
556.705	2993
556.767	1599
556.830	2941
556.892	3101
556.955	3011
557.017	2425
557.079	2484
557.142	2786
557.204	3053
557.266	4104
557.328	3693
557.391	2086
557.453	1295
557.515	2691
557.577	2742
557.639	3135
557.701	2279
557.764	2412
557.826	2374
557.888	4110
557.950	2996
558.012	3812
558.074	3986
558.136	7238
558.198	16436
558.260	6559
558.322	2140
558.384	3573
558.446	5397
558.508	4646
558.570	5776
558.632	7869
558.694	10061
558.756	13776
558.818	36373
558.880	86557
558.942	25428
559.003	18751
559.065	8466
559.127	5423
559.189	4719
559.251	5736
559.312	7520
559.374	16559
559.436	52414
559.498	25579
559.559	4542
559.621	4658
559.683	5948
559.744	9532
559.806	25822
559.868	36041
559.929	7925
559.991	6137
560.052	7197
560.114	17469
560.176	11350
560.237	10607
560.299	15190
560.360	4133
560.422	2645
560.483	3604
560.545	2308
560.606	2961
560.667	2849
560.729	2255
560.790	2128
560.852	2922
560.913	2849
560.974	2993
561.036	2513
561.097	2703
561.158	2960
561.220	3262
561.281	2187
561.342	3062
561.403	2986
561.465	3503
561.526	5697
561.587	6413
561.648	2171
561.709	2496
561.771	2874
561.832	2491
561.893	2613
561.954	3105
562.015	3203
562.076	2618
562.137	2469
562.198	3334
562.259	3250
562.320	2770
562.381	1977
562.442	2727
562.503	3645
562.564	2520
562.625	2688
562.686	2995
562.747	2164
562.808	3547
562.869	2447
562.930	2710
562.991	3512
563.051	3400
563.112	3163
563.173	2921
563.234	2125
563.294	3118
563.355	2336
563.416	3398
563.477	2410
563.537	2924
563.598	2556
563.659	3978
563.720	3003
563.780	3242
563.841	2533
563.901	4358
563.962	2817
564.023	2993
564.083	3912
564.144	3294
564.204	3564
564.265	3005
564.325	3971
564.386	6216
564.446	5885
564.507	2722
564.567	3279
564.628	3420
564.688	3013
564.749	3290
564.809	3592
564.869	3829
564.930	3312
564.990	4297
565.050	3311
565.111	3719
565.171	3123
565.231	3972
565.292	3343
565.352	3235
565.412	3780
565.472	3930
565.532	3063
565.593	3326
565.653	2631
565.713	4395
565.773	4056
565.833	4446
565.893	5355
565.953	4076
566.013	3963
566.074	4188
566.134	5630
566.194	7665
566.254	7630
566.314	5546
566.374	5086
566.434	6464
566.494	5834
566.554	5502
566.614	5990
566.673	6611
566.733	6832
566.793	7902
566.853	7248
566.913	7407
566.973	7417
567.033	8049
567.092	6892
567.152	7726
567.212	8214
567.272	8321
567.331	9207
567.391	8742
567.451	9586
567.511	10681
567.570	11246
567.630	9789
567.690	9285
567.749	9423
567.809	10052
567.868	11753
567.928	12482
567.988	14714
568.047	16308
568.107	20919
568.166	27239
568.226	40484
568.285	54149
568.345	48486
568.404	40521
568.464	36792
568.523	34771
568.582	35962
568.642	38191
568.701	47727
568.761	62573
568.820	91615
568.879	92322
568.939	71680
568.998	55188
569.057	45218
569.116	37805
569.176	31349
569.235	25931
569.294	22943
569.353	18751
569.413	17374
569.472	15717
569.531	14377
569.590	12124
569.649	12982
569.708	10717
569.767	10734
569.827	9973
569.886	9408
569.945	8757
570.004	8069
570.063	7873
570.122	8215
570.181	6509
570.240	7614
570.299	6951
570.358	6585
570.417	5667
570.475	6054
570.534	6425
570.593	6539
570.652	5104
570.711	5854
570.770	4874
570.829	6393
570.887	4962
570.946	5872
571.005	4294
571.064	4745
571.122	5261
571.181	5382
571.240	4151
571.299	3959
571.357	5319
571.416	4681
571.475	5058
571.533	6078
571.592	4720
571.650	4963
571.709	4147
571.768	5422
571.826	4692
571.885	4495
571.943	4396
572.002	4392
572.060	4523
572.119	4820
572.177	4194
572.236	4225
572.294	3745
572.352	4816
572.411	4673
572.469	4677
572.528	4002
572.586	4211
572.644	4203
572.703	4969
572.761	4097
572.819	4838
572.877	5239
572.936	4688
572.994	4753
573.052	4985
573.110	4815
573.169	4431
573.227	3800
573.285	4411
573.343	3600
573.401	3911
573.459	4536
573.517	4215
573.576	3755
573.634	4763
573.692	4268
573.750	4585
573.808	4086
573.866	4493
573.924	5204
573.982	4704
574.040	4288
574.098	5224
574.155	4226
574.213	4656
574.271	3381
574.329	5261
574.387	3745
574.445	4095
574.503	3535
574.560	3425
574.618	3129
574.676	4036
574.734	3615
574.792	5026
574.849	3668
574.907	3504
574.965	4341
575.022	4047
575.080	3583
575.138	3762
575.195	4525
575.253	4539
575.311	4051
575.368	4659
575.426	4100
575.483	4657
575.541	4271
575.598	3914
575.656	4359
575.713	4195
575.771	4292
575.828	4463
575.886	4320
575.943	5964
576.001	4422
576.058	4282
576.115	4324
576.173	5180
576.230	4597
576.287	5066
576.345	5419
576.402	4574
576.459	4240
576.517	4775
576.574	5115
576.631	6133
576.688	4483
576.746	5357
576.803	4884
576.860	4661
576.917	5430
576.974	5267
577.031	5314
577.089	4305
577.146	5055
577.203	5525
577.260	5141
577.317	5019
577.374	5488
577.431	5399
577.488	5525
577.545	4729
577.602	5561
577.659	5852
577.716	5746
577.773	6207
577.830	5269
577.886	6342
577.943	5626
578.000	5937
578.057	5759
578.114	6717
578.171	6371
578.227	7066
578.284	7881
578.341	7808
578.398	5776
578.454	7096
578.511	5584
578.568	6117
578.625	5603
578.681	6319
578.738	5874
578.794	6170
578.851	6320
578.908	5314
578.964	6333
579.021	5895
579.077	5303
579.134	5993
579.190	5955
579.247	6147
579.303	5695
579.360	5514
579.416	5886
579.473	5844
579.529	5234
579.586	5988
579.642	5828
579.698	6618
579.755	6230
579.811	6794
579.867	6879
579.924	6686
579.980	6781
580.036	8248
580.093	8887
580.149	10279
580.205	11775
580.261	10632
580.317	8731
580.374	8889
580.430	8942
580.486	8757
580.542	7786
580.598	7366
580.619	7483
580.654	7695
580.692	7101
580.710	6810
580.765	7444
580.767	7471
580.823	7791
580.838	7499
580.879	6737
580.911	6719
580.935	6711
580.984	6370
580.991	6332
581.047	8506
581.057	8446
581.103	8203
581.130	8259
581.159	8302
581.203	8551
581.215	8629
581.270	8543
581.276	8471
581.326	7846
581.349	8136
581.382	8565
581.422	7725
581.438	7376
581.494	7474
581.494	7470
581.550	7319
581.567	7742
581.606	8674
581.640	8327
581.661	8120
581.713	8914
581.717	8986
581.773	7955
581.786	8163
581.829	8788
581.859	8595
581.885	8446
581.932	8065
581.940	7997
581.996	8570
582.004	8584
582.052	8706
582.077	8381
582.107	8009
582.150	8589
582.163	8739
582.219	8914
582.223	8909
582.274	9046
582.296	8995
582.330	8768
582.368	9383
582.386	9764
582.441	9414
582.441	9413
582.497	9059
582.514	9132
582.552	9595
582.587	10083
582.608	10225
582.659	9744
582.663	9730
582.719	10616
582.732	10348
582.774	9350
582.805	9271
582.830	9299
582.877	10395
582.885	10547
582.941	9953
582.950	9971
582.996	10159
583.023	10849
583.052	11798
583.095	11533
583.107	11407
583.162	13321
583.168	13362
583.218	13517
583.240	13155
583.273	12611
583.313	12744
583.328	12858
583.384	12211
583.385	12211
583.439	11838
583.458	11869
583.494	12157
583.531	11730
583.549	11513
583.603	11903
583.605	11915
583.660	11918
583.676	11938
583.715	11907
583.748	11865
583.770	11894
583.820	13186
583.825	13305
583.881	13147
583.893	12986
583.936	12495
583.965	12775
583.991	12946
584.038	12911
584.046	12896
584.101	12512
584.110	12618
584.156	13384
584.183	13205
584.211	12998
584.255	13605
584.266	13743
584.321	13885
584.328	13871
584.376	13861
584.400	14322
584.431	14907
584.472	14999
584.486	14958
584.541	15018
584.545	14998
584.596	14893
584.617	15101
584.651	15649
584.689	16036
584.706	16078
584.761	15789
584.762	15786
584.816	15587
584.834	15761
584.871	16329
584.906	16725
584.926	16839
584.978	17318
584.980	17341
585.035	18003
585.051	18051
585.090	18451
585.123	19012
585.145	19297
585.195	19833
585.200	19891
585.254	20748
585.267	21008
585.309	22205
585.340	22781
585.364	22874
585.412	23047
585.419	23066
585.473	23432
585.484	23625
585.528	25215
585.556	26351
585.583	28661
585.628	33292
585.637	35084
585.692	50199
585.700	52895
585.747	62887
585.772	59867
585.801	48267
585.845	32006
585.856	30016
585.910	26799
585.917	26510
585.965	26417
585.989	26714
586.019	27412
586.061	27658
586.074	27597
586.128	27638
586.133	27663
586.183	28712
586.205	29161
586.237	29624
586.277	29909
586.292	30117
586.346	30763
586.349	30820
586.401	31709
586.421	32169
586.455	33099
586.493	34725
586.509	35901
586.564	38156
586.565	38251
586.618	44622
586.637	45977
586.672	43582
586.709	39874
586.727	39145
586.781	39919
586.781	39932
586.835	41351
586.853	41869
586.889	42769
586.925	43462
586.944	43749
586.996	45309
586.998	45392
587.052	47862
587.068	48634
587.106	49950
587.140	50736
587.161	51479
587.212	54655
587.215	54794
587.269	57050
587.284	57492
587.323	58978
587.356	60877
587.377	62452
587.427	65856
587.431	66134
587.485	69933
587.499	71179
587.539	74236
587.571	76177
587.593	78220
587.643	83291
587.648	83748
587.702	88874
587.715	90181
587.755	95005
587.786	98833
587.810	101776
587.858	108303
587.864	109261
587.917	118772
587.930	120835
587.971	128679
588.001	135608
588.025	142015
588.073	154726
588.079	156499
588.133	171390
588.145	175019
588.187	190410
588.217	200916
588.241	210602
588.288	231185
588.295	234821
588.348	264086
588.360	270338
588.402	297665
588.431	316699
588.456	337840
588.503	379559
588.510	387527
588.564	448711
588.575	460903
588.617	527549
588.646	572332
588.671	625284
588.718	724895
588.725	743379
588.778	873995
588.789	898181
588.832	950532
588.861	981232
588.886	920846
588.932	784705
588.939	776585
588.993	696495
589.004	687913
589.047	896063
589.075	1022592
589.100	1027229
589.147	1016759
589.154	1004382
589.207	885092
589.218	858556
589.261	810185
589.290	776535
589.314	789050
589.361	810341
589.368	822714
589.421	913144
589.433	929686
589.475	953424
589.504	963730
589.528	902084
589.576	759671
589.582	775478
589.635	926413
589.647	955101
589.689	933692
589.718	906903
589.742	829709
589.790	667513
589.795	655629
589.849	529342
589.861	499375
589.902	439605
589.932	394035
589.955	368553
590.004	314065
590.009	310605
590.062	269984
590.075	259995
590.115	238066
590.146	220722
590.168	211545
590.218	191346
590.222	190132
590.275	172697
590.289	168046
590.328	158191
590.360	150369
590.381	146130
590.431	135393
590.435	134857
590.488	124460
590.503	121633
590.541	116258
590.574	111208
590.594	108732
590.645	102724
590.647	102582
590.700	96751
590.716	95018
590.753	91846
590.787	88868
590.806	87051
590.859	81969
590.859	81962
590.912	78095
590.930	76805
590.965	74723
591.001	72674
591.018	71971
591.071	69634
591.072	69556
591.124	66838
591.143	65750
591.177	63923
591.214	61714
591.230	61420
591.283	60865
591.285	60772
591.336	58963
591.356	58278
591.389	56995
591.427	55193
591.442	54687
591.495	52818
591.498	52632
591.547	50770
591.569	49873
591.600	49618
591.640	49042
591.653	48848
591.706	48085
591.711	47944
591.759	46808
591.782	46204
591.811	46203
591.853	46040
591.864	45667
591.917	43566
591.924	43217
591.969	42438
591.995	41907
592.022	41330
592.066	40369
592.075	40647
592.127	42086
592.137	42315
592.180	43046
592.208	43365
592.233	41999
592.279	39332
592.285	39204
592.338	37710
592.350	37346
592.390	36145
592.421	35150
592.443	35007
592.491	34609
592.495	34664
592.548	34937
592.562	34971
592.600	34773
592.633	34544
592.653	34333
592.704	33501
592.705	33678
592.775	32877
592.846	31697
592.916	31560
592.987	32061
593.058	32027
593.128	30552
593.199	29702
593.270	29417
593.341	29047
593.411	28162
593.482	27932
593.553	30002
593.623	27369
593.694	27168
593.764	27954
593.835	26748
593.906	26233
593.976	26607
594.047	26208
594.117	28393
594.188	28410
594.258	25025
594.329	25127
594.399	25103
594.470	25098
594.540	25435
594.611	24107
594.681	24111
594.751	23228
594.822	24823
594.892	24116
594.963	24155
595.033	24064
595.103	24800
595.174	25578
595.244	29783
595.314	32925
595.384	24328
595.455	24374
595.525	23560
595.595	24183
595.665	23793
595.736	24176
595.806	22770
595.876	22463
595.946	23024
596.016	22904
596.087	24031
596.157	23655
596.227	23294
596.297	24020
596.367	24517
596.437	25484
596.507	29486
596.577	32608
596.647	25377
596.717	25376
596.787	24372
596.857	24392
596.927	24571
596.997	24756
597.067	24896
597.137	27160
597.207	25714
597.277	25031
597.347	23580
597.417	25007
597.487	25477
597.557	25739
597.626	24963
597.696	26162
597.766	27335
597.836	30724
597.906	24161
597.975	23223
598.045	23153
598.115	23794
598.185	24408
598.254	25239
598.324	26591
598.394	26224
598.464	25972
598.533	25487
598.603	23295
598.672	24210
598.742	23687
598.812	25566
598.881	24369
598.951	24688
599.020	24785
599.090	24656
599.159	25447
599.229	25720
599.299	23659
599.368	25688
599.437	25250
599.507	23825
599.576	24030
599.646	25608
599.715	24862
599.785	23619
599.854	24870
599.924	25771
599.993	23560
600.062	23663
600.132	23968
600.201	23385
600.270	25905
600.340	26890
600.409	26862
600.478	26622
600.547	26206
600.617	26350
600.686	23406
600.755	23016
600.824	22602
600.894	22406
600.963	22533
601.032	23733
601.101	23007
601.170	22787
601.239	22718
601.308	23536
601.378	23043
601.447	23894
601.516	22978
601.585	24036
601.654	23930
601.723	24242
601.792	24791
601.861	25469
601.930	28476
601.999	27206
602.068	26223
602.137	26329
602.206	26441
602.275	26425
602.343	26749
602.412	27025
602.481	26202
602.550	27752
602.619	27038
602.688	27015
602.756	27118
602.825	26536
602.894	27047
602.963	26497
603.032	28113
603.100	28348
603.169	27313
603.238	27223
603.307	27394
603.375	27314
603.444	27749
603.513	26334
603.581	27149
603.650	27876
603.719	24944
603.787	25045
603.856	25501
603.924	24931
603.993	26582
604.061	27058
604.130	27434
604.198	27532
604.267	28141
604.335	28195
604.404	28427
604.472	29968
604.541	29148
604.609	29448
604.678	29903
604.746	29733
604.815	29911
604.883	30542
604.951	30557
605.020	30909
605.088	29842
605.156	28760
605.225	28729
605.293	28907
605.361	29322
605.429	28764
605.498	29730
605.566	29812
605.634	30574
605.702	31147
605.771	31554
605.839	32184
605.907	30012
605.975	31048
606.043	30274
606.111	29412
606.180	30988
606.248	31510
606.316	31268
606.384	31258
606.452	29881
606.520	26447
606.588	25199
606.656	25698
606.724	24189
606.792	25112
606.860	22227
606.928	20960
606.996	20480
607.064	20417
607.132	21381
607.200	21864
607.267	21949
607.335	22777
607.403	22394
607.471	22131
607.539	22323
607.607	21673
607.674	20357
607.742	20275
607.810	19027
607.878	20063
607.946	20094
608.013	20042
608.081	20834
608.149	20656
608.216	21061
608.284	22672
608.352	21516
608.419	21104
608.487	25045
608.555	22245
608.622	21590
608.690	21835
608.757	22887
608.825	23419
608.893	24017
608.960	22915
609.028	24523
609.095	26740
609.163	22935
609.230	21439
609.298	19233
609.365	19579
609.432	21440
609.500	22520
609.567	24352
609.635	27089
609.702	28030
609.769	26843
609.837	24067
609.904	21234
609.971	20404
610.039	25098
610.106	30859
610.173	52813
610.241	113577
610.308	91810
610.375	45893
610.442	25001
610.509	20607
610.577	21358
610.644	21291
610.711	20695
610.778	22612
610.845	22027
610.912	24230
610.980	25120
611.047	29294
611.114	26400
611.181	22703
611.248	22330
611.315	24165
611.382	24015
611.449	24968
611.516	25276
611.583	24380
611.650	25930
611.717	25440
611.784	25106
611.851	27527
611.918	28799
611.984	33344
612.051	49092
612.118	97555
612.185	229029
612.252	149823
612.319	41997
612.386	33038
612.452	29311
612.519	29414
612.586	31899
612.653	29710
612.719	28601
612.786	27410
612.853	25251
612.919	24443
612.986	26676
613.053	24050
613.120	23115
613.186	21405
613.253	24371
613.319	21828
613.386	22938
613.453	23277
613.519	25048
613.586	24165
613.652	27822
613.719	24958
613.785	25341
613.852	24652
613.918	23155
613.985	25916
614.051	29088
614.118	39804
614.184	38798
614.250	23012
614.317	24356
614.383	22959
614.449	23527
614.516	23712
614.582	24881
614.648	24014
614.715	22962
614.781	22614
614.847	24042
614.914	24371
614.980	23177
615.046	24004
615.112	23856
615.179	25703
615.245	28505
615.311	37459
615.377	59668
615.443	68638
615.509	41131
615.575	30704
615.642	27521
615.708	29397
615.774	30887
615.840	35752
615.906	45090
615.972	69589
616.038	136217
616.104	202490
616.170	320921
616.236	266930
616.302	67889
616.368	43658
616.434	34094
616.500	32387
616.565	32844
616.631	36549
616.697	33138
616.763	33992
616.829	44364
616.895	67572
616.961	67029
617.026	36065
617.092	27038
617.158	26313
617.224	25562
617.289	24610
617.355	23114
617.421	22845
617.487	24162
617.552	21655
617.618	22005
617.684	21064
617.749	23824
617.815	21672
617.880	20289
617.946	21203
618.012	22317
618.077	21726
618.143	21812
618.208	22571
618.274	23560
618.339	23629
618.405	20620
618.470	20954
618.536	21921
618.601	22335
618.667	20330
618.732	19785
618.798	20020
618.863	18726
618.928	19115
618.994	20470
619.059	19671
619.124	21803
619.190	21024
619.255	18430
619.320	19896
619.386	19534
619.451	18760
619.516	19248
619.581	18438
619.647	19757
619.712	19203
619.777	19384
619.842	18924
619.907	18693
619.972	19671
620.038	19048
620.103	19019
620.168	17975
620.233	19294
620.298	18543
620.363	18913
620.428	19097
620.493	20214
620.558	19467
620.623	18879
620.688	20136
620.753	19362
620.818	19001
620.883	20473
620.948	19467
621.013	19205
621.078	19560
621.143	19124
621.207	21241
621.272	20390
621.337	20071
621.402	22394
621.467	24305
621.532	25097
621.596	21691
621.661	20653
621.726	19283
621.791	19627
621.855	21328
621.920	21852
621.985	21659
622.049	24381
622.114	22933
622.179	21484
622.243	22445
622.308	22136
622.373	23574
622.437	22717
622.502	21450
622.566	20736
622.631	19633
622.695	23345
622.760	21608
622.824	21108
622.889	21608
622.953	21847
623.018	25876
623.082	24669
623.147	22613
623.211	22303
623.276	21438
623.340	19964
623.404	19775
623.469	20860
623.533	20002
623.597	19894
623.662	19443
623.726	20042
623.790	18961
623.854	18433
623.919	18919
623.983	19185
624.047	19249
624.111	19680
624.176	19915
624.240	19778
624.304	21220
624.368	18970
624.432	19339
624.496	19166
624.560	20183
624.625	19330
624.689	19516
624.753	19408
624.817	20307
624.881	18423
624.945	18857
625.009	18298
625.073	18580
625.137	19235
625.201	20478
625.265	21217
625.329	18626
625.393	18739
625.456	18583
625.520	18382
625.584	19669
625.648	23224
625.712	29557
625.776	56162
625.839	60602
625.903	28097
625.967	19312
626.031	28496
626.095	38185
626.158	20382
626.222	15122
626.286	16030
626.349	14454
626.413	12992
626.477	15162
626.540	14357
626.604	13511
626.668	14230
626.731	14322
626.795	14226
626.858	14421
626.922	13359
626.986	13675
627.049	12114
627.113	14320
627.176	13722
627.240	13315
627.303	13681
627.366	12619
627.430	12961
627.493	13399
627.557	12897
627.620	13747
627.684	13942
627.747	13543
627.810	11265
627.874	11883
627.937	10802
628.000	13586
628.064	13013
628.127	9950
628.190	11746
628.253	11186
628.317	10624
628.380	11518
628.443	10814
628.506	10218
628.569	11640
628.632	10230
628.696	9492
628.759	9808
628.822	9255
628.885	8845
628.948	9489
629.011	9927
629.074	9566
629.137	8535
629.200	8695
629.263	11002
629.326	8234
629.389	8402
629.452	10351
629.515	9337
629.578	9327
629.641	10076
629.704	8957
629.767	8997
629.830	8049
629.892	8165
629.955	8613
630.018	10065
630.081	8563
630.144	10143
630.207	8620
630.269	9924
630.332	9666
630.395	9295
630.458	7840
630.520	7645
630.583	9123
630.646	8291
630.708	9118
630.771	7370
630.834	8842
630.896	7306
630.959	9032
631.021	7934
631.084	8525
631.146	8581
631.209	10334
631.272	7369
631.334	8965
631.397	8123
631.459	7693
631.522	8063
631.584	7908
631.646	8960
631.709	8736
631.771	8768
631.834	8221
631.896	8364
631.958	6975
632.021	8758
632.083	7306
632.145	7604
632.208	7562
632.270	8779
632.332	7255
632.395	6081
632.457	8396
632.519	6890
632.581	8323
632.643	6721
632.706	8247
632.768	6478
632.830	8159
632.892	7339
632.954	6900
633.016	7544
633.078	6884
633.141	6797
633.203	7362
633.265	7123
633.327	7204
633.389	6628
633.451	7723
633.513	7124
633.575	8285
633.637	7238
633.698	6968
633.760	6800
633.822	7120
633.884	7480
633.946	7165
634.008	7246
634.070	7900
634.132	8890
634.193	7439
634.255	7041
634.317	7369
634.379	8142
634.441	6954
634.502	6524
634.564	7029
634.626	6548
634.687	7248
634.749	7203
634.811	6817
634.873	5845
634.934	7092
634.996	6588
635.057	5621
635.119	5836
635.181	6199
635.242	7103
635.304	5128
635.365	7965
635.427	6141
635.488	6526
635.550	5654
635.611	6726
635.673	4396
635.734	8210
635.796	6808
635.857	8288
635.918	6760
635.980	8689
636.041	7135
636.102	8083
636.164	7532
636.225	7400
636.286	6196
636.348	7240
636.409	6821
636.470	6691
636.531	6820
636.593	7227
636.654	7587
636.715	6115
636.776	6943
636.838	4529
636.899	6144
636.960	4966
637.021	5435
637.082	6319
637.143	6065
637.204	4663
637.265	5085
637.326	6008
637.387	5234
637.448	4876
637.509	6410
637.570	5612
637.631	5596
637.692	4093
637.753	3986
637.814	4882
637.875	4933
637.936	6039
637.997	4075
638.058	5100
638.119	6329
638.179	5029
638.240	5434
638.301	5340
638.362	4815
638.423	4626
638.483	6726
638.544	4283
638.605	5715
638.666	4726
638.726	6100
638.787	6014
638.848	5169
638.908	5315
638.969	5077
639.030	4680
639.090	3841
639.151	4733
639.211	5335
639.272	6272
639.332	7622
639.393	5568
639.453	3995
639.514	5355
639.574	5977
639.635	4682
639.695	5445
639.756	3915
639.816	4937
639.877	5703
639.937	7524
639.997	6275
640.058	4602
640.118	3828
640.178	4996
640.239	4480
640.299	4130
640.359	4194
640.420	4841
640.480	5605
640.540	5978
640.600	5062
640.661	4946
640.721	3950
640.781	7466
640.841	4216
640.901	5866
640.961	5162
641.021	4811
641.082	4111
641.142	5286
641.202	5545
641.262	3292
641.322	4957
641.382	3360
641.442	5147
641.502	3932
641.562	4663
641.622	3337
641.682	4583
641.742	4174
641.802	4952
641.861	5285
641.921	4026
641.981	5298
642.041	4533
642.101	5253
642.161	3369
642.221	4089
642.280	4295
642.340	3750
642.400	2978
642.460	5473
642.519	3975
642.579	4480
642.639	5354
642.698	2364
642.758	5330
642.818	4422
642.877	3440
642.937	4587
642.997	4868
643.056	5242
643.116	3322
643.175	6141
643.235	3563
643.294	4395
643.354	4265
643.414	4470
643.473	5488
643.532	6379
643.592	6455
643.651	11908
643.711	19036
643.770	38637
643.830	87946
643.889	184463
643.948	42286
644.008	9064
644.067	6315
644.126	4809
644.186	4769
644.245	4854
644.304	3651
644.363	5445
644.423	2932
644.482	4550
644.541	4280
644.600	1720
644.659	4803
644.719	3898
644.778	7264
644.837	9725
644.896	18858
644.955	38961
645.014	13234
645.073	6319
645.132	4529
645.191	4142
645.250	3786
645.309	5135
645.368	4497
645.427	5408
645.486	4958
645.545	9514
645.604	4075
645.663	4035
645.722	3231
645.781	5136
645.840	4064
645.898	5063
645.957	7770
646.016	7811
646.075	17709
646.134	33215
646.192	87239
646.251	122904
646.310	17692
646.369	6140
646.427	5059
646.486	4335
646.545	3924
646.603	4335
646.662	3998
646.721	3911
646.779	2820
646.838	2824
646.896	4678
646.955	4450
647.014	6756
647.072	9724
647.131	23978
647.189	11905
647.248	2825
647.306	4660
647.365	3833
647.423	1154
647.481	3863
647.540	1686
647.598	2312
647.657	2478
647.715	3318
647.773	2428
647.832	4223
647.890	2857
647.948	2284
648.007	3286
648.065	2912
648.123	2277
648.181	3488
648.240	5169
648.298	3127
648.356	2687
648.414	2861
648.472	2866
648.531	3562
648.589	3033
648.647	2185
648.705	2964
648.763	1744
648.821	3600
648.879	2089
648.937	3786
648.995	3885
649.053	4383
649.111	4934
649.169	7938
649.227	12859
649.285	24678
649.343	69162
649.401	34008
649.459	9683
649.516	7488
649.574	4851
649.632	11300
649.690	12793
649.748	7668
649.806	7610
649.863	12851
649.921	18144
649.979	11101
650.037	3464
650.094	1632
650.152	2932
650.210	1895
650.268	2624
650.325	2871
650.383	2867
650.440	1630
650.498	2509
650.556	2043
650.613	2475
650.671	3376
650.728	1830
650.786	2767
650.843	2568
650.901	1238
650.958	2090
651.016	1922
651.073	2659
651.131	2313
651.188	875
651.246	1960
651.303	1852
651.360	2177
651.418	1194
651.475	2150
651.532	1919
651.590	2334
651.647	151
651.704	1433
651.762	1807
651.819	2691
651.876	1114
651.933	1916
651.990	2594
652.048	1159
652.105	1601
652.162	2847
652.219	1036
652.276	1861
652.333	1666
652.390	748
652.448	1160
652.505	2000
652.562	1772
652.619	2381
652.676	2977
652.733	5307
652.790	1593
652.847	1633
652.904	2740
652.961	921
653.017	492
653.074	2757
653.131	1200
653.188	1400
653.245	2006
653.302	1796
653.359	1934
653.415	2044
653.472	714
653.529	1865
653.586	1522
653.642	973
653.699	1902
653.756	1065
653.813	1191
653.869	2104
653.926	1080
653.983	744
654.039	819
654.096	1417
654.152	2006
654.209	453
654.266	1546
654.322	898
654.379	1984
654.435	1737
654.492	2070
654.548	2871
654.605	3743
654.661	2627
654.717	1105
654.774	2068
654.830	2039
654.887	2038
654.943	796
655.000	2266
655.056	2383
655.112	2173
655.168	450
655.225	1364
655.281	2794
655.337	2378
655.394	4667
655.450	2831
655.506	2522
655.562	4075
655.618	5026
655.675	1408
655.731	2297
655.787	1728
655.843	2075
655.899	608
655.955	1801
656.011	1794
656.067	811
656.123	2544
656.179	1709
656.235	3108
656.291	994
656.347	2848
656.403	1069
656.459	1502
656.515	1850
656.571	2213
656.627	1882
656.683	1666
656.739	2223
656.795	1915
656.850	966
656.906	1943
656.962	2109
657.018	689
657.074	1190
657.129	938
657.185	2206
657.241	2582
657.297	1870
657.352	1194
657.408	116
657.464	2280
657.519	1397
657.575	500
657.630	1124
657.686	1975
657.742	137
657.797	673
657.853	1115
657.908	1759
657.964	219
658.019	968
658.075	511
658.130	2237
658.186	55
658.241	1782
658.297	-20
658.352	604
658.407	1460
658.463	949
658.518	1311
658.573	1517
658.629	493
658.684	1249
658.739	1018
658.795	689
658.850	1585
658.905	1235
658.960	528
659.016	444
659.071	1231
659.126	1485
659.181	1441
659.236	3308
659.291	3275
659.346	1745
659.401	1456
659.457	2928
659.512	2790
659.567	1784
659.622	1139
659.677	868
659.732	552
659.787	1658
659.842	1411
659.897	2195
659.952	1074
660.007	1799
660.061	2045
660.116	1448
660.171	496
660.226	1188
660.281	1475
660.336	1288
660.391	1326
660.445	826
660.500	1265
660.555	1707
660.610	1095
660.664	1698
660.719	650
660.774	1381
660.828	830
660.883	561
660.938	1187
660.992	666
661.047	866
661.101	724
661.156	1137
661.211	87
661.265	1331
661.320	705
661.374	714
661.429	1042
661.483	1202
661.538	525
661.592	573
661.647	1282
661.701	1784
661.755	1276
661.810	1308
661.864	850
661.919	652
661.973	1829
662.027	709
662.081	404
662.136	1097
662.190	1439
662.244	1758
662.299	812
662.353	530
662.407	1290
662.461	1178
662.515	1121
662.569	876
662.624	1566
662.678	532
662.732	972
662.786	98
662.840	901
662.894	1056
662.948	1072
663.002	797
663.056	1125
663.110	213
663.164	414
663.218	398
663.272	747
663.326	1435
663.380	933
663.434	1569
663.488	288
663.542	1086
663.595	1099
663.649	7
663.703	1022
663.757	1065
663.811	1089
663.864	502
663.918	1931
663.972	-185
664.026	1034
664.079	627
664.133	943
664.187	365
664.240	994
664.294	136
664.348	602
664.401	636
664.455	325
664.508	500
664.562	1032
664.615	809
664.669	-22
664.722	1454
664.776	-175
664.829	1062
664.883	641
664.936	467
664.990	1059
665.043	819
665.097	265
665.150	1397
665.203	1095
665.257	1031
665.310	597
665.363	1020
665.417	1370
665.470	558
665.523	1442
665.576	903
665.630	916
665.683	1239
665.736	1347
665.789	1489
665.842	569
665.895	799
665.949	1423
666.002	865
666.055	422
666.108	1489
666.161	1044
666.214	1033
666.267	1437
666.320	1385
666.373	1183
666.426	1367
666.479	1153
666.532	974
666.585	1512
666.638	1586
666.691	1193
666.744	1806
666.796	1783
666.849	650
666.902	1365
666.955	1542
667.008	1095
667.060	845
667.113	783
667.166	577
667.219	1254
667.271	793
667.324	1666
667.377	1090
667.430	803
667.482	1162
667.535	1137
667.587	767
667.640	1095
667.693	806
667.745	1424
667.798	1880
667.850	1780
667.903	1015
667.955	1260
668.008	388
668.060	1568
668.113	1094
668.165	1432
668.218	627
668.270	998
668.322	935
668.375	332
668.427	1103
668.479	258
668.532	611
668.584	1793
668.636	851
668.689	1754
668.741	141
668.793	968
668.845	434
668.898	1520
668.950	1076
669.002	577
669.054	-40
669.106	719
669.158	1787
669.211	1446
669.263	1195
669.315	1611
669.367	1516
669.419	79
669.471	1940
669.523	1168
669.575	1874
669.627	1484
669.679	240
669.731	1395
669.783	1214
669.835	1166
669.886	561
669.938	952
669.990	951
670.042	206
670.094	2181
670.146	1682
670.197	1711
670.249	2228
670.301	2587
670.353	3479
670.404	5445
670.456	8385
670.508	14021
670.560	25363
670.611	45756
670.663	81821
670.715	194200
670.766	281069
670.818	74833
670.869	14012
670.921	7499
670.972	5523
671.024	3493
671.075	3373
671.127	1860
671.178	2182
671.230	1764
671.281	2118
671.333	1502
671.384	1500
671.436	1976
671.487	1651
671.538	2436
671.590	3131
671.641	3899
671.692	5727
671.744	8996
671.795	7169
671.846	2948
671.897	1616
671.949	1347
672.000	777
672.051	637
672.102	2011
672.153	1064
672.204	1055
672.256	240
672.307	1790
672.358	1258
672.409	1163
672.460	321
672.511	983
672.562	1177
672.613	1100
672.664	703
672.715	1036
672.766	339
672.817	322
672.868	666
672.919	873
672.970	476
673.021	973
673.071	61
673.122	784
673.173	950
673.224	849
673.275	506
673.326	935
673.376	1174
673.427	591
673.478	462
673.528	1540
673.579	936
673.630	666
673.680	1657
673.731	488
673.782	961
673.832	494
673.883	452
673.934	594
673.984	-265
674.035	167
674.085	505
674.136	1130
674.186	611
674.237	997
674.287	1916
674.338	969
674.388	571
674.438	1056
674.489	656
674.539	1028
674.589	-138
674.640	1127
674.690	622
674.740	-325
674.791	860
674.841	669
674.891	468
674.942	-64
674.992	-3
675.042	552
675.092	374
675.142	984
675.193	234
675.243	374
675.293	939
675.343	-547
675.393	-59
675.443	631
675.493	693
675.543	377
675.593	458
675.643	476
675.693	373
675.743	994
675.793	-77
675.843	-472
675.893	186
675.943	758
675.993	40
676.043	569
676.093	469
676.142	-249
676.192	-69
676.242	544
676.292	-231
676.341	591
676.391	-20
676.441	82
676.491	30
676.540	399
676.590	345
676.640	837
676.689	174
676.739	-216
676.789	3
676.838	181
676.888	686
676.937	-36
676.987	47
677.037	-546
677.086	-849
677.136	58
677.185	-2
677.235	370
677.284	-127
677.333	-398
677.383	-63
677.432	-649
677.482	-33
677.531	-284
677.580	-164
677.630	-720
677.679	-168
677.728	40
677.778	614
677.827	-400
677.876	107
677.925	48
677.975	-617
678.024	-166
678.073	-99
678.122	511
678.171	-22
678.220	1226
678.269	629
678.319	54
678.368	386
678.417	-87
678.466	148
678.515	1275
678.564	12
678.613	420
678.662	-286
678.711	-690
678.760	-549
678.809	815
678.857	259
678.906	497
678.955	-412
679.004	55
679.053	-682
679.102	-58
679.151	472
679.199	501
679.248	197
679.297	406
679.346	-275
679.394	543
679.443	269
679.492	541
679.540	-631
679.589	-188
679.638	500
679.686	-15
679.735	448
679.784	-1105
679.832	-76
679.881	-386
679.929	-698
679.978	-97
680.026	-760
680.075	461
680.123	-514
680.172	-143
680.220	72
680.268	382
680.317	-20
680.365	-327
680.414	-793
680.462	-29
680.510	-184
680.559	-263
680.607	-797
680.655	-88
680.703	-854
680.752	83
680.800	479
680.848	166
680.896	-1210
680.945	233
680.993	-198
681.041	-410
681.089	-453
681.137	-106
681.185	-822
681.233	-226
681.258	-226
681.281	-284
681.329	-575
681.377	3
681.380	56
681.425	-80
681.473	561
681.502	1117
681.521	1392
681.569	672
681.617	397
681.624	535
681.665	999
681.713	1006
681.745	912
681.761	779
681.809	554
681.857	1684
681.867	1586
681.904	993
681.952	1162
681.989	1188
682.000	1134
682.048	1396
682.096	1965
682.111	1944
682.143	1668
682.191	2091
682.233	2711
682.239	2753
682.286	1748
682.334	2454
682.354	2285
682.382	1913
682.430	2762
682.476	2365
682.477	2306
682.525	2309
682.572	3512
682.598	3098
682.620	2634
682.667	3660
682.715	3730
682.720	3754
682.763	3519
682.810	3164
682.841	3430
682.857	3497
682.905	3704
682.952	3813
682.963	3943
683.000	4148
683.047	4310
683.085	4681
683.095	4741
683.142	4290
683.190	4493
683.206	4635
683.237	4749
683.284	4383
683.328	5256
683.332	5286
683.379	5431
683.426	5054
683.449	4905
683.473	4660
683.521	5039
683.568	4788
683.571	4891
683.615	5699
683.662	5334
683.693	5707
683.709	5890
683.757	5775
683.804	6334
683.814	6298
683.851	5881
683.898	6765
683.936	6874
683.945	6861
683.992	6877
684.039	7099
684.057	6997
684.086	6793
684.133	6956
684.179	7173
684.180	7145
684.227	7465
684.274	7659
684.300	7506
684.321	7317
684.368	7025
684.415	7269
684.422	7349
684.462	7677
684.509	7322
684.543	7972
684.556	8141
684.603	7788
684.649	7557
684.665	7696
684.696	7949
684.743	8490
684.786	8630
684.790	8624
684.837	8352
684.883	8962
684.908	9202
684.930	9388
684.977	9377
685.023	9736
685.029	9825
685.070	9980
685.117	9302
685.150	9900
685.164	10203
685.210	10382
685.257	10938
685.272	11031
685.303	10839
685.350	9488
685.393	9899
685.396	9934
685.443	10412
685.490	11078
685.514	10994
685.536	10875
685.583	11010
685.629	10944
685.636	10991
685.675	10979
685.722	11234
685.757	11406
685.768	11482
685.815	10896
685.861	11288
685.878	11303
685.908	11270
685.954	12006
686.000	11846
686.000	11833
686.047	11891
686.093	13125
686.121	13002
686.139	12835
686.185	12976
686.232	12499
686.242	12574
686.278	12536
686.324	12782
686.363	12454
686.370	12446
686.416	12194
686.463	12525
686.484	12937
686.509	13265
686.555	13238
686.601	12924
686.606	12902
686.647	12736
686.693	13567
686.727	12838
686.739	12552
686.785	13355
686.831	13423
686.848	13354
686.877	13299
686.923	12950
686.969	13355
686.969	13354
687.015	13760
687.061	13879
687.090	13956
687.107	13972
687.153	14065
687.199	14860
687.211	14599
687.245	13844
687.291	13903
687.332	13748
687.336	13768
687.382	14760
687.428	14746
687.453	14721
687.474	14472
687.520	14806
687.565	14302
687.574	14243
687.611	14303
687.657	15042
687.695	15017
687.702	15113
687.748	15680
687.794	16983
687.816	17143
687.839	16704
687.885	16388
687.931	15608
687.937	15581
687.976	15827
688.022	15706
688.058	15711
688.067	15763
688.113	15731
688.158	16225
688.179	16128
688.204	15971
688.249	16453
688.295	16598
688.300	16585
688.340	16710
688.386	16438
688.421	16635
688.431	16618
688.477	16229
688.522	16914
688.542	16592
688.567	16390
688.613	16896
688.658	16941
688.663	16898
688.703	16676
688.749	16600
688.784	16934
688.794	17056
688.839	16637
688.884	17689
688.905	17633
688.930	17371
688.975	16856
689.020	16599
689.026	16604
689.065	17294
689.110	17442
689.146	17670
689.155	17715
689.201	17597
689.246	18081
689.267	18011
689.291	17842
689.336	18261
689.381	17694
689.388	17723
689.426	18299
689.471	18082
689.509	18424
689.516	18431
689.561	17989
689.606	18206
689.630	17674
689.651	17557
689.696	18291
689.741	18603
689.750	18690
689.785	18744
689.830	18729
689.871	18428
689.875	18433
689.920	18480
689.965	18651
689.992	18408
690.010	18358
690.054	18863
690.099	18834
690.112	18951
690.144	19198
690.189	18818
690.233	18740
690.233	18768
690.278	18781
690.323	19496
690.354	19513
690.367	19606
690.412	20032
690.457	20382
690.474	20612
690.501	21088
690.546	21487
690.590	21838
690.595	21835
690.635	22376
690.680	23210
690.716	23587
690.724	23988
690.769	26610
690.813	28718
690.836	29705
690.857	32469
690.902	38062
690.946	44793
690.957	46108
690.991	60015
691.035	79181
691.077	96989
691.080	97156
691.124	95656
691.168	95023
691.198	94555
691.213	89020
691.257	71677
691.301	54787
691.318	47917
691.346	44060
691.390	37831
691.434	31488
691.439	30765
691.478	29752
691.522	28132
691.559	27103
691.567	27045
691.611	25851
691.655	25073
691.680	24393
691.699	24246
691.743	23991
691.787	23792
691.800	23727
691.831	24066
691.875	24369
691.919	24592
691.921	24556
691.964	24505
692.008	24218
692.041	24093
692.052	24149
692.096	23801
692.139	24415
692.162	24113
692.183	23903
692.227	23763
692.271	23734
692.282	23668
692.315	23623
692.359	23829
692.402	23604
692.403	23651
692.447	23589
692.490	23613
692.523	23800
692.534	23966
692.578	23967
692.622	24209
692.643	24218
692.666	24165
692.709	24294
692.753	23939
692.763	23887
692.797	24061
692.840	24004
692.884	24248
692.884	24308
692.928	24988
692.971	25851
693.004	26418
693.015	26413
693.059	26040
693.102	26061
693.124	25960
693.146	26417
693.189	26569
693.233	27746
693.245	27846
693.276	28692
693.320	30051
693.363	31076
693.365	31050
693.407	33234
693.450	35650
693.485	37238
693.493	38228
693.537	43543
693.580	48583
693.605	51314
693.624	57302
693.667	71450
693.710	85405
693.725	90383
693.753	118452
693.797	161458
693.840	204902
693.845	209716
693.883	207548
693.926	204664
693.966	201839
693.970	198300
694.013	157265
694.056	115925
694.086	87203
694.099	83346
694.142	70562
694.185	57457
694.206	51233
694.229	48917
694.272	44296
694.315	39496
694.326	38198
694.358	36870
694.401	34634
694.444	32983
694.446	32804
694.487	31804
694.530	30789
694.566	29636
694.573	29545
694.616	29002
694.659	28018
694.686	27643
694.702	27739
694.745	27346
694.787	27027
694.806	26902
694.830	26997
694.873	27119
694.916	27053
694.926	26954
694.959	26516
695.002	25884
695.044	25355
695.046	25274
695.087	25867
695.130	26308
695.166	26455
695.172	26504
695.215	26644
695.258	26626
695.286	26647
695.301	26725
695.343	26643
695.386	26719
695.406	26574
695.428	26575
695.471	26728
695.514	26631
695.526	26556
695.556	26768
695.599	27043
695.641	27129
695.646	27090
695.684	27061
695.726	26916
695.766	26529
695.769	26585
695.811	26681
695.854	26621
695.886	26617
695.896	26695
695.938	26648
695.981	26508
696.005	26470
696.023	26645
696.065	26780
696.108	26972
696.125	26915
696.150	27076
696.192	27324
696.235	27582
696.245	27573
696.277	27816
696.319	28127
696.361	28321
696.365	28266
696.404	28649
696.446	29065
696.485	29240
696.488	29296
696.530	29216
696.572	29045
696.604	28688
696.614	28584
696.656	28043
696.698	27299
696.724	26920
696.740	27140
696.783	27348
696.825	27800
696.844	27800
696.867	27747
696.909	27681
696.951	27480
696.964	27369
696.992	27430
697.034	27269
697.076	27443
697.083	27339
697.118	27370
697.160	27546
697.202	27534
697.203	27462
697.244	27846
697.286	28109
697.323	28255
697.327	28313
697.369	28161
697.411	27997
697.442	27771
697.453	27851
697.494	27825
697.536	27945
697.562	27837
697.578	27843
697.620	27774
697.661	27683
697.682	27521
697.703	27652
697.744	27914
697.786	28133
697.801	28120
697.828	28340
697.869	28582
697.911	28752
697.921	28725
697.952	28515
697.994	28189
698.035	27768
698.040	27651
698.077	27657
698.118	27488
698.160	27376
698.160	27299
698.201	27700
698.243	28080
698.279	28295
698.284	28368
698.325	28360
698.367	28290
698.399	28178
698.408	28173
698.449	27803
698.491	27414
698.518	27071
698.532	27243
698.573	27544
698.614	27862
698.638	27950
698.656	28158
698.697	28456
698.738	28777
698.757	28853
698.779	28900
698.820	28793
698.862	28721
698.877	28613
698.903	28938
698.944	29320
698.985	29715
698.996	29742
699.026	29528
699.067	29121
699.116	28558
699.235	28802
699.354	28729
699.474	28425
699.593	28342
699.713	28918
699.832	27045
699.951	28380
700.070	28342
700.190	27760
700.309	27901
700.428	28364
700.547	27825
700.667	26891
700.786	27191
700.905	25348
701.024	27752
701.143	27013
701.262	25396
701.381	26103
701.500	26204
701.619	26457
701.738	26180
701.857	25392
701.976	26003
702.095	25428
702.214	25176
702.333	25406
702.452	25588
702.571	26025
702.690	25450
702.809	24606
702.928	25299
703.047	23963
703.165	25187
703.284	24547
703.403	23197
703.522	24070
703.640	24555
703.759	23929
703.878	27236
703.997	24396
704.115	23077
704.234	23868
704.353	23125
704.471	23481
704.590	23056
704.708	23495
704.827	23206
704.946	23114
705.064	22952
705.183	23858
705.301	26570
705.420	36527
705.538	33182
705.656	29532
705.775	30173
705.893	46219
706.012	54208
706.130	30192
706.249	29476
706.367	28619
706.485	28970
706.604	28426
706.722	28090
706.840	29605
706.958	33183
707.077	29351
707.195	27320
707.313	26989
707.431	26863
707.549	27149
707.668	25993
707.786	27093
707.904	25090
708.022	25846
708.140	26000
708.258	25745
708.376	25942
708.494	25624
708.612	27168
708.730	35816
708.848	34443
708.966	30934
709.084	29774
709.202	29971
709.320	29613
709.438	30320
709.556	30535
709.674	30738
709.791	31117
709.909	30497
710.027	29962
710.145	29780
710.263	28874
710.380	27885
710.498	26997
710.616	27232
710.733	27877
710.851	27498
710.969	28240
711.086	26885
711.204	26513
711.322	27691
711.439	25723
711.557	27295
711.674	27346
711.792	26571
711.909	28015
712.027	30455
712.144	26626
712.262	26282
712.379	28021
712.497	37133
712.614	37512
712.732	32972
712.849	29579
712.966	30278
713.084	32193
713.201	32107
713.318	32224
713.436	32204
713.553	31502
713.670	31327
713.787	32275
713.905	32518
714.022	30570
714.139	29457
714.256	29957
714.373	31773
714.490	36724
714.608	55706
714.725	159243
714.842	173620
714.959	36702
715.076	30066
715.193	28418
715.310	27702
715.427	27954
715.544	26435
715.661	27931
715.778	26379
715.895	29652
716.011	27978
716.128	26655
716.245	26746
716.362	26973
716.479	27615
716.596	25791
716.713	26463
716.829	25761
716.946	26860
717.063	24457
717.180	26246
717.296	24866
717.413	25553
717.530	24816
717.646	24450
717.763	24352
717.880	22753
717.996	23184
718.113	22998
718.229	23483
718.346	22962
718.462	23349
718.579	23570
718.695	24426
718.812	26159
718.928	24593
719.045	23027
719.161	22295
719.277	21309
719.394	22580
719.510	23906
719.626	22988
719.743	26652
719.859	25282
719.975	28521
720.092	53904
720.208	102969
720.324	32253
720.440	23234
720.557	24258
720.673	23959
720.789	28408
720.905	40695
721.021	26623
721.137	21762
721.253	20582
721.369	21583
721.486	21539
721.602	23990
721.718	21356
721.834	19595
721.950	19275
722.066	19330
722.181	19263
722.297	20123
722.413	17754
722.529	19094
722.645	18238
722.761	19148
722.877	18818
722.993	18287
723.108	19349
723.224	19211
723.340	18744
723.456	18200
723.571	19048
723.687	17945
723.803	18489
723.918	17841
724.034	17121
724.150	17841
724.265	17479
724.381	23531
724.497	26109
724.612	17535
724.728	16820
724.843	16577
724.959	17104
725.074	22560
725.190	23223
725.305	18073
725.421	17138
725.536	16574
725.651	16437
725.767	15762
725.882	16091
725.997	16506
726.113	16389
726.228	16020
726.343	15767
726.459	15928
726.574	15818
726.689	15549
726.804	15094
726.920	16481
727.035	16868
727.150	15745
727.265	15491
727.380	15445
727.495	15025
727.610	14781
727.725	15658
727.841	17308
727.956	25798
728.071	22670
728.186	15054
728.301	13931
728.416	16169
728.531	14904
728.645	15107
728.760	13910
728.875	14131
728.990	13486
729.105	13614
729.220	14711
729.335	13838
729.449	14728
729.564	14029
729.679	13628
729.794	13082
729.908	14400
730.023	13936
730.138	13665
730.253	13773
730.367	13346
730.482	12867
730.596	13383
730.711	13938
730.826	14602
730.940	14009
731.055	13233
731.169	12412
731.284	13672
731.398	13141
731.513	13886
731.627	13790
731.742	13987
731.856	14352
731.970	13561
732.085	13384
732.199	15159
732.313	16902
732.428	25306
732.542	47374
732.656	33790
732.771	16157
732.885	14181
732.999	14060
733.113	13367
733.227	13774
733.342	13858
733.456	13154
733.570	13186
733.684	13740
733.798	13558
733.912	12542
734.026	13113
734.140	13508
734.254	13617
734.368	15032
734.482	16280
734.596	12101
734.710	12640
734.824	12849
734.938	13151
735.052	11957
735.166	12969
735.280	12713
735.393	12108
735.507	11978
735.621	13575
735.735	16139
735.849	13641
735.962	12267
736.076	12697
736.190	11456
736.303	13135
736.417	14432
736.531	11562
736.644	12266
736.758	11810
736.872	10601
736.985	11915
737.099	11540
737.212	11831
737.326	11307
737.439	11125
737.553	10405
737.666	12267
737.780	11028
737.893	12304
738.007	10461
738.120	11099
738.233	11111
738.347	10814
738.460	11560
738.573	10155
738.687	10445
738.800	10583
738.913	11071
739.026	11377
739.140	11339
739.253	12329
739.366	11173
739.479	10870
739.592	10740
739.705	10815
739.818	10668
739.932	11482
740.045	10770
740.158	11249
740.271	11023
740.384	11166
740.497	10620
740.610	10688
740.723	10873
740.836	10668
740.949	10747
741.062	12175
741.174	10925
741.287	10666
741.400	9836
741.513	10371
741.626	10428
741.739	10881
741.851	10464
741.964	10324
742.077	9855
742.189	9527
742.302	10994
742.415	10135
742.527	9229
742.640	9500
742.753	9921
742.865	10211
742.978	10231
743.090	9816
743.203	10709
743.316	10167
743.428	10253
743.541	9765
743.653	10319
743.766	9706
743.878	10609
743.990	11045
744.103	11360
744.215	10730
744.327	8817
744.440	10885
744.552	10448
744.664	9022
744.777	8976
744.889	8607
745.001	9918
745.113	8827
745.226	9532
745.338	9643
745.450	9603
745.562	9628
745.674	9082
745.786	9907
745.898	9863
746.010	10225
746.122	10086
746.234	10178
746.347	9766
746.459	9449
746.570	9582
746.682	9838
746.794	10926
746.906	10272
747.018	9804
747.130	9174
747.242	9667
747.354	9476
747.466	9860
747.577	9332
747.689	9583
747.801	8894
747.913	8934
748.024	9401
748.136	9069
748.248	10161
748.359	8951
748.471	9102
748.583	8771
748.694	10472
748.806	10897
748.918	9246
749.029	9422
749.141	10043
749.252	9527
749.364	9399
749.475	10494
749.587	10617
749.698	8683
749.809	9413
749.921	8742
750.032	9244
750.144	8977
750.255	9011
750.366	8634
750.478	8529
750.589	9179
750.700	9222
750.811	10660
750.923	9100
751.034	10962
751.145	12242
751.256	9635
751.367	9488
751.479	8756
751.590	8441
751.701	9529
751.812	9852
751.923	9627
752.034	9285
752.145	9688
752.256	10180
752.367	9461
752.478	9452
752.589	9686
752.700	9204
752.811	8806
752.922	9647
753.032	9542
753.143	9581
753.254	8657
753.365	9718
753.476	9850
753.586	9501
753.697	9097
753.808	9209
753.919	9412
754.029	9159
754.140	9275
754.251	9243
754.361	9844
754.472	9661
754.582	8396
754.693	9242
754.804	9364
754.914	8693
755.025	9340
755.135	10128
755.246	9656
755.356	9356
755.466	9936
755.577	10492
755.687	9366
755.798	9533
755.908	9289
756.018	10415
756.129	10525
756.239	10886
756.349	10175
756.460	9809
756.570	10840
756.680	10122
756.790	9817
756.900	9715
757.011	9973
757.121	11195
757.231	9587
757.341	10890
757.451	11006
757.561	10307
757.671	10401
757.781	10733
757.891	11172
758.001	11265
758.111	12278
758.221	10846
758.331	10769
758.441	11766
758.551	11656
758.661	12270
758.771	12286
758.880	11973
758.990	12970
759.100	12720
759.210	11970
759.320	12616
759.429	12179
759.539	13147
759.649	13326
759.758	14494
759.868	13633
759.978	13269
760.087	14397
760.197	13674
760.307	14681
760.416	14293
760.526	14195
760.635	15163
760.745	15520
760.854	16127
760.964	16400
761.073	15710
761.182	16040
761.292	16574
761.401	16862
761.511	16985
761.620	17627
761.729	17919
761.839	18455
761.948	20062
762.057	19056
762.166	20932
762.276	19466
762.385	21426
762.494	21699
762.603	22548
762.712	23700
762.822	25599
762.931	25495
763.040	25003
763.149	26699
763.258	28799
763.367	29489
763.476	31483
763.585	30239
763.694	33327
763.803	35060
763.912	37724
764.021	39601
764.130	40540
764.238	43564
764.347	47030
764.456	49579
764.565	54188
764.674	59470
764.783	64863
764.891	70889
765.000	80437
765.109	89234
765.217	100813
765.326	117865
765.435	138268
765.543	165176
765.652	201097
765.761	249482
765.869	319795
765.978	419662
766.086	553093
766.195	701091
766.303	773474
766.412	599548
766.520	528015
766.629	756154
766.737	706346
766.846	560759
766.954	424189
767.062	324638
767.171	256033
767.279	202865
767.387	164784
767.496	138837
767.604	119033
767.712	104536
767.820	92603
767.928	85139
768.037	78505
768.145	74758
768.253	70440
768.361	68095
768.469	70736
768.577	70148
768.685	73513
768.793	76999
768.901	84817
769.009	97448
769.117	116771
769.225	145224
769.333	191602
769.441	267024
769.549	393641
769.657	579388
769.765	704289
769.873	533992
769.981	656979
770.088	601246
770.196	420877
770.304	293600
770.412	217190
770.519	167823
770.627	136554
770.735	111348
770.842	93353
770.950	81868
771.058	70579
771.165	63581
771.273	56660
771.380	52283
771.488	48389
771.595	43725
771.703	40961
771.810	39481
771.918	36380
772.025	34588
772.133	32512
772.240	31163
772.348	29324
772.455	28359
772.562	27128
772.670	25963
772.777	25121
772.884	24128
772.991	23661
773.099	21892
773.206	21295
773.313	20444
773.420	20374
773.528	18272
773.635	18719
773.742	18750
773.849	18355
773.956	17037
774.063	17387
774.170	17486
774.277	18112
774.384	15803
774.491	16286
774.598	16041
774.705	15607
774.812	16267
774.919	16168
775.026	15095
775.133	14771
775.239	13850
775.346	14115
775.453	13547
775.560	12832
775.667	13595
775.773	13201
775.880	13853
775.987	13396
776.093	12794
776.200	12800
776.307	11850
776.413	12434
776.520	12193
776.627	12430
776.733	11366
776.840	11221
776.946	12747
777.053	12993
777.159	13369
777.266	11174
777.372	14192
777.478	12485
777.585	10956
777.691	10001
777.798	10514
777.904	10749
778.010	12162
778.117	10899
778.223	10173
778.329	9954
778.435	9827
778.542	10444
778.648	9102
778.754	9135
778.860	9379
778.966	9535
779.072	9852
779.178	10141
779.284	9831
779.391	9824
779.497	10542
779.603	14394
779.708	16841
779.815	34617
779.920	103480
780.026	228870
780.132	54339
780.238	16334
780.344	12311
780.450	11896
780.556	9390
780.661	7843
780.767	8898
780.873	8222
780.979	9088
781.085	8755
781.190	7103
781.296	7598
781.402	7959
781.507	7823
781.613	7688
781.719	7113
781.824	7383
781.930	7766
782.035	7711
782.141	6374
782.246	6500
782.352	7516
782.457	6472
782.563	7427
782.668	6709
782.773	7568
782.879	6428
782.984	7851
783.090	6826
783.195	8117
783.300	7031
783.405	7544
783.511	6205
783.616	7441
783.721	7186
783.826	6613
783.932	6804
784.037	6921
784.142	6604
784.247	6239
784.352	6092
784.457	6362
784.562	7348
784.667	5932
784.772	6752
784.877	5472
784.982	7001
785.087	6273
785.192	6511
785.297	5763
785.402	5876
785.507	6190
785.611	6206
785.716	5993
785.821	5664
785.926	5483
786.031	5624
786.135	5889
786.240	6173
786.345	5424
786.450	6231
786.554	5334
786.659	5379
786.763	4519
786.868	5629
786.973	6415
787.077	5730
787.182	6495
787.286	6197
787.391	5922
787.495	5639
787.600	5753
787.704	4759
787.809	5914
787.913	5565
788.017	6028
788.122	5138
788.226	5504
788.330	4965
788.435	5430
788.539	5044
788.643	4963
788.747	4208
788.852	5036
788.956	5259
789.060	5575
789.164	5531
789.268	4795
789.372	4985
789.476	5993
789.580	4932
789.684	4901
789.788	4796
789.892	4681
789.996	5371
790.100	5520
790.204	5178
790.308	5170
790.412	5058
790.516	5340
790.620	5151
790.724	5369
790.828	4766
790.931	4355
791.035	6074
791.139	6073
791.242	3610
791.346	5832
791.450	4591
791.554	5341
791.657	3978
791.761	5105
791.864	5295
791.968	5195
792.072	5297
792.175	4070
792.279	4322
792.382	5513
792.486	4415
792.589	4230
792.693	4946
792.796	4059
792.899	5331
793.003	4734
793.106	4292
793.209	4759
793.313	5163
793.416	3064
793.519	5059
793.623	4825
793.726	5262
793.829	4834
793.932	4490
794.035	4101
794.138	5794
794.242	5752
794.345	5782
794.448	10194
794.551	16997
794.654	58165
794.757	144727
794.860	33987
794.963	8521
795.066	5861
795.169	5823
795.272	4445
795.375	5775
795.477	4333
795.580	4263
795.683	4065
795.786	4376
795.889	3241
795.991	5472
796.094	5060
796.197	3875
796.300	4362
796.402	3778
796.505	3835
796.608	3835
796.710	4279
796.813	3657
796.915	3608
797.018	4345
797.120	4107
797.223	2170
797.326	4877
797.428	3140
797.530	3663
797.633	4422
797.735	4627
797.838	4336
797.940	4829
798.042	3507
798.145	3905
798.247	4811
798.349	3471
798.452	4424
798.554	3655
798.656	2822
798.758	3857
798.860	4343
798.962	3812
799.065	3228
799.167	3170
799.269	3988
799.371	4381
799.473	3922
799.575	3751
799.677	3805
799.779	5622
799.881	2901
799.983	4042
800.085	3683
800.187	3862
800.289	2160
800.390	3728
800.492	3558
800.594	4155
800.696	3253
800.798	3975
800.899	3029
801.001	2666
801.103	3644
801.205	3123
801.306	4189
801.408	2740
801.509	3490
801.611	3830
801.713	3654
801.814	2232
801.916	3294
802.017	3241
802.119	2614
802.220	3456
802.322	1443
802.423	4632
802.525	2754
802.626	2766
802.727	3420
802.829	3312
802.930	1623
803.031	4876
803.133	2990
803.234	2898
803.335	3311
803.436	3161
803.538	3729
803.639	3073
803.740	3739
803.841	2190
803.942	3358
804.043	3225
804.144	2576
804.245	3032
804.346	2400
804.447	2947
804.548	2758
804.649	4235
804.750	2376
804.851	3074
804.952	2842
805.053	3109
805.154	2309
805.255	3761
805.355	3594
805.456	2550
805.557	2121
805.658	2470
805.758	2943
805.859	3183
805.960	2714
806.061	2198
806.161	2647
806.262	3381
806.362	2886
806.463	2819
806.564	3011
806.664	2224
806.765	2780
806.865	3784
806.966	3315
807.066	1999
807.166	3725
807.267	3478
807.367	2159
807.468	4066
807.568	2175
807.668	3528
807.769	4210
807.869	3075
807.969	3399
808.069	2991
808.170	3264
808.270	3108
808.370	3252
808.470	3704
808.570	1768
808.670	2753
808.770	1668
808.870	2845
808.970	3535
809.070	2696
809.170	2949
809.271	3870
809.370	2377
809.470	3486
809.570	2130
809.670	3008
809.770	2435
809.870	2572
809.970	2020
810.070	2745
810.169	3331
810.269	1876
810.369	3029
810.469	2890
810.568	2753
810.668	2671
810.768	2032
810.867	2736
810.967	2542
811.066	2886
811.166	2364
811.265	2897
811.365	2714
811.464	3248
811.564	3013
811.663	3200
811.763	2058
811.862	3528
811.962	3483
812.061	2677
812.160	2364
812.260	3457
812.359	3017
812.458	3409
812.557	4942
812.657	7152
812.756	5403
812.855	3561
812.954	2786
813.053	3650
813.153	3137
813.252	3265
813.351	3392
813.450	3258
813.549	2390
813.648	4135
813.747	2364
813.846	4007
813.945	3176
814.044	3784
814.143	2521
814.242	3628
814.341	3016
814.439	3079
814.538	4352
814.637	4052
814.736	3795
814.835	4618
814.933	3450
815.032	3944
815.131	4696
815.229	4804
815.328	5218
815.427	5574
815.525	5360
815.624	5192
815.722	5417
815.821	6140
815.919	5464
816.018	6020
816.116	6251
816.215	6159
816.313	7450
816.412	8837
816.510	8078
816.609	9767
816.707	8684
816.805	9585
816.904	9192
817.002	11383
817.100	12472
817.198	13638
817.296	14434
817.395	18137
817.493	21092
817.591	25247
817.689	31354
817.787	41579
817.885	59865
817.983	90949
818.081	152464
818.179	266636
818.277	416615
818.375	387714
818.473	255560
818.571	155425
818.669	106095
818.767	87364
818.865	81931
818.963	91774
819.061	115279
819.158	161658
819.256	249347
819.354	372681
819.452	461141
819.549	401628
819.647	299768
819.745	202518
819.842	136059
819.940	96284
820.038	70368
820.135	54096
820.233	45645
820.330	36452
820.428	29556
820.525	27365
820.623	22044
820.720	19523
820.818	17775
820.915	17583
821.012	15278
821.110	12122
821.207	12779
821.304	11674
821.402	11415
821.499	10885
821.596	10243
821.693	9722
821.791	9097
821.888	8548
821.985	9075
822.082	7311
822.179	8108
822.276	7224
822.373	6593
822.470	5843
822.567	6676
822.664	5171
822.761	6278
822.858	4658
822.955	4906
823.052	4420
823.149	4989
823.246	4954
823.343	4434
823.440	5031
823.536	4917
823.633	5037
823.730	4291
823.827	4966
823.923	3818
824.020	4662
824.117	4081
824.213	2793
824.310	4098
824.407	4058
824.503	4376
824.600	3204
824.696	2946
824.793	4247
824.889	3921
824.986	3437
825.082	3415
825.179	3535
825.275	2517
825.371	2795
825.468	3640
825.564	2937
825.660	3511
825.757	3354
825.853	3772
825.949	2982
826.045	2549
826.142	2784
826.238	3137
826.334	3464
826.430	2228
826.526	3106
826.622	2349
826.718	2521
826.814	2616
826.910	4170
827.006	2645
827.102	2118
827.198	3524
827.294	2083
827.390	3204
827.486	2673
827.582	1065
827.678	1691
827.774	2456
827.869	1287
827.965	3197
828.061	1422
828.157	2637
828.252	2255
828.348	1729
828.444	2926
828.539	1150
828.635	2726
828.731	2909
828.826	1040
828.922	2310
829.017	2380
829.113	2160
829.208	1945
829.304	2136
829.399	3463
829.495	2392
829.590	3316
829.685	1636
829.781	2480
829.876	2247
829.971	1967
830.066	1840
830.162	1971
830.257	2404
830.352	1845
830.447	3057
830.543	2834
830.638	1191
830.733	2992
830.828	2485
830.923	2829
831.018	2042
831.113	2434
831.208	1138
831.303	2210
831.398	1924
831.493	1772
831.588	1827
831.683	1479
831.778	1665
831.873	1821
831.967	3089
832.062	1198
832.157	1518
832.252	1899
832.346	1193
832.441	2316
832.536	1958
832.631	3925
832.725	3198
832.820	1878
832.914	1483
833.009	1119
833.104	2464
833.198	2154
833.293	1845
833.387	2289
833.482	2096
833.576	2267
833.670	2111
833.765	1450
833.859	1045
833.954	3073
834.048	2070
834.142	1522
834.237	1519
834.331	1799
834.425	1691
834.519	749
834.613	2661
834.708	1845
834.802	1794
834.896	1663
834.990	1692
835.084	1892
835.178	1352
835.272	1842
835.366	828
835.460	2594
835.554	1076
835.648	1437
835.742	1322
835.836	1937
835.930	1066
836.024	1855
836.117	1902
836.211	2122
836.305	2356
836.399	2922
836.493	701
836.586	2361
836.680	1320
836.774	1327
836.867	1811
836.961	1733
837.055	1173
837.148	1003
837.242	1341
837.335	1941
837.429	594
837.522	1251
837.616	1764
837.709	2486
837.803	1922
837.896	2010
837.989	1473
838.083	2186
838.176	2673
838.269	2467
838.363	1691
838.456	1957
838.549	2279
838.642	2252
838.735	3426
838.829	2977
838.922	838
839.015	2018
839.108	622
839.201	1443
839.294	1528
839.387	2391
839.480	783
839.573	1951
839.666	1647
839.759	1783
839.852	469
839.945	2281
840.038	1299
840.131	1353
840.223	833
840.316	2209
840.409	1495
840.502	917
840.594	1958
840.687	852
840.780	2463
840.873	897
840.965	1242
841.058	1453
841.150	2777
841.243	862
841.336	1070
841.428	820
841.521	872
841.613	1268
841.706	2374
841.798	1605
841.890	720
841.983	1393
842.075	1896
842.167	1915
842.260	1640
842.352	1707
842.444	2734
842.537	3693
842.629	3961
842.721	1874
842.813	1270
842.905	1162
842.997	2010
843.090	1807
843.182	2270
843.274	2439
843.366	5359
843.458	9972
843.550	7126
843.642	2431
843.734	1352
843.826	1158
843.918	1860
844.009	1900
844.101	635
844.193	1058
844.285	485
844.377	1602
844.469	1819
844.560	1690
844.652	1486
844.744	2015
844.835	1349
844.927	2184
845.019	1504
845.110	1704
845.202	1678
845.293	1644
845.385	1206
845.476	1817
845.568	1611
845.659	1313
845.751	2102
845.842	1397
845.934	1263
846.025	1753
846.116	1411
846.208	1783
846.299	957
846.390	1438
846.482	1369
846.573	2030
846.664	1722
846.755	1981
846.846	2891
846.937	219
847.029	1411
847.120	1196
847.211	1186
847.302	1857
847.393	1250
847.484	1552
847.575	751
847.666	768
847.757	843
847.847	2229
847.938	2150
848.029	1000
848.120	1256
848.211	1169
848.302	886
848.392	1484
848.483	1530
848.574	942
848.664	526
848.755	2061
848.846	961
848.936	1304
849.027	1040
849.118	2116
849.208	1121
849.299	1177
849.389	1198
849.480	1829
849.570	2528
849.661	3039
849.751	3151
849.841	2107
849.932	588
850.022	1028
850.112	1781
850.203	1360
850.293	1486
850.383	1007
850.474	1565
850.564	1263
850.654	1038
850.744	1064
850.834	1069
850.924	1435
851.014	1791
851.104	1042
851.194	705
851.284	1540
851.374	1972
851.464	1341
851.554	2057
851.644	1078
851.734	2916
851.824	2694
851.914	5123
852.004	9880
852.094	11520
852.183	2639
852.273	1434
852.363	1355
852.452	865
852.542	1530
852.632	605
852.721	1652
852.811	896
852.901	1470
852.990	391
853.080	1404
853.169	708
853.259	430
853.348	150
853.438	787
853.527	1809
853.617	1329
853.706	1775
853.795	2888
853.885	4117
853.974	7693
854.063	13142
854.152	19703
854.242	8082
854.331	1928
854.420	1568
854.509	1425
854.598	1108
854.687	2110
854.777	986
854.866	1452
854.955	1467
855.044	461
855.133	848
855.222	748
855.311	1322
855.400	1516
855.488	731
855.577	256
855.666	1212
855.755	1558
855.844	1650
855.933	2067
856.021	1470
856.110	1053
856.199	1165
856.288	1069
856.376	977
856.465	852
856.554	882
856.642	213
856.731	1093
856.819	575
856.908	533
856.996	826
857.085	928
857.173	434
857.262	1051
857.350	1417
857.438	1229
857.527	1915
857.615	1216
857.703	1642
857.792	482
857.880	306
857.968	-54
858.056	1412
858.145	872
858.233	-38
858.321	934
858.409	1336
858.497	43
858.585	737
858.673	801
858.761	1008
858.849	870
858.937	1532
859.025	841
859.113	1626
859.201	381
859.289	1642
859.377	695
859.465	933
859.552	589
859.640	364
859.728	1005
859.816	1339
859.903	1464
859.991	-23
860.079	1684
860.166	1187
860.254	274
860.342	1461
860.429	731
860.517	966
860.604	787
860.692	1162
860.779	373
860.867	558
860.954	671
861.042	917
861.129	1295
861.216	946
861.304	785
861.391	1313
861.478	527
861.565	776
861.653	1624
861.740	561
861.827	110
861.914	1205
862.001	-31
862.089	388
862.176	1575
862.263	366
862.350	934
862.437	-187
862.524	426
862.611	1524
862.698	1443
862.785	208
862.871	695
862.958	749
863.045	423
863.132	1432
863.219	476
863.306	1057
863.392	545
863.479	1070
863.566	635
863.652	559
863.739	680
863.826	1094
863.912	762
863.999	957
864.086	1440
864.172	402
864.259	1004
864.345	1501
864.432	808
864.518	1059
864.604	1270
864.691	1183
864.777	1003
864.863	1501
864.950	691
865.036	1372
865.122	1759
865.209	1747
865.295	751
865.381	1475
865.467	1188
865.553	1851
865.639	1370
865.726	1272
865.812	2821
865.898	3554
865.984	5580
866.070	9423
866.156	9725
866.242	3516
866.328	1640
866.414	898
866.499	1773
866.585	882
866.671	1158
866.757	1658
866.843	978
866.928	788
867.014	674
867.100	1757
867.186	1361
867.271	1361
867.357	1957
867.442	1425
867.528	1715
867.614	1261
867.699	964
867.785	1407
867.870	1144
867.956	1971
868.041	2037
868.127	1755
868.212	1661
868.297	1546
868.383	1071
868.468	1607
868.553	1908
868.639	2696
868.724	2804
868.809	3499
868.894	998
868.979	1786
869.065	1461
869.150	640
869.235	1082
869.320	759
869.405	1006
869.490	275
869.575	949
869.660	787
869.745	819
869.830	870
869.915	1680
870.000	866
870.085	1700
870.169	1174
870.254	668
870.339	305
870.424	118
870.509	1600
870.593	1403
870.678	822
870.763	1108
870.847	483
870.932	636
871.016	1071
871.101	732
871.186	637
871.270	1054
871.355	1222
871.439	1044
871.523	1526
871.608	930
871.692	810
871.777	713
871.861	822
871.945	278
872.030	1137
872.114	514
872.198	252
872.282	502
872.367	931
872.451	954
872.535	205
872.619	692
872.703	417
872.787	1736
872.871	1006
872.955	-367
873.039	284
873.123	521
873.207	1793
873.291	875
873.375	249
873.459	674
873.543	-473
873.627	241
873.711	819
873.794	632
873.878	547
873.962	456
874.045	389
874.129	-131
874.137	-116
874.213	35
874.245	26
874.296	15
874.352	633
874.380	936
874.460	209
874.464	180
874.547	1301
874.568	1151
874.631	701
874.676	231
874.714	-167
874.784	1341
874.798	1645
874.881	2010
874.892	1842
874.965	685
874.999	647
875.048	573
875.107	315
875.131	217
875.215	88
875.215	88
875.298	31
875.323	288
875.381	881
875.430	529
875.465	329
875.538	699
875.548	740
875.631	85
875.646	132
875.714	359
875.753	645
875.798	987
875.861	805
875.881	733
875.964	660
875.968	641
876.047	392
876.076	648
876.130	1141
876.183	814
876.213	582
876.291	1008
876.296	1034
876.379	-301
876.398	-224
876.462	125
876.506	255
876.545	390
876.613	971
876.628	1072
876.711	395
876.721	441
876.794	954
876.828	568
876.877	-142
876.935	16
876.960	205
877.043	11
877.043	11
877.125	-207
877.150	92
877.208	942
877.258	530
877.291	253
877.365	536
877.374	565
877.456	-147
877.472	-72
877.539	152
877.579	284
877.622	438
877.687	391
877.704	408
877.787	-89
877.794	-69
877.869	-26
877.901	23
877.952	198
878.008	439
878.034	511
878.115	-33
878.117	-44
878.199	-561
878.222	-426
878.282	110
878.329	464
878.364	646
878.437	385
878.447	323
878.529	547
878.544	457
878.611	182
878.651	289
878.694	402
878.758	526
878.776	565
878.858	215
878.865	233
878.941	323
878.972	200
879.023	65
879.078	-84
879.105	-107
879.185	122
879.187	124
879.269	357
879.292	205
879.351	3
879.399	317
879.433	361
879.506	87
879.516	37
879.598	238
879.613	217
879.680	525
879.720	442
879.762	306
879.827	220
879.844	144
879.926	113
879.933	53
880.007	-287
880.040	-282
880.089	-208
880.147	353
880.171	547
880.253	500
880.254	499
880.335	316
880.360	416
880.417	904
880.467	1035
880.499	1030
880.574	1257
880.580	1272
880.662	424
880.680	411
880.744	127
880.787	-48
880.825	187
880.893	647
880.907	602
880.989	-86
881.000	-56
881.070	434
881.106	451
881.152	560
881.213	138
881.233	-23
881.315	482
881.319	471
881.396	234
881.426	171
881.478	-108
881.532	21
881.559	263
881.639	272
881.641	262
881.722	66
881.745	45
881.803	146
881.852	286
881.885	294
881.958	197
881.966	177
882.047	-282
882.064	-374
882.129	-469
882.171	-250
882.210	61
882.277	667
882.291	755
882.372	532
882.383	557
882.454	639
882.489	641
882.535	567
882.596	372
882.616	246
882.697	-36
882.702	-76
882.778	228
882.808	345
882.859	70
882.914	258
882.940	506
883.020	928
883.021	926
883.102	422
883.127	231
883.183	308
883.233	365
883.264	145
883.339	-167
883.345	-127
883.426	-45
883.445	103
883.507	198
883.551	83
883.587	87
883.657	156
883.668	104
883.749	118
883.763	21
883.830	-35
883.869	68
883.910	316
883.975	668
883.991	646
884.072	494
884.081	493
884.152	385
884.187	203
884.233	126
884.292	287
884.314	313
884.394	149
884.398	137
884.475	194
884.504	266
884.555	69
884.610	-104
884.636	-13
884.716	536
884.716	535
884.797	-61
884.821	-228
884.877	-102
884.927	109
884.958	200
885.033	244
885.038	229
885.118	56
885.139	22
885.199	-43
885.244	-45
885.279	117
885.350	432
885.359	479
885.439	757
885.456	792
885.520	211
885.561	-64
885.600	22
885.667	203
885.680	237
885.760	137
885.773	208
885.840	384
885.878	197
885.920	5
885.984	79
886.000	82
886.080	-208
886.089	-208
886.160	-106
886.195	-221
886.240	-136
886.300	276
886.320	257
886.400	-14
886.406	-25
886.480	-147
886.511	-266
886.560	-79
886.616	279
886.640	364
886.720	473
886.722	475
886.800	-68
886.827	-231
886.879	-10
886.932	293
886.959	464
887.038	696
887.039	700
887.119	958
887.143	1009
887.198	491
887.248	75
887.278	219
887.354	443
887.358	433
887.437	182
887.459	155
887.517	227
887.564	259
887.596	230
887.669	201
887.676	193
887.755	-23
887.774	-43
887.835	255
887.880	498
887.914	302
887.985	-244
887.994	-261
888.073	-347
888.090	-374
888.153	-260
888.195	-96
888.232	-100
888.300	-146
888.311	-84
888.391	355
888.405	440
888.470	460
888.510	401
888.549	313
888.615	282
888.628	227
888.708	-121
888.720	-176
888.787	112
888.825	257
888.866	77
888.930	-128
888.945	-104
889.024	-7
889.035	7
889.103	-223
889.140	-329
889.182	-124
889.245	189
889.261	155
889.340	-1
889.349	-17
889.419	85
889.454	150
889.498	222
889.559	332
889.577	243
889.656	-132
889.664	-162
889.735	367
889.768	620
889.814	310
889.873	-92
889.978	-585
890.083	-230
890.187	-87
890.292	40
890.397	-460
890.501	-1
890.606	-341
890.710	268
890.815	154
890.919	-148
891.024	241
891.128	334
891.233	300
891.337	235
891.442	-320
891.546	-467
891.650	-374
891.755	310
891.859	1150
891.963	-400
892.068	-179
892.172	281
892.276	817
892.380	-180
892.484	47
892.589	241
892.693	370
892.797	-102
892.901	-363
893.005	242
893.109	685
893.213	-9
893.317	149
893.421	324
893.525	-250
893.629	-294
893.733	-308
893.837	-283
893.941	-231
894.045	536
894.148	135
894.252	156
894.356	-97
894.460	573
894.564	207
894.667	-209
894.771	-460
894.875	234
894.978	306
895.082	-207
895.186	210
895.289	970
895.393	77
895.496	-204
895.600	-311
895.703	-117
895.807	-563
895.910	131
896.014	-272
896.117	-547
896.221	-685
896.324	502
896.427	364
896.531	-43
896.634	303
896.737	162
896.840	41
896.944	-140
897.047	419
897.150	-7
897.253	491
897.356	-421
897.460	188
897.563	-540
897.666	482
897.769	-198
897.872	-23
897.975	-114
898.078	-157
898.181	-16
898.284	229
898.387	988
898.490	-132
898.593	766
898.695	-721
898.798	194
898.901	-449
899.004	-62
899.107	-270
899.209	-277
899.312	265
899.415	-344
899.518	493
899.620	-320
899.723	-159
899.826	-31
899.928	-289
900.031	68
900.133	-493
900.236	78
900.338	441
900.441	-289
900.543	-185
900.646	-375
900.748	292
900.851	-733
900.953	261
901.055	132
901.158	-665
901.260	-555
901.362	380
901.465	-554
901.567	247
901.669	718
901.771	-378
901.873	-513
901.976	-117
902.078	-62
902.180	-267
902.282	-541
902.384	-268
902.486	-603
902.588	-139
902.690	626
902.792	-547
902.894	-852
902.996	-165
903.098	222
903.200	-516
903.302	0
903.404	-296
903.505	316
903.607	64
903.709	485
903.811	-476
903.913	-352
904.014	328
904.116	14
904.218	-27
904.319	498
904.421	318
904.523	360
904.624	-330
904.726	-488
904.827	98
904.929	-2
905.030	-912
905.132	557
905.233	-151
905.335	-1035
905.436	52
905.537	-505
905.639	688
905.740	-736
905.841	-20
905.943	361
906.044	202
906.145	26
906.247	-1165
906.348	172
906.449	-291
906.550	212
906.651	-632
906.752	-55
906.854	-222
906.955	240
907.056	144
907.157	-672
907.258	-334
907.359	-503
907.460	-317
907.561	-795
907.662	-577
907.762	468
907.863	-581
907.964	-458
908.065	263
908.166	-915
908.267	-1072
908.367	-492
908.468	216
908.569	-400
908.670	-201
908.770	341
908.871	-272
908.971	-362
909.072	48
909.173	-256
909.273	-615
909.374	-524
909.474	2
909.575	-567
909.675	-37
909.776	-241
909.876	-258
909.977	-277
910.077	148
910.177	-561
910.278	-815
910.378	8
910.478	-912
910.579	-79
910.679	197
910.779	-44
910.879	-141
910.980	-71
911.080	-768
911.180	-43
911.280	-429
911.380	-254
911.480	-405
911.580	-32
911.680	478
911.780	-286
911.880	213
911.980	-213
912.080	-699
912.180	-440
912.280	-707
912.380	67
912.480	-700
912.580	-1006
912.679	-973
912.779	-260
912.879	-233
912.979	-102
913.078	-474
913.178	-394
913.278	-420
913.377	-302
913.477	412
913.577	-510
913.676	-520
913.776	-519
913.875	-188
913.975	229
914.074	-275
914.174	-67
914.273	-639
914.373	981
914.472	-678
914.572	-202
914.671	306
914.770	-141
914.870	632
914.969	-350
915.068	-973
915.167	-213
915.267	-452
915.366	-335
915.465	462
915.564	-898
915.663	-708
915.763	-858
915.862	-308
915.961	-235
916.060	-568
916.159	151
916.258	-1128
916.357	-613
916.456	-182
916.555	180
916.654	-271
916.752	-829
916.851	-279
916.950	117
917.049	-554
917.148	-112
917.247	-160
917.345	17
917.444	-234
917.543	-366
917.642	-829
917.740	228
917.839	-553
917.937	226
918.036	556
918.135	497
918.233	-826
918.332	-421
918.430	-1073
918.529	-319
918.627	-759
918.726	-58
918.824	-110
918.923	-317
919.021	-289
919.119	-430
919.218	-981
919.316	-423
919.414	-131
919.512	-67
919.611	-174
919.709	174
919.807	-178
919.905	214
920.003	-453
920.102	-693
920.200	-942
920.298	-414
920.396	-134
920.494	-871
920.592	-636
920.690	-767
920.788	-482
920.886	-567
920.984	89
921.082	-1080
921.180	57
921.277	-380
921.375	-1044
921.473	-174
921.571	-1329
921.669	10
921.766	-343
921.864	119
921.962	-943
922.060	-322
922.157	349
922.255	-463
922.352	-776
922.450	-185
922.548	-1075
922.645	-789
922.743	-530
922.840	-937
922.938	-515
923.035	-669
923.133	-538
923.230	-598
923.327	170
923.425	-361
923.522	184
923.619	-733
923.717	-263
923.814	-58
923.911	-955
924.008	180
924.106	-851
924.203	-63
924.300	-358
924.397	-888
924.494	568
924.591	-232
924.688	-584
924.786	-127
924.883	65
924.979	-790
925.077	-298
925.173	-193
925.270	109
925.367	-437
925.464	-23
925.561	-71
925.658	654
925.755	-671
925.852	-610
925.948	460
926.045	-476
926.142	91
926.239	-303
926.335	-536
926.432	1076
926.529	227
926.625	683
926.722	-502
926.818	-174
926.915	287
927.011	-205
927.108	-246
927.204	-449
927.301	696
927.397	-359
927.494	409
927.590	-966
927.687	-318
927.783	-839
927.879	-404
927.976	-1095
928.072	316
928.168	-255
928.264	-797
928.361	-807
928.457	-350
928.553	-317
928.649	-94
928.745	-227
928.841	-162
928.937	-305
929.033	268
929.129	-13
929.225	-368
929.321	156
929.417	-781
929.513	-301
929.609	330
929.705	-358
929.801	-653
929.897	-334
929.993	-450
930.089	-333
930.184	-237
930.280	-225
930.376	232
930.471	-131
930.567	-619
930.663	-276
930.758	-651
930.854	-853
930.950	-439
931.045	-119
931.141	-759
931.236	281
931.332	-87
931.427	-68
931.523	-542
931.618	-33
931.714	-688
931.809	-289
931.905	-38
932.000	-502
932.095	-566
932.191	-386
932.286	55
932.381	-215
932.476	325
932.572	-1194
932.667	-474
932.762	-6
932.857	-630
932.952	-392
933.047	-385
933.142	-166
933.237	-322
933.332	-1214
933.427	-24
933.522	-355
933.617	-451
933.712	-414
933.807	-796
933.902	23
933.997	7
934.092	-196
934.187	-183
934.282	28
934.376	-299
934.471	-763
934.566	-605
934.661	-473
934.755	-1131
934.850	-619
934.945	444
935.039	-986
935.134	-265
935.228	-362
935.323	-302
935.417	-29
935.512	-608
935.606	-507
935.701	-917
935.795	-1320
935.890	-165
935.984	-530
936.079	-847
936.173	330
936.267	-526
936.362	-615
936.456	-389
936.550	-1066
936.644	-157
936.738	-308
936.833	64
936.927	-172
937.021	-877
937.115	-1127
937.209	-660
937.303	370
937.397	-208
937.491	-1162
937.585	-152
937.679	-385
937.773	-82
937.867	396
937.961	-200
938.055	-433
938.149	739
938.243	-215
938.337	8
938.430	-266
938.524	473
938.618	-516
938.712	-320
938.805	-399
938.899	-846
938.993	-321
939.086	-225
939.180	389
939.274	-186
939.367	723
939.461	-485
939.554	-488
939.648	-72
939.741	-989
939.835	-18
939.928	-216
940.022	345
940.115	-973
940.208	79
940.302	-271
940.395	629
940.488	-675
940.582	316
940.675	-298
940.768	-230
940.861	-714
940.954	-444
941.048	-285
941.141	-554
941.234	-1069
941.327	-79
941.420	-562
941.513	-978
941.606	-546
941.699	485
941.792	-1136
941.885	-404
941.978	-760
942.071	-1042
942.164	-541
942.257	-687
942.349	-478
942.442	-392
942.535	-84
942.628	175
942.721	-151
942.813	-1455
942.906	-568
942.999	-70
943.091	-171
943.184	-576
943.277	-631
943.369	-352
943.462	-152
943.554	-533
943.647	65
943.739	-435
943.832	-330
943.924	-1402
944.017	-1075
944.109	-1348
944.201	-603
944.294	-87
944.386	-1112
944.478	-827
944.571	-485
944.663	-971
944.755	-681
944.847	-745
944.940	-451
945.032	-1245
945.124	-796
945.216	112
945.308	-747
945.400	-555
945.492	-638
945.584	-978
945.676	-553
945.768	-243
945.860	139
945.952	-477
946.044	-148
946.136	-260
946.228	-253
946.320	-536
946.412	-574
946.503	-204
946.595	412
946.687	-1051
946.779	-932
946.870	-196
946.962	-1074
947.054	-398
947.145	147
947.237	-675
947.329	-578
947.420	-503
947.512	-374
947.603	-373
947.695	-242
947.786	-707
947.878	-581
947.969	-814
948.061	-607
948.152	-641
948.243	-920
948.335	-196
948.426	-992
948.517	-919
948.609	-454
948.700	-1091
948.791	-1364
948.882	-716
948.973	-759
949.065	-974
949.156	-579
949.247	-1217
949.338	-738
949.429	-492
949.520	89
949.611	-2165
949.702	-1245
949.793	-359
949.884	-580
949.975	-586
950.066	-408
950.157	-840
950.247	-500
950.338	-1029
950.429	-1205
950.520	-539
950.611	-490
950.701	-755
950.792	-757
950.883	-678
950.973	-826
951.064	-992
951.155	-1301
951.245	-148
951.336	-794
951.427	-13
951.517	468
951.608	-1031
951.698	-873
951.788	-336
951.879	-553
951.969	-969
952.060	-865
952.150	-1548
952.240	-224
952.331	-1269
952.421	-237
952.511	-1901
952.602	-569
952.692	-1662
952.782	-888
952.872	-890
952.962	-877
953.052	-235
953.143	-1631
953.233	562
953.323	-868
953.413	-784
953.503	-248
953.593	-1219
953.683	-1628
953.773	-1234
953.863	-488
953.953	-1220
954.042	-1023
954.132	-1899
954.222	-375
954.312	-1600
954.402	-1543
954.492	-827
954.581	-1400
954.671	-775
954.761	-659
954.850	389
954.940	-253
955.030	-1381
955.119	-1689
955.209	-639
955.298	-1431
955.388	-1661
955.477	-536
955.567	-843
955.656	70
955.746	-938
955.835	-671
955.925	-1862
956.014	-635
956.103	-343
956.193	-773
956.282	-891
956.371	-1250
956.461	-988
956.550	-714
956.639	-1310
956.728	-1094
956.817	-1213
956.906	-1230
956.995	-606
957.085	-1412
957.174	-760
957.263	-818
957.352	-1174
957.441	-675
957.530	-1364
957.619	-1409
957.708	-1608
957.796	-942
957.885	-458
957.974	-1073
958.063	-748
958.152	-1665
958.241	-552
958.329	-1525
958.418	-1021
958.507	-963
958.596	386
958.684	-1452
958.773	-497
958.861	-1958
958.950	-946
959.039	-1271
959.127	-792
959.216	-972
959.304	-508
959.393	-1673
959.481	-602
959.570	-855
959.658	-535
959.746	-1076
959.835	-889
959.923	-1009
960.011	-1606
960.100	-489
960.188	-1197
960.276	-1409
960.365	-1000
960.453	-715
960.541	-1415
960.629	-983
960.717	-1542
960.805	-328
960.893	-762
960.981	-1180
961.069	214
961.158	-1326
961.245	77
961.333	-1019
961.421	-938
961.509	-395
961.597	-1630
961.685	-632
961.773	-1852
961.861	-1454
961.949	-1188
962.036	-1698
962.124	-718
962.212	-847
962.299	-1571
962.387	-1210
962.475	-1042
962.562	-1149
962.650	-773
962.738	-739
962.825	-1291
962.913	-1664
963.000	-1454
963.088	-1872
963.175	-947
963.263	-1039
963.350	-556
963.438	-1908
963.525	-1163
963.612	-928
963.700	-701
963.787	920
963.874	-716
963.962	-692
964.049	-588
964.136	-1199
964.223	-2641
964.310	-1304
964.398	-879
964.485	-1688
964.572	-1171
964.659	-981
964.746	-578
964.833	-829
964.920	-1641
965.007	-1097
965.094	-1071
965.181	-1689
965.268	-1382
965.355	-1219
965.441	-532
965.528	-1476
965.615	-543
965.702	-775
965.789	-1500
965.875	-1057
965.962	-808
966.049	-2161
966.136	-1281
966.222	-962
966.309	-1850
966.395	-1775
966.482	-171
966.569	-1434
966.655	-1218
966.742	-1148
966.828	-1098
966.915	-877
967.001	-1102
967.087	-1870
967.174	-1065
967.260	-1240
967.347	-533
967.433	-940
967.519	-198
967.605	-469
967.692	-646
967.778	-964
967.864	-1545
967.950	-793
968.036	-1124
968.123	-630
968.209	-1093
968.295	-2494
968.381	165
968.467	-682
968.553	-1499
968.639	-591
968.725	-1374
968.811	-1435
968.897	-548
968.983	-1646
969.069	-1894
969.154	-1126
969.240	23
969.326	-1303
969.412	-2028
969.497	-1714
969.583	-1446
969.669	-1138
969.755	-902
969.840	-1945
969.926	-746
970.012	-951
970.097	-964
970.183	-1188
970.268	-1229
970.354	-843
970.439	-1855
970.525	-330
970.610	-1766
970.696	-1540
970.781	-607
970.866	-1694
970.952	-479
971.037	-2380
971.122	-783
971.208	-1137
971.293	-982
971.378	-2421
971.463	-1143
971.549	-780
971.634	-1326
971.719	-713
971.804	-1574
971.889	-993
971.974	-1887
972.059	-2386
972.144	-978
972.229	-1327
972.314	-1151
972.399	-951
972.484	-1817
972.569	-1569
972.654	-2549
972.739	-672
972.824	-819
972.908	-1317
972.993	-743
973.078	-1266
973.163	-1882
973.247	-1300
973.332	-2180
973.417	-658
973.501	-1815
973.586	-2164
973.671	-1268
973.755	-937
973.840	-360
973.924	-826
974.009	-1105
974.093	-1848
974.178	-505
974.262	-1565
974.346	-2022
974.431	-1668
974.515	-1506
974.600	-1363
974.684	-466
974.768	-1676
974.852	-1181
974.937	-2299
975.021	-423
975.105	-1317
975.189	-1426
975.273	-424
975.358	-2347
975.442	-1596
975.526	-996
975.610	-1938
975.694	-2068
975.778	-954
975.862	-1148
975.946	-2786
976.030	207
976.114	-1862
976.198	-1692
976.281	-1735
976.365	-491
976.449	-1371
976.533	-1360
976.617	-1656
976.700	-1672
976.784	-1151
976.868	-1531
976.951	-636
977.035	-1467
977.119	-703
977.202	-1308
977.286	-656
977.369	-1216
977.453	-1457
977.536	-2120
977.620	-1498
977.703	-1114
977.787	-2468
977.870	-257
977.953	-1350
978.037	-2582
978.120	-1092
978.203	-1907
978.287	-1307
978.370	-1769
978.453	-689
978.536	-939
978.620	-1211
978.703	-1565
978.786	-1634
978.869	-1968
978.952	-2602
979.035	-1274
979.118	-1151
979.201	-2103
979.284	-1091
979.367	-1770
979.450	-1074
979.533	-1473
979.616	-1624
979.699	-1829
979.782	-354
979.865	-1724
979.948	-1585
980.030	-1475
980.113	-1369
980.196	-2261
980.279	-970
980.361	-1720
980.444	-1614
980.526	-1258
980.609	-1643
980.692	-1281
980.774	-2001
980.857	-1646
980.939	-495
981.022	-1581
981.104	-1513
981.187	-1693
981.269	-1143
981.352	-1456
981.434	-2478
981.516	-1513
981.599	-443
981.681	-1238
981.763	-2436
981.846	-1363
981.928	-1797
982.010	-2238
982.092	-2085
982.174	-1097
982.256	-2511
982.339	-1848
982.421	-2145
982.503	-877
982.585	-1699
982.667	-1429
982.749	-1646
982.831	-2308
982.913	-2537
982.995	-1476
983.077	-1904
983.158	-1233
983.240	-2531
983.322	-1722
983.404	-1725
983.486	-2112
983.568	-1215
983.649	-1852
983.731	-1921
983.813	-2522
983.894	-1580
983.976	-1656
984.058	-2051
984.139	-687
984.221	-2568
984.302	-478
984.384	-1641
984.465	-2468
984.547	-667
984.628	-2223
984.710	-1956
984.791	-1800
984.872	-1936
984.954	-2228
985.035	-1347
985.116	-1444
985.198	-1892
985.279	-1273
985.360	-2047
985.441	-2009
985.522	-1749
985.604	-1599
985.685	-3236
985.766	-1173
985.847	-665
985.928	-2809
986.009	-1900
986.090	-1547
986.171	-2072
986.252	-2442
986.333	-1625
986.414	-2134
986.495	-1804
986.576	-1375
986.656	-1701
986.737	-1246
986.818	-1805
986.899	-2524
986.980	-1366
987.060	-808
987.141	-2417
987.222	-2093
987.302	-2506
987.383	-1738
987.464	-2079
987.544	-794
987.625	-2800
987.705	-1995
987.786	-1727
987.866	-1876
987.947	-2077
988.027	-1434
988.108	-2440
988.188	-1184
988.268	-1078
988.349	-2284
988.429	-1617
988.509	-968
988.589	-1926
988.670	-3235
988.750	-740
988.830	-2207
988.910	-1345
988.990	-2425
989.070	-2444
989.151	-1801
989.231	-2608
989.311	-640
989.391	-2732
989.471	-2088
989.551	-1455
989.631	-2244
989.711	-1478
989.791	-2629
989.870	-2492
989.950	-429
990.030	-1912
990.110	-2324
990.190	-1209
990.269	-1208
990.349	-1880
990.429	-538
990.509	-962
990.588	-1997
990.668	-1324
990.747	-1931
990.827	-2167
990.907	-1818
990.986	-2631
991.066	-2004
991.145	-1799
991.225	-1322
991.304	-1881
991.383	-1044
991.463	-2204
991.542	-1250
991.622	-1160
991.701	-2103
991.780	-2005
991.859	-1302
991.939	-1402
992.018	-1628
992.097	-1600
992.176	-2183
992.256	-1146
992.335	-2189
992.414	-1496
992.493	-2011
992.572	-1728
992.651	-1196
992.730	-2192
992.809	-1883
992.888	-2023
992.967	-1609
993.046	-1249
993.125	-2299
993.203	-1596
993.282	-1795
993.361	-1788
993.440	-1997
993.519	-2645
993.597	-1586
993.676	-1609
993.755	-1507
993.834	-2026
993.912	-2131
993.991	-316
994.069	-1139
994.148	-1429
994.226	-1393
994.305	-2021
994.384	-2196
994.462	-1509
994.540	-1853
994.619	-2135
994.697	-529
994.776	-2176
994.854	-1210
994.932	-2149
995.011	-1774
995.089	-1937
995.167	-1547
995.245	-1378
995.324	-2342
995.402	-1774
995.480	-1538
995.558	-2198
995.636	-2356
995.714	-1985
995.792	-655
995.870	-1880
995.948	-1859
996.026	-1198
996.104	-2837
996.182	-458
996.260	-2570
996.338	-1971
996.416	-2118
996.494	-2115
996.572	-745
996.649	-2222
996.727	-1832
996.805	-1017
996.883	-1704
996.960	-2004
997.038	-983
997.116	-1115
997.193	-2204
997.271	-1434
997.348	-2048
997.426	-2025
997.504	-1669
997.581	-612
997.658	-620
997.736	-1889
997.813	-1849
997.891	-1433
997.968	-1704
998.046	-1994
998.123	-2742
998.200	-1109
998.277	-2700
998.355	-864
998.432	-2443
998.509	-1962
998.586	-1314
998.663	-906
998.741	-1568
998.818	-1365
998.895	-1924
998.972	-1693
999.049	-1479
999.126	-1795
999.203	-1073
999.280	-1264
999.357	-1971
999.434	-1602
999.511	-621
999.587	-711
999.664	-1757
999.741	-1483
999.818	-683
999.895	-2557
999.971	-1384
1000.048	-1684
1000.125	-948
1000.202	-1292
1000.278	-874
1000.355	-1567
1000.431	-2132
1000.508	-2963
1000.584	-2224
1000.661	-1351
1000.738	-1186
1000.814	-1569
1000.890	-1220
1000.967	-1561
1001.043	-2530
1001.120	-2535
1001.196	-1543
1001.272	-2646
1001.349	-1377
1001.425	-1234
1001.501	-1982
1001.577	-2802
1001.654	-1967
1001.730	-1563
1001.806	-997
1001.882	-2566
1001.958	-1830
1002.034	-641
1002.110	-814
1002.186	-1923
1002.262	-1443
1002.338	-2603
1002.414	-1771
1002.490	-1105
1002.566	-2601
1002.642	-1231
1002.718	-913
1002.794	-1551
1002.870	-1576
1002.945	-1960
1003.021	-1078
1003.097	-1883
1003.173	-336
1003.248	-2463
1003.324	-2207
1003.400	-1237
1003.475	-1605
1003.551	-2263
1003.626	-2075
1003.702	-2178
1003.777	-2040
1003.853	-1025
1003.928	-2086
1004.004	-1581
1004.079	-1664
1004.155	-2152
1004.230	-2564
1004.305	-904
1004.381	-2522
1004.456	-2172
1004.531	-1353
1004.607	-1553
1004.682	-2133
1004.757	-1593
1004.832	-1170
1004.907	-1447
1004.982	-1498
1005.057	-1023
1005.133	-2330
1005.208	-1742
1005.283	-2264
1005.358	-1131
1005.433	-1693
1005.508	-1742
1005.583	-2288
1005.657	-1691
1005.732	-1333
1005.807	-2246
1005.882	-1483
1005.957	-1874
1006.032	-1844
1006.106	-1260
1006.181	-1453
1006.256	-1437
1006.331	-3111
1006.405	-2080
1006.480	-1877
1006.554	-1672
1006.629	-1655
1006.704	-1931
1006.778	-1573
1006.853	-1444
1006.927	-1603
1007.002	-2133
1007.076	-2309
1007.150	-2414
1007.225	-1201
1007.299	-1870
1007.373	-2235
1007.448	-2188
1007.522	-1128
1007.596	-2007
1007.671	-2220
1007.745	-1827
1007.819	-2199
1007.893	-2291
1007.967	-1415
1008.041	-2769
1008.115	-1918
1008.190	-2161
1008.264	-1329
1008.338	-2344
1008.412	-1783
1008.486	-2129
1008.560	-2606
1008.633	-2402
1008.707	-1863
1008.781	-1933
1008.855	-2156
1008.929	-3223
1009.003	-2007
1009.076	-1997
1009.150	-1834
1009.224	-2086
1009.298	-968
1009.371	-2295
1009.445	-1362
1009.519	-2511
1009.592	-1574
1009.666	-1726
1009.739	-1393
1009.813	-2612
1009.886	-1502
1009.960	-2810
1010.033	-1384
1010.107	-1494
1010.180	-2808
1010.253	-1789
1010.327	-2376
1010.400	-2223
1010.473	-1634
1010.547	-388
1010.620	-2404
1010.693	-1927
1010.766	-2215
1010.840	-1887
1010.913	-1395
1010.986	-2699
1011.059	-2460
1011.132	-1711
1011.205	-2201
1011.278	-2078
1011.351	-2070
1011.424	-2094
1011.497	-2384
1011.570	-2195
1011.643	-1304
1011.716	-1822
1011.789	-2334
1011.862	-2007
1011.934	-1328
1012.007	-2879
1012.080	-1039
1012.153	-2066
1012.225	-1389
1012.298	-1557
1012.371	-1487
1012.443	-1823
1012.516	-2874
1012.588	-1830
1012.661	-1547
1012.733	-2146
1012.806	-1476
1012.879	-2598
1012.951	-2367
1013.023	-2889
1013.096	-1132
1013.168	-1981
1013.241	-1756
1013.313	-1646
1013.385	-2801
1013.458	-2215
1013.530	-2214
1013.602	-1903
1013.674	-938
1013.746	-2732
1013.819	-2462
1013.891	-1868
1013.963	-2473
1014.035	-2144
1014.107	-2129
1014.179	-1809
1014.251	-1894
1014.323	-1644
1014.395	-2418
1014.467	-2279
1014.539	-1273
1014.611	-2585
1014.683	-2406
1014.754	-1654
1014.826	-2205
1014.898	-1998
1014.970	-2552
1015.042	-1343
1015.113	-1384
1015.185	-2560
1015.257	-3259
1015.328	-1830
1015.400	-2953
1015.471	-1952
1015.543	-2759
1015.615	-2402
1015.686	-2451
1015.757	-2134
1015.829	-1628
1015.901	-2377
1015.972	-2495
1016.043	-2257
1016.115	-1797
1016.186	-2061
1016.257	-2531
1016.328	-2195
1016.400	-1816
1016.471	-2384
1016.542	-2488
1016.613	-1674
1016.685	-1750
1016.756	-2108
1016.827	-2706
1016.898	-2848
1016.969	-1945
1017.040	-2349
1017.111	-2375
1017.182	-2145
1017.253	-2379
1017.324	-3071
1017.395	-2258
1017.466	-2674
1017.537	-2229
1017.608	-3005
1017.678	-1630
1017.749	-2446
1017.820	-2116
1017.891	-2512
1017.961	-2243
1018.032	-2535
1018.103	-1959
1018.173	-1946
1018.244	-2566
1018.315	-2336
1018.385	-1868
1018.456	-1946
1018.526	-3197
1018.597	-2481
1018.667	-2015
1018.738	-2756
1018.808	-2520
1018.878	-2598
1018.949	-2337
1019.019	-1537
1019.089	-2294
1019.160	-1539
1019.230	-2678
1019.300	-2539
1019.371	-3047
1019.441	-2152
1019.511	-2299
1019.581	-1999
1019.651	-2143
1019.721	-3007
1019.791	-1773
1019.861	-2659
1019.931	-2280
1020.001	-2358
1020.071	-2681
1020.141	-2069
1020.211	-3133
1020.281	-2391
1020.351	-2807
1020.421	-2085
1020.491	-2433
1020.560	-3373
1020.630	-2356
1020.700	-1924
1020.770	-2457
1020.839	-1879
1020.909	-2294
1020.979	-2088
1021.048	-2296
1021.118	-2744
1021.187	-2071
1021.257	-1768
1021.326	-2864
1021.396	-2570
1021.465	-2827
1021.535	-1871
1021.604	-2376
1021.674	-2439
1021.743	-2143
1021.812	-2504
1021.882	-2434
1021.951	-2750
1022.020	-1910
1022.089	-2128
1022.159	-2659
1022.228	-2251
1022.297	-2246
1022.366	-2509
1022.435	-1704
1022.504	-2913
1022.573	-2721
1022.642	-2244
1022.711	-2617
1022.781	-2466
1022.849	-1974
1022.918	-2193
1022.987	-2083
1023.056	-2549
1023.125	-2960
1023.194	-2244
1023.263	-2550
1023.331	-1950
1023.400	-2551
1023.469	-2151
1023.538	-1808
1023.606	-2580
1023.675	-2869
1023.744	-2697
1023.812	-2254
1023.881	-2010
1023.949	-1843
1024.018	-2911
1024.086	-2162
1024.155	-2370
1024.223	-2704
1024.292	-2355
1024.360	-2280
1024.429	-2568
1024.497	-2407
1024.565	-2279
1024.634	-2457
1024.702	-3449
1024.770	-2891
1024.838	-1896
1024.907	-2669
1024.975	-2863
1025.043	-2022
1025.111	-2785
1025.179	-2282
1025.247	-1925
1025.315	-2076
1025.383	-2755
1025.451	-2562
1025.519	-2595
1025.587	-3266
1025.655	-2327
1025.723	-2339
1025.791	-1907
1025.859	-2108
1025.927	-2040
1025.995	-2272
1026.062	-2653
1026.130	-2029
1026.198	-2836
1026.266	-2332
1026.333	-2215
1026.401	-2198
1026.469	-3128
1026.536	-2442
1026.604	-2180
1026.671	-2335
1026.739	-2731
1026.806	-1993
1026.874	-2957
1026.941	-2683
1027.009	-2775
1027.076	-2981
1027.144	-2243
1027.211	-2734
1027.278	-3013
1027.345	-2207
1027.413	-2277
1027.480	-2981
1027.547	-2883
1027.614	-3175
1027.682	-1622
1027.749	-3197
1027.816	-2302
1027.883	-2042
1027.950	-1936
1028.017	-3225
1028.084	-1782
1028.151	-2913
1028.218	-2555
1028.285	-1873
1028.352	-3146
1028.419	-2852
1028.486	-2872
1028.553	-2342
1028.619	-2564
1028.686	-2399
1028.753	-2694
1028.820	-2256
1028.886	-2959
1028.953	-1624
1029.020	-2650
1029.086	-1940
1029.153	-2865
1029.220	-2362
1029.286	-3041
1029.353	-1856
1029.419	-2935
1029.486	-2169
1029.552	-2756
1029.619	-3321
1029.685	-2298
1029.751	-2821
1029.818	-1957
1029.884	-2111
1029.951	-1555
1030.017	-2172
1030.083	-2342
1030.149	-2581
1030.216	-2192
1030.282	-2458
1030.348	-3070
1030.414	-2788
1030.480	-2022
1030.546	-2945
1030.612	-2315
1030.678	-2170
1030.744	-1899
1030.810	-2865
1030.876	-2195
1030.942	-1936
1031.008	-3144
1031.074	-2728
1031.140	-1927
1031.206	-1685
1031.272	-2348
1031.337	-2075
1031.403	-2248
1031.469	-2823
1031.534	-2639
1031.600	-2070
1031.666	-1740
1031.731	-3020
1031.797	-2051
1031.863	-2464
1031.928	-3202
1031.994	-2459
1032.059	-2411
1032.125	-2146
1032.190	-2288
1032.256	-2466
1032.321	-2189
1032.386	-2023
1032.452	-2663
1032.517	-2581
1032.582	-2831
1032.647	-2329
1032.713	-3412
1032.778	-2214
1032.843	-2919
1032.908	-3053
1032.974	-2156
1033.039	-2536
1033.104	-1693
1033.169	-2787
1033.234	-2221
1033.299	-1948
1033.364	-1578
1033.429	-2846
1033.494	-2333
1033.559	-1934
1033.624	-2833
1033.688	-2341
1033.753	-2925
1033.818	-2007
1033.883	-2003
1033.948	-2644
1034.013	-1986
1034.077	-2516
1034.142	-2019
1034.207	-3183
1034.271	-2544
1034.336	-1981
1034.400	-2526
1034.465	-2741
1034.530	-2236
1034.594	-1823
1034.658	-2569
1034.723	-2991
1034.787	-2389
1034.852	-2777
1034.916	-2273
1034.981	-2142
1035.045	-1849
1035.109	-2288
1035.173	-2569
1035.238	-2008
1035.302	-2618
1035.366	-2137
1035.430	-2517
1035.495	-2107
1035.559	-2101
1035.623	-2359
1035.687	-3166
1035.751	-1940
1035.815	-2897
1035.879	-2791
1035.943	-2161
1036.007	-2837
1036.071	-2238
1036.135	-2689
1036.198	-2580
1036.262	-2488
1036.326	-2340
1036.390	-1775
1036.454	-2508
1036.517	-2307
1036.581	-3161
1036.645	-2221
1036.709	-2576
1036.772	-2310
1036.836	-1921
1036.900	-2323
1036.963	-2802
1037.026	-2280
1037.090	-2523
1037.154	-2467
1037.217	-2328
1037.280	-2423
1037.344	-3255
1037.407	-3122
1037.471	-2675
1037.534	-2260
1037.597	-2719
1037.661	-2884
1037.724	-1931
1037.787	-2321
1037.850	-1788
1037.913	-2041
1037.977	-2138
1038.040	-2495
1038.103	-2895
1038.166	-2231
1038.229	-1836
1038.292	-2613
1038.355	-1766
1038.418	-2791
1038.481	-2780
1038.544	-2271
1038.607	-2146
1038.670	-2136
1038.732	-2740
1038.795	-2254
1038.858	-2450
1038.921	-1569
1038.984	-2081
1039.046	-3221
1039.109	-2237
1039.172	-1502
1039.234	-2604
1039.297	-2826
1039.360	-2557
1039.422	-2609
1039.485	-2436
1039.547	-2969
1039.610	-2229
1039.672	-1992
1039.734	-2333
1039.797	-2345
1039.859	-2667
1039.922	-3109
1039.984	-2187
1040.046	-2364
1040.109	-3277
1040.171	-2116
1040.233	-2216
1040.295	-3063
1040.358	-2441
1040.420	-2035
1040.482	-2542
1040.544	-1587
1040.606	-2223
1040.668	-2421
1040.730	-2533
1040.792	-2359
1040.854	-2888
1040.916	-1956
1040.978	-2886
1041.040	-1900
1041.102	-1732
1041.164	-2180
1041.225	-2287
1041.287	-2232
1041.349	-1892
1041.411	-2111
1041.472	-1742
1041.534	-2723
1041.596	-2310
1041.657	-2324
1041.719	-3119
1041.781	-3213
1041.842	-2959
1041.904	-1916
1041.965	-2620
1042.027	-2363
1042.088	-2418
1042.150	-2862
1042.211	-2141
1042.272	-1713
1042.334	-2727
1042.395	-2546
1042.456	-1350
1042.518	-2396
1042.579	-2059
1042.640	-3150
1042.701	-3108
1042.763	-2554
1042.824	-2146
1042.885	-2311
1042.946	-2257
1043.007	-2480
1043.068	-2126
1043.129	-2025
1043.190	-2701
1043.251	-1949
1043.312	-1633
1043.373	-2608
1043.434	-2554
1043.495	-2884
1043.556	-2306
1043.616	-2591
1043.677	-2267
1043.738	-1935
1043.799	-2375
1043.859	-2273
1043.920	-3227
1043.981	-2244
1044.041	-2318
1044.102	-2975
1044.162	-2356
1044.223	-2141
1044.284	-2279
1044.344	-2168
1044.405	-2497
1044.465	-2204
1044.525	-3077
1044.586	-1511
1044.646	-3046
1044.707	-2201
1044.767	-2455
1044.827	-2151
1044.887	-3078
1044.948	-2045
1045.008	-2479
1045.068	-2045
1045.128	-2106
1045.188	-2978
1045.249	-2106
1045.309	-2561
1045.369	-2269
1045.429	-2266
1045.489	-2314
1045.549	-1857
1045.609	-2258
1045.669	-2444
1045.729	-3188
1045.789	-1383
1045.848	-2347
1045.908	-2008
1045.968	-1862
1046.028	-1178
1046.088	-1636
1046.147	-1415
1046.207	-2645
1046.267	-1400
1046.326	-2276
1046.386	-2103
1046.446	-1691
1046.505	-505
1046.565	-1435
1046.624	-909
1046.684	-1557
1046.743	-1462
1046.803	-621
1046.862	-54
1046.922	0
