'Start Wavelength	183.907
'End Wavelength	1046.922
'Gate Delay	5.000
'Gate Width (ms)	1.050
'Laser Output Level	0.000
'X Position	0.000
'Y Position	0.000
'Z Position	0.000
'Grid Point Number	1.000
'Shot Number	100.000
183.907	901.000
183.977	-157.000
184.047	-57
184.116	239
184.186	507
184.256	-21
184.325	488
184.395	-820
184.465	505
184.534	-83
184.604	607
184.674	-276
184.743	-51
184.813	183
184.883	50
184.952	112
185.022	-260
185.092	331
185.161	-133
185.231	266
185.301	358
185.370	-33
185.440	-404
185.509	188
185.579	-201
185.649	230
185.718	-34
185.788	100
185.857	-633
185.927	295
185.996	-278
186.066	55
186.136	-179
186.205	-365
186.275	972
186.344	-518
186.414	-248
186.483	-223
186.553	-95
186.622	191
186.692	25
186.761	-222
186.831	-59
186.900	-314
186.970	164
187.039	320
187.109	-460
187.178	236
187.248	394
187.317	39
187.387	339
187.456	-29
187.526	426
187.595	94
187.664	372
187.734	-109
187.803	-79
187.873	121
187.942	-379
188.012	53
188.081	-73
188.150	-431
188.220	-98
188.289	521
188.358	-14
188.428	309
188.497	-584
188.567	487
188.636	-374
188.705	-50
188.775	74
188.844	-481
188.913	497
188.983	-79
189.052	207
189.121	413
189.191	-491
189.260	-509
189.329	-113
189.399	-207
189.468	-184
189.537	-562
189.606	-106
189.676	-316
189.745	-441
189.814	626
189.883	291
189.953	351
190.022	333
190.091	69
190.161	281
190.230	406
190.299	97
190.368	537
190.437	429
190.507	-897
190.576	80
190.645	456
190.714	468
190.783	132
190.853	654
190.922	112
190.991	-213
191.060	273
191.129	-719
191.198	320
191.268	-297
191.337	138
191.406	101
191.475	-326
191.544	219
191.613	482
191.682	-142
191.752	61
191.821	-312
191.890	-18
191.959	-479
192.028	-122
192.097	643
192.166	-63
192.235	379
192.304	584
192.373	-348
192.442	952
192.511	-181
192.580	115
192.650	459
192.719	-177
192.788	762
192.857	581
192.926	111
192.995	107
193.064	147
193.133	587
193.202	760
193.271	216
193.340	522
193.409	376
193.478	136
193.547	1070
193.615	245
193.684	1044
193.753	427
193.822	539
193.891	-71
193.960	527
194.029	353
194.098	395
194.167	-177
194.236	616
194.305	-253
194.374	-106
194.443	340
194.512	609
194.580	354
194.649	308
194.718	165
194.787	137
194.856	303
194.925	-48
194.994	-324
195.062	276
195.131	-19
195.200	292
195.269	-35
195.338	-40
195.407	469
195.475	776
195.544	740
195.613	-352
195.682	1116
195.751	161
195.819	896
195.888	161
195.957	58
196.026	282
196.094	354
196.163	636
196.232	596
196.301	691
196.369	909
196.438	-95
196.507	-107
196.576	-363
196.644	915
196.713	460
196.782	657
196.850	-59
196.919	169
196.988	317
197.056	-412
197.125	361
197.194	618
197.262	795
197.331	530
197.400	335
197.468	-343
197.537	66
197.606	-525
197.674	398
197.743	148
197.812	-207
197.880	483
197.949	-241
198.017	678
198.086	142
198.155	490
198.223	-533
198.292	730
198.360	318
198.429	65
198.497	478
198.566	-111
198.635	1240
198.703	1307
198.772	287
198.840	-79
198.909	85
198.977	750
199.046	-92
199.114	864
199.183	901
199.251	-98
199.320	-330
199.388	-51
199.457	311
199.525	457
199.594	-279
199.662	409
199.731	415
199.799	1018
199.867	-110
199.936	-56
200.004	704
200.073	-59
200.141	229
200.210	-321
200.278	378
200.346	653
200.415	190
200.483	1005
200.552	199
200.620	279
200.688	449
200.757	-12
200.825	776
200.893	116
200.962	443
201.030	293
201.098	100
201.167	424
201.235	550
201.303	105
201.372	-109
201.440	667
201.508	244
201.577	-89
201.645	265
201.713	949
201.781	341
201.850	342
201.918	671
201.986	403
202.055	824
202.123	291
202.191	-330
202.259	293
202.327	573
202.396	-83
202.464	13
202.532	-181
202.600	1504
202.669	797
202.737	-257
202.805	663
202.873	-275
202.941	317
203.009	-223
203.078	346
203.146	84
203.214	487
203.282	54
203.350	1055
203.418	-486
203.487	432
203.555	18
203.623	-200
203.691	-129
203.759	189
203.827	336
203.895	51
203.963	144
204.031	-182
204.099	347
204.168	-470
204.236	764
204.304	789
204.372	104
204.440	672
204.508	466
204.576	291
204.644	327
204.712	-480
204.780	838
204.848	661
204.916	485
204.984	236
205.052	803
205.120	456
205.188	921
205.256	-447
205.324	-88
205.392	-284
205.460	497
205.528	364
205.596	460
205.664	888
205.732	-62
205.799	620
205.867	908
205.935	160
206.003	291
206.071	469
206.139	425
206.207	130
206.275	893
206.343	-254
206.411	647
206.478	292
206.546	976
206.614	147
206.682	41
206.750	306
206.818	712
206.885	969
206.953	-560
207.021	1218
207.089	1102
207.157	79
207.225	-550
207.292	600
207.360	346
207.428	588
207.496	-33
207.563	-113
207.631	-211
207.699	519
207.767	152
207.834	-21
207.902	891
207.970	-77
208.038	-38
208.105	404
208.173	261
208.241	706
208.309	597
208.376	414
208.444	602
208.512	-32
208.579	-113
208.647	193
208.715	1050
208.782	650
208.850	661
208.918	610
208.985	299
209.053	893
209.120	659
209.188	372
209.256	1181
209.323	-406
209.391	478
209.459	1581
209.526	1213
209.594	963
209.661	1184
209.729	308
209.796	313
209.864	825
209.932	94
209.999	1309
210.067	993
210.134	399
210.202	698
210.269	881
210.337	738
210.404	292
210.472	1107
210.539	1612
210.607	73
210.674	67
210.742	384
210.809	219
210.877	492
210.944	1108
211.012	-411
211.079	933
211.146	679
211.214	825
211.281	886
211.349	1385
211.416	514
211.484	1750
211.551	844
211.618	1309
211.686	533
211.753	374
211.821	1401
211.888	792
211.955	792
212.023	938
212.090	573
212.157	1578
212.225	1006
212.292	930
212.359	1287
212.427	3378
212.494	1146
212.561	237
212.629	1049
212.696	454
212.763	1967
212.831	474
212.898	1107
212.965	534
213.032	285
213.100	1393
213.167	787
213.234	1548
213.301	422
213.369	781
213.436	756
213.503	1167
213.570	1263
213.638	834
213.705	306
213.772	371
213.839	453
213.906	1338
213.973	708
214.041	532
214.108	1415
214.175	1210
214.242	770
214.309	745
214.376	423
214.444	459
214.511	1437
214.578	312
214.645	1261
214.712	811
214.779	1039
214.846	712
214.913	1128
214.980	1027
215.048	1332
215.115	1274
215.182	665
215.249	1014
215.316	843
215.383	1032
215.450	361
215.517	1083
215.584	1141
215.651	192
215.718	846
215.785	758
215.852	753
215.919	1313
215.986	1146
216.053	977
216.120	368
216.187	946
216.254	1093
216.321	791
216.388	957
216.455	1794
216.522	992
216.589	1412
216.656	1198
216.722	1952
216.789	725
216.856	1903
216.923	1667
216.990	572
217.057	535
217.124	1423
217.191	1923
217.258	1625
217.324	1883
217.391	2409
217.458	2394
217.525	1192
217.592	975
217.659	312
217.725	1692
217.792	1021
217.859	1629
217.926	471
217.993	1271
218.059	1287
218.126	548
218.193	864
218.260	667
218.327	925
218.393	943
218.460	317
218.527	464
218.594	420
218.660	823
218.727	1282
218.794	424
218.860	1566
218.927	495
218.994	741
219.061	12
219.127	322
219.194	770
219.261	470
219.327	477
219.394	897
219.461	34
219.527	1262
219.594	1063
219.661	599
219.727	-190
219.794	1025
219.860	349
219.927	526
219.994	1451
220.060	491
220.127	1554
220.193	754
220.260	572
220.326	2229
220.393	2243
220.460	2625
220.526	1992
220.593	1599
220.659	2831
220.726	1728
220.792	2407
220.859	3201
220.925	3966
220.992	4501
221.058	4144
221.125	3195
221.191	2050
221.258	1200
221.324	1862
221.391	1610
221.457	888
221.524	390
221.590	1260
221.657	2293
221.723	1071
221.789	1303
221.856	1661
221.922	1079
221.989	1759
222.055	640
222.121	482
222.188	1946
222.254	368
222.321	326
222.387	110
222.453	682
222.520	341
222.586	141
222.652	653
222.719	230
222.785	635
222.851	272
222.918	-46
222.984	476
223.050	78
223.116	-515
223.183	1349
223.249	423
223.315	46
223.382	686
223.448	110
223.514	-53
223.580	599
223.647	197
223.713	470
223.779	426
223.845	394
223.911	134
223.978	-985
224.044	677
224.110	365
224.176	905
224.242	680
224.309	-601
224.375	-94
224.441	451
224.507	296
224.573	-227
224.639	743
224.705	-457
224.772	543
224.838	333
224.904	361
224.970	351
225.036	525
225.102	-435
225.168	597
225.234	595
225.300	89
225.366	424
225.432	251
225.499	67
225.565	303
225.631	610
225.697	721
225.763	666
225.829	905
225.895	1179
225.961	523
226.027	1605
226.093	1332
226.159	1971
226.225	2896
226.291	5202
226.357	6102
226.423	3366
226.489	2910
226.554	1804
226.620	2384
226.686	1312
226.752	2744
226.818	4143
226.884	7122
226.950	6128
227.016	3723
227.082	2365
227.148	1370
227.214	1179
227.279	1069
227.345	1380
227.411	995
227.477	700
227.543	581
227.609	1416
227.674	2499
227.740	1394
227.806	609
227.872	412
227.938	1078
228.003	1826
228.069	884
228.135	328
228.201	718
228.267	197
228.332	506
228.398	162
228.464	400
228.530	565
228.595	146
228.661	-394
228.727	488
228.792	1230
228.858	738
228.924	-477
228.990	2181
229.055	-39
229.121	887
229.187	861
229.252	447
229.318	453
229.384	1324
229.449	871
229.515	-514
229.581	-424
229.646	1882
229.712	1019
229.777	1616
229.843	510
229.909	639
229.974	1443
230.040	1014
230.105	718
230.171	623
230.236	1450
230.302	1262
230.368	511
230.433	747
230.499	951
230.564	1810
230.630	1606
230.695	336
230.761	794
230.826	-639
230.892	1816
230.957	-107
231.023	474
231.088	965
231.154	637
231.219	1002
231.284	112
231.350	920
231.415	783
231.481	1168
231.546	1105
231.612	580
231.677	234
231.742	-142
231.808	1822
231.873	-75
231.939	-1625
232.004	1659
232.069	1309
232.135	853
232.200	372
232.265	445
232.331	276
232.396	981
232.461	537
232.527	1033
232.592	488
232.657	478
232.723	293
232.788	741
232.853	1069
232.918	302
232.984	43
233.049	-143
233.114	362
233.179	101
233.245	1066
233.310	963
233.375	161
233.440	1101
233.506	542
233.571	452
233.636	349
233.701	264
233.766	361
233.832	187
233.897	150
233.962	447
234.027	1979
234.092	1107
234.157	506
234.222	297
234.288	573
234.353	1223
234.418	2162
234.483	2088
234.548	1404
234.613	1346
234.678	1853
234.743	567
234.808	2690
234.873	575
234.938	1853
235.004	1777
235.069	964
235.134	326
235.199	649
235.264	872
235.329	202
235.394	1304
235.459	1232
235.524	649
235.589	839
235.654	1436
235.719	-226
235.784	629
235.849	631
235.913	307
235.978	925
236.043	1292
236.108	867
236.173	503
236.238	936
236.303	478
236.368	-14
236.433	2027
236.498	1487
236.563	1943
236.627	3614
236.692	9208
236.757	8626
236.822	5037
236.887	2634
236.952	2429
237.017	1393
237.081	3530
237.146	2951
237.211	6576
237.276	9725
237.341	10229
237.405	7212
237.470	3807
237.535	2592
237.600	2206
237.664	2934
237.729	1003
237.794	1513
237.859	4639
237.923	2531
237.988	1191
238.053	2173
238.118	1047
238.182	2819
238.247	2977
238.312	498
238.376	1481
238.441	-232
238.506	1410
238.570	188
238.635	1477
238.700	999
238.764	-74
238.829	1572
238.893	1300
238.958	1167
239.023	970
239.087	879
239.152	1129
239.216	659
239.281	931
239.346	1346
239.410	742
239.475	146
239.539	3578
239.604	-16
239.668	1734
239.733	-49
239.797	170
239.862	1379
239.926	1928
239.991	1985
240.055	651
240.120	879
240.184	760
240.249	-241
240.313	325
240.378	663
240.442	1762
240.507	2931
240.571	426
240.635	563
240.700	1654
240.764	889
240.829	611
240.893	-455
240.957	350
241.022	1812
241.086	2272
241.151	-109
241.215	-208
241.279	1719
241.344	1095
241.408	1763
241.472	-72
241.537	1929
241.601	1325
241.665	270
241.730	178
241.794	1343
241.858	723
241.922	868
241.987	849
242.051	1019
242.115	437
242.179	2005
242.244	260
242.308	935
242.372	1189
242.436	621
242.501	1199
242.565	-101
242.629	466
242.693	1411
242.757	534
242.822	281
242.886	1319
242.950	824
243.014	-208
243.078	1300
243.142	1195
243.206	-214
243.271	1261
243.335	194
243.399	1304
243.463	3562
243.527	9921
243.591	2790
243.655	1769
243.719	288
243.783	1890
243.847	2139
243.911	2862
243.975	2794
244.040	703
244.104	1892
244.168	1009
244.232	669
244.296	2728
244.360	1778
244.424	781
244.488	1291
244.552	1021
244.615	-578
244.679	967
244.743	573
244.807	-88
244.871	103
244.935	1483
244.999	-670
245.063	45
245.127	1025
245.191	460
245.255	998
245.319	1624
245.383	266
245.446	1812
245.510	94
245.574	995
245.638	1204
245.702	-480
245.766	1961
245.829	2076
245.893	171
245.957	289
246.021	1829
246.085	1032
246.149	1126
246.212	3406
246.276	3318
246.340	1666
246.404	1418
246.467	1838
246.531	616
246.595	1376
246.659	2359
246.722	917
246.786	1592
246.850	1454
246.913	1850
246.977	657
247.041	582
247.104	998
247.168	1910
247.232	3512
247.295	5033
247.359	3374
247.423	1341
247.486	2743
247.550	2221
247.614	625
247.677	1604
247.741	1176
247.804	986
247.868	1116
247.932	1972
247.995	5072
248.059	2103
248.122	433
248.186	2310
248.249	3355
248.313	7413
248.376	8791
248.440	6084
248.503	1420
248.567	2653
248.630	2362
248.694	4321
248.757	5404
248.821	8339
248.884	7072
248.948	5163
249.011	7654
249.075	9271
249.138	8491
249.202	4583
249.265	3098
249.328	2498
249.392	2146
249.455	2839
249.519	1517
249.582	1798
249.645	3970
249.709	2960
249.772	2827
249.835	2669
249.899	1805
249.962	1996
250.025	1278
250.089	4153
250.152	5169
250.215	3065
250.279	1679
250.342	1857
250.405	2681
250.468	1331
250.532	2740
250.595	3921
250.658	9067
250.721	15337
250.785	6261
250.848	4925
250.911	2359
250.974	2968
251.038	2959
251.101	5645
251.164	3125
251.227	4487
251.290	3205
251.354	4753
251.417	14099
251.480	13718
251.543	10337
251.606	23653
251.669	18986
251.732	8938
251.795	8054
251.859	8380
251.922	16269
251.985	9876
252.048	4738
252.111	3283
252.174	2974
252.237	6134
252.300	10836
252.363	12675
252.426	19474
252.489	8544
252.552	5019
252.615	2864
252.678	4528
252.741	8246
252.804	9900
252.867	20217
252.930	13514
252.993	7692
253.056	5214
253.119	3117
253.182	2055
253.245	3756
253.308	3487
253.371	2502
253.434	2608
253.497	2812
253.559	6552
253.622	3648
253.685	4713
253.748	3981
253.811	2536
253.874	2848
253.937	2186
254.000	2124
254.062	3372
254.125	6025
254.188	5998
254.251	4873
254.314	1670
254.376	3608
254.439	5047
254.502	4187
254.565	3719
254.628	7462
254.690	4026
254.753	1929
254.816	1864
254.878	2135
254.941	3748
255.004	3650
255.067	1303
255.129	2119
255.192	1688
255.255	-15
255.317	1035
255.380	1554
255.443	660
255.505	381
255.568	424
255.631	717
255.693	1081
255.756	490
255.819	1398
255.881	-71
255.944	427
256.006	181
256.069	987
256.132	1364
256.194	1152
256.257	1681
256.319	1593
256.382	1486
256.444	1788
256.507	1507
256.569	644
256.632	1402
256.694	1862
256.757	7900
256.819	17987
256.882	7826
256.944	3028
257.007	3025
257.069	1660
257.132	1676
257.194	2523
257.257	624
257.319	281
257.381	1557
257.444	5886
257.506	18171
257.569	22583
257.631	10004
257.693	4943
257.756	2556
257.818	1377
257.880	1576
257.943	1858
258.005	1042
258.067	923
258.130	902
258.192	429
258.254	1660
258.317	614
258.379	1368
258.441	2572
258.503	3356
258.566	2284
258.628	3704
258.690	-155
258.753	1734
258.815	3654
258.877	1572
258.939	1586
259.001	1508
259.064	1152
259.126	1515
259.188	661
259.250	951
259.312	1404
259.375	2437
259.437	1857
259.499	1450
259.561	1365
259.623	1567
259.685	428
259.747	889
259.809	2086
259.872	4100
259.934	7274
259.996	8872
260.058	2699
260.120	882
260.182	1000
260.244	783
260.306	-142
260.368	1374
260.430	522
260.492	2819
260.554	4867
260.616	1729
260.678	4139
260.740	4422
260.802	1052
260.864	1266
260.926	396
260.988	1820
261.050	464
261.112	3364
261.174	7405
261.236	2916
261.298	1163
261.359	1192
261.421	3531
261.483	434
261.545	2364
261.607	-698
261.669	1184
261.731	760
261.793	3969
261.854	1101
261.916	2269
261.978	1143
262.040	1460
262.102	923
262.164	321
262.225	745
262.287	528
262.349	2320
262.411	1860
262.472	1660
262.534	301
262.596	1814
262.658	1691
262.719	-675
262.781	469
262.843	1315
262.904	786
262.966	613
263.028	826
263.090	5892
263.151	15169
263.213	6115
263.275	3753
263.336	1234
263.398	1529
263.459	376
263.521	1192
263.583	2455
263.644	1155
263.706	625
263.767	49
263.829	856
263.891	-657
263.952	186
264.014	-25
264.075	1910
264.137	5729
264.198	2368
264.260	215
264.321	676
264.383	2659
264.444	8162
264.506	1888
264.567	1329
264.629	3771
264.690	5451
264.752	2284
264.813	1599
264.875	-52
264.936	1570
264.998	337
265.059	283
265.120	1142
265.182	2089
265.243	10862
265.305	11809
265.366	3181
265.427	701
265.489	1755
265.550	-421
265.611	959
265.673	179
265.734	725
265.795	265
265.857	246
265.918	230
265.979	3423
266.040	17093
266.102	15143
266.163	4730
266.224	2625
266.286	1536
266.347	136
266.408	273
266.469	834
266.530	130
266.592	169
266.653	2261
266.714	3346
266.775	389
266.836	560
266.898	428
266.959	1208
267.020	376
267.081	1336
267.142	236
267.203	947
267.264	283
267.326	492
267.387	537
267.448	-229
267.509	329
267.570	188
267.631	153
267.692	-624
267.753	-88
267.814	490
267.875	1776
267.936	3254
267.997	2199
268.058	1602
268.119	844
268.180	723
268.241	-158
268.302	-101
268.363	122
268.424	926
268.485	660
268.546	-313
268.607	457
268.668	120
268.729	-608
268.790	-342
268.851	183
268.912	2087
268.972	2890
269.033	1411
269.094	174
269.155	749
269.216	454
269.277	-12
269.338	239
269.398	928
269.459	206
269.520	1910
269.581	928
269.642	1827
269.702	1031
269.763	496
269.824	539
269.885	925
269.945	1857
270.006	1504
270.067	-587
270.128	215
270.188	-169
270.249	369
270.310	434
270.370	348
270.431	71
270.492	123
270.553	1047
270.613	3082
270.674	4228
270.734	1458
270.795	514
270.856	1217
270.916	-94
270.977	1025
271.038	1523
271.098	1398
271.159	1708
271.219	1184
271.280	841
271.340	591
271.401	110
271.462	1134
271.522	341
271.583	-26
271.643	281
271.704	127
271.764	958
271.825	2993
271.885	10583
271.946	12207
272.006	5779
272.066	6315
272.127	10016
272.187	2987
272.248	1550
272.308	1371
272.369	6116
272.429	2810
272.489	2419
272.550	3201
272.610	2975
272.671	1575
272.731	1130
272.791	2609
272.852	860
272.912	1432
272.972	525
273.033	24
273.093	1148
273.153	2070
273.214	668
273.274	571
273.334	5344
273.394	9282
273.455	3493
273.515	4226
273.575	7787
273.635	3065
273.696	3701
273.756	8344
273.816	3112
273.876	1531
273.936	2351
273.997	4900
274.057	1103
274.117	1620
274.177	2915
274.237	11904
274.297	8878
274.358	4504
274.418	6748
274.478	5535
274.538	2128
274.598	305
274.658	3798
274.718	4292
274.778	1930
274.838	844
274.898	1243
274.958	5448
275.018	8783
275.078	5609
275.138	1111
275.198	664
275.258	689
275.318	1066
275.378	2556
275.438	3535
275.498	2117
275.558	3029
275.618	7544
275.678	4835
275.738	4432
275.798	3409
275.858	1070
275.918	359
275.978	1905
276.038	508
276.098	227
276.157	2364
276.217	8259
276.277	2656
276.337	2919
276.397	234
276.457	1435
276.517	959
276.576	796
276.636	-17
276.696	1370
276.756	3680
276.815	2255
276.875	1121
276.935	623
276.995	610
277.055	529
277.114	647
277.174	1031
277.234	5689
277.293	1442
277.353	950
277.413	550
277.472	1305
277.532	517
277.592	1495
277.651	2481
277.711	6009
277.771	1489
277.830	7902
277.890	6526
277.950	3000
278.009	11529
278.069	3634
278.128	4286
278.188	5621
278.248	2053
278.307	5755
278.367	3042
278.426	1280
278.486	387
278.545	438
278.605	481
278.664	93
278.724	827
278.783	3297
278.843	8291
278.902	1949
278.962	1348
279.021	1896
279.081	1036
279.140	1623
279.199	1333
279.259	1815
279.318	879
279.378	1368
279.437	3586
279.496	12146
279.556	26137
279.615	17903
279.675	5605
279.734	3497
279.793	6164
279.853	10242
279.912	3659
279.971	1804
280.031	1707
280.090	4188
280.149	6786
280.208	4184
280.268	18701
280.327	16749
280.386	4071
280.445	3503
280.505	4423
280.564	1415
280.623	782
280.682	2639
280.742	5141
280.801	1153
280.860	941
280.919	937
280.978	669
281.037	-374
281.097	-313
281.156	433
281.215	58
281.274	464
281.333	5331
281.392	4079
281.451	510
281.510	-23
281.569	-321
281.628	349
281.688	657
281.747	1032
281.806	742
281.865	176
281.924	601
281.983	446
282.042	-812
282.101	95
282.160	-384
282.219	-304
282.278	1006
282.337	3573
282.396	2542
282.454	144
282.513	992
282.572	5951
282.631	3386
282.690	177
282.749	-106
282.808	172
282.867	932
282.926	623
282.985	-196
283.043	469
283.102	339
283.161	-337
283.220	1929
283.279	5468
283.338	1794
283.396	226
283.455	-144
283.514	478
283.573	2833
283.631	1703
283.690	388
283.749	276
283.808	1855
283.866	3643
283.925	522
283.984	109
284.043	995
284.101	1644
284.160	-333
284.219	413
284.277	740
284.336	853
284.395	8198
284.453	6233
284.512	1460
284.570	3113
284.629	2207
284.688	915
284.746	1338
284.805	2080
284.863	3315
284.922	3787
284.981	4072
285.039	6699
285.098	11760
285.156	25521
285.215	38476
285.273	40826
285.332	29710
285.390	16700
285.449	9294
285.507	7028
285.566	4844
285.624	3150
285.683	2513
285.741	1791
285.799	1259
285.858	1857
285.916	1802
285.975	1031
286.033	981
286.091	387
286.150	570
286.208	795
286.267	1062
286.325	1288
286.383	2569
286.442	2255
286.500	-209
286.558	-50
286.616	425
286.675	1410
286.733	280
286.791	694
286.850	606
286.908	782
286.966	3655
287.024	481
287.083	303
287.141	430
287.199	917
287.257	1686
287.315	1346
287.374	719
287.432	3679
287.490	2574
287.548	965
287.606	670
287.664	562
287.723	1505
287.781	1951
287.839	619
287.897	126
287.955	1623
288.013	2328
288.071	5225
288.129	22870
288.187	58362
288.245	27361
288.303	8851
288.361	4837
288.419	3065
288.477	2302
288.535	1957
288.593	792
288.651	678
288.709	-75
288.767	866
288.825	-224
288.883	-147
288.941	198
288.999	-410
289.057	1151
289.115	-277
289.173	463
289.231	-138
289.289	259
289.346	533
289.404	1143
289.462	1060
289.520	2204
289.578	515
289.636	371
289.694	-400
289.751	649
289.809	296
289.867	-483
289.925	574
289.983	868
290.040	816
290.098	-452
290.156	292
290.214	1262
290.271	-94
290.329	-442
290.387	209
290.444	-407
290.502	-161
290.560	76
290.617	326
290.675	-141
290.733	-27
290.790	261
290.848	-50
290.906	-99
290.963	232
291.021	-232
291.078	379
291.136	335
291.194	3199
291.251	9336
291.309	2619
291.366	608
291.424	-154
291.481	754
291.539	-196
291.596	1064
291.654	-131
291.711	-365
291.769	157
291.826	943
291.884	1457
291.941	74
291.999	445
292.056	403
292.114	827
292.171	194
292.228	243
292.286	608
292.343	1686
292.401	3153
292.458	563
292.515	321
292.573	744
292.630	901
292.687	664
292.745	-115
292.802	1214
292.859	4400
292.917	7635
292.974	4839
293.031	353
293.089	432
293.146	516
293.203	-195
293.260	142
293.318	372
293.375	2213
293.432	-309
293.489	-86
293.546	-143
293.604	1196
293.661	3798
293.718	12067
293.775	7461
293.832	1925
293.889	1446
293.947	1081
294.004	653
294.061	787
294.118	3712
294.175	8868
294.232	11571
294.289	4091
294.346	2367
294.403	1301
294.460	896
294.517	286
294.574	210
294.631	520
294.688	677
294.745	2784
294.802	14250
294.859	18469
294.916	5526
294.973	2046
295.030	2565
295.087	2001
295.144	767
295.201	1276
295.258	430
295.315	1581
295.372	4779
295.429	8973
295.486	4588
295.542	2351
295.599	7619
295.656	14538
295.713	8865
295.770	9693
295.827	3571
295.883	1922
295.940	1719
295.997	3128
296.054	2352
296.111	600
296.167	1276
296.224	742
296.281	324
296.338	829
296.394	-361
296.451	1191
296.508	4225
296.564	8840
296.621	6505
296.678	11309
296.734	18025
296.791	6762
296.848	4330
296.904	3022
296.961	8210
297.018	11400
297.074	8581
297.131	2859
297.187	1902
297.244	3889
297.301	10744
297.357	18399
297.414	7236
297.470	2096
297.527	1264
297.583	587
297.640	1639
297.696	313
297.753	976
297.809	-65
297.866	-166
297.922	786
297.979	501
298.035	267
298.092	1297
298.148	6029
298.204	6944
298.261	3574
298.317	6073
298.374	13997
298.430	8402
298.486	3470
298.543	2109
298.599	1529
298.656	2619
298.712	3926
298.768	10885
298.824	6845
298.881	2071
298.937	1061
298.993	1225
299.050	1798
299.106	1163
299.162	746
299.218	1866
299.275	33
299.331	1287
299.387	3166
299.443	11389
299.500	12021
299.556	4472
299.612	2659
299.668	1734
299.724	211
299.780	1468
299.837	385
299.893	3029
299.949	10023
300.005	11566
300.061	10840
300.117	16587
300.173	8538
300.229	3526
300.285	4717
300.341	6520
300.397	3845
300.453	1284
300.510	810
300.566	1333
300.622	562
300.678	3436
300.734	9002
300.790	9762
300.845	12012
300.901	7649
300.957	9913
301.013	8881
301.069	2917
301.125	2074
301.181	1347
301.237	2209
301.293	741
301.349	602
301.405	218
301.461	466
301.516	1370
301.572	1946
301.628	3501
301.684	2735
301.740	4920
301.796	8306
301.851	6874
301.907	8816
301.963	10117
302.019	13628
302.074	32188
302.130	35145
302.186	17689
302.242	7321
302.297	4056
302.353	4545
302.409	8216
302.464	6798
302.520	5295
302.576	13119
302.631	16253
302.687	10169
302.743	4364
302.798	2000
302.854	2225
302.910	1263
302.965	2508
303.021	5279
303.076	4835
303.132	6528
303.187	8445
303.243	3730
303.299	2798
303.354	1094
303.410	1309
303.465	1973
303.521	975
303.576	840
303.632	1311
303.687	4040
303.743	11644
303.798	10029
303.853	4669
303.909	2206
303.964	1785
304.020	3937
304.075	5552
304.130	5055
304.186	9844
304.241	11142
304.297	7922
304.352	4142
304.358	3953
304.407	2418
304.449	2427
304.463	2434
304.518	1759
304.539	1823
304.573	1908
304.629	2117
304.630	2132
304.684	2915
304.720	6597
304.739	8455
304.794	13402
304.811	11802
304.850	7842
304.902	3413
304.905	3135
304.960	2077
304.992	1823
305.015	1622
305.071	2809
305.083	2672
305.126	2108
305.173	1548
305.181	1477
305.236	1342
305.264	1648
305.292	1949
305.347	1868
305.354	1939
305.402	2353
305.445	2358
305.457	2352
305.512	2387
305.535	2531
305.567	2742
305.622	3054
305.626	3146
305.678	5674
305.716	11015
305.733	12823
305.788	14306
305.807	12777
305.843	10235
305.897	12550
305.898	12574
305.953	12854
305.988	9308
306.008	7286
306.063	4487
306.078	3884
306.118	2559
306.168	2308
306.173	2294
306.228	1589
306.259	1717
306.283	1834
306.338	1531
306.349	1520
306.393	1654
306.440	2093
306.448	2108
306.503	2000
306.530	2195
306.558	3197
306.613	6364
306.620	6826
306.668	9532
306.711	12806
306.723	13148
306.778	11569
306.801	9235
306.833	6424
306.888	3059
306.892	2934
306.943	2410
306.982	2282
306.997	2200
307.052	2128
307.072	2078
307.107	2306
307.162	2922
307.163	2927
307.217	3850
307.253	4413
307.272	4433
307.327	4564
307.343	4180
307.381	3433
307.434	3599
307.436	3748
307.491	7620
307.524	11232
307.546	12198
307.600	13028
307.614	11909
307.655	7603
307.704	4206
307.710	4128
307.765	4478
307.795	5509
307.819	6846
307.874	10340
307.885	10511
307.929	9114
307.975	8747
307.984	9236
308.038	13002
308.065	16158
308.093	25353
308.148	48177
308.156	52626
308.202	75825
308.246	91330
308.257	89057
308.312	58855
308.336	45574
308.366	35828
308.421	22145
308.426	20867
308.475	13795
308.517	9738
308.530	9107
308.585	7940
308.607	7340
308.639	6880
308.694	6336
308.697	6364
308.748	10014
308.787	13453
308.803	13419
308.857	11435
308.877	10483
308.912	9947
308.967	9646
308.967	9647
309.021	13974
309.058	17181
309.076	21526
309.130	37506
309.148	43603
309.185	65584
309.238	100421
309.239	100811
309.293	108581
309.328	107594
309.348	97129
309.402	59739
309.418	49623
309.457	36360
309.508	21524
309.511	21113
309.566	16468
309.598	14103
309.620	14331
309.674	15366
309.688	15714
309.729	14885
309.778	12943
309.783	12717
309.837	10295
309.868	9233
309.892	11417
309.946	17241
309.959	19038
310.001	25575
310.049	31613
310.055	30631
310.109	19183
310.139	12152
310.163	9696
310.218	6243
310.229	5661
310.272	4623
310.319	3657
310.326	3572
310.381	3023
310.409	2827
310.435	3047
310.489	3311
310.499	3402
310.543	3408
310.589	3128
310.598	3135
310.652	3511
310.679	3585
310.706	3222
310.760	2249
310.769	2152
310.814	2191
310.859	2009
310.868	2025
310.923	2249
310.948	2340
310.977	2549
311.031	2848
311.038	2894
311.085	2764
311.128	2538
311.139	2632
311.193	3210
311.218	3362
311.247	3146
311.301	2938
311.308	2889
311.356	3021
311.398	3142
311.410	3125
311.464	3006
311.488	2904
311.518	2683
311.572	2360
311.578	2313
311.626	3678
311.668	4969
311.680	4974
311.734	4759
311.758	4674
311.788	4616
311.842	4479
311.847	4453
311.896	5807
311.937	7009
311.950	6890
312.004	6243
312.027	5952
312.058	5165
312.112	3728
312.117	3578
312.165	3465
312.207	3358
312.297	6246
312.386	4355
312.476	4062
312.566	6952
312.656	3941
312.745	2998
312.835	4196
312.925	3927
313.015	4176
313.104	3714
313.194	3913
313.284	3017
313.374	4467
313.463	4551
313.553	3302
313.643	2912
313.732	3162
313.822	2665
313.912	2983
314.001	3905
314.091	3928
314.180	5632
314.270	4745
314.360	4985
314.449	4598
314.539	3375
314.628	3038
314.718	3719
314.808	4332
314.897	3031
314.987	3334
315.076	3681
315.166	4138
315.255	4154
315.345	4469
315.434	3701
315.524	3523
315.613	3906
315.703	5105
315.792	4940
315.881	3569
315.971	3300
316.060	6181
316.150	8504
316.239	8140
316.328	4748
316.418	3480
316.507	2553
316.597	3583
316.686	3832
316.775	4171
316.865	9076
316.954	3119
317.043	2996
317.133	3003
317.222	2945
317.311	2680
317.400	1510
317.490	4155
317.579	4206
317.668	1992
317.757	3938
317.847	4705
317.936	5654
318.025	8619
318.114	4586
318.203	4552
318.293	7208
318.382	14910
318.471	11278
318.560	15285
318.649	34037
318.738	8298
318.828	4124
318.917	5211
319.006	5404
319.095	11919
319.184	40219
319.273	22556
319.362	10936
319.451	3568
319.540	3591
319.629	7148
319.718	12824
319.807	6053
319.896	12117
319.985	46797
320.074	18522
320.163	4602
320.252	6144
320.341	8058
320.430	7151
320.519	6783
320.608	4700
320.697	4264
320.786	3588
320.875	4180
320.964	5471
321.053	8371
321.142	10449
321.230	13608
321.319	8898
321.408	22689
321.497	10510
321.586	8318
321.675	9379
321.764	11494
321.852	7504
321.941	12891
322.030	8710
322.119	8109
322.207	22024
322.296	15088
322.385	8500
322.474	8051
322.562	25365
322.651	14965
322.740	8890
322.829	13218
322.917	11550
323.006	7831
323.095	6862
323.183	5159
323.272	7174
323.361	12200
323.449	33879
323.538	12044
323.626	23661
323.715	15524
323.804	6383
323.892	19812
323.981	13683
324.069	5045
324.158	11372
324.246	11078
324.335	6080
324.424	8819
324.512	4214
324.601	5583
324.689	10196
324.778	19933
324.866	9784
324.954	4495
325.043	3475
325.131	5729
325.220	10210
325.308	11084
325.397	7597
325.485	5916
325.574	2966
325.662	3429
325.750	3554
325.839	3461
325.927	2880
326.015	3614
326.104	4011
326.192	5345
326.280	2266
326.369	3001
326.457	4383
326.545	7701
326.634	4416
326.722	2299
326.810	2556
326.898	2857
326.987	3043
327.075	6063
327.163	6824
327.251	4233
327.340	7589
327.428	14120
327.516	2787
327.604	2316
327.692	3309
327.781	2789
327.869	4184
327.957	3252
328.045	2899
328.133	2965
328.221	3309
328.309	3208
328.397	2999
328.485	3217
328.574	4354
328.662	14076
328.750	8456
328.838	3297
328.926	3541
329.014	3019
329.102	3782
329.190	10656
329.278	7747
329.366	2954
329.454	3043
329.542	3221
329.630	2812
329.718	3654
329.806	4099
329.893	4637
329.981	5777
330.069	9397
330.157	32476
330.245	83701
330.333	53397
330.421	11686
330.509	7577
330.597	18093
330.684	13138
330.772	5629
330.860	7264
330.948	10813
331.036	4872
331.123	2329
331.211	2855
331.299	4236
331.387	8292
331.475	16620
331.562	4869
331.650	2803
331.738	3719
331.825	3545
331.913	1582
332.001	2842
332.089	3142
332.176	5694
332.264	10855
332.352	9828
332.439	4167
332.527	3566
332.614	1829
332.702	3658
332.790	2322
332.877	5201
332.965	10116
333.052	3731
333.140	2893
333.228	5996
333.315	2594
333.403	3515
333.490	6026
333.578	5311
333.665	6294
333.753	4526
333.840	2742
333.928	2755
334.015	6936
334.103	11332
334.190	44108
334.278	12708
334.365	4568
334.452	3425
334.540	2196
334.627	2727
334.715	4783
334.802	6684
334.889	32837
334.977	37541
335.064	5255
335.151	2830
335.239	3668
335.326	5260
335.413	21559
335.501	34213
335.588	4752
335.675	2768
335.762	4016
335.850	9087
335.937	4447
336.024	8826
336.111	43220
336.199	18750
336.286	4323
336.373	2269
336.460	2045
336.547	2667
336.635	3539
336.722	3166
336.809	2743
336.896	3774
336.983	14178
337.070	37111
337.157	48816
337.245	26591
337.332	19544
337.419	4113
337.506	2773
337.593	4285
337.680	11482
337.767	42245
337.854	11400
337.941	12020
338.028	10824
338.115	3931
338.202	6018
338.289	7825
338.376	25522
338.463	10228
338.550	21589
338.637	26715
338.724	5957
338.811	8111
338.898	2889
338.984	2680
339.071	3985
339.158	3695
339.245	8926
339.332	6857
339.419	6621
339.506	6693
339.593	1046
339.679	2072
339.766	1846
339.853	3672
339.940	6374
340.027	3017
340.113	2361
340.200	4201
340.287	2544
340.374	4000
340.460	6729
340.547	2711
340.634	4412
340.720	15062
340.807	10761
340.894	3055
340.980	2659
341.067	1984
341.154	3373
341.240	3306
341.327	7851
341.414	3349
341.500	3490
341.587	2889
341.674	2242
341.760	6300
341.847	5973
341.933	2553
342.020	1498
342.106	2103
342.193	3206
342.279	4597
342.366	3693
342.452	6205
342.539	3265
342.625	7083
342.712	18289
342.798	7969
342.885	3428
342.971	1359
343.058	883
343.144	1419
343.230	1684
343.317	2596
343.403	2097
343.490	1604
343.576	1574
343.662	1236
343.749	2023
343.835	3195
343.921	5765
344.008	23932
344.094	60432
344.180	15973
344.267	6037
344.353	16737
344.439	19833
344.525	10370
344.612	11125
344.698	12638
344.784	7040
344.870	3328
344.957	2179
345.043	3419
345.129	2650
345.215	6207
345.301	4089
345.387	2436
345.474	1541
345.560	1633
345.646	2334
345.732	2357
345.818	2754
345.904	2983
345.990	2408
346.076	3098
346.162	4644
346.249	2883
346.335	1741
346.421	2187
346.507	6031
346.593	24265
346.679	6557
346.765	3403
346.851	2082
346.937	1809
347.023	2401
347.108	2572
347.194	2945
347.280	1950
347.366	2987
347.452	6246
347.538	27391
347.624	22434
347.710	20024
347.796	3489
347.882	2696
347.967	1964
348.053	4190
348.139	2233
348.225	1686
348.311	2625
348.397	2223
348.482	2970
348.568	3695
348.654	1206
348.740	1000
348.825	1092
348.911	3871
348.997	11692
349.083	27063
349.168	4805
349.254	2156
349.340	3157
349.425	1814
349.511	3447
349.597	3677
349.682	5670
349.768	19911
349.854	9602
349.939	3192
350.025	2143
350.110	3971
350.196	2859
350.282	1279
350.367	1536
350.453	2411
350.538	3935
350.624	3093
350.709	3581
350.795	1248
350.880	2382
350.966	2402
351.051	3564
351.137	2623
351.222	2542
351.308	5720
351.393	19707
351.479	6207
351.564	2464
351.649	2717
351.735	1677
351.820	1443
351.906	1594
351.991	3054
352.076	9421
352.162	18615
352.247	3941
352.332	3061
352.418	5284
352.503	6266
352.588	25494
352.673	23452
352.759	4767
352.844	1696
352.929	3028
353.014	3612
353.100	2388
353.185	4931
353.270	6120
353.355	7168
353.441	2548
353.526	2749
353.611	5118
353.696	7098
353.781	4447
353.866	1718
353.952	2750
354.037	5610
354.122	12687
354.207	11035
354.292	5631
354.377	2484
354.462	2699
354.547	3311
354.632	2997
354.717	4869
354.802	5368
354.887	2698
354.972	2368
355.057	2544
355.142	1456
355.227	2827
355.312	3723
355.397	7306
355.482	19696
355.567	9389
355.652	7188
355.737	7283
355.822	20230
355.907	19716
355.991	4331
356.076	1934
356.161	2855
356.246	1802
356.331	3030
356.416	3855
356.501	28415
356.585	34703
356.670	6037
356.755	4938
356.840	4821
356.924	20037
357.009	74830
357.094	33166
357.179	7967
357.263	4671
357.348	5513
357.433	6061
357.517	5238
357.602	5304
357.687	3553
357.771	5891
357.856	18486
357.941	11211
358.025	16191
358.110	71476
358.195	38988
358.279	6871
358.364	4731
358.448	14022
358.533	43488
358.617	32466
358.702	30934
358.787	12917
358.871	7004
358.956	6358
359.040	2904
359.125	2186
359.209	2527
359.294	8753
359.378	15903
359.462	6620
359.547	3372
359.631	2334
359.716	2328
359.800	2149
359.885	5336
359.969	2453
360.053	3013
360.138	1705
360.222	3633
360.306	6645
360.391	5109
360.475	9500
360.559	22410
360.644	16002
360.728	12316
360.812	15249
360.896	47019
360.981	22765
361.065	15127
361.149	4956
361.233	3655
361.318	2420
361.402	3147
361.486	3744
361.570	2058
361.654	3440
361.739	6672
361.823	27204
361.907	49330
361.991	9674
362.075	5472
362.159	11287
362.243	8768
362.327	5728
362.411	6061
362.495	3822
362.580	2676
362.664	2378
362.748	1907
362.832	2502
362.916	2000
363.000	8122
363.084	25762
363.168	52932
363.252	14207
363.336	5142
363.420	7198
363.503	30590
363.587	42680
363.671	7973
363.755	5022
363.839	7449
363.923	2948
364.007	6652
364.091	7732
364.175	8861
364.258	50528
364.342	27637
364.426	12852
364.510	6532
364.594	7925
364.677	9537
364.761	38420
364.845	31560
364.929	11412
365.013	9739
365.096	7449
365.180	9543
365.264	11372
365.347	52036
365.431	26264
365.515	7078
365.598	3278
365.682	3992
365.766	5947
365.849	10105
365.933	3951
366.017	5830
366.100	5316
366.184	1528
366.267	2999
366.351	2595
366.435	1926
366.518	1680
366.602	1848
366.685	1942
366.769	2453
366.852	5410
366.936	10637
367.019	5222
367.103	4475
367.186	11802
367.270	3225
367.353	1621
367.436	2238
367.520	1827
367.603	2581
367.687	3150
367.770	7149
367.853	4896
367.937	12043
368.020	24140
368.104	5725
368.187	5718
368.270	8958
368.353	8728
368.437	7711
368.520	17259
368.603	12423
368.687	14595
368.770	32339
368.853	8756
368.936	8613
369.020	10990
369.103	3601
369.186	2519
369.269	2716
369.352	4727
369.436	7270
369.519	5561
369.602	1902
369.685	3620
369.768	2405
369.851	3058
369.934	1579
370.018	2340
370.101	5506
370.184	6712
370.267	4473
370.350	6170
370.433	10327
370.516	21289
370.599	25968
370.682	6654
370.765	18476
370.848	21178
370.931	35567
371.014	17341
371.097	3568
371.180	3191
371.263	2389
371.346	558
371.429	2449
371.511	2217
371.594	4048
371.677	8735
371.760	11313
371.843	6418
371.926	26120
372.009	66374
372.091	26155
372.174	12347
372.257	32109
372.340	14363
372.423	11860
372.505	17030
372.588	6819
372.671	10571
372.754	34359
372.836	19954
372.919	15212
373.002	37329
373.085	10666
373.167	6253
373.250	14060
373.332	32717
373.415	39498
373.498	83629
373.580	35608
373.663	34447
373.746	54721
373.828	15108
373.911	7587
373.993	7052
374.076	31743
374.159	32943
374.241	10171
374.324	30864
374.406	22562
374.489	21052
374.571	68463
374.654	32074
374.736	13007
374.819	39883
374.901	58090
374.983	61994
375.066	13345
375.148	5628
375.231	22289
375.313	51912
375.395	21237
375.478	4422
375.560	2862
375.643	4133
375.725	10312
375.807	48242
375.890	42637
375.972	16779
376.054	9485
376.136	12978
376.219	6303
376.301	13090
376.383	44243
376.465	18567
376.548	11207
376.630	12651
376.712	38678
376.794	20070
376.877	3792
376.959	2075
377.041	3049
377.123	7560
377.205	11559
377.287	2798
377.369	3004
377.452	2005
377.534	1992
377.616	2135
377.698	2116
377.780	1296
377.862	2373
377.944	2330
378.026	816
378.108	1158
378.190	1967
378.272	2063
378.354	969
378.436	1235
378.518	3131
378.600	15574
378.682	12599
378.764	21630
378.846	20161
378.928	5013
379.010	8222
379.091	5158
379.173	2302
379.255	1865
379.337	3206
379.419	8778
379.501	31555
379.583	13589
379.664	3596
379.746	5715
379.828	22534
379.910	30454
379.991	29209
380.073	4890
380.155	2725
380.237	2691
380.318	1920
380.400	2424
380.482	3848
380.564	7252
380.645	7073
380.727	7655
380.809	4678
380.890	3064
380.972	2825
381.053	1760
381.135	3204
381.217	6881
381.298	24052
381.380	12924
381.461	8336
381.543	34781
381.624	49599
381.706	10097
381.787	5036
381.869	5577
381.951	13941
382.032	58365
382.113	45404
382.195	9988
382.276	6711
382.358	10869
382.439	33533
382.521	36344
382.602	58638
382.684	27110
382.765	47276
382.846	46637
382.928	46252
383.009	25297
383.090	17376
383.172	60951
383.253	102291
383.334	40240
383.416	51421
383.497	29216
383.578	10599
383.659	16605
383.741	53258
383.822	146288
383.903	82113
383.984	31340
384.066	67852
384.147	45948
384.228	9937
384.309	6860
384.390	5099
384.471	3216
384.553	4388
384.634	6158
384.715	6988
384.796	3008
384.877	4869
384.958	19194
385.039	27232
385.120	10223
385.201	4782
385.282	5536
385.363	6011
385.444	4607
385.525	7174
385.606	27180
385.687	25690
385.768	7067
385.849	7940
385.930	29438
386.011	58115
386.092	17735
386.173	4687
386.254	3570
386.335	4640
386.416	3654
386.496	13344
386.577	25285
386.658	10727
386.739	5597
386.820	6698
386.901	4379
386.981	4520
387.062	2621
387.143	4630
387.224	20944
387.304	23800
387.385	7960
387.466	4321
387.547	7254
387.627	3290
387.708	6825
387.789	34650
387.869	47184
387.950	13073
388.031	2906
388.111	2351
388.192	9810
388.273	15002
388.353	7796
388.434	3879
388.514	6780
388.595	30065
388.676	44991
388.756	23699
388.837	22048
388.917	14955
388.998	2375
389.078	3945
389.159	3311
389.239	1957
389.320	4925
389.400	2368
389.480	8239
389.561	22706
389.641	13199
389.722	4322
389.802	7141
389.883	8599
389.963	25698
390.043	18834
390.124	6762
390.204	7863
390.284	26275
390.365	16999
390.445	20691
390.525	46115
390.605	39676
390.686	16144
390.766	5685
390.846	3407
390.927	1631
391.007	2092
391.087	3771
391.167	3807
391.247	1593
391.328	3805
391.408	8628
391.488	6731
391.568	1348
391.648	3268
391.728	5019
391.808	4919
391.888	4214
391.969	11303
392.049	22424
392.129	10359
392.209	10263
392.289	26872
392.369	15588
392.449	15661
392.529	8959
392.609	5201
392.689	6574
392.769	22725
392.849	21059
392.929	13428
393.009	35908
393.089	23642
393.169	7700
393.248	14916
393.328	98472
393.408	125428
393.488	25073
393.568	7883
393.648	4923
393.728	3838
393.807	2422
393.887	4591
393.967	4677
394.047	6592
394.127	8954
394.206	18010
394.286	50642
394.366	182309
394.446	220578
394.525	77950
394.605	23129
394.685	14688
394.764	24810
394.844	40039
394.924	27779
395.003	8560
395.083	5377
395.163	5380
395.242	4554
395.322	5247
395.402	3796
395.481	6345
395.561	13752
395.640	42528
395.720	28302
395.799	43486
395.879	43430
395.958	29551
396.038	82071
396.117	230847
396.197	272667
396.276	130202
396.356	47125
396.435	29382
396.515	17341
396.594	11414
396.673	11834
396.753	24398
396.832	102815
396.912	94737
396.991	27751
397.070	7408
397.150	3671
397.229	4271
397.308	2882
397.388	4280
397.467	3280
397.546	2662
397.625	1229
397.705	4075
397.784	3706
397.863	2493
397.942	1375
398.022	1693
398.101	9711
398.180	38977
398.259	22570
398.338	5229
398.417	2533
398.497	1719
398.576	2492
398.655	1165
398.734	1898
398.813	1951
398.892	8821
398.971	40876
399.050	22333
399.129	2273
399.208	1590
399.287	2120
399.366	794
399.445	1663
399.524	2025
399.603	738
399.682	3363
399.761	8667
399.840	40189
399.919	35206
399.998	4536
400.077	1132
400.156	165
400.235	3133
400.313	1522
400.392	1288
400.471	11216
400.550	21409
400.629	5357
400.708	2518
400.786	2585
400.865	9744
400.944	11773
401.023	6105
401.102	1044
401.180	1057
401.259	1208
401.338	1510
401.416	2527
401.495	1274
401.574	2482
401.652	1589
401.731	2952
401.810	2733
401.888	1160
401.967	537
402.046	2441
402.124	2285
402.203	2804
402.281	2349
402.360	3180
402.438	13240
402.517	8913
402.596	2487
402.674	2356
402.753	2448
402.831	1343
402.910	1848
402.988	7158
403.066	30844
403.145	19867
403.223	9270
403.302	26969
403.380	21144
403.459	21633
403.537	9563
403.615	3172
403.694	399
403.772	1845
403.850	1653
403.929	1292
404.007	1274
404.085	4058
404.164	5046
404.242	2939
404.320	13501
404.398	48913
404.477	51117
404.555	56675
404.633	55278
404.711	40575
404.789	29657
404.868	6614
404.946	2578
405.024	1770
405.102	1105
405.180	672
405.258	226
405.336	1349
405.415	754
405.493	4335
405.571	4617
405.649	782
405.727	125
405.805	3102
405.883	2872
405.961	2332
406.039	3327
406.117	1364
406.195	2708
406.273	7725
406.351	43865
406.429	30233
406.507	5138
406.585	2025
406.663	1099
406.740	2700
406.818	2039
406.896	1145
406.974	2218
407.052	1763
407.130	23134
407.208	38892
407.285	9034
407.363	1181
407.441	1200
407.519	1590
407.596	1468
407.674	3636
407.752	9779
407.830	13753
407.907	8108
407.985	1467
408.063	1971
408.141	406
408.218	3349
408.296	2753
408.373	1188
408.451	1833
408.529	430
408.606	671
408.684	464
408.762	813
408.839	91
408.917	603
408.994	-253
409.072	432
409.149	-172
409.227	1471
409.304	1589
409.382	287
409.459	-397
409.537	1092
409.614	750
409.692	-181
409.769	-432
409.846	393
409.924	2048
410.001	313
410.079	968
410.156	919
410.233	1375
410.311	940
410.388	519
410.465	1086
410.543	1174
410.620	1226
410.697	832
410.775	718
410.852	-747
410.929	1985
411.006	2557
411.083	1132
411.161	2890
411.238	5434
411.315	2049
411.392	989
411.469	1746
411.547	2206
411.624	913
411.701	816
411.778	751
411.855	2842
411.932	1238
412.009	679
412.086	178
412.163	724
412.240	1818
412.317	1732
412.394	2548
412.471	1051
412.548	-175
412.625	120
412.702	1061
412.779	2908
412.856	2385
412.933	176
413.010	381
413.087	2416
413.164	10250
413.241	17926
413.318	2920
413.395	2459
413.471	2611
413.548	1196
413.625	668
413.702	499
413.779	2218
413.855	83
413.932	419
414.009	-501
414.086	1062
414.162	536
414.239	1953
414.316	8899
414.393	25304
414.469	9000
414.546	721
414.623	866
414.699	691
414.776	1220
414.853	1008
414.929	934
415.006	302
415.082	1468
415.159	1101
415.236	823
415.312	1513
415.389	2507
415.465	2736
415.542	1598
415.618	-272
415.695	1772
415.771	1081
415.848	546
415.924	1076
416.000	1236
416.077	1366
416.153	-216
416.230	-708
416.306	-91
416.383	-565
416.459	420
416.535	-584
416.612	-88
416.688	-152
416.764	-257
416.841	233
416.917	-910
416.993	467
417.069	815
417.146	1627
417.222	4032
417.298	1333
417.374	153
417.451	389
417.527	761
417.603	1428
417.679	924
417.755	954
417.831	419
417.908	128
417.984	192
418.060	-567
418.136	2307
418.212	3103
418.288	1088
418.364	1430
418.440	-106
418.516	2443
418.592	2827
418.668	5316
418.744	6767
418.820	5419
418.896	194
418.972	-650
419.048	3
419.124	3057
419.200	997
419.276	367
419.352	-636
419.428	123
419.504	-122
419.579	792
419.655	611
419.731	362
419.807	3766
419.883	7789
419.959	5190
420.034	1313
420.110	2980
420.186	15329
420.262	14038
420.337	2346
420.413	767
420.489	564
420.565	933
420.640	69
420.716	941
420.792	-1507
420.867	586
420.943	-526
421.019	2130
421.094	604
421.170	428
421.245	-278
421.321	1103
421.397	-400
421.472	2045
421.548	4122
421.623	4807
421.699	1485
421.774	1322
421.850	-157
421.925	2058
422.001	1376
422.076	1101
422.152	1360
422.227	1740
422.302	2230
422.378	2976
422.453	4846
422.529	13658
422.604	54193
422.679	130760
422.755	79716
422.830	20013
422.905	6078
422.981	2076
423.056	2412
423.131	1042
423.207	1351
423.282	518
423.357	3668
423.432	2401
423.508	2618
423.583	6640
423.658	5686
423.733	1291
423.808	1822
423.883	2669
423.959	999
424.034	123
424.109	682
424.184	-453
424.259	519
424.334	575
424.409	-620
424.484	-325
424.559	68
424.634	-69
424.709	853
424.784	1337
424.859	631
424.934	1195
425.009	9342
425.084	18491
425.159	6478
425.234	1369
425.309	-351
425.384	3838
425.459	8954
425.534	2428
425.609	342
425.683	2
425.758	289
425.833	-9
425.908	1542
425.983	4458
426.058	18519
426.132	8171
426.207	1911
426.282	2600
426.357	2316
426.431	422
426.506	336
426.581	1007
426.655	1117
426.730	1053
426.805	23
426.879	936
426.954	850
427.029	1303
427.103	12705
427.178	38430
427.253	19346
427.327	2399
427.402	2393
427.476	11336
427.551	5522
427.625	1140
427.700	1960
427.774	166
427.849	1045
427.923	-64
427.998	-797
428.072	924
428.147	3228
428.221	6560
428.296	16897
428.370	7962
428.444	954
428.519	3544
428.593	9301
428.667	8055
428.742	8977
428.816	6607
428.890	15029
428.965	23371
429.039	10805
429.113	11223
429.188	3111
429.262	842
429.336	1700
429.410	7883
429.485	5919
429.559	7617
429.633	6223
429.707	826
429.781	2956
429.855	19250
429.930	28019
430.004	21195
430.078	40710
430.152	32424
430.226	23493
430.300	24684
430.374	3435
430.448	1875
430.522	10140
430.596	37941
430.670	21974
430.744	24073
430.818	45572
430.892	10648
430.966	1081
431.040	407
431.114	21
431.188	-1096
431.262	160
431.336	348
431.410	3889
431.484	10132
431.557	7401
431.631	502
431.705	-254
431.779	1012
431.853	10618
431.927	9299
432.000	1157
432.074	111
432.148	1096
432.222	1487
432.295	-211
432.369	142
432.443	1711
432.516	12649
432.590	40090
432.664	15820
432.737	2027
432.811	-392
432.885	385
432.958	436
433.032	247
433.106	-517
433.179	-313
433.253	194
433.326	-94
433.400	-232
433.473	820
433.547	-1084
433.620	253
433.694	1084
433.767	2073
433.841	-201
433.914	748
433.988	-543
434.061	24
434.134	313
434.208	-602
434.281	-584
434.355	-414
434.428	397
434.501	297
434.575	-874
434.648	-763
434.721	-405
434.795	-559
434.868	-656
434.941	-469
435.014	-72
435.088	-830
435.161	99
435.234	1943
435.307	1449
435.381	669
435.454	19
435.527	146
435.600	265
435.673	29
435.746	-388
435.819	-503
435.892	51
435.966	-89
436.039	-164
436.112	877
436.185	-625
436.258	-218
436.331	-843
436.404	-573
436.477	-484
436.550	-410
436.623	454
436.696	-384
436.769	-215
436.842	-45
436.915	-308
436.987	1428
437.060	43
437.133	-201
437.206	-655
437.279	588
437.352	-385
437.425	296
437.498	-469
437.570	2933
437.643	2996
437.716	26
437.789	-145
437.861	1306
437.934	5855
438.007	2462
438.080	23
438.152	-11
438.225	1968
438.298	15242
438.370	52200
438.443	23357
438.516	5567
438.588	709
438.661	-145
438.734	177
438.806	178
438.879	561
438.951	377
439.024	2681
439.096	372
439.169	-378
439.241	143
439.314	-469
439.386	219
439.459	1698
439.531	2528
439.604	347
439.676	274
439.749	-714
439.821	479
439.893	137
439.966	-66
440.038	1189
440.110	848
440.183	551
440.255	-483
440.327	904
440.400	6738
440.472	34192
440.544	24235
440.617	2897
440.689	2282
440.761	2641
440.833	3763
440.905	2407
440.978	-360
441.050	-245
441.122	-288
441.194	-584
441.266	181
441.338	-604
441.411	789
441.483	10387
441.555	19555
441.627	3976
441.699	1868
441.771	1889
441.843	161
441.915	-100
441.987	-406
442.059	-605
442.131	456
442.203	1581
442.275	1653
442.347	1574
442.419	937
442.491	3687
442.563	9984
442.635	5958
442.706	9186
442.778	8674
442.850	357
442.922	-282
442.994	1074
443.066	1152
443.137	1730
443.209	405
443.281	70
443.353	1800
443.425	5960
443.496	18564
443.568	17224
443.640	6114
443.711	1679
443.783	351
443.855	101
443.926	-516
443.998	107
444.070	1724
444.141	595
444.213	2045
444.285	2588
444.356	168
444.428	1000
444.499	262
444.571	-141
444.642	649
444.714	539
444.785	1883
444.857	1829
444.928	7636
445.000	4020
445.071	4368
445.143	5321
445.214	2168
445.285	2534
445.357	11075
445.428	17720
445.500	37589
445.571	25633
445.642	10085
445.714	6454
445.785	12584
445.856	3435
445.928	2277
445.999	1116
446.070	1104
446.141	1532
446.213	3877
446.284	776
446.355	1384
446.426	685
446.497	3
446.569	2532
446.640	2949
446.711	1866
446.782	-124
446.853	613
446.924	1026
446.995	-163
447.066	1311
447.138	2627
447.209	2033
447.280	-922
447.351	289
447.422	-641
447.493	619
447.564	1303
447.635	1067
447.706	214
447.777	549
447.847	497
447.918	-292
447.989	785
448.060	1477
448.131	5741
448.202	4230
448.273	3308
448.344	1432
448.414	413
448.485	508
448.556	-68
448.627	422
448.698	218
448.768	-96
448.839	382
448.910	2656
448.981	2801
449.051	783
449.122	265
449.193	-826
449.263	330
449.334	626
449.405	337
449.475	3152
449.546	2197
449.616	3066
449.687	2528
449.758	1077
449.828	316
449.899	241
449.969	1196
450.040	92
450.110	-49
450.181	1303
450.251	161
450.322	462
450.392	475
450.463	946
450.533	-480
450.604	651
450.674	-410
450.744	421
450.815	98
450.885	337
450.955	532
451.026	262
451.096	-464
451.166	1131
451.237	3257
451.307	9776
451.377	3815
451.447	651
451.518	-422
451.588	90
451.658	775
451.728	2899
451.799	9422
451.869	12233
451.939	2459
452.009	359
452.079	473
452.149	992
452.219	2377
452.289	11275
452.360	8756
452.430	1129
452.500	812
452.570	1784
452.640	1982
452.710	5539
452.780	10868
452.850	6682
452.920	5997
452.990	1592
453.060	1155
453.129	1963
453.199	2413
453.269	9713
453.339	24628
453.409	39598
453.479	36719
453.549	57803
453.619	64769
453.688	24163
453.758	3767
453.828	1930
453.898	1857
453.968	1092
454.037	1274
454.087	1370
454.107	1403
454.168	985
454.177	911
454.247	1521
454.249	1492
454.316	455
454.330	555
454.386	872
454.411	2449
454.456	4871
454.492	7524
454.525	9864
454.574	4587
454.595	2304
454.655	1599
454.665	1503
454.734	909
454.736	1001
454.804	3459
454.817	4985
454.873	10540
454.898	11180
454.943	12271
454.979	7460
455.013	3192
455.060	2485
455.082	2374
455.141	2799
455.152	2846
455.221	8975
455.222	9157
455.291	18965
455.303	19488
455.360	20060
455.384	30083
455.430	45413
455.465	34230
455.499	24295
455.546	15796
455.569	11820
455.627	7872
455.638	7237
455.707	2491
455.708	2498
455.777	1796
455.789	1786
455.846	1728
455.869	1590
455.916	1261
455.950	1585
455.985	1868
456.031	1278
456.054	984
456.112	1156
456.124	1187
456.193	1079
456.193	1065
456.262	1489
456.274	1603
456.332	2155
456.355	2052
456.401	1492
456.436	1461
456.470	1562
456.516	1091
456.540	890
456.597	1034
456.609	1027
456.678	1170
456.678	1160
456.747	508
456.759	532
456.817	750
456.840	624
456.886	235
456.920	389
456.955	691
457.001	1135
457.024	1285
457.082	1589
457.093	1634
457.162	1951
457.163	1963
457.232	1764
457.243	1774
457.301	1750
457.324	1430
457.370	1007
457.405	1145
457.439	1086
457.485	849
457.508	817
457.566	1353
457.577	1436
457.646	1801
457.647	1814
457.715	2396
457.727	2419
457.784	2303
457.808	2516
457.853	3081
457.889	3420
457.922	3375
457.969	3181
457.991	3200
458.050	3355
458.060	3373
458.129	3325
458.130	3361
458.198	3859
458.211	3646
458.267	2502
458.292	2177
458.336	1819
458.372	1791
458.405	2170
458.453	2236
458.474	2282
458.533	3768
458.543	4005
458.611	5516
458.614	5582
458.680	3927
458.694	3251
458.749	2223
458.775	2083
458.818	1829
458.855	1908
458.887	1979
458.936	1672
458.955	1529
459.016	1610
459.024	1684
459.093	2260
459.097	2304
459.162	2735
459.177	2823
459.230	3230
459.257	3505
459.299	3299
459.338	3373
459.368	3642
459.418	3372
459.437	3144
459.499	2838
459.505	2822
459.574	2466
459.579	2455
459.643	2486
459.659	2496
459.711	2508
459.740	2493
459.780	2643
459.820	2946
459.849	2981
459.900	2807
459.917	2733
459.981	3094
459.986	3131
460.054	3008
460.061	3034
460.123	3254
460.141	3465
460.191	4974
460.222	5464
460.260	5429
460.302	5920
460.328	5395
460.382	4090
460.397	4022
460.462	2768
460.465	2779
460.534	4939
460.543	5080
460.602	11105
460.623	13681
460.671	21595
460.703	29081
460.739	27559
460.783	23511
460.808	20607
460.864	5836
460.876	4517
460.944	3283
460.945	3262
461.013	3497
461.024	3502
461.081	3796
461.104	3986
461.150	3574
461.184	3174
461.218	3205
461.264	3038
461.286	2917
461.345	2997
461.355	3024
461.423	3261
461.425	3257
461.491	2780
461.505	2777
461.559	5254
461.585	6352
461.628	10416
461.665	14720
461.696	15750
461.745	18475
461.764	16606
461.825	6469
461.832	6311
461.901	4610
461.905	4622
461.969	3553
461.985	3370
462.037	3964
462.065	4128
462.105	3877
462.145	3842
462.173	5342
462.225	7927
462.241	8607
462.305	12471
462.310	12194
462.378	7577
462.385	6802
462.446	4637
462.465	4210
462.514	4074
462.545	4231
462.582	3916
462.625	3769
462.650	3873
462.705	3531
462.718	3505
462.785	3725
462.786	3745
462.854	4774
462.865	4985
462.922	6357
462.945	7025
462.990	5869
463.025	4353
463.058	3748
463.104	3178
463.126	3232
463.184	3170
463.194	3175
463.262	3738
463.264	3757
463.330	4121
463.344	4160
463.398	4529
463.424	4666
463.466	4404
463.504	4253
463.533	4671
463.583	5114
463.601	5007
463.663	4946
463.669	5092
463.737	6598
463.743	6749
463.805	9095
463.823	9746
463.873	14125
463.903	16981
463.940	17656
463.982	18828
464.008	15791
464.062	7695
464.076	7302
464.142	5104
464.144	5068
464.211	4277
464.221	4199
464.279	3978
464.301	3946
464.347	4527
464.381	4903
464.414	5567
464.461	6593
464.482	6646
464.540	6694
464.550	6529
464.617	5244
464.620	5186
464.685	7424
464.699	7975
464.753	9067
464.779	9587
464.820	10652
464.859	11764
464.888	11333
464.938	10269
464.956	10250
465.018	10061
465.023	9932
465.091	8069
465.098	7872
465.158	7866
465.177	7902
465.226	8224
465.257	8336
465.293	8852
465.336	9489
465.361	10148
465.416	11560
465.428	11901
465.495	13651
465.496	13715
465.563	20503
465.575	21685
465.631	25569
465.654	27393
465.698	18367
465.734	9966
465.765	8880
465.813	7487
465.833	7438
465.893	7673
465.900	7691
465.968	7798
465.972	7786
466.035	7736
466.052	7747
466.102	8199
466.131	8393
466.170	8072
466.210	7727
466.237	8058
466.290	8667
466.304	8550
466.369	7886
466.372	7938
466.439	9307
466.449	9458
466.506	9716
466.528	9837
466.573	13489
466.607	16199
466.641	22269
466.687	30663
466.708	33405
466.766	41017
466.775	38243
466.842	16753
466.845	15698
466.909	11559
466.925	10635
466.977	10325
467.004	10162
467.044	10912
467.083	11638
467.111	12441
467.163	13894
467.178	14670
467.242	17806
467.245	17738
467.312	15728
467.321	15437
467.379	13652
467.400	12969
467.446	14059
467.480	14810
467.559	12930
467.638	11457
467.717	11775
467.796	14104
467.875	15534
467.955	13321
468.034	17566
468.113	32899
468.192	47959
468.271	15843
468.350	10470
468.429	10634
468.508	10295
468.588	9710
468.667	10292
468.746	11398
468.825	10191
468.904	9254
468.983	11099
469.062	15468
469.141	19546
469.220	10048
469.299	10050
469.378	10793
469.456	13708
469.535	13014
469.614	11366
469.693	11694
469.772	13439
469.851	16913
469.930	12867
470.009	10715
470.088	10234
470.166	11683
470.245	11275
470.324	12062
470.403	11089
470.482	10807
470.560	10790
470.639	11698
470.718	14070
470.797	11061
470.875	11953
470.954	14885
471.033	17061
471.111	9211
471.190	9821
471.269	8494
471.347	8514
471.426	9722
471.505	11934
471.583	12159
471.662	11560
471.740	10368
471.819	9950
471.898	9362
471.976	9171
472.055	9948
472.133	10545
472.212	13006
472.290	12579
472.369	9627
472.447	9362
472.526	8999
472.604	10846
472.683	10635
472.761	10863
472.839	10260
472.918	9623
472.996	9309
473.075	9366
473.153	10253
473.231	8777
473.310	10847
473.388	10717
473.466	10154
473.545	12640
473.623	16320
473.701	16212
473.780	9534
473.858	8560
473.936	10695
474.014	9648
474.093	9882
474.171	13221
474.249	15550
474.327	11710
474.405	8047
474.484	8803
474.562	8586
474.640	8367
474.718	7974
474.796	8721
474.874	8766
474.952	8245
475.030	8275
475.108	7999
475.187	8873
475.265	9724
475.343	12499
475.421	14233
475.499	9030
475.577	9843
475.655	9595
475.733	18175
475.811	28102
475.889	26929
475.966	17708
476.044	8813
476.122	9000
476.200	12140
476.278	9866
476.356	8263
476.434	8813
476.512	10366
476.590	11589
476.667	10736
476.745	8528
476.823	9420
476.901	8130
476.979	8780
477.056	8756
477.134	8599
477.212	8834
477.290	8975
477.367	7168
477.445	6954
477.523	6835
477.601	7153
477.678	7069
477.756	8664
477.834	9731
477.911	7275
477.989	7739
478.066	6886
478.144	8059
478.222	8809
478.299	12492
478.377	12206
478.454	7358
478.532	6980
478.609	8338
478.687	9941
478.764	6548
478.842	7128
478.919	8430
478.997	7760
479.074	6713
479.152	8063
479.229	9342
479.307	6974
479.384	5749
479.461	6866
479.539	6216
479.616	7157
479.694	6809
479.771	7596
479.848	7634
479.926	9501
480.003	11182
480.080	7454
480.157	6231
480.235	6251
480.312	7234
480.389	7466
480.467	9392
480.544	12887
480.621	8579
480.698	6967
480.775	7577
480.853	7636
480.930	7050
481.007	7676
481.084	8124
481.161	7749
481.238	8452
481.315	6941
481.392	5289
481.470	6301
481.547	5561
481.624	6195
481.701	6052
481.778	6437
481.855	6538
481.932	10126
482.009	14980
482.086	12458
482.163	7063
482.240	8860
482.317	14987
482.393	10896
482.470	7640
482.547	7096
482.624	5267
482.701	7386
482.778	6850
482.855	5772
482.932	5510
483.009	5306
483.085	7300
483.162	7618
483.239	6744
483.316	4609
483.393	5301
483.469	5577
483.546	7407
483.623	6709
483.699	6249
483.776	7539
483.853	8385
483.930	10723
484.006	25273
484.083	43806
484.160	28772
484.236	46638
484.313	36253
484.389	26265
484.466	23768
484.543	21484
484.619	21598
484.696	22617
484.772	22428
484.849	24735
484.925	20612
485.002	20504
485.078	20871
485.155	21626
485.231	19628
485.308	19531
485.384	19604
485.461	22083
485.537	32002
485.614	36555
485.690	19960
485.766	19178
485.843	19919
485.919	30010
485.995	30049
486.072	18498
486.148	17032
486.224	17168
486.301	18263
486.377	18676
486.453	19274
486.530	20100
486.606	26263
486.682	30325
486.758	30412
486.835	33687
486.911	27784
486.987	42723
487.063	53298
487.139	70962
487.215	47431
487.292	23420
487.368	18883
487.444	20995
487.520	21334
487.596	20843
487.672	22187
487.748	29520
487.824	37752
487.900	22660
487.976	18149
488.052	18469
488.128	22952
488.204	18902
488.280	18035
488.356	19724
488.432	32442
488.508	47411
488.584	22623
488.660	17520
488.736	17421
488.812	19217
488.888	24980
488.964	33333
489.039	67599
489.115	101241
489.191	55470
489.267	19303
489.343	16450
489.418	15015
489.494	13945
489.570	13142
489.646	16355
489.722	14718
489.797	15400
489.873	19672
489.949	35666
490.024	31343
490.100	14592
490.176	14153
490.251	18169
490.327	24003
490.403	14028
490.478	13385
490.554	11518
490.629	12523
490.705	12068
490.781	13054
490.856	12223
490.932	15009
491.007	15025
491.083	14100
491.158	12116
491.234	15051
491.309	26414
491.385	27706
491.460	13480
491.536	14190
491.611	13570
491.686	15408
491.762	21174
491.837	43660
491.913	67658
491.988	94302
492.063	115617
492.139	26809
492.214	15391
492.289	10984
492.365	10291
492.440	14381
492.515	11732
492.590	12246
492.666	9331
492.741	12842
492.816	18239
492.891	11539
492.967	11058
493.042	10653
493.117	11889
493.192	13715
493.267	26524
493.342	89173
493.418	124266
493.493	21027
493.568	9214
493.643	10221
493.718	12165
493.793	16666
493.868	22203
493.943	14498
494.018	10528
494.093	9341
494.168	9612
494.243	8778
494.318	8774
494.393	8045
494.468	7785
494.543	8561
494.618	11600
494.693	9701
494.768	8006
494.842	9796
494.917	8491
494.992	8319
495.067	7349
495.142	8398
495.217	9333
495.292	8818
495.366	11340
495.441	14035
495.516	18032
495.591	27034
495.665	85556
495.740	202943
495.815	72556
495.890	14235
495.964	9507
496.039	11928
496.114	10127
496.188	10316
496.263	12003
496.338	10205
496.412	11709
496.487	13447
496.561	15224
496.636	15488
496.710	11877
496.785	12766
496.860	13972
496.934	11614
497.009	11640
497.083	11625
497.158	11330
497.232	14019
497.307	16257
497.381	13610
497.455	16016
497.530	19526
497.604	14790
497.679	14855
497.753	22540
497.827	28236
497.902	26153
497.976	30603
498.050	58955
498.125	205007
498.199	210431
498.273	43168
498.348	32190
498.422	26445
498.496	26480
498.570	23938
498.645	18520
498.719	17426
498.793	19786
498.867	27586
498.941	33208
499.016	82519
499.090	223895
499.164	80280
499.238	13090
499.312	12212
499.386	17390
499.460	14221
499.534	11880
499.609	13578
499.683	19631
499.757	20155
499.831	36600
499.905	144492
499.979	139889
500.053	25143
500.127	25614
500.201	20987
500.275	12835
500.349	12063
500.422	13584
500.496	21529
500.570	45724
500.644	87020
500.718	154727
500.792	37759
500.866	12485
500.940	14960
501.013	12934
501.087	13034
501.161	26660
501.235	31413
501.309	49380
501.382	135174
501.456	119842
501.530	27906
501.603	45246
501.677	19322
501.751	8506
501.825	11933
501.898	19008
501.972	55142
502.046	35507
502.119	12011
502.193	26149
502.266	60125
502.340	30838
502.413	26212
502.487	50179
502.561	28472
502.634	12091
502.708	9622
502.781	8386
502.855	8542
502.928	7354
503.002	6513
503.075	6031
503.149	7921
503.222	6920
503.295	7829
503.369	10788
503.442	12614
503.516	37082
503.589	97733
503.662	65150
503.736	21496
503.809	44097
503.882	38237
503.956	54951
504.029	50428
504.102	24518
504.175	22385
504.249	8705
504.322	9316
504.395	9590
504.468	6876
504.542	6018
504.615	5828
504.688	6431
504.761	4936
504.834	9007
504.907	11759
504.980	20499
505.053	9949
505.127	13195
505.200	15720
505.273	9550
505.346	6513
505.419	5314
505.492	6018
505.565	4887
505.638	6014
505.711	4185
505.784	4689
505.857	4761
505.930	6615
506.003	4629
506.076	7412
506.149	7112
506.221	8265
506.294	10063
506.367	20747
506.440	75491
506.513	42361
506.586	10429
506.659	6503
506.731	6986
506.804	7902
506.877	11629
506.950	7129
507.022	6344
507.095	6795
507.168	9052
507.241	6729
507.313	5587
507.386	5453
507.459	9975
507.531	5919
507.604	5158
507.677	5788
507.749	4737
507.822	8531
507.894	17983
507.967	23402
508.040	13066
508.112	10809
508.185	10218
508.257	9291
508.330	15751
508.402	9334
508.475	9538
508.547	9608
508.620	9302
508.692	13483
508.765	9095
508.837	7224
508.909	7868
508.982	7596
509.054	9646
509.127	8213
509.199	8075
509.271	6110
509.344	6446
509.416	6244
509.488	7225
509.560	8064
509.633	8163
509.705	9389
509.777	9758
509.849	15246
509.922	9518
509.994	7857
510.066	9107
510.138	8834
510.210	18812
510.283	17748
510.355	13993
510.427	12793
510.499	11515
510.571	11754
510.643	10818
510.715	19474
510.787	16157
510.859	11747
510.931	13631
511.003	19144
511.076	17537
511.148	9959
511.219	10843
511.291	15297
511.363	15698
511.435	10438
511.507	8959
511.579	10646
511.651	9791
511.723	8903
511.795	8501
511.867	9232
511.939	10169
512.010	16604
512.082	13303
512.154	9468
512.226	9769
512.298	14006
512.369	23457
512.441	16528
512.513	16543
512.585	12018
512.656	13622
512.728	13979
512.800	10517
512.871	10843
512.943	9555
513.015	8306
513.086	10558
513.158	11335
513.230	10767
513.301	14947
513.373	18673
513.444	10798
513.516	9642
513.588	9640
513.659	11037
513.731	13188
513.802	11423
513.874	24706
513.945	41051
514.016	13264
514.088	9895
514.159	10504
514.231	14838
514.302	19401
514.374	14625
514.445	11764
514.516	20164
514.588	15880
514.659	11843
514.730	18681
514.802	17693
514.873	11598
514.944	14842
515.016	13348
515.087	13715
515.158	16020
515.229	19577
515.301	12155
515.372	16745
515.443	11750
515.514	10371
515.585	8732
515.656	10169
515.728	10136
515.799	8388
515.870	9783
515.941	10101
516.012	8873
516.083	13729
516.154	13930
516.225	18891
516.296	15258
516.367	13125
516.438	13786
516.509	16319
516.580	22370
516.651	49649
516.722	171961
516.793	88137
516.864	23621
516.935	19545
517.006	21300
517.077	27630
517.148	61496
517.219	120975
517.289	184110
517.360	87406
517.431	35493
517.502	12277
517.573	11914
517.643	11190
517.714	12980
517.785	14108
517.856	12474
517.926	15693
517.997	16228
518.068	17543
518.138	22166
518.209	26041
518.280	76607
518.350	278823
518.421	109747
518.492	19610
518.562	13108
518.633	12047
518.703	10066
518.774	14879
518.845	18075
518.915	17084
518.986	14753
519.056	17503
519.127	33477
519.197	46527
519.268	88260
519.338	56428
519.408	16329
519.479	24731
519.549	16741
519.620	11365
519.690	9312
519.760	9659
519.831	10907
519.901	10265
519.971	8097
520.042	8747
520.112	9766
520.182	13950
520.253	15263
520.323	10615
520.393	12731
520.463	19300
520.534	10821
520.604	23184
520.674	12988
520.744	12084
520.814	25082
520.885	24823
520.955	26487
521.025	93445
521.095	39688
521.165	11260
521.235	8328
521.305	7586
521.375	8659
521.445	11471
521.515	12325
521.585	16198
521.655	13444
521.725	12237
521.795	9675
521.865	6821
521.935	13434
522.005	10499
522.075	8213
522.145	9143
522.215	7667
522.285	11351
522.355	15507
522.424	25827
522.494	24052
522.564	15671
522.634	31280
522.704	99543
522.774	34434
522.843	10696
522.913	8970
522.983	12695
523.053	9066
523.122	10243
523.192	13732
523.262	51008
523.331	43410
523.401	10071
523.471	7074
523.540	8530
523.610	5695
523.680	5863
523.749	7319
523.819	7458
523.888	7783
523.958	6364
524.027	6810
524.097	7738
524.166	6656
524.236	8027
524.305	7870
524.375	5906
524.444	5750
524.514	8421
524.583	6087
524.653	7375
524.722	9754
524.791	6510
524.861	7810
524.930	6061
524.999	6845
525.069	10932
525.138	7379
525.207	9187
525.277	7332
525.346	7051
525.415	6639
525.484	6883
525.554	6141
525.623	6685
525.692	7107
525.761	6921
525.830	6489
525.900	5724
525.969	7504
526.038	9195
526.107	9356
526.176	22439
526.245	18946
526.314	16027
526.383	19602
526.452	18429
526.522	31240
526.591	42072
526.660	41609
526.729	20774
526.797	21997
526.867	48998
526.935	228493
527.004	178625
527.073	66135
527.142	11086
527.211	8749
527.280	9710
527.349	9593
527.418	5129
527.487	6746
527.555	5210
527.624	5521
527.693	4833
527.762	6154
527.831	3501
527.899	4808
527.968	5489
528.037	4936
528.106	8152
528.174	15109
528.243	9914
528.312	15388
528.380	20941
528.449	5972
528.518	6300
528.586	3730
528.655	5631
528.723	4575
528.792	4799
528.861	4152
528.929	3566
528.998	5683
529.066	4617
529.135	5035
529.203	4217
529.272	3607
529.340	4856
529.409	6402
529.477	4761
529.545	5178
529.614	8736
529.682	6303
529.751	7538
529.819	9463
529.887	6306
529.956	4885
530.024	5224
530.092	5384
530.161	7757
530.229	11358
530.297	6231
530.365	6640
530.434	4797
530.502	4477
530.570	4519
530.638	2858
530.707	6112
530.775	6953
530.843	4935
530.911	4512
530.979	4028
531.047	4161
531.115	5484
531.183	5169
531.252	5416
531.320	5108
531.388	4409
531.456	5652
531.524	2985
531.592	5381
531.660	6798
531.728	3905
531.796	4353
531.864	5140
531.932	5069
532.000	5173
532.067	6069
532.135	6710
532.203	7743
532.271	8125
532.339	16161
532.407	40613
532.475	22335
532.542	13065
532.610	13934
532.678	19112
532.746	72029
532.814	187627
532.881	42456
532.949	9913
533.017	6859
533.084	6017
533.152	5574
533.220	6729
533.287	6792
533.355	5667
533.423	5334
533.490	4563
533.558	6125
533.625	5984
533.693	7182
533.761	7689
533.828	8121
533.896	8081
533.963	17816
534.031	19365
534.098	27497
534.166	12768
534.233	7452
534.300	8594
534.368	7964
534.435	7193
534.503	6430
534.570	7046
534.637	5929
534.705	5661
534.772	6811
534.840	6646
534.907	12789
534.974	15002
535.041	6270
535.109	6233
535.176	5189
535.243	5299
535.310	5975
535.378	5686
535.445	4905
535.512	5073
535.579	6098
535.646	5411
535.714	6077
535.781	8532
535.848	8076
535.915	10070
535.982	10266
536.049	9945
536.116	10968
536.183	8634
536.250	7481
536.317	7754
536.384	8996
536.451	12896
536.518	12286
536.585	7953
536.652	11675
536.719	16868
536.786	11582
536.853	9920
536.920	14600
536.987	23863
537.053	24220
537.120	95129
537.187	79412
537.254	8773
537.321	6893
537.388	8002
537.454	5422
537.521	5648
537.588	5052
537.654	7641
537.721	7220
537.788	8911
537.855	7102
537.921	6556
537.988	6662
538.055	7420
538.121	6075
538.188	8601
538.254	10557
538.321	21960
538.388	12878
538.454	6750
538.521	7284
538.587	6120
538.654	6173
538.720	6100
538.787	6582
538.853	6767
538.920	7991
538.986	8540
539.053	7318
539.119	7938
539.185	7188
539.252	10040
539.318	14977
539.385	10891
539.451	10111
539.517	10083
539.583	12747
539.650	27148
539.716	74257
539.782	18736
539.849	7363
539.915	7746
539.981	8226
540.047	9179
540.114	8999
540.180	9543
540.246	7604
540.312	12069
540.378	21777
540.444	23221
540.510	27387
540.576	83574
540.643	23720
540.709	6491
540.775	8215
540.841	7546
540.907	9115
540.973	14207
541.039	15082
541.105	13828
541.171	8054
541.237	7328
541.303	8421
541.369	10512
541.435	11078
541.500	19915
541.566	12425
541.632	7354
541.698	6085
541.764	7199
541.830	6812
541.896	5336
541.961	7198
542.027	7404
542.093	7679
542.159	7567
542.224	7977
542.290	13661
542.356	20374
542.421	22827
542.487	11870
542.553	8308
542.618	9511
542.684	8777
542.750	9333
542.815	11947
542.881	18008
542.947	69575
543.012	49873
543.078	8485
543.143	8752
543.209	9227
543.274	9432
543.340	12182
543.405	27223
543.471	43135
543.536	9807
543.602	8678
543.667	6791
543.732	8219
543.798	6727
543.863	7233
543.928	6471
543.994	6727
544.059	6776
544.124	6792
544.190	6641
544.255	8229
544.320	8643
544.386	8247
544.451	11746
544.516	14132
544.581	15073
544.646	43191
544.712	69051
544.777	13327
544.842	8788
544.907	9268
544.972	8805
545.037	8972
545.102	9346
545.168	9405
545.233	10079
545.298	10771
545.363	12510
545.428	13623
545.493	25331
545.558	55808
545.623	21318
545.688	9638
545.753	9777
545.818	9301
545.883	10277
545.947	8442
546.012	9860
546.077	10102
546.142	11085
546.207	8649
546.272	12247
546.337	12514
546.401	10324
546.466	10719
546.531	8448
546.596	10289
546.661	9399
546.725	9720
546.790	8255
546.855	8811
546.919	6478
546.984	8805
547.049	9093
547.113	9718
547.178	7857
547.243	9974
547.307	10719
547.372	11562
547.436	11379
547.501	9208
547.565	9321
547.630	12854
547.695	12595
547.759	12204
547.823	11037
547.888	9931
547.952	9304
548.017	9748
548.081	10714
548.146	13543
548.210	12168
548.274	9581
548.339	9452
548.403	10721
548.468	8910
548.532	9565
548.596	9736
548.660	8660
548.725	10915
548.789	10448
548.853	12845
548.917	10028
548.982	12599
549.046	13746
549.110	8991
549.174	9528
549.238	9271
549.303	8703
549.367	10224
549.431	9672
549.495	8949
549.559	9104
549.623	10486
549.687	11188
549.751	18431
549.815	11914
549.879	11809
549.943	10218
550.007	11813
550.071	12635
550.135	16306
550.199	11671
550.263	11201
550.327	11448
550.391	13035
550.455	11766
550.519	11277
550.582	12398
550.646	17727
550.710	17065
550.774	10820
550.838	12248
550.901	12286
550.965	12189
551.029	11872
551.093	13774
551.156	16469
551.220	25591
551.284	27549
551.347	16376
551.411	28919
551.475	32365
551.538	13970
551.602	12657
551.666	12020
551.729	9941
551.793	10784
551.856	12104
551.920	13731
551.983	12128
552.047	11225
552.110	11073
552.174	10388
552.237	11330
552.301	10247
552.364	9824
552.428	11072
552.491	10077
552.554	9640
552.618	10520
552.681	11099
552.745	11448
552.808	13052
552.871	15883
552.934	13056
552.998	11505
553.061	11865
553.124	13154
553.187	14229
553.251	14783
553.314	18386
553.377	19517
553.440	28847
553.503	88615
553.567	168530
553.630	36280
553.693	14580
553.756	12357
553.819	11178
553.882	10617
553.945	11020
554.008	9621
554.071	9522
554.134	9539
554.197	11112
554.260	9707
554.323	12806
554.386	11404
554.449	10834
554.512	11755
554.575	9736
554.638	10675
554.701	10388
554.764	10495
554.827	10438
554.889	9792
554.952	8967
555.015	9258
555.078	9853
555.141	9758
555.203	9736
555.266	9308
555.329	11345
555.391	10120
555.454	9949
555.517	10416
555.580	9153
555.642	8220
555.705	9057
555.768	9619
555.830	8845
555.893	9366
555.955	8644
556.018	8884
556.080	8973
556.143	8638
556.206	8849
556.268	10233
556.330	10122
556.393	10243
556.455	9299
556.518	11604
556.580	12844
556.643	8652
556.705	9545
556.767	8175
556.830	10027
556.892	10066
556.955	15823
557.017	12142
557.079	9125
557.142	9365
557.204	11197
557.266	20810
557.328	16843
557.391	7442
557.453	8473
557.515	8519
557.577	11085
557.639	11069
557.701	8436
557.764	7959
557.826	8350
557.888	8405
557.950	7053
558.012	7994
558.074	8983
558.136	11320
558.198	17629
558.260	11996
558.322	8904
558.384	9198
558.446	11077
558.508	11191
558.570	14285
558.632	23632
558.694	32644
558.756	19588
558.818	33877
558.880	80133
558.942	29933
559.003	19951
559.065	13811
559.127	10119
559.189	9559
559.251	10744
559.312	12436
559.374	18629
559.436	47392
559.498	29824
559.559	10573
559.621	10040
559.683	11040
559.744	14894
559.806	28109
559.868	38208
559.929	14289
559.991	11406
560.052	11757
560.114	18962
560.176	15995
560.237	15266
560.299	21669
560.360	11839
560.422	8736
560.483	9709
560.545	9730
560.606	9930
560.667	8583
560.729	8909
560.790	8518
560.852	9241
560.913	8702
560.974	8855
561.036	8842
561.097	9030
561.158	9015
561.220	10203
561.281	10325
561.342	10904
561.403	12875
561.465	14556
561.526	30891
561.587	37532
561.648	12337
561.709	9975
561.771	10894
561.832	10207
561.893	10031
561.954	9121
562.015	10106
562.076	10126
562.137	10044
562.198	10441
562.259	10677
562.320	10474
562.381	10507
562.442	13709
562.503	12846
562.564	10292
562.625	9439
562.686	10688
562.747	11408
562.808	10204
562.869	10451
562.930	12794
562.991	12053
563.051	11367
563.112	10022
563.173	11335
563.234	10138
563.294	10882
563.355	10323
563.416	10720
563.477	10217
563.537	10434
563.598	11673
563.659	10705
563.720	10812
563.780	10911
563.841	10752
563.901	10942
563.962	11024
564.023	10681
564.083	11226
564.144	12216
564.204	11219
564.265	10835
564.325	12143
564.386	17347
564.446	17568
564.507	10733
564.567	11115
564.628	10945
564.688	11320
564.749	11545
564.809	11873
564.869	12960
564.930	10995
564.990	11513
565.050	11564
565.111	12273
565.171	11035
565.231	11749
565.292	12043
565.352	10392
565.412	11694
565.472	11131
565.532	11978
565.593	10890
565.653	11281
565.713	10863
565.773	12415
565.833	13595
565.893	16374
565.953	12232
566.013	11477
566.074	13179
566.134	14090
566.194	18451
566.254	20110
566.314	15795
566.374	12104
566.434	13115
566.494	13836
566.554	12712
566.614	14084
566.673	14182
566.733	14851
566.793	15119
566.853	14858
566.913	15697
566.973	15826
567.033	16762
567.092	15753
567.152	15495
567.212	16495
567.272	15618
567.331	16582
567.391	16676
567.451	17116
567.511	20059
567.570	20357
567.630	17374
567.690	15633
567.749	17084
567.809	16455
567.868	19187
567.928	20795
567.988	21995
568.047	24909
568.107	28250
568.166	36042
568.226	49537
568.285	66111
568.345	64333
568.404	54536
568.464	48664
568.523	45615
568.582	46470
568.642	49839
568.701	56746
568.761	75698
568.820	106324
568.879	114021
568.939	95061
568.998	74844
569.057	58322
569.116	48447
569.176	40811
569.235	34623
569.294	29849
569.353	26640
569.413	24414
569.472	20895
569.531	21559
569.590	18785
569.649	18038
569.708	16425
569.767	17174
569.827	17170
569.886	15661
569.945	13635
570.004	13858
570.063	13906
570.122	14534
570.181	14263
570.240	14750
570.299	14322
570.358	14532
570.417	12498
570.475	11592
570.534	13425
570.593	12367
570.652	12091
570.711	12282
570.770	11640
570.829	11474
570.887	11445
570.946	12528
571.005	11152
571.064	11254
571.122	11248
571.181	11463
571.240	11833
571.299	10955
571.357	11505
571.416	11536
571.475	11619
571.533	11751
571.592	11398
571.650	11166
571.709	10050
571.768	10715
571.826	10395
571.885	10170
571.943	9755
572.002	9994
572.060	10219
572.119	10610
572.177	9921
572.236	9503
572.294	9304
572.352	9864
572.411	9616
572.469	10182
572.528	9981
572.586	10232
572.644	9494
572.703	10836
572.761	9792
572.819	9245
572.877	9756
572.936	8724
572.994	9581
573.052	9194
573.110	9415
573.169	9113
573.227	9010
573.285	8912
573.343	8611
573.401	9444
573.459	9963
573.517	8907
573.576	9714
573.634	9676
573.692	9091
573.750	9227
573.808	9471
573.866	10143
573.924	10648
573.982	9804
574.040	9024
574.098	9050
574.155	8300
574.213	9277
574.271	7950
574.329	8905
574.387	9297
574.445	8591
574.503	8390
574.560	8120
574.618	7918
574.676	9099
574.734	8297
574.792	9567
574.849	7622
574.907	8104
574.965	8140
575.022	8072
575.080	7165
575.138	9389
575.195	8891
575.253	8518
575.311	8887
575.368	9527
575.426	9162
575.483	8428
575.541	8112
575.598	8548
575.656	8436
575.713	8448
575.771	7661
575.828	8406
575.886	9449
575.943	9830
576.001	9781
576.058	9548
576.115	9961
576.173	9546
576.230	10689
576.287	11511
576.345	10343
576.402	9430
576.459	9697
576.517	8630
576.574	10338
576.631	10071
576.688	9086
576.746	8704
576.803	9811
576.860	8855
576.917	9728
576.974	10907
577.031	9737
577.089	9397
577.146	9109
577.203	9422
577.260	10473
577.317	10268
577.374	10931
577.431	10870
577.488	10321
577.545	8957
577.602	11153
577.659	11138
577.716	11138
577.773	13326
577.830	11774
577.886	10225
577.943	10522
578.000	10257
578.057	11364
578.114	12202
578.171	13966
578.227	17991
578.284	18526
578.341	15348
578.398	13214
578.454	13246
578.511	11472
578.568	13098
578.625	10951
578.681	10258
578.738	9919
578.794	10503
578.851	10547
578.908	11182
578.964	11053
579.021	12346
579.077	10728
579.134	10744
579.190	10364
579.247	11132
579.303	9173
579.360	10693
579.416	10099
579.473	9530
579.529	10356
579.586	10427
579.642	10905
579.698	10873
579.755	10934
579.811	11409
579.867	12535
579.924	11645
579.980	12261
580.036	15035
580.093	17497
580.149	24946
580.205	29600
580.261	22196
580.317	18828
580.374	16266
580.430	15754
580.486	14211
580.542	12583
580.598	12422
580.619	12366
580.654	12275
580.692	12022
580.710	11909
580.765	12088
580.767	12099
580.823	12111
580.838	12041
580.879	11898
580.911	11645
580.935	11454
580.984	11620
580.991	11656
581.047	11930
581.057	12195
581.103	13375
581.130	13566
581.159	13792
581.203	15509
581.215	15956
581.270	14479
581.276	14376
581.326	13463
581.349	13234
581.382	12855
581.422	12875
581.438	12902
581.494	12540
581.494	12544
581.550	13039
581.567	12988
581.606	12971
581.640	12724
581.661	12534
581.713	12570
581.717	12580
581.773	12698
581.786	12615
581.829	12319
581.859	12613
581.885	12887
581.932	13087
581.940	13107
581.996	12677
582.004	12726
582.052	12984
582.077	13050
582.107	13185
582.150	13360
582.163	13414
582.219	14074
582.223	14051
582.274	13772
582.296	13714
582.330	13610
582.368	14229
582.386	14515
582.441	13722
582.441	13719
582.497	13673
582.514	14074
582.552	15012
582.587	15772
582.608	16157
582.659	15283
582.663	15203
582.719	14603
582.732	14658
582.774	15069
582.805	15569
582.830	15939
582.877	15479
582.885	15399
582.941	14727
582.950	14927
582.996	15998
583.023	16662
583.052	17744
583.095	18662
583.107	18898
583.162	22737
583.168	22931
583.218	24213
583.240	23613
583.273	22250
583.313	21228
583.328	20967
583.384	19625
583.385	19582
583.439	18060
583.458	17908
583.494	17816
583.531	17542
583.549	17417
583.603	17640
583.605	17650
583.660	17225
583.676	17205
583.715	17212
583.748	17810
583.770	18278
583.820	17603
583.825	17517
583.881	18340
583.893	18284
583.936	18414
583.965	18510
583.991	18317
584.038	18076
584.046	18074
584.101	17519
584.110	17629
584.156	18502
584.183	18781
584.211	18934
584.255	19247
584.266	19351
584.321	18599
584.328	18767
584.376	20214
584.400	20340
584.431	20549
584.472	19870
584.486	19519
584.541	20363
584.545	20328
584.596	20460
584.617	20778
584.651	21347
584.689	22107
584.706	22478
584.761	22779
584.762	22767
584.816	22500
584.834	22727
584.871	23319
584.906	23442
584.926	23473
584.978	23864
584.980	23892
585.035	23915
585.051	24170
585.090	25353
585.123	26092
585.145	26401
585.195	26716
585.200	26857
585.254	28454
585.267	28947
585.309	30595
585.340	32244
585.364	32936
585.412	31943
585.419	31761
585.473	30773
585.484	30563
585.528	31271
585.556	32333
585.583	33641
585.628	35642
585.637	36582
585.692	44820
585.700	46158
585.747	51818
585.772	50826
585.801	45096
585.845	36491
585.856	35522
585.910	35222
585.917	35035
585.965	34901
585.989	35237
586.019	36097
586.061	36589
586.074	36706
586.128	37529
586.133	37587
586.183	38867
586.205	39098
586.237	40072
586.277	40839
586.292	40953
586.346	42320
586.349	42324
586.401	43629
586.421	44088
586.455	45168
586.493	46481
586.509	48201
586.564	54099
586.565	54220
586.618	66266
586.637	68718
586.672	63656
586.709	56708
586.727	55194
586.781	53439
586.781	53521
586.835	55541
586.853	55922
586.889	56409
586.925	57438
586.944	58512
586.996	60721
586.998	60876
587.052	63548
587.068	64176
587.106	65962
587.140	67322
587.161	68593
587.212	71720
587.215	72037
587.269	75593
587.284	76673
587.323	79211
587.356	80907
587.377	82684
587.427	87231
587.431	87717
587.485	91701
587.499	92678
587.539	96955
587.571	100230
587.593	102984
587.643	109291
587.648	110127
587.702	116785
587.715	118261
587.755	125559
587.786	130843
587.810	135394
587.858	145059
587.864	146583
587.917	159002
587.930	161792
587.971	175533
588.001	184971
588.025	192968
588.073	208546
588.079	211489
588.133	235151
588.145	240315
588.187	264579
588.217	281204
588.241	297491
588.288	328709
588.295	334732
588.348	382709
588.360	392645
588.402	441806
588.431	475226
588.456	511974
588.503	583972
588.510	598951
588.564	714365
588.575	738054
588.617	867727
588.646	957065
588.671	1062458
588.718	1263957
588.725	1301920
588.778	1580651
588.789	1632828
588.832	1741735
588.861	1794584
588.886	1662931
588.932	1349861
588.939	1327304
588.993	1129179
589.004	1111284
589.047	1528397
589.075	1791323
589.100	1826841
589.147	1825442
589.154	1800354
589.207	1556025
589.218	1503694
589.261	1398248
589.290	1329311
589.314	1348497
589.361	1389644
589.368	1414296
589.421	1603559
589.433	1640735
589.475	1695538
589.504	1710006
589.528	1581175
589.576	1272362
589.582	1299174
589.635	1588171
589.647	1644580
589.689	1648938
589.718	1614820
589.742	1457893
589.790	1128550
589.795	1105125
589.849	867672
589.861	812028
589.902	702825
589.932	621066
589.955	577298
590.004	482350
590.009	477350
590.062	412685
590.075	396137
590.115	361992
590.146	334113
590.168	320559
590.218	288655
590.222	287526
590.275	263706
590.289	256653
590.328	240815
590.360	227282
590.381	221301
590.431	205203
590.435	204969
590.488	191615
590.503	187374
590.541	179511
590.574	171887
590.594	168468
590.645	158347
590.647	158496
590.700	150350
590.716	147598
590.753	142771
590.787	137475
590.806	135990
590.859	130660
590.859	130926
590.912	123790
590.930	121247
590.965	119001
591.001	115999
591.018	114989
591.071	111036
591.072	110669
591.124	107218
591.143	105605
591.177	105053
591.214	103892
591.230	103046
591.283	98998
591.285	98540
591.336	96957
591.356	96022
591.389	95202
591.427	93310
591.442	92468
591.495	88546
591.498	87990
591.547	87398
591.569	86707
591.600	84999
591.640	82151
591.653	82291
591.706	81914
591.711	81610
591.759	81520
591.782	81146
591.811	81585
591.853	81619
591.864	81165
591.917	77543
591.924	76759
591.969	75515
591.995	74514
592.022	74435
592.066	73618
592.075	74055
592.127	75345
592.137	75349
592.180	77219
592.208	78011
592.233	75327
592.279	69460
592.285	69559
592.338	68577
592.350	68138
592.390	66347
592.421	64618
592.443	65216
592.491	65866
592.495	65958
592.548	64283
592.562	63616
592.600	62786
592.633	61697
592.653	61924
592.704	61667
592.705	61980
592.775	59767
592.846	59158
592.916	59257
592.987	59471
593.058	57534
593.128	55376
593.199	54728
593.270	54248
593.341	52309
593.411	51595
593.482	52634
593.553	50761
593.623	50287
593.694	50867
593.764	50903
593.835	50749
593.906	48976
593.976	47155
594.047	49115
594.117	52325
594.188	51520
594.258	46362
594.329	45201
594.399	44921
594.470	43390
594.540	43956
594.611	43446
594.681	42737
594.751	42693
594.822	42870
594.892	43337
594.963	44151
595.033	43156
595.103	44076
595.174	45638
595.244	52765
595.314	61084
595.384	43642
595.455	40353
595.525	41478
595.595	40386
595.665	41889
595.736	40039
595.806	41051
595.876	39918
595.946	39751
596.016	38840
596.087	38721
596.157	38593
596.227	38899
596.297	37993
596.367	40220
596.437	42078
596.507	48238
596.577	55156
596.647	40845
596.717	37545
596.787	39029
596.857	37402
596.927	37800
596.997	37854
597.067	40704
597.137	44610
597.207	42282
597.277	39109
597.347	37583
597.417	37707
597.487	38960
597.557	39285
597.626	37891
597.696	38396
597.766	44681
597.836	51530
597.906	40247
597.975	36071
598.045	36547
598.115	36640
598.185	36163
598.254	37105
598.324	37641
598.394	36183
598.464	37151
598.533	35225
598.603	34746
598.672	35520
598.742	35874
598.812	34855
598.881	35375
598.951	34717
599.020	34763
599.090	33884
599.159	34540
599.229	33884
599.299	33456
599.368	34031
599.437	33607
599.507	34070
599.576	35641
599.646	38517
599.715	39602
599.785	32844
599.854	34249
599.924	35748
599.993	35254
600.062	33704
600.132	33013
600.201	33237
600.270	35461
600.340	33935
600.409	34571
600.478	34371
600.547	33456
600.617	34197
600.686	33583
600.755	32789
600.824	32952
600.894	32337
600.963	32267
601.032	31556
601.101	32670
601.170	31688
601.239	31342
601.308	33915
601.378	31708
601.447	31736
601.516	31178
601.585	32187
601.654	33829
601.723	32885
601.792	33575
601.861	36026
601.930	44136
601.999	36530
602.068	32347
602.137	34062
602.206	34374
602.275	33029
602.343	34929
602.412	34322
602.481	31710
602.550	31814
602.619	31705
602.688	31705
602.756	32234
602.825	31559
602.894	32588
602.963	31178
603.032	31673
603.100	31961
603.169	31513
603.238	31289
603.307	31256
603.375	30771
603.444	31599
603.513	29845
603.581	31351
603.650	32286
603.719	29994
603.787	29704
603.856	30361
603.924	30472
603.993	30339
604.061	29955
604.130	30667
604.198	30581
604.267	30818
604.335	30314
604.404	31429
604.472	30072
604.541	30760
604.609	30403
604.678	30895
604.746	32048
604.815	31927
604.883	30174
604.951	30734
605.020	31303
605.088	31212
605.156	30353
605.225	29871
605.293	30245
605.361	30085
605.429	29452
605.498	29927
605.566	29704
605.634	30567
605.702	31460
605.771	32177
605.839	31017
605.907	30474
605.975	30524
606.043	30004
606.111	30950
606.180	34099
606.248	40216
606.316	44970
606.384	32919
606.452	34952
606.520	32260
606.588	28034
606.656	26485
606.724	26694
606.792	25801
606.860	24986
606.928	24073
606.996	24034
607.064	23709
607.132	24453
607.200	24161
607.267	24303
607.335	24212
607.403	25040
607.471	24335
607.539	24773
607.607	24004
607.674	23195
607.742	24520
607.810	24852
607.878	23252
607.946	23494
608.013	23542
608.081	25493
608.149	24173
608.216	23200
608.284	24605
608.352	24677
608.419	24603
608.487	32867
608.555	27499
608.622	23974
608.690	24143
608.757	24970
608.825	25403
608.893	26257
608.960	27766
609.028	30507
609.095	33942
609.163	26334
609.230	25719
609.298	25182
609.365	23671
609.432	23840
609.500	25226
609.567	26559
609.635	27995
609.702	29100
609.769	28026
609.837	28846
609.904	26425
609.971	26204
610.039	29538
610.106	36023
610.173	55466
610.241	112153
610.308	140047
610.375	90768
610.442	37594
610.509	28814
610.577	26201
610.644	26326
610.711	25330
610.778	25792
610.845	26807
610.912	28749
610.980	35412
611.047	53586
611.114	37733
611.181	26224
611.248	24111
611.315	24947
611.382	24727
611.449	24382
611.516	25316
611.583	25300
611.650	24278
611.717	25829
611.784	25530
611.851	26882
611.918	28177
611.984	30841
612.051	37427
612.118	65062
612.185	138710
612.252	105971
612.319	34781
612.386	29539
612.452	26652
612.519	29187
612.586	36994
612.653	30502
612.719	26823
612.786	26704
612.853	24543
612.919	24551
612.986	25979
613.053	24311
613.120	22874
613.186	22063
613.253	25196
613.319	23344
613.386	23716
613.453	23839
613.519	25797
613.586	28089
613.652	36259
613.719	30480
613.785	28593
613.852	25225
613.918	24435
613.985	29026
614.051	41249
614.118	82722
614.184	83276
614.250	29810
614.317	25823
614.383	24304
614.449	22457
614.516	23102
614.582	24989
614.648	24290
614.715	23463
614.781	23996
614.847	26071
614.914	25297
614.980	25523
615.046	25299
615.112	25872
615.179	26703
615.245	28660
615.311	38996
615.377	61921
615.443	79211
615.509	47928
615.575	33837
615.642	29706
615.708	30183
615.774	31783
615.840	37264
615.906	45565
615.972	67589
616.038	128045
616.104	182669
616.170	226083
616.236	198307
616.302	59629
616.368	40910
616.434	33625
616.500	33240
616.565	33167
616.631	34224
616.697	31375
616.763	31280
616.829	35360
616.895	49029
616.961	49204
617.026	35680
617.092	28451
617.158	28689
617.224	27004
617.289	28174
617.355	27594
617.421	27778
617.487	28935
617.552	27038
617.618	25784
617.684	25010
617.749	27770
617.815	25895
617.880	25134
617.946	26387
618.012	26201
618.077	26127
618.143	27171
618.208	27195
618.274	27050
618.339	28614
618.405	26338
618.470	27554
618.536	26808
618.601	31005
618.667	28664
618.732	28157
618.798	27625
618.863	27382
618.928	26813
618.994	28454
619.059	29774
619.124	36373
619.190	30138
619.255	26891
619.320	27754
619.386	27559
619.451	25646
619.516	27831
619.581	27154
619.647	27060
619.712	27917
619.777	27719
619.842	27047
619.907	28032
619.972	27226
620.038	28195
620.103	27076
620.168	26123
620.233	27520
620.298	26576
620.363	26026
620.428	26713
620.493	27434
620.558	26800
620.623	26856
620.688	27353
620.753	26093
620.818	27375
620.883	26073
620.948	26863
621.013	26251
621.078	27140
621.143	26236
621.207	29723
621.272	28223
621.337	30925
621.402	31253
621.467	38136
621.532	39048
621.596	34763
621.661	32443
621.726	30036
621.791	30275
621.855	31577
621.920	32510
621.985	33688
622.049	35649
622.114	33691
622.179	34041
622.243	35183
622.308	33982
622.373	33810
622.437	34372
622.502	33147
622.566	31697
622.631	32368
622.695	33351
622.760	33299
622.824	32124
622.889	32531
622.953	33259
623.018	41450
623.082	40511
623.147	33180
623.211	32354
623.276	32368
623.340	30540
623.404	30951
623.469	31158
623.533	31563
623.597	29955
623.662	31022
623.726	29777
623.790	30563
623.854	29865
623.919	30135
623.983	29861
624.047	30558
624.111	30268
624.176	30852
624.240	31910
624.304	33884
624.368	30092
624.432	29766
624.496	31026
624.560	31523
624.625	31092
624.689	29453
624.753	28804
624.817	29769
624.881	28718
624.945	29551
625.009	28764
625.073	29332
625.137	28756
625.201	32900
625.265	31699
625.329	29148
625.393	29362
625.456	28691
625.520	28663
625.584	30405
625.648	35916
625.712	49504
625.776	99360
625.839	114598
625.903	51218
625.967	32181
626.031	47034
626.095	68609
626.158	32503
626.222	25977
626.286	25469
626.349	24455
626.413	23127
626.477	26672
626.540	23721
626.604	24922
626.668	24243
626.731	24414
626.795	25632
626.858	26014
626.922	24075
626.986	24687
627.049	22595
627.113	24383
627.176	23537
627.240	22452
627.303	23130
627.366	23117
627.430	23234
627.493	23301
627.557	24330
627.620	24777
627.684	23402
627.747	22988
627.810	21630
627.874	22837
627.937	21244
628.000	24411
628.064	22793
628.127	20005
628.190	21988
628.253	22581
628.317	20295
628.380	20963
628.443	20977
628.506	22488
628.569	20464
628.632	19943
628.696	19779
628.759	20624
628.822	19444
628.885	19809
628.948	20107
629.011	20971
629.074	19233
629.137	19438
629.200	19505
629.263	21897
629.326	18722
629.389	19495
629.452	19122
629.515	20339
629.578	19215
629.641	20844
629.704	20918
629.767	20639
629.830	19540
629.892	19371
629.955	18781
630.018	21150
630.081	18581
630.144	21874
630.207	19501
630.269	21350
630.332	21003
630.395	19369
630.458	17888
630.520	17533
630.583	18864
630.646	17246
630.708	16582
630.771	16714
630.834	17683
630.896	17763
630.959	16410
631.021	16886
631.084	16785
631.146	18724
631.209	19888
631.272	17249
631.334	17578
631.397	17272
631.459	15960
631.522	16119
631.584	16355
631.646	16709
631.709	17421
631.771	19600
631.834	17140
631.896	16922
631.958	15233
632.021	17366
632.083	15497
632.145	17498
632.208	16273
632.270	17581
632.332	14752
632.395	16215
632.457	16070
632.519	16322
632.581	16866
632.643	15934
632.706	16114
632.768	15210
632.830	15821
632.892	15249
632.954	15489
633.016	16703
633.078	14582
633.141	15067
633.203	15563
633.265	15779
633.327	14669
633.389	15192
633.451	17233
633.513	18177
633.575	18341
633.637	16774
633.698	15822
633.760	15614
633.822	15215
633.884	15712
633.946	14023
634.008	15290
634.070	16466
634.132	22340
634.193	16657
634.255	15303
634.317	14095
634.379	15786
634.441	13845
634.502	14084
634.564	13874
634.626	14071
634.687	13968
634.749	14327
634.811	14908
634.873	12714
634.934	13659
634.996	15197
635.057	13415
635.119	13951
635.181	13631
635.242	14412
635.304	12151
635.365	16083
635.427	13386
635.488	13691
635.550	12493
635.611	14597
635.673	12803
635.734	15627
635.796	13804
635.857	14901
635.918	13244
635.980	14638
636.041	13478
636.102	14555
636.164	13373
636.225	13824
636.286	12294
636.348	15095
636.409	13135
636.470	13648
636.531	13088
636.593	13999
636.654	14372
636.715	13022
636.776	11700
636.838	11574
636.899	13526
636.960	13311
637.021	11946
637.082	12430
637.143	12787
637.204	12548
637.265	11685
637.326	12924
637.387	12491
637.448	10949
637.509	12437
637.570	11960
637.631	11935
637.692	10830
637.753	10527
637.814	12626
637.875	11907
637.936	12930
637.997	10542
638.058	12338
638.119	11889
638.179	11732
638.240	10432
638.301	12081
638.362	11306
638.423	12100
638.483	12332
638.544	11008
638.605	12041
638.666	11045
638.726	11255
638.787	11972
638.848	11179
638.908	11323
638.969	11552
639.030	10957
639.090	9659
639.151	11261
639.211	12003
639.272	14371
639.332	18400
639.393	13379
639.453	10113
639.514	11588
639.574	11098
639.635	10452
639.695	10652
639.756	10632
639.816	11177
639.877	11538
639.937	14619
639.997	18991
640.058	11205
640.118	10833
640.178	10770
640.239	11004
640.299	10660
640.359	10336
640.420	10550
640.480	10965
640.540	9888
640.600	10082
640.661	11043
640.721	9150
640.781	11956
640.841	10600
640.901	11041
640.961	11031
641.021	10742
641.082	10364
641.142	12991
641.202	12638
641.262	7925
641.322	10914
641.382	9369
641.442	10632
641.502	10547
641.562	11253
641.622	9945
641.682	10440
641.742	9528
641.802	11121
641.861	9672
641.921	10194
641.981	10552
642.041	11652
642.101	11888
642.161	9705
642.221	8947
642.280	9315
642.340	9698
642.400	9101
642.460	9576
642.519	9728
642.579	9223
642.639	10139
642.698	7401
642.758	10805
642.818	9307
642.877	8068
642.937	10129
642.997	12097
643.056	13755
643.116	9904
643.175	10738
643.235	9908
643.294	9477
643.354	9746
643.414	9556
643.473	9753
643.532	9671
643.592	10789
643.651	12733
643.711	18600
643.770	29583
643.830	61800
643.889	132076
643.948	37339
644.008	12221
644.067	10170
644.126	8380
644.186	9279
644.245	9160
644.304	7682
644.363	10199
644.423	7363
644.482	9001
644.541	8969
644.600	7097
644.659	10240
644.719	9030
644.778	10030
644.837	10937
644.896	16493
644.955	28934
645.014	17537
645.073	14758
645.132	10447
645.191	9248
645.250	8328
645.309	10343
645.368	9348
645.427	9079
645.486	8330
645.545	11668
645.604	8506
645.663	8242
645.722	8137
645.781	8839
645.840	8950
645.898	7628
645.957	11047
646.016	9889
646.075	16051
646.134	25067
646.192	56869
646.251	87440
646.310	17712
646.369	8921
646.427	9033
646.486	7645
646.545	8770
646.603	8242
646.662	8492
646.721	7931
646.779	7255
646.838	6636
646.896	7935
646.955	8532
647.014	9489
647.072	10655
647.131	18720
647.189	11769
647.248	7326
647.306	7891
647.365	8355
647.423	6128
647.481	8770
647.540	5925
647.598	8253
647.657	7090
647.715	8131
647.773	6879
647.832	8447
647.890	6899
647.948	7619
648.007	8813
648.065	7027
648.123	8162
648.181	10600
648.240	12827
648.298	12457
648.356	7940
648.414	8348
648.472	8046
648.531	6961
648.589	7475
648.647	6980
648.705	6730
648.763	6725
648.821	6964
648.879	7145
648.937	7640
648.995	7348
649.053	7188
649.111	9445
649.169	9700
649.227	13204
649.285	19468
649.343	47250
649.401	29755
649.459	21053
649.516	17520
649.574	15697
649.632	34156
649.690	43303
649.748	18529
649.806	23207
649.863	36437
649.921	19898
649.979	11211
650.037	8686
650.094	5696
650.152	7633
650.210	6961
650.268	7680
650.325	7011
650.383	7637
650.440	5642
650.498	7348
650.556	6821
650.613	6714
650.671	6855
650.728	7099
650.786	6846
650.843	6728
650.901	5361
650.958	6719
651.016	6486
651.073	7383
651.131	5680
651.188	6165
651.246	6186
651.303	6241
651.360	6322
651.418	5406
651.475	6339
651.532	6664
651.590	6856
651.647	6140
651.704	6454
651.762	6199
651.819	6664
651.876	5552
651.933	6343
651.990	6968
652.048	4182
652.105	5917
652.162	7600
652.219	5083
652.276	6818
652.333	6504
652.390	4709
652.448	5993
652.505	5863
652.562	8331
652.619	8347
652.676	17306
652.733	17634
652.790	7090
652.847	4772
652.904	6297
652.961	4896
653.017	4947
653.074	6240
653.131	6114
653.188	4356
653.245	5980
653.302	6110
653.359	5352
653.415	5674
653.472	4963
653.529	5911
653.586	5146
653.642	4838
653.699	6061
653.756	4813
653.813	5670
653.869	5532
653.926	5281
653.983	5135
654.039	5871
654.096	5386
654.152	7195
654.209	4876
654.266	6453
654.322	4949
654.379	7360
654.435	6333
654.492	6572
654.548	8270
654.605	11494
654.661	7848
654.717	5595
654.774	6111
654.830	5903
654.887	5739
654.943	6440
655.000	6211
655.056	6508
655.112	6221
655.168	5744
655.225	6389
655.281	7481
655.337	7617
655.394	12014
655.450	8737
655.506	8063
655.562	10482
655.618	11016
655.675	4716
655.731	5479
655.787	5398
655.843	6681
655.899	4316
655.955	6077
656.011	5627
656.067	3716
656.123	4836
656.179	5141
656.235	6159
656.291	4191
656.347	6313
656.403	4795
656.459	4897
656.515	5956
656.571	6429
656.627	6277
656.683	5112
656.739	6330
656.795	4964
656.850	5985
656.906	5491
656.962	5933
657.018	4616
657.074	4605
657.129	5685
657.185	6073
657.241	5738
657.297	5366
657.352	6149
657.408	5132
657.464	6379
657.519	5185
657.575	4230
657.630	5454
657.686	5386
657.742	4413
657.797	5422
657.853	5100
657.908	6746
657.964	4821
658.019	5595
658.075	5769
658.130	6475
658.186	4749
658.241	5309
658.297	4554
658.352	5384
658.407	5417
658.463	4173
658.518	5797
658.573	5188
658.629	4448
658.684	5055
658.739	6120
658.795	3804
658.850	5265
658.905	4857
658.960	4897
659.016	4224
659.071	5152
659.126	4509
659.181	5563
659.236	7197
659.291	8787
659.346	6684
659.401	7998
659.457	10548
659.512	13567
659.567	8059
659.622	5556
659.677	3923
659.732	4063
659.787	4863
659.842	5255
659.897	7206
659.952	6398
660.007	5012
660.061	5038
660.116	4457
660.171	4341
660.226	5099
660.281	6115
660.336	4288
660.391	5705
660.445	4217
660.500	4772
660.555	4809
660.610	3819
660.664	5025
660.719	4741
660.774	5593
660.828	6054
660.883	4832
660.938	5590
660.992	4003
661.047	4902
661.101	4423
661.156	5629
661.211	4071
661.265	4746
661.320	4317
661.374	4717
661.429	5375
661.483	5656
661.538	3983
661.592	5462
661.647	4630
661.701	4872
661.755	5152
661.810	4702
661.864	4123
661.919	3950
661.973	4838
662.027	5145
662.081	4667
662.136	4561
662.190	5481
662.244	5124
662.299	4903
662.353	4640
662.407	4609
662.461	4961
662.515	6040
662.569	4758
662.624	5735
662.678	4635
662.732	4422
662.786	4523
662.840	4742
662.894	5619
662.948	4374
663.002	4396
663.056	4797
663.110	4356
663.164	4744
663.218	5256
663.272	4839
663.326	5605
663.380	4486
663.434	4983
663.488	5140
663.542	4497
663.595	4897
663.649	5116
663.703	4826
663.757	5113
663.811	4680
663.864	4463
663.918	4430
663.972	5084
664.026	3761
664.079	3739
664.133	4621
664.187	4538
664.240	4714
664.294	4494
664.348	5080
664.401	5301
664.455	5001
664.508	4871
664.562	3966
664.615	5276
664.669	4723
664.722	5313
664.776	4342
664.829	5214
664.883	4239
664.936	5364
664.990	5092
665.043	5597
665.097	5571
665.150	6702
665.203	4494
665.257	5363
665.310	5305
665.363	5745
665.417	5507
665.470	4525
665.523	4914
665.576	5675
665.630	4785
665.683	5789
665.736	5089
665.789	5391
665.842	4124
665.895	5615
665.949	4132
666.002	4589
666.055	5290
666.108	5244
666.161	5424
666.214	5722
666.267	4771
666.320	5862
666.373	5431
666.426	5802
666.479	4653
666.532	4971
666.585	5120
666.638	5522
666.691	4765
666.744	6496
666.796	5950
666.849	6129
666.902	5472
666.955	4228
667.008	4549
667.060	4582
667.113	3589
667.166	4249
667.219	4941
667.271	4970
667.324	5021
667.377	5452
667.430	5215
667.482	7854
667.535	6443
667.587	5041
667.640	5297
667.693	7068
667.745	7538
667.798	8237
667.850	4446
667.903	4884
667.955	4918
668.008	4518
668.060	5652
668.113	6086
668.165	5170
668.218	6210
668.270	5441
668.322	5720
668.375	4709
668.427	5819
668.479	4542
668.532	5191
668.584	5461
668.636	4883
668.689	5947
668.741	4272
668.793	4887
668.845	6013
668.898	4731
668.950	4708
669.002	4852
669.054	4902
669.106	4391
669.158	6062
669.211	5544
669.263	6654
669.315	8414
669.367	9372
669.419	6675
669.471	6652
669.523	6341
669.575	8276
669.627	6192
669.679	6484
669.731	5242
669.783	6103
669.835	5804
669.886	6199
669.938	5536
669.990	6392
670.042	6147
670.094	6209
670.146	5917
670.197	6679
670.249	8517
670.301	9716
670.353	12196
670.404	17171
670.456	23034
670.508	37432
670.560	60805
670.611	106142
670.663	185087
670.715	403075
670.766	578342
670.818	218299
670.869	48328
670.921	25445
670.972	17444
671.024	13379
671.075	10437
671.127	9154
671.178	7900
671.230	7989
671.281	6743
671.333	7216
671.384	6548
671.436	6301
671.487	6503
671.538	6422
671.590	6794
671.641	7574
671.692	8148
671.744	9914
671.795	9183
671.846	7016
671.897	5788
671.949	5606
672.000	4899
672.051	5463
672.102	6163
672.153	4957
672.204	5066
672.256	5242
672.307	5485
672.358	5176
672.409	5285
672.460	5676
672.511	5043
672.562	4316
672.613	5399
672.664	4254
672.715	4703
672.766	4987
672.817	4538
672.868	5164
672.919	4681
672.970	4500
673.021	4514
673.071	4561
673.122	4403
673.173	4769
673.224	4519
673.275	4162
673.326	4435
673.376	5357
673.427	3852
673.478	4140
673.528	4597
673.579	5183
673.630	4091
673.680	4899
673.731	4493
673.782	4429
673.832	3693
673.883	4892
673.934	4180
673.984	4367
674.035	5026
674.085	4560
674.136	3840
674.186	5666
674.237	6047
674.287	7703
674.338	5154
674.388	5153
674.438	4096
674.489	3942
674.539	4796
674.589	5191
674.640	4574
674.690	4853
674.740	4491
674.791	5140
674.841	5036
674.891	4066
674.942	3594
674.992	3973
675.042	3205
675.092	3644
675.142	3928
675.193	3872
675.243	3373
675.293	4320
675.343	3775
675.393	5125
675.443	4374
675.493	3858
675.543	4107
675.593	3844
675.643	3761
675.693	4249
675.743	3816
675.793	3933
675.843	3460
675.893	3366
675.943	3821
675.993	4329
676.043	4520
676.093	5215
676.142	4307
676.192	4198
676.242	3489
676.292	3675
676.341	3859
676.391	4578
676.441	2911
676.491	4118
676.540	3250
676.590	3365
676.640	3010
676.689	3856
676.739	2615
676.789	3678
676.838	3090
676.888	3946
676.937	3501
676.987	3788
677.037	3582
677.086	2657
677.136	2208
677.185	4470
677.235	1740
677.284	2926
677.333	3390
677.383	3538
677.432	2679
677.482	3457
677.531	3392
677.580	3083
677.630	2208
677.679	3248
677.728	3432
677.778	3754
677.827	3098
677.876	2954
677.925	2816
677.975	2523
678.024	2875
678.073	3088
678.122	3072
678.171	4458
678.220	3374
678.269	5460
678.319	3893
678.368	4002
678.417	3742
678.466	3998
678.515	3335
678.564	3477
678.613	3460
678.662	3276
678.711	4321
678.760	3238
678.809	3127
678.857	3184
678.906	3192
678.955	4354
679.004	4260
679.053	3465
679.102	2905
679.151	2716
679.199	2483
679.248	3259
679.297	3840
679.346	4088
679.394	3083
679.443	2952
679.492	3476
679.540	3695
679.589	3675
679.638	2617
679.686	2816
679.735	2931
679.784	2474
679.832	2822
679.881	2927
679.929	3681
679.978	2976
680.026	2609
680.075	2902
680.123	3201
680.172	3563
680.220	2312
680.268	3544
680.317	2944
680.365	2802
680.414	2945
680.462	2562
680.510	3630
680.559	2362
680.607	3274
680.655	2621
680.703	3489
680.752	3225
680.800	2870
680.848	2719
680.896	3280
680.945	2562
680.993	1865
681.041	2812
681.089	2036
681.137	1981
681.185	2731
681.233	2952
681.258	2937
681.281	2890
681.329	2012
681.377	3846
681.380	3833
681.425	2983
681.473	4159
681.502	3715
681.521	3347
681.569	3875
681.617	3025
681.624	3098
681.665	3354
681.713	3337
681.745	3618
681.761	3695
681.809	3011
681.857	3844
681.867	3756
681.904	3352
681.952	3769
681.989	3596
682.000	3499
682.048	4570
682.096	3016
682.111	3282
682.143	3743
682.191	3159
682.233	4306
682.239	4444
682.286	3432
682.334	3760
682.354	3778
682.382	3753
682.430	4536
682.476	3871
682.477	3827
682.525	4809
682.572	3534
682.598	3902
682.620	4185
682.667	4157
682.715	4851
682.720	4821
682.763	4213
682.810	4896
682.841	4426
682.857	4176
682.905	4181
682.952	4649
682.963	4761
683.000	4957
683.047	4696
683.085	5420
683.095	5602
683.142	4852
683.190	5017
683.206	4818
683.237	4360
683.284	4632
683.328	5183
683.332	5203
683.379	5085
683.426	5323
683.449	5318
683.473	5257
683.521	4658
683.568	5410
683.571	5437
683.615	5444
683.662	4982
683.693	5347
683.709	5531
683.757	5640
683.804	6156
683.814	6104
683.851	5814
683.898	5962
683.936	5793
683.945	5723
683.992	5814
684.039	6592
684.057	6276
684.086	5734
684.133	6730
684.179	5814
684.180	5764
684.227	6075
684.274	6421
684.300	6729
684.321	6916
684.368	5977
684.415	6094
684.422	6091
684.462	6037
684.509	6617
684.543	6156
684.556	5957
684.603	7052
684.649	6610
684.665	6666
684.696	6762
684.743	7056
684.786	7406
684.790	7419
684.837	7089
684.883	8033
684.908	8032
684.930	8041
684.977	8754
685.023	7670
685.029	7745
685.070	7826
685.117	7476
685.150	7802
685.164	8044
685.210	8173
685.257	9050
685.272	9032
685.303	8723
685.350	8187
685.393	8134
685.396	8125
685.443	8834
685.490	9041
685.514	8565
685.536	8138
685.583	9233
685.629	8641
685.636	8669
685.675	8674
685.722	8344
685.757	8891
685.768	9112
685.815	9098
685.861	9160
685.878	9244
685.908	9240
685.954	8688
686.000	10286
686.000	10306
686.047	9425
686.093	11084
686.121	10271
686.139	9681
686.185	9908
686.232	10013
686.242	9982
686.278	9729
686.324	9260
686.363	9564
686.370	9653
686.416	9709
686.463	10643
686.484	10320
686.509	9880
686.555	9971
686.601	9884
686.606	9969
686.647	10520
686.693	10142
686.727	9845
686.739	9823
686.785	9605
686.831	9995
686.848	10073
686.877	10048
686.923	9675
686.969	9323
686.969	9320
687.015	10146
687.061	9680
687.090	10095
687.107	10298
687.153	9906
687.199	9754
687.211	9678
687.245	9613
687.291	10109
687.332	10295
687.336	10319
687.382	11222
687.428	10965
687.453	11195
687.474	11210
687.520	10426
687.565	10624
687.574	10539
687.611	10301
687.657	10918
687.695	10650
687.702	10646
687.748	10860
687.794	11070
687.816	11111
687.839	10991
687.885	10750
687.931	10901
687.937	10820
687.976	10417
688.022	10530
688.058	10906
688.067	11063
688.113	11303
688.158	10767
688.179	11281
688.204	11760
688.249	11341
688.295	11468
688.300	11501
688.340	11866
688.386	12003
688.421	11361
688.431	11194
688.477	11194
688.522	11553
688.542	11926
688.567	12376
688.613	11872
688.658	11952
688.663	11878
688.703	11444
688.749	12448
688.784	12099
688.794	12010
688.839	12529
688.884	12348
688.905	12456
688.930	12492
688.975	12074
689.020	12191
689.026	12198
689.065	12624
689.110	12550
689.146	12673
689.155	12654
689.201	12525
689.246	12351
689.267	12395
689.291	12536
689.336	12408
689.381	12664
689.388	12611
689.426	12581
689.471	13028
689.509	12945
689.516	12874
689.561	12888
689.606	12520
689.630	12415
689.651	12521
689.696	12889
689.741	12633
689.750	12677
689.785	12811
689.830	12829
689.871	12714
689.875	12724
689.920	12834
689.965	12997
689.992	12948
690.010	13012
690.054	13247
690.099	13859
690.112	13806
690.144	13546
690.189	13577
690.233	13478
690.233	13498
690.278	14071
690.323	14213
690.354	14585
690.367	14722
690.412	14910
690.457	15145
690.474	15164
690.501	15278
690.546	15609
690.590	16033
690.595	16054
690.635	17213
690.680	18346
690.716	19145
690.724	19549
690.769	21810
690.813	25097
690.836	25954
690.857	29118
690.902	37133
690.946	45359
690.957	47463
690.991	66022
691.035	92072
691.077	116638
691.080	116871
691.124	111226
691.168	104948
691.198	101702
691.213	93816
691.257	71678
691.301	48706
691.318	40113
691.346	36424
691.390	30012
691.434	23589
691.439	22870
691.478	21691
691.522	20457
691.559	19052
691.567	18989
691.611	18663
691.655	18126
691.680	17864
691.699	17640
691.743	17331
691.787	17093
691.800	16774
691.831	16552
691.875	17080
691.919	16742
691.921	16724
691.964	16766
692.008	16553
692.041	16587
692.052	16716
692.096	16042
692.139	16557
692.162	16546
692.183	16524
692.227	16569
692.271	16452
692.282	16388
692.315	16589
692.359	17171
692.402	17300
692.403	17328
692.447	17073
692.490	16811
692.523	16429
692.534	16467
692.578	16945
692.622	16880
692.643	17121
692.666	17217
692.709	16966
692.753	16749
692.763	16656
692.797	16856
692.840	17488
692.884	17352
692.884	17387
692.928	17653
692.971	18397
693.004	18828
693.015	18918
693.059	18881
693.102	18883
693.124	18961
693.146	19295
693.189	19902
693.233	20124
693.245	20295
693.276	21555
693.320	22860
693.363	24262
693.365	24267
693.407	26954
693.450	29761
693.485	31785
693.493	32876
693.537	38732
693.580	44378
693.605	47895
693.624	55753
693.667	74103
693.710	93090
693.725	99749
693.753	133936
693.797	189174
693.840	245234
693.845	250752
693.883	241793
693.926	229802
693.966	220272
693.970	215609
694.013	163418
694.056	112213
694.086	76697
694.099	72530
694.142	58977
694.185	45214
694.206	38734
694.229	36728
694.272	32906
694.315	29001
694.326	27851
694.358	26731
694.401	25560
694.444	24167
694.446	24050
694.487	23360
694.530	22228
694.566	21707
694.573	21670
694.616	20643
694.659	19840
694.686	19330
694.702	19295
694.745	19082
694.787	18654
694.806	18533
694.830	18574
694.873	18516
694.916	18315
694.926	18180
694.959	17963
695.002	17988
695.044	17958
695.046	17926
695.087	18309
695.130	18002
695.166	18221
695.172	18318
695.215	18272
695.258	18482
695.286	18473
695.301	18434
695.343	18232
695.386	18107
695.406	17959
695.428	17837
695.471	17525
695.514	17218
695.526	17099
695.556	17191
695.599	17349
695.641	17279
695.646	17268
695.684	17709
695.726	17671
695.766	17980
695.769	18032
695.811	18010
695.854	18010
695.886	17960
695.896	18040
695.938	18256
695.981	18159
696.005	18289
696.023	18360
696.065	18187
696.108	18237
696.125	18033
696.150	18098
696.192	18582
696.235	18810
696.245	18856
696.277	18788
696.319	18576
696.361	18375
696.365	18300
696.404	19191
696.446	20432
696.485	21213
696.488	21223
696.530	20903
696.572	20420
696.604	20059
696.614	19956
696.656	19159
696.698	18564
696.724	18046
696.740	17991
696.783	17926
696.825	17653
696.844	17552
696.867	17762
696.909	17941
696.951	18171
696.964	18203
696.992	18143
697.034	17998
697.076	17776
697.083	17691
697.118	17868
697.160	18175
697.202	18313
697.203	18270
697.244	18046
697.286	17776
697.323	17403
697.327	17471
697.369	17744
697.411	18004
697.442	18135
697.453	18199
697.494	18248
697.536	18362
697.562	18322
697.578	18321
697.620	18267
697.661	18150
697.682	18070
697.703	18153
697.744	18191
697.786	18308
697.801	18271
697.828	18303
697.869	18358
697.911	18237
697.921	18190
697.952	18157
697.994	18045
698.035	17929
698.040	17857
698.077	17853
698.118	17907
698.160	17886
698.160	17837
698.201	17762
698.243	17581
698.279	17449
698.284	17543
698.325	17937
698.367	18326
698.399	18562
698.408	18540
698.449	18254
698.491	17928
698.518	17678
698.532	17704
698.573	17610
698.614	17533
698.638	17444
698.656	17546
698.697	17690
698.738	17803
698.757	17813
698.779	18071
698.820	18469
698.862	18881
698.877	18979
698.903	19099
698.944	19218
698.985	19333
698.996	19316
699.026	18950
699.067	18369
699.116	17630
699.235	19045
699.354	17717
699.474	18683
699.593	18301
699.713	18616
699.832	19082
699.951	18719
700.070	17580
700.190	18307
700.309	17985
700.428	18341
700.547	18126
700.667	17597
700.786	18000
700.905	17334
701.024	17674
701.143	17476
701.262	17321
701.381	17703
701.500	17152
701.619	18056
701.738	16395
701.857	18072
701.976	16614
702.095	16619
702.214	17618
702.333	16321
702.452	17193
702.571	17524
702.690	16580
702.809	16343
702.928	16344
703.047	16645
703.165	16089
703.284	15910
703.403	15261
703.522	17416
703.640	16705
703.759	16388
703.878	18363
703.997	16063
704.115	15868
704.234	16607
704.353	15366
704.471	15402
704.590	15674
704.708	15016
704.827	15604
704.946	16047
705.064	16392
705.183	16638
705.301	17693
705.420	24168
705.538	23198
705.656	21781
705.775	22754
705.893	37522
706.012	48764
706.130	21423
706.249	20569
706.367	20533
706.485	20035
706.604	20474
706.722	19942
706.840	20644
706.958	20845
707.077	19782
707.195	18711
707.313	18788
707.431	19076
707.549	18651
707.668	19064
707.786	19420
707.904	17856
708.022	18998
708.140	17810
708.258	17660
708.376	18864
708.494	18016
708.612	19103
708.730	25291
708.848	24807
708.966	22145
709.084	21184
709.202	21627
709.320	21583
709.438	21513
709.556	23109
709.674	22080
709.791	21387
709.909	21475
710.027	20912
710.145	21048
710.263	21576
710.380	20378
710.498	20589
710.616	19992
710.733	19480
710.851	19572
710.969	20022
711.086	19276
711.204	20713
711.322	19169
711.439	19413
711.557	18936
711.674	19951
711.792	18876
711.909	21122
712.027	23861
712.144	19622
712.262	19053
712.379	20636
712.497	26886
712.614	28632
712.732	24301
712.849	22207
712.966	22520
713.084	24357
713.201	23472
713.318	24078
713.436	22005
713.553	23548
713.670	22446
713.787	23469
713.905	23751
714.022	22161
714.139	22291
714.256	21608
714.373	22305
714.490	22624
714.608	24766
714.725	41532
714.842	45283
714.959	22915
715.076	21150
715.193	21753
715.310	20333
715.427	20765
715.544	19434
715.661	19796
715.778	20233
715.895	22054
716.011	20480
716.128	19960
716.245	20018
716.362	20192
716.479	20107
716.596	20191
716.713	19510
716.829	19575
716.946	20550
717.063	19545
717.180	19228
717.296	18939
717.413	18897
717.530	18855
717.646	18664
717.763	18656
717.880	17386
717.996	17553
718.113	17881
718.229	17253
718.346	17700
718.462	17534
718.579	17520
718.695	19283
718.812	19580
718.928	18188
719.045	17835
719.161	16385
719.277	17416
719.394	16806
719.510	17969
719.626	16425
719.743	19607
719.859	18437
719.975	18194
720.092	21593
720.208	28719
720.324	19433
720.440	16977
720.557	18099
720.673	18421
720.789	21431
720.905	32359
721.021	20205
721.137	17063
721.253	16553
721.369	16350
721.486	17992
721.602	18610
721.718	16445
721.834	15904
721.950	15835
722.066	15094
722.181	15009
722.297	15219
722.413	15324
722.529	15219
722.645	14752
722.761	14610
722.877	14713
722.993	14370
723.108	15270
723.224	15008
723.340	14570
723.456	14016
723.571	14314
723.687	13884
723.803	14952
723.918	13721
724.034	14747
724.150	14339
724.265	14517
724.381	18338
724.497	20747
724.612	14519
724.728	13123
724.843	13418
724.959	14820
725.074	16960
725.190	19133
725.305	14226
725.421	13478
725.536	12696
725.651	13180
725.767	13069
725.882	13104
725.997	13908
726.113	12820
726.228	12724
726.343	13298
726.459	12501
726.574	13567
726.689	12197
726.804	12686
726.920	13683
727.035	12968
727.150	12554
727.265	12827
727.380	13561
727.495	12951
727.610	11801
727.725	13403
727.841	15426
727.956	24758
728.071	22139
728.186	12840
728.301	11449
728.416	12650
728.531	12190
728.645	12357
728.760	11586
728.875	12032
728.990	11031
729.105	11207
729.220	11361
729.335	11453
729.449	11440
729.564	11551
729.679	11636
729.794	11338
729.908	11445
730.023	11643
730.138	10084
730.253	11810
730.367	10981
730.482	11491
730.596	11052
730.711	10820
730.826	11513
730.940	11123
731.055	11498
731.169	10782
731.284	10736
731.398	10874
731.513	11632
731.627	10943
731.742	10989
731.856	11530
731.970	10231
732.085	9700
732.199	10603
732.313	10790
732.428	11872
732.542	15487
732.656	13602
732.771	10663
732.885	10424
732.999	11701
733.113	10780
733.227	10749
733.342	10680
733.456	10385
733.570	10146
733.684	9975
733.798	10225
733.912	10740
734.026	9664
734.140	10237
734.254	10071
734.368	11974
734.482	14684
734.596	9425
734.710	10157
734.824	9751
734.938	9964
735.052	10644
735.166	10734
735.280	10755
735.393	9567
735.507	9709
735.621	11065
735.735	12383
735.849	10199
735.962	10357
736.076	9977
736.190	10719
736.303	10714
736.417	12460
736.531	9519
736.644	9790
736.758	9877
736.872	10030
736.985	10235
737.099	9834
737.212	8695
737.326	10625
737.439	9619
737.553	10355
737.666	9335
737.780	9005
737.893	9253
738.007	9575
738.120	9184
738.233	9586
738.347	8958
738.460	9008
738.573	10296
738.687	10108
738.800	9781
738.913	9855
739.026	9464
739.140	10068
739.253	10385
739.366	9397
739.479	9087
739.592	9175
739.705	9231
739.818	9934
739.932	9181
740.045	9458
740.158	10092
740.271	9524
740.384	9100
740.497	9792
740.610	10437
740.723	9209
740.836	9729
740.949	9384
741.062	9166
741.174	9802
741.287	10027
741.400	8771
741.513	8540
741.626	9761
741.739	9332
741.851	8913
741.964	8539
742.077	9312
742.189	9476
742.302	9863
742.415	9086
742.527	9887
742.640	9660
742.753	9417
742.865	9168
742.978	9986
743.090	9711
743.203	9257
743.316	9409
743.428	9027
743.541	10271
743.653	9615
743.766	9269
743.878	9499
743.990	9580
744.103	10268
744.215	8761
744.327	9689
744.440	10572
744.552	10844
744.664	9681
744.777	10120
744.889	8446
745.001	9317
745.113	9419
745.226	9687
745.338	9907
745.450	9606
745.562	8480
745.674	9477
745.786	9419
745.898	9554
746.010	9898
746.122	9594
746.234	9316
746.347	8930
746.459	9475
746.570	9639
746.682	9876
746.794	8999
746.906	9350
747.018	9867
747.130	9752
747.242	9162
747.354	8838
747.466	10716
747.577	9559
747.689	9621
747.801	9626
747.913	9599
748.024	9623
748.136	8848
748.248	8897
748.359	9746
748.471	9295
748.583	9639
748.694	9888
748.806	12358
748.918	9503
749.029	10743
749.141	11036
749.252	9746
749.364	9625
749.475	11645
749.587	11259
749.698	9484
749.809	10315
749.921	10538
750.032	10203
750.144	9327
750.255	9156
750.366	9714
750.478	9338
750.589	9970
750.700	9946
750.811	9163
750.923	10317
751.034	11050
751.145	11622
751.256	9925
751.367	10224
751.479	9827
751.590	10062
751.701	10505
751.812	9954
751.923	11031
752.034	10631
752.145	10035
752.256	10330
752.367	10695
752.478	9943
752.589	10778
752.700	10172
752.811	10801
752.922	11179
753.032	9974
753.143	10698
753.254	10785
753.365	11477
753.476	10210
753.586	10375
753.697	10620
753.808	11034
753.919	11397
754.029	10361
754.140	10763
754.251	11083
754.361	10919
754.472	10930
754.582	10675
754.693	11487
754.804	11198
754.914	10698
755.025	11184
755.135	11399
755.246	11686
755.356	10819
755.466	11992
755.577	12813
755.687	12554
755.798	11649
755.908	12224
756.018	12334
756.129	12463
756.239	12398
756.349	12800
756.460	11987
756.570	13445
756.680	12066
756.790	12488
756.900	13565
757.011	12796
757.121	13306
757.231	13654
757.341	13493
757.451	14131
757.561	13045
757.671	13436
757.781	13991
757.891	14327
758.001	14159
758.111	14275
758.221	15283
758.331	15189
758.441	15646
758.551	15112
758.661	15112
758.771	16332
758.880	15250
758.990	16595
759.100	16524
759.210	16901
759.320	17086
759.429	17202
759.539	17474
759.649	17927
759.758	17683
759.868	19665
759.978	17873
760.087	18857
760.197	19056
760.307	20122
760.416	19415
760.526	19936
760.635	21154
760.745	21126
760.854	21655
760.964	23285
761.073	22587
761.182	23120
761.292	24220
761.401	24917
761.511	24426
761.620	25911
761.729	26401
761.839	28742
761.948	29289
762.057	28879
762.166	29627
762.276	29415
762.385	32156
762.494	33006
762.603	33415
762.712	35207
762.822	36928
762.931	38348
763.040	38930
763.149	39991
763.258	42587
763.367	44093
763.476	46241
763.585	49505
763.694	51657
763.803	55508
763.912	57982
764.021	60593
764.130	65626
764.238	69394
764.347	74746
764.456	80272
764.565	87501
764.674	94890
764.783	102261
764.891	115915
765.000	130488
765.109	144673
765.217	164710
765.326	191491
765.435	224591
765.543	264787
765.652	323285
765.761	404561
765.869	509378
765.978	657972
766.086	852948
766.195	1058315
766.303	1134597
766.412	795316
766.520	843684
766.629	1077286
766.737	984973
766.846	800580
766.954	627577
767.062	493520
767.171	391755
767.279	316712
767.387	259416
767.496	218836
767.604	188253
767.712	163439
767.820	147732
767.928	135735
768.037	125794
768.145	117672
768.253	113533
768.361	110145
768.469	108357
768.577	110815
768.685	115879
768.793	124578
768.901	134445
769.009	154797
769.117	185833
769.225	231716
769.333	307743
769.441	427217
769.549	628463
769.657	911307
769.765	1036888
769.873	783725
769.981	948789
770.088	849695
770.196	627330
770.304	456576
770.412	342361
770.519	268178
770.627	217012
770.735	179581
770.842	150565
770.950	131168
771.058	114578
771.165	103945
771.273	90520
771.380	83188
771.488	76973
771.595	70489
771.703	63038
771.810	61766
771.918	56897
772.025	53500
772.133	49177
772.240	48044
772.348	44990
772.455	41853
772.562	40379
772.670	38725
772.777	38066
772.884	35656
772.991	33672
773.099	32816
773.206	31915
773.313	31006
773.420	30057
773.528	27886
773.635	26978
773.742	26072
773.849	25500
773.956	24839
774.063	25092
774.170	23427
774.277	22284
774.384	22820
774.491	22109
774.598	21507
774.705	21218
774.812	21814
774.919	20341
775.026	20409
775.133	20155
775.239	19519
775.346	19235
775.453	18300
775.560	18095
775.667	17724
775.773	17659
775.880	17577
775.987	16610
776.093	18127
776.200	15702
776.307	15905
776.413	15652
776.520	16149
776.627	14855
776.733	15396
776.840	13358
776.946	15189
777.053	14474
777.159	14017
777.266	13022
777.372	14169
777.478	12691
777.585	14248
777.691	13068
777.798	13053
777.904	13966
778.010	14465
778.117	12761
778.223	11980
778.329	12096
778.435	12572
778.542	12547
778.648	11225
778.754	10979
778.860	11567
778.966	11666
779.072	12540
779.178	11377
779.284	12022
779.391	12320
779.497	13557
779.603	18955
779.708	28147
779.815	62944
779.920	202142
780.026	341005
780.132	80800
780.238	23148
780.344	16435
780.450	14204
780.556	13446
780.661	11185
780.767	10753
780.873	9317
780.979	10117
781.085	8905
781.190	10078
781.296	8749
781.402	9103
781.507	9102
781.613	8730
781.719	8968
781.824	8896
781.930	9351
782.035	9147
782.141	8477
782.246	8705
782.352	8230
782.457	8384
782.563	7860
782.668	7394
782.773	7876
782.879	7576
782.984	8366
783.090	9001
783.195	7331
783.300	8264
783.405	7966
783.511	7463
783.616	8394
783.721	6982
783.826	7028
783.932	8547
784.037	7781
784.142	7646
784.247	7121
784.352	7187
784.457	7495
784.562	7630
784.667	6229
784.772	7489
784.877	6637
784.982	7662
785.087	6566
785.192	7162
785.297	6564
785.402	5985
785.507	6613
785.611	6914
785.716	6315
785.821	5840
785.926	5598
786.031	5832
786.135	5625
786.240	6763
786.345	5005
786.450	6970
786.554	5160
786.659	5166
786.763	4935
786.868	6405
786.973	6732
787.077	6286
787.182	6143
787.286	6283
787.391	6295
787.495	5889
787.600	6098
787.704	5849
787.809	5829
787.913	5512
788.017	6110
788.122	6291
788.226	5510
788.330	4905
788.435	6263
788.539	5827
788.643	5219
788.747	5961
788.852	6093
788.956	5043
789.060	6013
789.164	5801
789.268	3994
789.372	5055
789.476	5052
789.580	5011
789.684	4719
789.788	5256
789.892	4219
789.996	5694
790.100	4576
790.204	5530
790.308	4755
790.412	5104
790.516	5750
790.620	5603
790.724	5212
790.828	4823
790.931	4724
791.035	6644
791.139	6010
791.242	4564
791.346	5404
791.450	5128
791.554	4523
791.657	4108
791.761	5383
791.864	5465
791.968	4354
792.072	5258
792.175	3958
792.279	5117
792.382	4126
792.486	4549
792.589	4751
792.693	5932
792.796	4204
792.899	4926
793.003	4856
793.106	3097
793.209	3979
793.313	4774
793.416	3247
793.519	5752
793.623	5492
793.726	5762
793.829	5299
793.932	5508
794.035	4813
794.138	5636
794.242	6340
794.345	8211
794.448	15501
794.551	34997
794.654	112076
794.757	221913
794.860	50642
794.963	11504
795.066	7465
795.169	7897
795.272	5080
795.375	6373
795.477	4999
795.580	5320
795.683	3750
795.786	5043
795.889	3554
795.991	4365
796.094	4955
796.197	4006
796.300	5165
796.402	2937
796.505	3422
796.608	4464
796.710	4245
796.813	3963
796.915	3985
797.018	4692
797.120	4379
797.223	3580
797.326	4586
797.428	3859
797.530	2962
797.633	3294
797.735	4688
797.838	4278
797.940	5031
798.042	3078
798.145	4220
798.247	4249
798.349	2722
798.452	4522
798.554	3294
798.656	2498
798.758	4618
798.860	3673
798.962	3278
799.065	3529
799.167	3287
799.269	3889
799.371	3698
799.473	3587
799.575	3312
799.677	4226
799.779	3974
799.881	3132
799.983	4279
800.085	2942
800.187	3491
800.289	3008
800.390	3896
800.492	3430
800.594	4378
800.696	3906
800.798	2563
800.899	3148
801.001	3330
801.103	2871
801.205	3236
801.306	3721
801.408	2928
801.509	3445
801.611	3461
801.713	3146
801.814	2199
801.916	2766
802.017	2849
802.119	2832
802.220	2915
802.322	1698
802.423	4889
802.525	2919
802.626	3142
802.727	3243
802.829	3406
802.930	1798
803.031	4127
803.133	3906
803.234	2356
803.335	2450
803.436	1846
803.538	4683
803.639	2117
803.740	3331
803.841	2602
803.942	3830
804.043	2984
804.144	3007
804.245	2341
804.346	2645
804.447	2069
804.548	3583
804.649	3791
804.750	2358
804.851	2514
804.952	3774
805.053	2991
805.154	3090
805.255	4058
805.355	2454
805.456	2714
805.557	2429
805.658	2442
805.758	3751
805.859	3421
805.960	2811
806.061	1799
806.161	2081
806.262	3319
806.362	2125
806.463	2943
806.564	2821
806.664	2626
806.765	1610
806.865	3720
806.966	1837
807.066	2287
807.166	3129
807.267	2337
807.367	2092
807.468	3042
807.568	1587
807.668	2312
807.769	3703
807.869	1718
807.969	2845
808.069	1750
808.170	3113
808.270	1988
808.370	3264
808.470	2214
808.570	1754
808.670	2558
808.770	2720
808.870	2405
808.970	2995
809.070	2513
809.170	2839
809.271	3095
809.370	1797
809.470	2030
809.570	1479
809.670	2027
809.770	2724
809.870	3904
809.970	3329
810.070	1763
810.169	2917
810.269	1163
810.369	3629
810.469	2063
810.568	1978
810.668	2369
810.768	1934
810.867	2534
810.967	2614
811.066	1459
811.166	2217
811.265	2679
811.365	2190
811.464	1026
811.564	2404
811.663	2613
811.763	1272
811.862	2186
811.962	2678
812.061	1213
812.160	2290
812.260	1879
812.359	3149
812.458	3438
812.557	4436
812.657	6840
812.756	4145
812.855	2708
812.954	2257
813.053	2934
813.153	2789
813.252	567
813.351	2953
813.450	2215
813.549	2671
813.648	2459
813.747	1857
813.846	2399
813.945	2190
814.044	2438
814.143	1665
814.242	2821
814.341	1304
814.439	1253
814.538	1996
814.637	2240
814.736	2561
814.835	3579
814.933	1875
815.032	2646
815.131	1749
815.229	2005
815.328	3091
815.427	2736
815.525	2287
815.624	1940
815.722	2256
815.821	2912
815.919	2438
816.018	1742
816.116	2887
816.215	2771
816.313	3658
816.412	3179
816.510	3186
816.609	4510
816.707	4097
816.805	3266
816.904	3948
817.002	4643
817.100	4737
817.198	4909
817.296	5146
817.395	6112
817.493	7855
817.591	7799
817.689	10764
817.787	14429
817.885	21952
817.983	35417
818.081	69830
818.179	145848
818.277	306301
818.375	289943
818.473	126190
818.571	56372
818.669	35309
818.767	29468
818.865	27642
818.963	30878
819.061	42322
819.158	67658
819.256	126089
819.354	244569
819.452	405083
819.549	312013
819.647	159986
819.745	78693
819.842	46354
819.940	31012
820.038	22869
820.135	17099
820.233	14377
820.330	10844
820.428	9488
820.525	8843
820.623	7546
820.720	6305
820.818	6470
820.915	6182
821.012	5704
821.110	4395
821.207	5226
821.304	4084
821.402	4147
821.499	4895
821.596	4143
821.693	3380
821.791	4475
821.888	3488
821.985	3707
822.082	3306
822.179	3998
822.276	3765
822.373	3001
822.470	1799
822.567	2935
822.664	2116
822.761	3504
822.858	2593
822.955	2403
823.052	2546
823.149	2087
823.246	2583
823.343	1958
823.440	2742
823.536	2282
823.633	1937
823.730	2113
823.827	1937
823.923	2196
824.020	3235
824.117	1503
824.213	1567
824.310	2102
824.407	1438
824.503	2273
824.600	1981
824.696	1584
824.793	2569
824.889	1713
824.986	2278
825.082	1699
825.179	1990
825.275	2090
825.371	1124
825.468	2762
825.564	917
825.660	2401
825.757	845
825.853	2589
825.949	1989
826.045	1559
826.142	1164
826.238	2314
826.334	1885
826.430	1443
826.526	2177
826.622	1636
826.718	1945
826.814	1148
826.910	2352
827.006	2188
827.102	1132
827.198	2196
827.294	1251
827.390	1736
827.486	1631
827.582	940
827.678	717
827.774	2211
827.869	1669
827.965	2494
828.061	802
828.157	1350
828.252	1509
828.348	1397
828.444	2644
828.539	1727
828.635	479
828.731	2039
828.826	350
828.922	1635
829.017	1056
829.113	969
829.208	1630
829.304	1000
829.399	2207
829.495	732
829.590	2327
829.685	963
829.781	1563
829.876	904
829.971	1449
830.066	1457
830.162	1389
830.257	609
830.352	747
830.447	2471
830.543	1458
830.638	-140
830.733	2060
830.828	569
830.923	1949
831.018	972
831.113	715
831.208	609
831.303	1313
831.398	474
831.493	1488
831.588	1606
831.683	169
831.778	1370
831.873	727
831.967	1741
832.062	850
832.157	990
832.252	2045
832.346	892
832.441	2220
832.536	1816
832.631	3037
832.725	2723
832.820	757
832.914	851
833.009	715
833.104	986
833.198	1628
833.293	966
833.387	1197
833.482	787
833.576	1427
833.670	2457
833.765	733
833.859	754
833.954	1001
834.048	928
834.142	1074
834.237	611
834.331	1110
834.425	914
834.519	286
834.613	1167
834.708	1167
834.802	1233
834.896	479
834.990	868
835.084	1624
835.178	919
835.272	265
835.366	915
835.460	2201
835.554	1179
835.648	995
835.742	950
835.836	778
835.930	419
836.024	676
836.117	1915
836.211	736
836.305	1930
836.399	1468
836.493	496
836.586	1503
836.680	633
836.774	501
836.867	1953
836.961	48
837.055	1087
837.148	-197
837.242	72
837.335	11
837.429	1407
837.522	1382
837.616	356
837.709	1618
837.803	853
837.896	1509
837.989	514
838.083	1650
838.176	1517
838.269	2247
838.363	1894
838.456	507
838.549	1228
838.642	1117
838.735	2935
838.829	2205
838.922	1406
839.015	251
839.108	406
839.201	1188
839.294	656
839.387	1986
839.480	468
839.573	550
839.666	1955
839.759	987
839.852	765
839.945	1319
840.038	1306
840.131	1509
840.223	476
840.316	1527
840.409	828
840.502	1290
840.594	1607
840.687	-211
840.780	1022
840.873	437
840.965	1163
841.058	1078
841.150	1899
841.243	1358
841.336	771
841.428	596
841.521	1142
841.613	70
841.706	853
841.798	483
841.890	467
841.983	84
842.075	1485
842.167	746
842.260	1155
842.352	1419
842.444	1783
842.537	1828
842.629	3062
842.721	739
842.813	862
842.905	686
842.997	1258
843.090	834
843.182	446
843.274	2281
843.366	4121
843.458	8269
843.550	5164
843.642	1027
843.734	1407
843.826	909
843.918	849
844.009	1257
844.101	1202
844.193	441
844.285	1317
844.377	1092
844.469	873
844.560	999
844.652	383
844.744	1268
844.835	750
844.927	1302
845.019	967
845.110	814
845.202	86
845.293	853
845.385	1063
845.476	211
845.568	735
845.659	244
845.751	1776
845.842	441
845.934	490
846.025	840
846.116	1035
846.208	638
846.299	500
846.390	554
846.482	982
846.573	1596
846.664	647
846.755	523
846.846	1857
846.937	21
847.029	-199
847.120	586
847.211	150
847.302	1572
847.393	89
847.484	1247
847.575	1066
847.666	709
847.757	439
847.847	498
847.938	1192
848.029	1218
848.120	230
848.211	672
848.302	588
848.392	593
848.483	1512
848.574	464
848.664	201
848.755	375
848.846	1287
848.936	1218
849.027	964
849.118	685
849.208	457
849.299	509
849.389	625
849.480	1171
849.570	732
849.661	1322
849.751	1836
849.841	1230
849.932	405
850.022	753
850.112	1198
850.203	-336
850.293	150
850.383	725
850.474	542
850.564	246
850.654	766
850.744	763
850.834	1357
850.924	-79
851.014	847
851.104	680
851.194	-131
851.284	1197
851.374	2038
851.464	1042
851.554	1499
851.644	465
851.734	2151
851.824	2684
851.914	4213
852.004	8705
852.094	10802
852.183	2803
852.273	661
852.363	723
852.452	738
852.542	646
852.632	139
852.721	695
852.811	1057
852.901	1751
852.990	1090
853.080	235
853.169	286
853.259	848
853.348	-164
853.438	109
853.527	950
853.617	233
853.706	873
853.795	805
853.885	2144
853.974	2510
854.063	3706
854.152	4396
854.242	2132
854.331	233
854.420	467
854.509	533
854.598	730
854.687	821
854.777	681
854.866	440
854.955	1697
855.044	544
855.133	993
855.222	494
855.311	159
855.400	755
855.488	-308
855.577	-221
855.666	710
855.755	1235
855.844	485
855.933	1193
856.021	1109
856.110	840
856.199	1206
856.288	-383
856.376	669
856.465	319
856.554	1235
856.642	178
856.731	1304
856.819	918
856.908	556
856.996	491
857.085	411
857.173	449
857.262	143
857.350	252
857.438	800
857.527	840
857.615	415
857.703	603
857.792	124
857.880	-427
857.968	-126
858.056	557
858.145	601
858.233	450
858.321	961
858.409	219
858.497	310
858.585	-497
858.673	469
858.761	331
858.849	726
858.937	-889
859.025	47
859.113	903
859.201	-666
859.289	325
859.377	-21
859.465	511
859.552	657
859.640	-9
859.728	74
859.816	-14
859.903	-13
859.991	-235
860.079	896
860.166	-196
860.254	98
860.342	-118
860.429	-416
860.517	-682
860.604	408
860.692	395
860.779	-209
860.867	240
860.954	606
861.042	327
861.129	1083
861.216	686
861.304	92
861.391	-3
861.478	372
861.565	742
861.653	979
861.740	579
861.827	512
861.914	659
862.001	168
862.089	313
862.176	605
862.263	-406
862.350	520
862.437	-188
862.524	224
862.611	281
862.698	935
862.785	134
862.871	395
862.958	-346
863.045	285
863.132	-222
863.219	-299
863.306	-730
863.392	858
863.479	-310
863.566	226
863.652	175
863.739	650
863.826	454
863.912	121
863.999	-181
864.086	90
864.172	-254
864.259	515
864.345	449
864.432	342
864.518	171
864.604	87
864.691	20
864.777	546
864.863	333
864.950	979
865.036	-73
865.122	91
865.209	523
865.295	1440
865.381	-245
865.467	42
865.553	-213
865.639	-374
865.726	162
865.812	238
865.898	1117
865.984	1072
866.070	1889
866.156	2898
866.242	789
866.328	-362
866.414	-286
866.499	236
866.585	-10
866.671	-215
866.757	266
866.843	143
866.928	29
867.014	-410
867.100	-398
867.186	-267
867.271	-354
867.357	515
867.442	763
867.528	203
867.614	1068
867.699	181
867.785	391
867.870	-134
867.956	203
868.041	1079
868.127	-41
868.212	247
868.297	-146
868.383	225
868.468	168
868.553	885
868.639	686
868.724	2327
868.809	1908
868.894	884
868.979	-375
869.065	532
869.150	-540
869.235	731
869.320	-314
869.405	191
869.490	-91
869.575	-234
869.660	-756
869.745	788
869.830	-642
869.915	-394
870.000	-157
870.085	-244
870.169	259
870.254	808
870.339	-577
870.424	-1131
870.509	1091
870.593	-301
870.678	-275
870.763	342
870.847	246
870.932	-646
871.016	930
871.101	14
871.186	-530
871.270	-41
871.355	-486
871.439	506
871.523	-109
871.608	-57
871.692	-428
871.777	438
871.861	-211
871.945	-12
872.030	417
872.114	571
872.198	-315
872.282	846
872.367	-313
872.451	-224
872.535	-434
872.619	155
872.703	-293
872.787	-29
872.871	-288
872.955	-370
873.039	-86
873.123	-415
873.207	286
873.291	306
873.375	-614
873.459	-153
873.543	-120
873.627	-439
873.711	-284
873.794	-454
873.878	-563
873.962	-694
874.045	-243
874.129	-515
874.137	-505
874.213	-400
874.245	-290
874.296	-111
874.352	-146
874.380	-166
874.460	-110
874.464	-108
874.547	199
874.568	264
874.631	458
874.676	-97
874.714	-570
874.784	234
874.798	396
874.881	924
874.892	860
874.965	449
874.999	-98
875.048	-878
875.107	-359
875.131	-145
875.215	268
875.215	268
875.298	-177
875.323	-346
875.381	-720
875.430	-463
875.465	-280
875.538	133
875.548	189
875.631	-556
875.646	-556
875.714	-560
875.753	-408
875.798	-249
875.861	-385
875.881	-419
875.964	-325
875.968	-314
876.047	-94
876.076	-29
876.130	24
876.183	-141
876.213	-185
876.291	-129
876.296	-132
876.379	-428
876.398	-375
876.462	-214
876.506	-3
876.545	197
876.613	104
876.628	93
876.711	-155
876.721	-119
876.794	217
876.828	51
876.877	-305
876.935	-338
876.960	-287
877.043	-241
877.043	-241
877.125	-229
877.150	-73
877.208	240
877.258	229
877.291	323
877.365	-143
877.374	-214
877.456	80
877.472	-4
877.539	-347
877.579	-321
877.622	-371
877.687	-428
877.704	-379
877.787	-34
877.794	-27
877.869	-153
877.901	-140
877.952	12
878.008	346
878.034	435
878.115	92
878.117	87
878.199	-251
878.222	-281
878.282	-372
878.329	-112
878.364	128
878.437	82
878.447	55
878.529	-235
878.544	-186
878.611	49
878.651	-334
878.694	-694
878.758	-134
878.776	70
878.858	137
878.865	197
878.941	586
878.972	285
879.023	-143
879.078	-218
879.105	-181
879.185	208
879.187	212
879.269	363
879.292	191
879.351	-22
879.399	96
879.433	92
879.506	316
879.516	335
879.598	-177
879.613	-127
879.680	475
879.720	487
879.762	244
879.827	-162
879.844	-232
879.926	126
879.933	117
880.007	179
880.040	129
880.089	-107
880.147	-204
880.171	-96
880.253	735
880.254	734
880.335	418
880.360	424
880.417	636
880.467	677
880.499	829
880.574	1480
880.580	1451
880.662	354
880.680	194
880.744	132
880.787	23
880.825	-32
880.893	-42
880.907	-90
880.989	-279
881.000	-344
881.070	2
881.106	377
881.152	372
881.213	300
881.233	302
881.315	462
881.319	438
881.396	372
881.426	319
881.478	-61
881.532	-101
881.559	42
881.639	492
881.641	492
881.722	213
881.745	2
881.803	-3
881.852	262
881.885	124
881.958	77
881.966	122
882.047	434
882.064	460
882.129	566
882.171	632
882.210	638
882.277	929
882.291	1068
882.372	1076
882.383	1098
882.454	287
882.489	36
882.535	161
882.596	25
882.616	-45
882.697	-0
882.702	-17
882.778	-262
882.808	-84
882.859	447
882.914	426
882.940	350
883.020	624
883.021	628
883.102	198
883.127	141
883.183	33
883.233	170
883.264	276
883.339	395
883.345	408
883.426	280
883.445	288
883.507	257
883.551	57
883.587	124
883.657	694
883.668	726
883.749	536
883.763	517
883.830	449
883.869	460
883.910	454
883.975	441
883.991	448
884.072	156
884.081	145
884.152	230
884.187	357
884.233	291
884.292	-95
884.314	28
884.394	1007
884.398	1014
884.475	347
884.504	212
884.555	345
884.610	758
884.636	870
884.716	1041
884.716	1045
884.797	581
884.821	583
884.877	511
884.927	209
884.958	154
885.033	305
885.038	314
885.118	339
885.139	337
885.199	224
885.244	96
885.279	105
885.350	143
885.359	192
885.439	697
885.456	773
885.520	408
885.561	283
885.600	556
885.667	784
885.680	833
885.760	875
885.773	935
885.840	963
885.878	1065
885.920	886
885.984	244
886.000	237
886.080	511
886.089	506
886.160	418
886.195	485
886.240	663
886.300	854
886.320	960
886.400	1435
886.406	1434
886.480	527
886.511	333
886.560	853
886.616	1153
886.640	1142
886.720	1398
886.722	1394
886.800	1268
886.827	1226
886.879	455
886.932	-361
886.959	-130
887.038	553
887.039	561
887.119	875
887.143	977
887.198	882
887.248	791
887.278	792
887.354	615
887.358	623
887.437	940
887.459	978
887.517	1159
887.564	1316
887.596	1086
887.669	532
887.676	531
887.755	559
887.774	566
887.835	557
887.880	543
887.914	637
887.985	703
887.994	643
888.073	189
888.090	107
888.153	966
888.195	1447
888.232	1209
888.300	872
888.311	928
888.391	1228
888.405	1272
888.470	1185
888.510	1158
888.549	961
888.615	651
888.628	667
888.708	652
888.720	651
888.787	894
888.825	1045
888.866	958
888.930	807
888.945	842
889.024	948
889.035	969
889.103	691
889.140	527
889.182	722
889.245	993
889.261	1136
889.340	1834
889.349	1906
889.419	1381
889.454	1127
889.498	1432
889.559	1840
889.577	1596
889.656	513
889.664	408
889.735	944
889.768	1198
889.814	1216
889.873	1237
889.978	775
890.083	1116
890.187	913
890.292	698
890.397	911
890.501	1651
890.606	795
890.710	1344
890.815	1643
890.919	529
891.024	833
891.128	460
891.233	1008
891.337	590
891.442	386
891.546	1503
891.650	745
891.755	1908
891.859	955
891.963	903
892.068	923
892.172	574
892.276	605
892.380	824
892.484	417
892.589	1259
892.693	1072
892.797	1008
892.901	854
893.005	571
893.109	1065
893.213	1256
893.317	482
893.421	1629
893.525	542
893.629	707
893.733	1269
893.837	259
893.941	972
894.045	1828
894.148	1277
894.252	3836
894.356	1284
894.460	1265
894.564	375
894.667	369
894.771	938
894.875	1638
894.978	1323
895.082	373
895.186	1426
895.289	1527
895.393	1398
895.496	170
895.600	520
895.703	1008
895.807	33
895.910	317
896.014	41
896.117	1085
896.221	1238
896.324	991
896.427	763
896.531	512
896.634	779
896.737	1000
896.840	880
896.944	447
897.047	966
897.150	1013
897.253	485
897.356	1161
897.460	517
897.563	758
897.666	600
897.769	954
897.872	1260
897.975	778
898.078	-810
898.181	1379
898.284	582
898.387	998
898.490	222
898.593	1008
898.695	783
898.798	1118
898.901	707
899.004	965
899.107	775
899.209	1354
899.312	-501
899.415	857
899.518	173
899.620	1245
899.723	65
899.826	1231
899.928	904
900.031	65
900.133	187
900.236	144
900.338	415
900.441	983
900.543	277
900.646	186
900.748	368
900.851	-170
900.953	1446
901.055	522
901.158	140
901.260	206
901.362	316
901.465	813
901.567	485
901.669	104
901.771	374
901.873	616
901.976	-261
902.078	564
902.180	-74
902.282	-30
902.384	505
902.486	94
902.588	-35
902.690	928
902.792	772
902.894	899
902.996	944
903.098	353
903.200	309
903.302	60
903.404	801
903.505	944
903.607	609
903.709	1253
903.811	368
903.913	910
904.014	712
904.116	903
904.218	872
904.319	1114
904.421	493
904.523	537
904.624	210
904.726	520
904.827	-116
904.929	585
905.030	-85
905.132	872
905.233	1369
905.335	1049
905.436	-615
905.537	232
905.639	585
905.740	-17
905.841	598
905.943	410
906.044	-99
906.145	225
906.247	-86
906.348	357
906.449	1091
906.550	142
906.651	1289
906.752	543
906.854	-487
906.955	691
907.056	956
907.157	605
907.258	1030
907.359	442
907.460	495
907.561	650
907.662	306
907.762	385
907.863	-277
907.964	650
908.065	81
908.166	515
908.267	207
908.367	1051
908.468	-343
908.569	670
908.670	733
908.770	1202
908.871	-575
908.971	88
909.072	266
909.173	436
909.273	-360
909.374	386
909.474	506
909.575	1048
909.675	-35
909.776	174
909.876	123
909.977	138
910.077	768
910.177	838
910.278	11
910.378	-94
910.478	142
910.579	556
910.679	-127
910.779	541
910.879	407
910.980	-199
911.080	228
911.180	267
911.280	195
911.380	107
911.480	311
911.580	-218
911.680	-209
911.780	222
911.880	-30
911.980	200
912.080	348
912.180	233
912.280	403
912.380	879
912.480	996
912.580	-26
912.679	-107
912.779	777
912.879	828
912.979	227
913.078	-272
913.178	110
913.278	-190
913.377	522
913.477	17
913.577	-441
913.676	335
913.776	329
913.875	269
913.975	863
914.074	123
914.174	121
914.273	117
914.373	709
914.472	86
914.572	-167
914.671	-132
914.770	-79
914.870	735
914.969	-131
915.068	-65
915.167	404
915.267	128
915.366	44
915.465	304
915.564	462
915.663	68
915.763	-113
915.862	444
915.961	868
916.060	157
916.159	534
916.258	23
916.357	352
916.456	435
916.555	-602
916.654	226
916.752	506
916.851	358
916.950	27
917.049	-213
917.148	217
917.247	711
917.345	419
917.444	234
917.543	423
917.642	-503
917.740	188
917.839	657
917.937	1133
918.036	507
918.135	190
918.233	-129
918.332	422
918.430	248
918.529	473
918.627	240
918.726	285
918.824	-69
918.923	467
919.021	-7
919.119	-647
919.218	-452
919.316	43
919.414	159
919.512	-160
919.611	-280
919.709	404
919.807	-419
919.905	332
920.003	217
920.102	880
920.200	-662
920.298	259
920.396	-393
920.494	21
920.592	-313
920.690	1040
920.788	-325
920.886	225
920.984	905
921.082	-359
921.180	857
921.277	216
921.375	150
921.473	504
921.571	-101
921.669	806
921.766	-690
921.864	585
921.962	-372
922.060	462
922.157	-372
922.255	587
922.352	261
922.450	42
922.548	242
922.645	49
922.743	-647
922.840	-7
922.938	1295
923.035	158
923.133	-370
923.230	264
923.327	167
923.425	375
923.522	416
923.619	385
923.717	154
923.814	412
923.911	-459
924.008	968
924.106	-351
924.203	-136
924.300	-348
924.397	519
924.494	926
924.591	208
924.688	-608
924.786	154
924.883	-102
924.979	187
925.077	71
925.173	195
925.270	154
925.367	439
925.464	372
925.561	333
925.658	273
925.755	1328
925.852	866
925.948	448
926.045	861
926.142	-372
926.239	176
926.335	-223
926.432	385
926.529	500
926.625	89
926.722	342
926.818	240
926.915	-112
927.011	-483
927.108	763
927.204	324
927.301	67
927.397	102
927.494	340
927.590	-272
927.687	41
927.783	121
927.879	466
927.976	-82
928.072	761
928.168	432
928.264	-80
928.361	-45
928.457	870
928.553	108
928.649	-92
928.745	-29
928.841	241
928.937	-693
929.033	-281
929.129	-946
929.225	821
929.321	401
929.417	152
929.513	-238
929.609	418
929.705	-488
929.801	279
929.897	162
929.993	388
930.089	-408
930.184	160
930.280	-219
930.376	-98
930.471	-157
930.567	158
930.663	559
930.758	241
930.854	-296
930.950	289
931.045	-736
931.141	1098
931.236	-62
931.332	260
931.427	659
931.523	794
931.618	-4
931.714	291
931.809	425
931.905	-583
932.000	-321
932.095	-26
932.191	486
932.286	146
932.381	368
932.476	-118
932.572	84
932.667	-49
932.762	-376
932.857	-362
932.952	-541
933.047	604
933.142	134
933.237	424
933.332	-116
933.427	210
933.522	-402
933.617	436
933.712	177
933.807	40
933.902	-152
933.997	931
934.092	-677
934.187	637
934.282	42
934.376	837
934.471	795
934.566	158
934.661	37
934.755	461
934.850	-157
934.945	354
935.039	129
935.134	816
935.228	221
935.323	-345
935.417	-199
935.512	406
935.606	-717
935.701	-134
935.795	210
935.890	786
935.984	603
936.079	246
936.173	-436
936.267	-83
936.362	-876
936.456	-60
936.550	13
936.644	754
936.738	-535
936.833	178
936.927	-128
937.021	421
937.115	303
937.209	-137
937.303	22
937.397	578
937.491	-516
937.585	383
937.679	-91
937.773	-83
937.867	-243
937.961	213
938.055	-422
938.149	562
938.243	155
938.337	1020
938.430	-123
938.524	-762
938.618	-81
938.712	500
938.805	204
938.899	459
938.993	-505
939.086	96
939.180	-548
939.274	-615
939.367	110
939.461	463
939.554	412
939.648	-119
939.741	-460
939.835	345
939.928	-159
940.022	888
940.115	-378
940.208	517
940.302	-247
940.395	18
940.488	-420
940.582	543
940.675	-612
940.768	343
940.861	-631
940.954	-198
941.048	-254
941.141	146
941.234	-474
941.327	376
941.420	-325
941.513	437
941.606	-384
941.699	1275
941.792	-646
941.885	-187
941.978	-571
942.071	294
942.164	-580
942.257	-182
942.349	-310
942.442	-706
942.535	-340
942.628	-152
942.721	-389
942.813	-559
942.906	127
942.999	210
943.091	206
943.184	-817
943.277	-311
943.369	-20
943.462	-812
943.554	493
943.647	-745
943.739	-468
943.832	-342
943.924	-781
944.017	-243
944.109	-534
944.201	-228
944.294	541
944.386	-371
944.478	-330
944.571	-469
944.663	-242
944.755	-518
944.847	-17
944.940	-678
945.032	-647
945.124	-572
945.216	1032
945.308	-620
945.400	264
945.492	132
945.584	-216
945.676	-98
945.768	-90
945.860	642
945.952	44
946.044	266
946.136	-514
946.228	30
946.320	-112
946.412	-6
946.503	-70
946.595	725
946.687	-985
946.779	-1003
946.870	-302
946.962	-815
947.054	-269
947.145	-148
947.237	-630
947.329	-402
947.420	-220
947.512	-1839
947.603	-628
947.695	-245
947.786	-1052
947.878	-1593
947.969	256
948.061	-711
948.152	-570
948.243	-335
948.335	-1130
948.426	-919
948.517	-264
948.609	-238
948.700	-457
948.791	-588
948.882	-263
948.973	-847
949.065	-192
949.156	-1491
949.247	-837
949.338	-206
949.429	-550
949.520	-746
949.611	-1026
949.702	10
949.793	115
949.884	-310
949.975	-97
950.066	-1126
950.157	-949
950.247	-298
950.338	557
950.429	-768
950.520	-567
950.611	-403
950.701	-894
950.792	53
950.883	237
950.973	-31
951.064	-602
951.155	-497
951.245	-600
951.336	-447
951.427	-777
951.517	-508
951.608	-496
951.698	-537
951.788	-623
951.879	-735
951.969	-81
952.060	-1244
952.150	-331
952.240	-304
952.331	-957
952.421	178
952.511	-251
952.602	121
952.692	-662
952.782	-315
952.872	-936
952.962	-1228
953.052	-253
953.143	-727
953.233	207
953.323	-1528
953.413	-384
953.503	-479
953.593	-961
953.683	-821
953.773	-653
953.863	-868
953.953	-872
954.042	-762
954.132	112
954.222	232
954.312	-387
954.402	-642
954.492	-21
954.581	137
954.671	-768
954.761	-1421
954.850	287
954.940	-251
955.030	-660
955.119	-270
955.209	-131
955.298	-774
955.388	-71
955.477	-161
955.567	-89
955.656	-126
955.746	240
955.835	-1478
955.925	-851
956.014	-948
956.103	-472
956.193	3
956.282	-833
956.371	-663
956.461	-351
956.550	-1081
956.639	-888
956.728	-905
956.817	-1434
956.906	-792
956.995	483
957.085	-500
957.174	-600
957.263	-549
957.352	-107
957.441	-825
957.530	-917
957.619	20
957.708	-43
957.796	-264
957.885	313
957.974	-285
958.063	-538
958.152	-1065
958.241	-1565
958.329	-1042
958.418	-32
958.507	-1713
958.596	-3
958.684	-1375
958.773	205
958.861	-989
958.950	28
959.039	57
959.127	440
959.216	281
959.304	-749
959.393	-256
959.481	-692
959.570	-228
959.658	-56
959.746	338
959.835	27
959.923	71
960.011	-138
960.100	-183
960.188	-1054
960.276	-643
960.365	-525
960.453	-303
960.541	-55
960.629	2
960.717	-376
960.805	-1031
960.893	-365
960.981	-1049
961.069	-263
961.158	-374
961.245	-260
961.333	-337
961.421	-477
961.509	-688
961.597	-66
961.685	-963
961.773	-5
961.861	-1182
961.949	-774
962.036	-797
962.124	-575
962.212	-230
962.299	-334
962.387	-1154
962.475	154
962.562	-1424
962.650	239
962.738	-787
962.825	-653
962.913	-636
963.000	-926
963.088	-738
963.175	-541
963.263	-677
963.350	-691
963.438	-1601
963.525	-335
963.612	-197
963.700	559
963.787	2445
963.874	1693
963.962	-259
964.049	-167
964.136	-235
964.223	-393
964.310	-1096
964.398	176
964.485	-821
964.572	825
964.659	-730
964.746	-337
964.833	-918
964.920	-1097
965.007	-922
965.094	-423
965.181	-2212
965.268	-533
965.355	-861
965.441	-710
965.528	-1291
965.615	336
965.702	-325
965.789	-1126
965.875	-579
965.962	-468
966.049	-485
966.136	-422
966.222	-1298
966.309	-497
966.395	-1241
966.482	-483
966.569	-689
966.655	-404
966.742	-1638
966.828	53
966.915	-994
967.001	-817
967.087	-1500
967.174	-507
967.260	-677
967.347	-452
967.433	-515
967.519	1895
967.605	-70
967.692	-681
967.778	-1534
967.864	-893
967.950	-1532
968.036	-1223
968.123	-837
968.209	-1456
968.295	-1594
968.381	1671
968.467	-377
968.553	-1301
968.639	-1064
968.725	-1656
968.811	-687
968.897	-255
968.983	-332
969.069	-457
969.154	-177
969.240	-198
969.326	-1251
969.412	-700
969.497	-1011
969.583	-448
969.669	-548
969.755	-813
969.840	-962
969.926	-487
970.012	-1355
970.097	-622
970.183	-1238
970.268	-280
970.354	-1160
970.439	-1001
970.525	1112
970.610	-745
970.696	-283
970.781	-709
970.866	-1711
970.952	-370
971.037	-923
971.122	-1358
971.208	-1375
971.293	-1331
971.378	-2054
971.463	-901
971.549	-1145
971.634	-728
971.719	-781
971.804	-609
971.889	-603
971.974	-592
972.059	-656
972.144	-665
972.229	-1639
972.314	-829
972.399	-713
972.484	-865
972.569	-87
972.654	-477
972.739	-161
972.824	107
972.908	-843
972.993	-1015
973.078	-1418
973.163	-994
973.247	-785
973.332	-1890
973.417	-553
973.501	-1328
973.586	37
973.671	-1130
973.755	-1400
973.840	-217
973.924	-350
974.009	-1390
974.093	-1192
974.178	301
974.262	-1227
974.346	-248
974.431	-563
974.515	-340
974.600	-1413
974.684	-232
974.768	-1245
974.852	28
974.937	-856
975.021	-773
975.105	-1341
975.189	-484
975.273	-616
975.358	-1461
975.442	-936
975.526	-609
975.610	-1393
975.694	-1380
975.778	-679
975.862	-602
975.946	-1764
976.030	391
976.114	-1180
976.198	-1306
976.281	-1181
976.365	-147
976.449	-1328
976.533	-1049
976.617	-1144
976.700	-757
976.784	-565
976.868	-1138
976.951	-630
977.035	-1836
977.119	-934
977.202	-976
977.286	-1239
977.369	-725
977.453	-233
977.536	-1102
977.620	-1961
977.703	-267
977.787	-2053
977.870	-434
977.953	-573
978.037	-2046
978.120	-345
978.203	-471
978.287	-941
978.370	-982
978.453	-1444
978.536	-1097
978.620	-233
978.703	-296
978.786	-634
978.869	-319
978.952	-1595
979.035	96
979.118	-872
979.201	-1201
979.284	-1038
979.367	-1383
979.450	-399
979.533	-1092
979.616	-1274
979.699	-539
979.782	-1211
979.865	-713
979.948	-1146
980.030	-964
980.113	-1164
980.196	-1605
980.279	-1494
980.361	-644
980.444	-1540
980.526	-896
980.609	-2050
980.692	-1064
980.774	-1226
980.857	-2020
980.939	-708
981.022	-1176
981.104	-1979
981.187	-837
981.269	-1019
981.352	-622
981.434	-2248
981.516	-1994
981.599	-522
981.681	-621
981.763	-1480
981.846	-1101
981.928	-1316
982.010	-1485
982.092	-1409
982.174	-788
982.256	-906
982.339	-1614
982.421	-1933
982.503	-188
982.585	-1609
982.667	-1456
982.749	-1457
982.831	-980
982.913	-1824
982.995	-207
983.077	-1786
983.158	233
983.240	-2248
983.322	-885
983.404	-1113
983.486	-1557
983.568	-1257
983.649	-1231
983.731	-730
983.813	-1631
983.894	-1601
983.976	-1314
984.058	-1378
984.139	-543
984.221	-1910
984.302	452
984.384	-2150
984.465	-1501
984.547	-1318
984.628	-1477
984.710	-1185
984.791	-1426
984.872	-835
984.954	-1517
985.035	-1070
985.116	-1121
985.198	-1399
985.279	-1409
985.360	-1729
985.441	-812
985.522	-642
985.604	-1390
985.685	-3699
985.766	-666
985.847	-1094
985.928	-1646
986.009	-1731
986.090	-1194
986.171	-1454
986.252	-1807
986.333	-1295
986.414	-999
986.495	-531
986.576	-1044
986.656	-1543
986.737	-1652
986.818	-1735
986.899	-1050
986.980	-1629
987.060	-619
987.141	-1145
987.222	-233
987.302	-2382
987.383	-255
987.464	-1490
987.544	-1274
987.625	-811
987.705	-1467
987.786	-670
987.866	-1844
987.947	-1259
988.027	-1244
988.108	-1676
988.188	-1139
988.268	-2115
988.349	-1405
988.429	-1371
988.509	-1181
988.589	-2014
988.670	-2467
988.750	-540
988.830	-1158
988.910	-818
988.990	-1210
989.070	-1710
989.151	-1556
989.231	-2030
989.311	-406
989.391	-1789
989.471	-1123
989.551	-2131
989.631	-1295
989.711	-1425
989.791	-1898
989.870	-1625
989.950	-926
990.030	-1502
990.110	-2151
990.190	-1849
990.269	-1054
990.349	-1742
990.429	-1530
990.509	-1470
990.588	-1550
990.668	-844
990.747	-1016
990.827	-1105
990.907	-1744
990.986	-1933
991.066	-1138
991.145	-1896
991.225	-1463
991.304	-1382
991.383	-1356
991.463	-1891
991.542	-733
991.622	-2815
991.701	-1429
991.780	-1463
991.859	-1366
991.939	-1624
992.018	-1600
992.097	-1748
992.176	-1277
992.256	-1793
992.335	-1744
992.414	-521
992.493	-1484
992.572	-2072
992.651	-560
992.730	-1776
992.809	-751
992.888	-2505
992.967	-1560
993.046	-1065
993.125	-2504
993.203	-2081
993.282	-1631
993.361	-1348
993.440	-1440
993.519	-2179
993.597	-1193
993.676	-2100
993.755	-977
993.834	-1629
993.912	-1815
993.991	-792
994.069	-1412
994.148	-1015
994.226	-1571
994.305	-1175
994.384	-1637
994.462	-527
994.540	-2489
994.619	-2456
994.697	-1136
994.776	-1833
994.854	-813
994.932	-1970
995.011	-1462
995.089	-1873
995.167	-959
995.245	-1233
995.324	-2649
995.402	-471
995.480	-1722
995.558	-1979
995.636	-2047
995.714	-1768
995.792	-1171
995.870	-2607
995.948	-1991
996.026	-2244
996.104	-2204
996.182	-857
996.260	-1844
996.338	-1478
996.416	-1375
996.494	-1717
996.572	-735
996.649	-1193
996.727	-2427
996.805	-2155
996.883	-2367
996.960	-2318
997.038	-1300
997.116	-1389
997.193	-2401
997.271	-1091
997.348	-1756
997.426	-1571
997.504	-1776
997.581	-1369
997.658	-1461
997.736	-2378
997.813	-1887
997.891	-1233
997.968	-1852
998.046	-2085
998.123	-1472
998.200	-1582
998.277	-2209
998.355	-501
998.432	-2418
998.509	-2215
998.586	-1030
998.663	-1226
998.741	-1167
998.818	-2101
998.895	-627
998.972	-838
999.049	-857
999.126	-1729
999.203	-1019
999.280	-1778
999.357	-1134
999.434	-1615
999.511	-1104
999.587	-869
999.664	-1968
999.741	-1701
999.818	-1285
999.895	-1789
999.971	-2200
1000.048	-1172
1000.125	-1348
1000.202	-3213
1000.278	-455
1000.355	-1915
1000.431	-2010
1000.508	-2256
1000.584	-1157
1000.661	-1636
1000.738	-1764
1000.814	-2565
1000.890	-959
1000.967	-1766
1001.043	-1771
1001.120	-2277
1001.196	-1290
1001.272	-2288
1001.349	-1499
1001.425	-2024
1001.501	-602
1001.577	-2350
1001.654	-1245
1001.730	-2272
1001.806	-1085
1001.882	-2488
1001.958	-689
1002.034	-866
1002.110	-895
1002.186	-2270
1002.262	-1234
1002.338	-2443
1002.414	-1140
1002.490	-1423
1002.566	-1347
1002.642	-1177
1002.718	-540
1002.794	-693
1002.870	-1918
1002.945	-2240
1003.021	-1598
1003.097	-1625
1003.173	-1096
1003.248	-2266
1003.324	-843
1003.400	-989
1003.475	-1489
1003.551	-1062
1003.626	-1857
1003.702	-1564
1003.777	-1509
1003.853	-1062
1003.928	-1546
1004.004	-1363
1004.079	-962
1004.155	-1884
1004.230	-2382
1004.305	-638
1004.381	-1191
1004.456	-1141
1004.531	-1077
1004.607	-1057
1004.682	-1753
1004.757	-1152
1004.832	-1666
1004.907	-1961
1004.982	-1580
1005.057	-1946
1005.133	-1355
1005.208	-2314
1005.283	-1464
1005.358	-1094
1005.433	-1361
1005.508	-1822
1005.583	-2152
1005.657	-2217
1005.732	-942
1005.807	-2041
1005.882	-1707
1005.957	-2399
1006.032	-1083
1006.106	-2110
1006.181	-1263
1006.256	-2561
1006.331	-1958
1006.405	-2228
1006.480	-1729
1006.554	-1747
1006.629	-1472
1006.704	-2575
1006.778	-1148
1006.853	-1039
1006.927	-900
1007.002	-2114
1007.076	-1363
1007.150	-1259
1007.225	-1054
1007.299	-1127
1007.373	-1606
1007.448	-1676
1007.522	-760
1007.596	-1942
1007.671	-1506
1007.745	-1596
1007.819	-2556
1007.893	-1959
1007.967	-1306
1008.041	-2940
1008.115	-1118
1008.190	-2618
1008.264	-1132
1008.338	-3599
1008.412	-1357
1008.486	-1850
1008.560	-1605
1008.633	-2453
1008.707	-1528
1008.781	-1670
1008.855	-2036
1008.929	-1871
1009.003	-1271
1009.076	-1707
1009.150	-1971
1009.224	-1745
1009.298	-1360
1009.371	-2753
1009.445	-1308
1009.519	-1896
1009.592	-1820
1009.666	-1909
1009.739	-1387
1009.813	-2335
1009.886	-904
1009.960	-2422
1010.033	-1523
1010.107	-2007
1010.180	-2062
1010.253	-1693
1010.327	-2198
1010.400	-1990
1010.473	-1391
1010.547	-688
1010.620	-1871
1010.693	-710
1010.766	-2016
1010.840	-1425
1010.913	-883
1010.986	-2149
1011.059	-1879
1011.132	-2041
1011.205	-1397
1011.278	-2060
1011.351	-1705
1011.424	-1880
1011.497	-2299
1011.570	-2078
1011.643	-1184
1011.716	-2086
1011.789	-1830
1011.862	-1921
1011.934	-959
1012.007	-2169
1012.080	-1808
1012.153	-1433
1012.225	-1501
1012.298	-2206
1012.371	-2116
1012.443	-1419
1012.516	-2391
1012.588	-2422
1012.661	-1924
1012.733	-2553
1012.806	-968
1012.879	-2078
1012.951	-1848
1013.023	-1900
1013.096	-1315
1013.168	-2516
1013.241	-888
1013.313	-1422
1013.385	-2450
1013.458	-1688
1013.530	-1177
1013.602	-2902
1013.674	-1481
1013.746	-1803
1013.819	-2476
1013.891	-2175
1013.963	-2871
1014.035	-1593
1014.107	-1969
1014.179	-1869
1014.251	-2259
1014.323	-1821
1014.395	-2018
1014.467	-1989
1014.539	-1993
1014.611	-1781
1014.683	-1229
1014.754	-2397
1014.826	-1568
1014.898	-2194
1014.970	-2344
1015.042	-1501
1015.113	-1901
1015.185	-1469
1015.257	-2167
1015.328	-1519
1015.400	-2074
1015.471	-2407
1015.543	-2518
1015.615	-1740
1015.686	-2086
1015.757	-2073
1015.829	-1554
1015.901	-2587
1015.972	-919
1016.043	-2225
1016.115	-1568
1016.186	-2140
1016.257	-2822
1016.328	-1617
1016.400	-1293
1016.471	-2004
1016.542	-2063
1016.613	-2284
1016.685	-1929
1016.756	-1692
1016.827	-2364
1016.898	-3305
1016.969	-1391
1017.040	-2173
1017.111	-2075
1017.182	-2195
1017.253	-1561
1017.324	-1280
1017.395	-2016
1017.466	-2064
1017.537	-1644
1017.608	-1730
1017.678	-2071
1017.749	-2100
1017.820	-1859
1017.891	-2414
1017.961	-2007
1018.032	-1493
1018.103	-2404
1018.173	-1832
1018.244	-1919
1018.315	-2294
1018.385	-1358
1018.456	-1813
1018.526	-2115
1018.597	-2098
1018.667	-2112
1018.738	-2815
1018.808	-1740
1018.878	-2310
1018.949	-2195
1019.019	-1962
1019.089	-1464
1019.160	-1579
1019.230	-2479
1019.300	-2411
1019.371	-2701
1019.441	-1550
1019.511	-2091
1019.581	-2085
1019.651	-2364
1019.721	-1924
1019.791	-1990
1019.861	-1789
1019.931	-898
1020.001	-2413
1020.071	-1773
1020.141	-2369
1020.211	-1703
1020.281	-1909
1020.351	-2484
1020.421	-1715
1020.491	-1814
1020.560	-2903
1020.630	-1264
1020.700	-2047
1020.770	-2239
1020.839	-2208
1020.909	-1514
1020.979	-2522
1021.048	-1178
1021.118	-2151
1021.187	-2142
1021.257	-1940
1021.326	-1851
1021.396	-2200
1021.465	-1866
1021.535	-1706
1021.604	-2434
1021.674	-2140
1021.743	-1346
1021.812	-1759
1021.882	-2319
1021.951	-2333
1022.020	-1819
1022.089	-1462
1022.159	-3025
1022.228	-2390
1022.297	-2316
1022.366	-2325
1022.435	-1903
1022.504	-2054
1022.573	-2192
1022.642	-1684
1022.711	-2028
1022.781	-1471
1022.849	-1942
1022.918	-2715
1022.987	-1282
1023.056	-2258
1023.125	-2144
1023.194	-2633
1023.263	-1784
1023.331	-2444
1023.400	-2497
1023.469	-1990
1023.538	-1810
1023.606	-2596
1023.675	-1620
1023.744	-2334
1023.812	-2072
1023.881	-1799
1023.949	-1445
1024.018	-1907
1024.086	-1855
1024.155	-2282
1024.223	-2498
1024.292	-2250
1024.360	-1382
1024.429	-2796
1024.497	-1785
1024.565	-1787
1024.634	-1677
1024.702	-2326
1024.770	-1952
1024.838	-2131
1024.907	-2030
1024.975	-2161
1025.043	-1572
1025.111	-2736
1025.179	-1688
1025.247	-2343
1025.315	-2240
1025.383	-1472
1025.451	-2245
1025.519	-1916
1025.587	-1642
1025.655	-2272
1025.723	-2115
1025.791	-1846
1025.859	-1636
1025.927	-2513
1025.995	-2947
1026.062	-3170
1026.130	-1507
1026.198	-2894
1026.266	-1909
1026.333	-1873
1026.401	-902
1026.469	-2100
1026.536	-2247
1026.604	-2241
1026.671	-1895
1026.739	-2644
1026.806	-1486
1026.874	-2259
1026.941	-1892
1027.009	-2213
1027.076	-2154
1027.144	-1454
1027.211	-2329
1027.278	-2733
1027.345	-1036
1027.413	-2007
1027.480	-2155
1027.547	-2673
1027.614	-1600
1027.682	-2464
1027.749	-1873
1027.816	-2381
1027.883	-1540
1027.950	-1694
1028.017	-2086
1028.084	-1838
1028.151	-2657
1028.218	-1938
1028.285	-2003
1028.352	-2297
1028.419	-2480
1028.486	-2826
1028.553	-1797
1028.619	-2581
1028.686	-1870
1028.753	-2180
1028.820	-2006
1028.886	-2753
1028.953	-2046
1029.020	-2332
1029.086	-2007
1029.153	-2122
1029.220	-1462
1029.286	-2050
1029.353	-2048
1029.419	-2914
1029.486	-1357
1029.552	-2019
1029.619	-1197
1029.685	-2323
1029.751	-1879
1029.818	-1187
1029.884	-2274
1029.951	-1562
1030.017	-1784
1030.083	-2046
1030.149	-1872
1030.216	-3086
1030.282	-2347
1030.348	-2182
1030.414	-1972
1030.480	-2457
1030.546	-2028
1030.612	-1709
1030.678	-1690
1030.744	-2742
1030.810	-1708
1030.876	-2597
1030.942	-1381
1031.008	-2220
1031.074	-2363
1031.140	-2029
1031.206	-1704
1031.272	-2801
1031.337	-2543
1031.403	-2180
1031.469	-2809
1031.534	-2467
1031.600	-1538
1031.666	-2453
1031.731	-2331
1031.797	-2019
1031.863	-2040
1031.928	-2655
1031.994	-2192
1032.059	-2392
1032.125	-2253
1032.190	-1525
1032.256	-2163
1032.321	-2634
1032.386	-1899
1032.452	-1649
1032.517	-2876
1032.582	-2721
1032.647	-1916
1032.713	-2057
1032.778	-2134
1032.843	-2301
1032.908	-2116
1032.974	-2333
1033.039	-2514
1033.104	-2241
1033.169	-2446
1033.234	-2294
1033.299	-1857
1033.364	-2797
1033.429	-1403
1033.494	-2087
1033.559	-2584
1033.624	-2288
1033.688	-1429
1033.753	-2710
1033.818	-1714
1033.883	-2527
1033.948	-2194
1034.013	-2269
1034.077	-1443
1034.142	-1662
1034.207	-2881
1034.271	-2870
1034.336	-1161
1034.400	-2072
1034.465	-2669
1034.530	-1360
1034.594	-2285
1034.658	-2091
1034.723	-1864
1034.787	-2846
1034.852	-1725
1034.916	-1953
1034.981	-1791
1035.045	-1834
1035.109	-1960
1035.173	-1817
1035.238	-2164
1035.302	-1399
1035.366	-1890
1035.430	-1816
1035.495	-2610
1035.559	-2489
1035.623	-1020
1035.687	-2796
1035.751	-2925
1035.815	-2264
1035.879	-2475
1035.943	-2594
1036.007	-2389
1036.071	-2463
1036.135	-1296
1036.198	-2370
1036.262	-2550
1036.326	-2106
1036.390	-1411
1036.454	-1594
1036.517	-2677
1036.581	-2219
1036.645	-1460
1036.709	-1706
1036.772	-2845
1036.836	-2585
1036.900	-1753
1036.963	-2250
1037.026	-2252
1037.090	-2713
1037.154	-1810
1037.217	-2513
1037.280	-2035
1037.344	-2736
1037.407	-2191
1037.471	-2785
1037.534	-1636
1037.597	-2390
1037.661	-2761
1037.724	-2669
1037.787	-1957
1037.850	-2631
1037.913	-2825
1037.977	-2061
1038.040	-2184
1038.103	-2468
1038.166	-2086
1038.229	-2466
1038.292	-2693
1038.355	-2430
1038.418	-1697
1038.481	-2525
1038.544	-2126
1038.607	-2292
1038.670	-1538
1038.732	-2367
1038.795	-2510
1038.858	-2035
1038.921	-1712
1038.984	-3278
1039.046	-1758
1039.109	-2242
1039.172	-1513
1039.234	-1197
1039.297	-1964
1039.360	-2229
1039.422	-2035
1039.485	-2668
1039.547	-2893
1039.610	-2491
1039.672	-987
1039.734	-1725
1039.797	-2413
1039.859	-2311
1039.922	-2908
1039.984	-3386
1040.046	-2371
1040.109	-2958
1040.171	-2470
1040.233	-2352
1040.295	-2255
1040.358	-2213
1040.420	-1749
1040.482	-3063
1040.544	-1989
1040.606	-2660
1040.668	-2152
1040.730	-2103
1040.792	-2320
1040.854	-2755
1040.916	-2532
1040.978	-2947
1041.040	-1729
1041.102	-2891
1041.164	-2708
1041.225	-2473
1041.287	-1721
1041.349	-3070
1041.411	-2554
1041.472	-2611
1041.534	-2414
1041.596	-2914
1041.657	-2195
1041.719	-2180
1041.781	-2375
1041.842	-3513
1041.904	-2394
1041.965	-2528
1042.027	-1697
1042.088	-1823
1042.150	-3168
1042.211	-2308
1042.272	-1683
1042.334	-2804
1042.395	-1638
1042.456	-2402
1042.518	-2351
1042.579	-2191
1042.640	-2284
1042.701	-2603
1042.763	-2397
1042.824	-2855
1042.885	-2360
1042.946	-2453
1043.007	-2900
1043.068	-2841
1043.129	-2371
1043.190	-2821
1043.251	-1136
1043.312	-2252
1043.373	-1942
1043.434	-2602
1043.495	-2118
1043.556	-2038
1043.616	-2326
1043.677	-2463
1043.738	-2874
1043.799	-2668
1043.859	-2349
1043.920	-2460
1043.981	-2036
1044.041	-2525
1044.102	-2318
1044.162	-3042
1044.223	-2669
1044.284	-2465
1044.344	-2225
1044.405	-1868
1044.465	-2648
1044.525	-2526
1044.586	-2829
1044.646	-2106
1044.707	-2061
1044.767	-1997
1044.827	-2200
1044.887	-2451
1044.948	-1818
1045.008	-2800
1045.068	-2324
1045.128	-3171
1045.188	-1908
1045.249	-1773
1045.309	-2368
1045.369	-1465
1045.429	-2684
1045.489	-2617
1045.549	-1660
1045.609	-2430
1045.669	-2083
1045.729	-2608
1045.789	-1839
1045.848	-2074
1045.908	-1519
1045.968	-1997
1046.028	-1805
1046.088	-2515
1046.147	-1572
1046.207	-2015
1046.267	-2073
1046.326	-1973
1046.386	-2075
1046.446	-2154
1046.505	-1440
1046.565	-1802
1046.624	-939
1046.684	-1560
1046.743	-515
1046.803	-574
1046.862	-173
1046.922	0
