'Start Wavelength	183.907
'End Wavelength	1046.922
'Gate Delay	5.000
'Gate Width (ms)	1.050
'Laser Output Level	0.000
'X Position	0.000
'Y Position	0.000
'Z Position	0.000
'Grid Point Number	1.000
'Shot Number	100.000
183.907	611.000
183.977	356.000
184.047	171
184.116	375
184.186	424
184.256	-18
184.325	-176
184.395	-483
184.465	227
184.534	-56
184.604	-554
184.674	425
184.743	290
184.813	103
184.883	-404
184.952	-679
185.022	868
185.092	50
185.161	148
185.231	302
185.301	6
185.370	-57
185.440	-23
185.509	-390
185.579	211
185.649	-404
185.718	18
185.788	687
185.857	239
185.927	-391
185.996	209
186.066	-544
186.136	-189
186.205	-486
186.275	726
186.344	-15
186.414	477
186.483	-545
186.553	1067
186.622	352
186.692	241
186.761	-256
186.831	336
186.900	-671
186.970	951
187.039	-234
187.109	752
187.178	-111
187.248	46
187.317	504
187.387	-325
187.456	437
187.526	596
187.595	239
187.664	-414
187.734	-381
187.803	98
187.873	-188
187.942	867
188.012	159
188.081	46
188.150	-207
188.220	594
188.289	139
188.358	-20
188.428	462
188.497	-229
188.567	448
188.636	137
188.705	36
188.775	-502
188.844	202
188.913	1146
188.983	337
189.052	-30
189.121	222
189.191	329
189.260	767
189.329	563
189.399	42
189.468	-360
189.537	217
189.606	834
189.676	54
189.745	325
189.814	531
189.883	365
189.953	32
190.022	-160
190.091	314
190.161	1063
190.230	775
190.299	238
190.368	-847
190.437	450
190.507	743
190.576	568
190.645	16
190.714	714
190.783	-669
190.853	889
190.922	493
190.991	1067
191.060	806
191.129	-14
191.198	406
191.268	280
191.337	69
191.406	771
191.475	-183
191.544	821
191.613	429
191.682	-731
191.752	-131
191.821	436
191.890	-244
191.959	455
192.028	559
192.097	185
192.166	150
192.235	329
192.304	885
192.373	669
192.442	-207
192.511	632
192.580	-95
192.650	179
192.719	421
192.788	918
192.857	145
192.926	459
192.995	113
193.064	1326
193.133	752
193.202	520
193.271	706
193.340	971
193.409	93
193.478	690
193.547	1033
193.615	1687
193.684	899
193.753	1160
193.822	1270
193.891	975
193.960	-110
194.029	97
194.098	262
194.167	608
194.236	315
194.305	153
194.374	390
194.443	446
194.512	755
194.580	719
194.649	1207
194.718	1045
194.787	-358
194.856	497
194.925	769
194.994	1090
195.062	-68
195.131	478
195.200	135
195.269	667
195.338	451
195.407	268
195.475	274
195.544	1081
195.613	601
195.682	606
195.751	1068
195.819	571
195.888	340
195.957	1695
196.026	406
196.094	793
196.163	833
196.232	718
196.301	739
196.369	1122
196.438	264
196.507	416
196.576	-29
196.644	477
196.713	171
196.782	57
196.850	-5
196.919	243
196.988	699
197.056	-188
197.125	435
197.194	610
197.262	471
197.331	1258
197.400	-18
197.468	629
197.537	405
197.606	671
197.674	1244
197.743	966
197.812	502
197.880	629
197.949	152
198.017	791
198.086	599
198.155	471
198.223	1131
198.292	1060
198.360	-372
198.429	446
198.497	590
198.566	841
198.635	280
198.703	705
198.772	113
198.840	1431
198.909	932
198.977	750
199.046	1117
199.114	1051
199.183	591
199.251	633
199.320	-183
199.388	-475
199.457	-170
199.525	133
199.594	514
199.662	575
199.731	-418
199.799	529
199.867	213
199.936	-341
200.004	850
200.073	591
200.141	230
200.210	99
200.278	-70
200.346	453
200.415	143
200.483	581
200.552	660
200.620	391
200.688	577
200.757	966
200.825	-122
200.893	920
200.962	677
201.030	1154
201.098	185
201.167	547
201.235	281
201.303	593
201.372	482
201.440	833
201.508	493
201.577	772
201.645	-39
201.713	261
201.781	537
201.850	251
201.918	1002
201.986	369
202.055	999
202.123	50
202.191	654
202.259	932
202.327	627
202.396	891
202.464	491
202.532	880
202.600	1405
202.669	1870
202.737	207
202.805	1094
202.873	405
202.941	308
203.009	470
203.078	-348
203.146	724
203.214	1058
203.282	-487
203.350	392
203.418	435
203.487	726
203.555	208
203.623	926
203.691	321
203.759	827
203.827	513
203.895	465
203.963	419
204.031	839
204.099	284
204.168	241
204.236	687
204.304	1185
204.372	391
204.440	735
204.508	950
204.576	81
204.644	834
204.712	50
204.780	-103
204.848	286
204.916	449
204.984	333
205.052	978
205.120	711
205.188	931
205.256	483
205.324	-279
205.392	440
205.460	1162
205.528	-352
205.596	39
205.664	470
205.732	396
205.799	1601
205.867	1700
205.935	1344
206.003	863
206.071	710
206.139	1043
206.207	458
206.275	1340
206.343	496
206.411	1273
206.478	984
206.546	1488
206.614	970
206.682	858
206.750	513
206.818	350
206.885	1369
206.953	-903
207.021	1255
207.089	557
207.157	808
207.225	1342
207.292	1388
207.360	1248
207.428	1774
207.496	572
207.563	1266
207.631	345
207.699	693
207.767	1586
207.834	777
207.902	183
207.970	864
208.038	1548
208.105	647
208.173	728
208.241	757
208.309	1692
208.376	1209
208.444	1066
208.512	1637
208.579	1072
208.647	1649
208.715	725
208.782	1361
208.850	1118
208.918	898
208.985	344
209.053	1468
209.120	855
209.188	1017
209.256	138
209.323	764
209.391	664
209.459	2308
209.526	877
209.594	1166
209.661	1128
209.729	1183
209.796	773
209.864	1655
209.932	-31
209.999	2539
210.067	1457
210.134	1383
210.202	1224
210.269	1623
210.337	1709
210.404	1635
210.472	873
210.539	1022
210.607	795
210.674	1619
210.742	1614
210.809	1107
210.877	1083
210.944	1762
211.012	129
211.079	2574
211.146	490
211.214	1292
211.281	719
211.349	1579
211.416	1348
211.484	2110
211.551	1202
211.618	946
211.686	773
211.753	760
211.821	1352
211.888	663
211.955	1266
212.023	1229
212.090	888
212.157	710
212.225	2060
212.292	2422
212.359	2656
212.427	5230
212.494	2256
212.561	1425
212.629	1010
212.696	1495
212.763	1223
212.831	1451
212.898	1252
212.965	949
213.032	1605
213.100	1614
213.167	1815
213.234	2104
213.301	802
213.369	1972
213.436	1174
213.503	759
213.570	1123
213.638	1258
213.705	609
213.772	1382
213.839	1098
213.906	1626
213.973	1670
214.041	1347
214.108	1894
214.175	1359
214.242	1718
214.309	1209
214.376	1671
214.444	2218
214.511	1198
214.578	1920
214.645	2012
214.712	1951
214.779	1538
214.846	1565
214.913	2110
214.980	1765
215.048	1199
215.115	2228
215.182	1066
215.249	1857
215.316	1676
215.383	1311
215.450	1476
215.517	1457
215.584	682
215.651	1283
215.718	1487
215.785	1101
215.852	1208
215.919	1352
215.986	1935
216.053	1585
216.120	1518
216.187	1779
216.254	1732
216.321	1159
216.388	1401
216.455	1123
216.522	2632
216.589	2038
216.656	2527
216.722	2646
216.789	2958
216.856	3037
216.923	2133
216.990	2653
217.057	2001
217.124	2593
217.191	2478
217.258	3447
217.324	2549
217.391	3199
217.458	2056
217.525	1971
217.592	2920
217.659	1074
217.725	2429
217.792	2125
217.859	1396
217.926	1973
217.993	1627
218.059	2109
218.126	1642
218.193	1432
218.260	1046
218.327	1150
218.393	991
218.460	1425
218.527	670
218.594	1214
218.660	1207
218.727	2858
218.794	804
218.860	1193
218.927	727
218.994	1234
219.061	663
219.127	686
219.194	1322
219.261	823
219.327	850
219.394	1588
219.461	-202
219.527	919
219.594	425
219.661	1011
219.727	615
219.794	1906
219.860	123
219.927	1927
219.994	1396
220.060	2041
220.127	2204
220.193	1946
220.260	2400
220.326	4386
220.393	4103
220.460	5244
220.526	3642
220.593	2983
220.659	3414
220.726	4026
220.792	4490
220.859	5468
220.925	7245
220.992	8507
221.058	7041
221.125	5599
221.191	4040
221.258	2827
221.324	1908
221.391	1110
221.457	1588
221.524	1936
221.590	1857
221.657	4496
221.723	2743
221.789	2542
221.856	2747
221.922	1756
221.989	1900
222.055	1434
222.121	180
222.188	2306
222.254	1751
222.321	1894
222.387	931
222.453	779
222.520	1315
222.586	1300
222.652	1159
222.719	1012
222.785	1287
222.851	154
222.918	1103
222.984	1252
223.050	1107
223.116	-126
223.183	2405
223.249	737
223.315	705
223.382	619
223.448	166
223.514	877
223.580	732
223.647	446
223.713	747
223.779	1406
223.845	-37
223.911	1248
223.978	251
224.044	535
224.110	1298
224.176	1067
224.242	477
224.309	-271
224.375	637
224.441	1047
224.507	179
224.573	329
224.639	857
224.705	634
224.772	537
224.838	454
224.904	1325
224.970	526
225.036	141
225.102	250
225.168	802
225.234	1090
225.300	-217
225.366	985
225.432	759
225.499	900
225.565	1206
225.631	754
225.697	572
225.763	1767
225.829	1368
225.895	1502
225.961	2108
226.027	1242
226.093	1686
226.159	3389
226.225	4234
226.291	10245
226.357	12193
226.423	8811
226.489	4741
226.554	3797
226.620	3644
226.686	2995
226.752	6291
226.818	9593
226.884	14265
226.950	12461
227.016	8127
227.082	4103
227.148	2958
227.214	2969
227.279	2634
227.345	1882
227.411	1467
227.477	2000
227.543	2686
227.609	2261
227.674	3230
227.740	2127
227.806	1830
227.872	1545
227.938	1238
228.003	2564
228.069	1279
228.135	786
228.201	1242
228.267	1095
228.332	780
228.398	1138
228.464	1852
228.530	530
228.595	641
228.661	504
228.727	1179
228.792	2410
228.858	460
228.924	440
228.990	1918
229.055	722
229.121	1776
229.187	1177
229.252	425
229.318	925
229.384	1081
229.449	1074
229.515	-986
229.581	-524
229.646	1638
229.712	974
229.777	1926
229.843	1780
229.909	1835
229.974	2822
230.040	2133
230.105	1646
230.171	1387
230.236	2587
230.302	2820
230.368	1943
230.433	862
230.499	1946
230.564	2962
230.630	1391
230.695	1255
230.761	2101
230.826	584
230.892	2053
230.957	837
231.023	1801
231.088	1076
231.154	1106
231.219	1140
231.284	1374
231.350	2135
231.415	568
231.481	1853
231.546	1431
231.612	1397
231.677	450
231.742	-448
231.808	2010
231.873	519
231.939	72
232.004	2545
232.069	2099
232.135	285
232.200	409
232.265	939
232.331	854
232.396	386
232.461	695
232.527	543
232.592	389
232.657	833
232.723	772
232.788	441
232.853	1702
232.918	1097
232.984	330
233.049	-269
233.114	479
233.179	1377
233.245	931
233.310	883
233.375	238
233.440	1111
233.506	382
233.571	647
233.636	756
233.701	624
233.766	1811
233.832	1821
233.897	416
233.962	759
234.027	2189
234.092	684
234.157	1545
234.222	256
234.288	851
234.353	2773
234.418	3473
234.483	2977
234.548	2212
234.613	1881
234.678	1996
234.743	1316
234.808	3597
234.873	1834
234.938	2413
235.004	1397
235.069	1441
235.134	878
235.199	2788
235.264	1133
235.329	938
235.394	1884
235.459	2302
235.524	2
235.589	1524
235.654	809
235.719	237
235.784	1312
235.849	495
235.913	1308
235.978	2059
236.043	1368
236.108	1065
236.173	282
236.238	1722
236.303	870
236.368	1559
236.433	2238
236.498	2443
236.563	3583
236.627	8107
236.692	17990
236.757	15982
236.822	7276
236.887	4835
236.952	5410
237.017	2410
237.081	4853
237.146	4897
237.211	11924
237.276	18918
237.341	23075
237.405	14429
237.470	7315
237.535	4531
237.600	3267
237.664	2604
237.729	1957
237.794	3731
237.859	7906
237.923	3819
237.988	2186
238.053	3067
238.118	2029
238.182	3501
238.247	4095
238.312	1769
238.376	2266
238.441	1094
238.506	2482
238.570	695
238.635	2972
238.700	885
238.764	744
238.829	2243
238.893	1105
238.958	2910
239.023	1426
239.087	657
239.152	1744
239.216	528
239.281	1590
239.346	1302
239.410	867
239.475	1235
239.539	3638
239.604	1219
239.668	2090
239.733	1334
239.797	1895
239.862	3939
239.926	3535
239.991	2019
240.055	1030
240.120	1513
240.184	1069
240.249	699
240.313	800
240.378	1602
240.442	1879
240.507	3276
240.571	736
240.635	1270
240.700	2097
240.764	1514
240.829	685
240.893	-759
240.957	1004
241.022	2396
241.086	3147
241.151	1188
241.215	380
241.279	1971
241.344	1149
241.408	1760
241.472	1095
241.537	2610
241.601	1674
241.665	569
241.730	1213
241.794	2775
241.858	1104
241.922	1848
241.987	1898
242.051	1151
242.115	927
242.179	1794
242.244	559
242.308	2220
242.372	1678
242.436	2235
242.501	2316
242.565	1156
242.629	1116
242.693	2080
242.757	427
242.822	1696
242.886	1954
242.950	2405
243.014	766
243.078	1904
243.142	1855
243.206	1193
243.271	2029
243.335	2385
243.399	2705
243.463	7523
243.527	17909
243.591	7016
243.655	3440
243.719	819
243.783	2516
243.847	3072
243.911	3758
243.975	4594
244.040	2615
244.104	3124
244.168	1497
244.232	2114
244.296	2820
244.360	3522
244.424	1126
244.488	1210
244.552	1810
244.615	-83
244.679	1285
244.743	1946
244.807	910
244.871	1896
244.935	904
244.999	697
245.063	409
245.127	2382
245.191	2608
245.255	2024
245.319	1407
245.383	896
245.446	1743
245.510	626
245.574	1195
245.638	1811
245.702	388
245.766	4129
245.829	2402
245.893	308
245.957	1312
246.021	1763
246.085	1023
246.149	2114
246.212	4999
246.276	6097
246.340	2922
246.404	2943
246.467	2483
246.531	1824
246.595	2421
246.659	1983
246.722	1689
246.786	3016
246.850	3465
246.913	3441
246.977	347
247.041	1742
247.104	1800
247.168	2382
247.232	4557
247.295	8076
247.359	4727
247.423	1783
247.486	4199
247.550	3314
247.614	1784
247.677	2842
247.741	1430
247.804	1792
247.868	1650
247.932	3888
247.995	9090
248.059	3558
248.122	1675
248.186	3409
248.249	4770
248.313	12878
248.376	14287
248.440	9117
248.503	3443
248.567	3885
248.630	3159
248.694	7400
248.757	9233
248.821	15014
248.884	10491
248.948	8395
249.011	11773
249.075	16743
249.138	14352
249.202	5850
249.265	3196
249.328	4358
249.392	2872
249.455	3710
249.519	2815
249.582	3567
249.645	5232
249.709	5125
249.772	3840
249.835	4737
249.899	3493
249.962	2306
250.025	2858
250.089	6485
250.152	8452
250.215	4241
250.279	2951
250.342	3934
250.405	2773
250.468	2768
250.532	3021
250.595	6371
250.658	17235
250.721	26822
250.785	10390
250.848	7344
250.911	3271
250.974	4557
251.038	4704
251.101	9650
251.164	5561
251.227	5435
251.290	5182
251.354	6976
251.417	24137
251.480	23452
251.543	17328
251.606	42221
251.669	32032
251.732	13448
251.795	13318
251.859	13851
251.922	27467
251.985	16846
252.048	7777
252.111	6339
252.174	4277
252.237	9539
252.300	17959
252.363	20007
252.426	33030
252.489	15389
252.552	8098
252.615	5289
252.678	5810
252.741	13973
252.804	17170
252.867	35818
252.930	21344
252.993	13300
253.056	7898
253.119	6270
253.182	3857
253.245	6603
253.308	4861
253.371	3354
253.434	4216
253.497	4288
253.559	8493
253.622	6082
253.685	6058
253.748	6176
253.811	3431
253.874	4362
253.937	3535
254.000	3601
254.062	5781
254.125	8401
254.188	10479
254.251	7302
254.314	2651
254.376	5678
254.439	7148
254.502	5178
254.565	5711
254.628	11131
254.690	6015
254.753	3669
254.816	1665
254.878	2873
254.941	6467
255.004	5780
255.067	2788
255.129	2567
255.192	2027
255.255	1414
255.317	2869
255.380	1706
255.443	529
255.505	782
255.568	-256
255.631	1513
255.693	1808
255.756	203
255.819	1320
255.881	1363
255.944	679
256.006	1139
256.069	965
256.132	1298
256.194	1514
256.257	2800
256.319	1418
256.382	2689
256.444	2107
256.507	2296
256.569	1953
256.632	2394
256.694	2948
256.757	13499
256.819	34443
256.882	15043
256.944	6062
257.007	4956
257.069	3722
257.132	2989
257.194	4053
257.257	2253
257.319	2290
257.381	2811
257.444	10752
257.506	37255
257.569	41963
257.631	16427
257.693	8884
257.756	5215
257.818	2889
257.880	1950
257.943	2538
258.005	1447
258.067	1694
258.130	1676
258.192	2491
258.254	3577
258.317	1725
258.379	2687
258.441	5241
258.503	4749
258.566	3787
258.628	5463
258.690	1893
258.753	3014
258.815	3707
258.877	2503
258.939	2130
259.001	2163
259.064	1951
259.126	1044
259.188	2298
259.250	2160
259.312	2197
259.375	4198
259.437	3112
259.499	1874
259.561	1636
259.623	3069
259.685	1807
259.747	1586
259.809	3558
259.872	5872
259.934	10668
259.996	15534
260.058	5100
260.120	1631
260.182	1644
260.244	1544
260.306	920
260.368	2434
260.430	1420
260.492	6560
260.554	9907
260.616	2833
260.678	6087
260.740	7402
260.802	2024
260.864	2225
260.926	664
260.988	2427
261.050	2109
261.112	9592
261.174	15833
261.236	6413
261.298	2090
261.359	3152
261.421	5196
261.483	1369
261.545	2192
261.607	12
261.669	1025
261.731	2272
261.793	4890
261.854	2658
261.916	2011
261.978	3305
262.040	4075
262.102	2323
262.164	1193
262.225	2226
262.287	1094
262.349	5001
262.411	3358
262.472	2722
262.534	1276
262.596	3448
262.658	1544
262.719	419
262.781	1457
262.843	2895
262.904	2238
262.966	1908
263.028	2324
263.090	9224
263.151	24688
263.213	10739
263.275	7163
263.336	2953
263.398	1771
263.459	1168
263.521	1138
263.583	4737
263.644	3059
263.706	1364
263.767	450
263.829	2084
263.891	79
263.952	1008
264.014	708
264.075	4761
264.137	13293
264.198	4689
264.260	1163
264.321	1393
264.383	5973
264.444	18818
264.506	5106
264.567	3575
264.629	7913
264.690	16607
264.752	5118
264.813	2431
264.875	775
264.936	2916
264.998	1687
265.059	876
265.120	1919
265.182	3505
265.243	21263
265.305	22272
265.366	5316
265.427	2546
265.489	2195
265.550	1181
265.611	2010
265.673	1878
265.734	2110
265.795	1715
265.857	751
265.918	1504
265.979	5629
266.040	31985
266.102	27449
266.163	8284
266.224	5814
266.286	3540
266.347	1402
266.408	2119
266.469	1419
266.530	588
266.592	337
266.653	2531
266.714	4589
266.775	1923
266.836	815
266.898	983
266.959	4294
267.020	3687
267.081	2161
267.142	1477
267.203	517
267.264	116
267.326	1946
267.387	538
267.448	243
267.509	1223
267.570	383
267.631	257
267.692	-124
267.753	1745
267.814	-73
267.875	3238
267.936	6896
267.997	5906
268.058	4457
268.119	1938
268.180	1284
268.241	822
268.302	921
268.363	546
268.424	556
268.485	1613
268.546	266
268.607	37
268.668	-173
268.729	355
268.790	713
268.851	525
268.912	4741
268.972	5754
269.033	3133
269.094	662
269.155	1414
269.216	796
269.277	443
269.338	797
269.398	1813
269.459	1448
269.520	1660
269.581	2399
269.642	2149
269.702	2502
269.763	1344
269.824	1424
269.885	1206
269.945	4035
270.006	1058
270.067	239
270.128	1224
270.188	-552
270.249	796
270.310	511
270.370	1238
270.431	627
270.492	-108
270.553	899
270.613	2309
270.674	6771
270.734	1869
270.795	1485
270.856	2575
270.916	1860
270.977	1015
271.038	1764
271.098	1489
271.159	3433
271.219	2166
271.280	647
271.340	624
271.401	247
271.462	2035
271.522	1362
271.583	1373
271.643	1675
271.704	998
271.764	2121
271.825	4663
271.885	16137
271.946	19882
272.006	6735
272.066	9210
272.127	15284
272.187	4678
272.248	2463
272.308	2282
272.369	9747
272.429	5187
272.489	3928
272.550	5090
272.610	5066
272.671	3009
272.731	3055
272.791	4102
272.852	2708
272.912	2236
272.972	1316
273.033	992
273.093	1748
273.153	3494
273.214	2125
273.274	2369
273.334	10718
273.394	16289
273.455	6034
273.515	6335
273.575	15511
273.635	4766
273.696	6409
273.756	12562
273.816	4948
273.876	2573
273.936	3519
273.997	7423
274.057	1799
274.117	1440
274.177	3413
274.237	20797
274.297	15088
274.358	6542
274.418	10650
274.478	8764
274.538	3441
274.598	1587
274.658	4146
274.718	5958
274.778	2259
274.838	1421
274.898	2894
274.958	7062
275.018	12276
275.078	7539
275.138	3274
275.198	1352
275.258	583
275.318	2109
275.378	4190
275.438	4529
275.498	3020
275.558	4402
275.618	10344
275.678	9225
275.738	7389
275.798	6728
275.858	3823
275.918	865
275.978	1690
276.038	2403
276.098	1668
276.157	3093
276.217	11112
276.277	4971
276.337	3057
276.397	1615
276.457	2162
276.517	1274
276.576	840
276.636	443
276.696	2622
276.756	6532
276.815	4477
276.875	1430
276.935	1155
276.995	1439
277.055	1065
277.114	972
277.174	2098
277.234	7864
277.293	2922
277.353	1584
277.413	1345
277.472	1681
277.532	1839
277.592	1583
277.651	5160
277.711	9559
277.771	2721
277.830	13311
277.890	10141
277.950	6523
278.009	20054
278.069	6946
278.128	6548
278.188	8938
278.248	4245
278.307	10872
278.367	5431
278.426	1805
278.486	2029
278.545	621
278.605	1248
278.664	770
278.724	1845
278.783	5525
278.843	14285
278.902	3142
278.962	2369
279.021	2100
279.081	1962
279.140	1499
279.199	2524
279.259	2574
279.318	2379
279.378	3041
279.437	4943
279.496	18692
279.556	40551
279.615	28672
279.675	7777
279.734	4528
279.793	9087
279.853	15422
279.912	6441
279.971	3585
280.031	2786
280.090	6555
280.149	11939
280.208	7271
280.268	31758
280.327	28993
280.386	6868
280.445	6380
280.505	7424
280.564	4066
280.623	3064
280.682	4285
280.742	8157
280.801	1677
280.860	1208
280.919	1903
280.978	1563
281.037	1013
281.097	157
281.156	871
281.215	1105
281.274	1856
281.333	9580
281.392	6548
281.451	864
281.510	1101
281.569	649
281.628	312
281.688	1741
281.747	1568
281.806	1739
281.865	670
281.924	-26
281.983	799
282.042	49
282.101	347
282.160	87
282.219	172
282.278	1596
282.337	5783
282.396	3430
282.454	1612
282.513	2430
282.572	9009
282.631	5575
282.690	1233
282.749	740
282.808	2533
282.867	2097
282.926	2290
282.985	82
283.043	307
283.102	-313
283.161	1293
283.220	4434
283.279	10788
283.338	4193
283.396	443
283.455	1506
283.514	1747
283.573	3291
283.631	2432
283.690	1788
283.749	1030
283.808	3961
283.866	4009
283.925	1195
283.984	1117
284.043	1983
284.101	1138
284.160	972
284.219	2508
284.277	1361
284.336	3924
284.395	12365
284.453	8841
284.512	3345
284.570	4377
284.629	4020
284.688	2725
284.746	2276
284.805	3190
284.863	4134
284.922	6264
284.981	6613
285.039	9625
285.098	18245
285.156	43427
285.215	76435
285.273	77148
285.332	50004
285.390	25137
285.449	15287
285.507	9529
285.566	7741
285.624	5740
285.683	4365
285.741	3590
285.799	2915
285.858	3028
285.916	2893
285.975	1768
286.033	1495
286.091	1684
286.150	1203
286.208	1178
286.267	2543
286.325	2107
286.383	3491
286.442	2848
286.500	1350
286.558	1413
286.616	2087
286.675	2084
286.733	1573
286.791	1931
286.850	1356
286.908	1969
286.966	5034
287.024	2031
287.083	1151
287.141	637
287.199	1413
287.257	2201
287.315	1573
287.374	1849
287.432	5533
287.490	4131
287.548	2301
287.606	1530
287.664	1979
287.723	1749
287.781	3799
287.839	1358
287.897	1413
287.955	2554
288.013	3706
288.071	9756
288.129	38702
288.187	98406
288.245	46435
288.303	14709
288.361	7724
288.419	6357
288.477	4798
288.535	2904
288.593	2358
288.651	1914
288.709	1324
288.767	1310
288.825	1114
288.883	901
288.941	1046
288.999	1092
289.057	1581
289.115	409
289.173	758
289.231	833
289.289	1710
289.346	875
289.404	1836
289.462	2384
289.520	3105
289.578	1459
289.636	396
289.694	224
289.751	689
289.809	408
289.867	1019
289.925	2270
289.983	1838
290.040	1200
290.098	1258
290.156	1281
290.214	2022
290.271	1630
290.329	1180
290.387	451
290.444	672
290.502	120
290.560	1427
290.617	1213
290.675	865
290.733	-292
290.790	1838
290.848	695
290.906	496
290.963	943
291.021	636
291.078	1002
291.136	2063
291.194	7945
291.251	18188
291.309	4955
291.366	1590
291.424	1227
291.481	1090
291.539	502
291.596	367
291.654	85
291.711	504
291.769	430
291.826	3324
291.884	1529
291.941	1185
291.999	493
292.056	1143
292.114	1268
292.171	694
292.228	637
292.286	2065
292.343	3262
292.401	3906
292.458	2187
292.515	1494
292.573	1450
292.630	913
292.687	1777
292.745	2049
292.802	3232
292.859	11502
292.917	13179
292.974	6826
293.031	2159
293.089	1747
293.146	1561
293.203	1633
293.260	1245
293.318	1902
293.375	5859
293.432	2715
293.489	736
293.546	1159
293.604	1854
293.661	6163
293.718	18586
293.775	11672
293.832	4264
293.889	2816
293.947	2473
294.004	2447
294.061	2115
294.118	6733
294.175	16632
294.232	26828
294.289	9519
294.346	4362
294.403	4045
294.460	2870
294.517	1558
294.574	1493
294.631	2112
294.688	2894
294.745	6166
294.802	25420
294.859	35317
294.916	12453
294.973	5527
295.030	4040
295.087	3043
295.144	2798
295.201	2407
295.258	1931
295.315	2571
295.372	7604
295.429	14231
295.486	7261
295.542	5326
295.599	17766
295.656	32021
295.713	18345
295.770	16472
295.827	6250
295.883	3470
295.940	3268
295.997	6113
296.054	5750
296.111	2371
296.167	3077
296.224	2137
296.281	1719
296.338	1540
296.394	2521
296.451	2519
296.508	7808
296.564	15369
296.621	11725
296.678	18014
296.734	27790
296.791	11192
296.848	5941
296.904	5842
296.961	13477
297.018	17622
297.074	14707
297.131	6657
297.187	4332
297.244	5537
297.301	16040
297.357	26459
297.414	9274
297.470	4385
297.527	3790
297.583	3305
297.640	3074
297.696	2928
297.753	2172
297.809	2162
297.866	1316
297.922	1972
297.979	1875
298.035	1003
298.092	3455
298.148	10092
298.204	10265
298.261	4807
298.317	9621
298.374	22166
298.430	12208
298.486	5338
298.543	4043
298.599	3555
298.656	5509
298.712	7281
298.768	17779
298.824	12007
298.881	4411
298.937	3076
298.993	2777
299.050	3760
299.106	3378
299.162	2626
299.218	3175
299.275	1993
299.331	3015
299.387	4285
299.443	17040
299.500	17960
299.556	7941
299.612	3475
299.668	3421
299.724	3939
299.780	3767
299.837	3291
299.893	4831
299.949	15172
300.005	19062
300.061	16094
300.117	27028
300.173	13051
300.229	6582
300.285	7029
300.341	9250
300.397	4951
300.453	3057
300.510	2071
300.566	2627
300.622	3116
300.678	7629
300.734	14695
300.790	15400
300.845	16753
300.901	10725
300.957	15758
301.013	13852
301.069	5652
301.125	3880
301.181	4973
301.237	3339
301.293	1919
301.349	2868
301.405	1685
301.461	3538
301.516	3521
301.572	2963
301.628	5587
301.684	5164
301.740	6669
301.796	12238
301.851	8357
301.907	13374
301.963	13158
302.019	18752
302.074	47546
302.130	47470
302.186	23764
302.242	10421
302.297	6777
302.353	6882
302.409	12059
302.464	11839
302.520	8767
302.576	19263
302.631	21326
302.687	14181
302.743	6285
302.798	4482
302.854	2645
302.910	3671
302.965	4500
303.021	7493
303.076	7421
303.132	8195
303.187	9898
303.243	5695
303.299	3564
303.354	3418
303.410	3272
303.465	2735
303.521	2571
303.576	3236
303.632	3378
303.687	6498
303.743	16323
303.798	14660
303.853	6129
303.909	4584
303.964	4198
304.020	5596
304.075	8624
304.130	7792
304.186	13298
304.241	13224
304.297	11154
304.352	6031
304.358	5761
304.407	3565
304.449	4167
304.463	4373
304.518	4483
304.539	4052
304.573	3364
304.629	3425
304.630	3467
304.684	5459
304.720	10151
304.739	12518
304.794	19259
304.811	16757
304.850	10560
304.902	5314
304.905	4992
304.960	4269
304.992	4537
305.015	4724
305.071	4596
305.083	4501
305.126	4018
305.173	3133
305.181	3020
305.236	2297
305.264	2486
305.292	2654
305.347	3276
305.354	3331
305.402	3740
305.445	4367
305.457	4512
305.512	5601
305.535	5494
305.567	5381
305.622	5288
305.626	5432
305.678	9142
305.716	17145
305.733	19947
305.788	22533
305.807	19628
305.843	14530
305.897	17405
305.898	17432
305.953	17493
305.988	12526
306.008	9735
306.063	6668
306.078	6063
306.118	4783
306.168	3076
306.173	2926
306.228	3171
306.259	2664
306.283	2382
306.338	3129
306.349	3071
306.393	2961
306.440	4308
306.448	4527
306.503	4223
306.530	4400
306.558	5440
306.613	11625
306.620	12403
306.668	17443
306.711	21155
306.723	21253
306.778	16238
306.801	12727
306.833	8586
306.888	5021
306.892	4838
306.943	3838
306.982	3756
306.997	3759
307.052	3394
307.072	3580
307.107	4324
307.162	5536
307.163	5556
307.217	7911
307.253	9185
307.272	9484
307.327	10516
307.343	9727
307.381	7765
307.434	6669
307.436	6812
307.491	12968
307.524	18722
307.546	20652
307.600	20256
307.614	18598
307.655	12182
307.704	7191
307.710	7041
307.765	7908
307.795	9333
307.819	11383
307.874	19040
307.885	19175
307.929	15878
307.975	13644
307.984	14136
308.038	19731
308.065	24470
308.093	38744
308.148	76499
308.156	84056
308.202	125349
308.246	151478
308.257	147467
308.312	94644
308.336	71194
308.366	54550
308.421	32767
308.426	30892
308.475	20397
308.517	14599
308.530	13724
308.585	11646
308.607	11055
308.639	10734
308.694	10170
308.697	10239
308.748	16527
308.787	23028
308.803	23203
308.857	19089
308.877	17221
308.912	15670
308.967	15093
308.967	15093
309.021	20564
309.058	25522
309.076	31823
309.130	53821
309.148	63105
309.185	100560
309.238	161688
309.239	162342
309.293	176435
309.328	174847
309.348	156445
309.402	90789
309.418	73209
309.457	52542
309.508	31147
309.511	30526
309.566	23770
309.598	20296
309.620	20070
309.674	20548
309.688	20938
309.729	20099
309.778	17972
309.783	17711
309.837	14391
309.868	13019
309.892	15796
309.946	23366
309.959	25782
310.001	35551
310.049	44861
310.055	43492
310.109	26884
310.139	17643
310.163	14355
310.218	8635
310.229	7657
310.272	6615
310.319	5747
310.326	5667
310.381	5450
310.409	5247
310.435	5063
310.489	4530
310.499	4505
310.543	4660
310.589	4648
310.598	4758
310.652	5675
310.679	5993
310.706	5557
310.760	4590
310.769	4430
310.814	4207
310.859	4137
310.868	4137
310.923	3871
310.948	3906
310.977	4281
311.031	4964
311.038	5019
311.085	4615
311.128	4318
311.139	4404
311.193	4815
311.218	5007
311.247	4786
311.301	4205
311.308	4134
311.356	4574
311.398	5052
311.410	4970
311.464	4421
311.488	4144
311.518	4049
311.572	3959
311.578	3945
311.626	5636
311.668	7128
311.680	7224
311.734	7500
311.758	7616
311.788	7589
311.842	7534
311.847	7513
311.896	9682
311.937	11590
311.950	11489
312.004	10916
312.027	10609
312.058	8871
312.112	5790
312.117	5478
312.165	5170
312.207	4908
312.297	10012
312.386	8163
312.476	5299
312.566	9979
312.656	6292
312.745	4524
312.835	5451
312.925	6232
313.015	4940
313.104	5508
313.194	5036
313.284	5132
313.374	6164
313.463	5985
313.553	4824
313.643	4087
313.732	4881
313.822	4223
313.912	5877
314.001	5449
314.091	7150
314.180	11188
314.270	7407
314.360	6774
314.449	5186
314.539	3747
314.628	5032
314.718	5963
314.808	6901
314.897	4574
314.987	4311
315.076	4919
315.166	5937
315.255	5906
315.345	6277
315.434	5633
315.524	6179
315.613	5745
315.703	6411
315.792	6715
315.881	7095
315.971	4600
316.060	9322
316.150	13557
316.239	13973
316.328	6494
316.418	3987
316.507	4142
316.597	5377
316.686	5205
316.775	6975
316.865	15440
316.954	5259
317.043	3616
317.133	4232
317.222	3947
317.311	3631
317.400	2662
317.490	5974
317.579	5094
317.668	4359
317.757	5052
317.847	7461
317.936	10915
318.025	11958
318.114	6542
318.203	7410
318.293	11144
318.382	22293
318.471	18535
318.560	25102
318.649	60664
318.738	14262
318.828	7091
318.917	7951
319.006	9641
319.095	20437
319.184	65886
319.273	36146
319.362	15368
319.451	5574
319.540	5159
319.629	9948
319.718	18672
319.807	10890
319.896	19224
319.985	79097
320.074	30855
320.163	7680
320.252	11460
320.341	12926
320.430	13187
320.519	10673
320.608	7963
320.697	7158
320.786	5761
320.875	6224
320.964	8427
321.053	11377
321.142	15197
321.230	18586
321.319	13751
321.408	35893
321.497	16545
321.586	13125
321.675	15248
321.764	16788
321.852	11326
321.941	20290
322.030	13369
322.119	14087
322.207	32469
322.296	25418
322.385	14547
322.474	12432
322.562	35497
322.651	23606
322.740	12518
322.829	19668
322.917	19019
323.006	11595
323.095	10191
323.183	8540
323.272	12122
323.361	18761
323.449	52649
323.538	20257
323.626	37761
323.715	25148
323.804	10373
323.892	34003
323.981	21851
324.069	6940
324.158	18459
324.246	19916
324.335	8584
324.424	12244
324.512	6325
324.601	8382
324.689	16758
324.778	35846
324.866	15817
324.954	5568
325.043	4777
325.131	8634
325.220	16315
325.308	18233
325.397	12243
325.485	8994
325.574	4524
325.662	3266
325.750	4062
325.839	5205
325.927	3485
326.015	5430
326.104	6486
326.192	9830
326.280	3806
326.369	4374
326.457	6305
326.545	9771
326.634	5682
326.722	3176
326.810	3409
326.898	3947
326.987	3917
327.075	8948
327.163	9475
327.251	6625
327.340	15477
327.428	26888
327.516	4661
327.604	3266
327.692	2744
327.781	3858
327.869	7235
327.957	4763
328.045	4567
328.133	3330
328.221	3726
328.309	3629
328.397	3665
328.485	4990
328.574	5446
328.662	19364
328.750	11176
328.838	4930
328.926	4179
329.014	3740
329.102	6052
329.190	18861
329.278	12771
329.366	4248
329.454	3756
329.542	4984
329.630	3498
329.718	4918
329.806	5863
329.893	6536
329.981	8781
330.069	14852
330.157	50457
330.245	136359
330.333	82595
330.421	15951
330.509	9395
330.597	24734
330.684	19190
330.772	9051
330.860	13821
330.948	21051
331.036	7878
331.123	3625
331.211	3995
331.299	6463
331.387	15175
331.475	31470
331.562	7682
331.650	3915
331.738	3991
331.825	6221
331.913	2871
332.001	2776
332.089	5121
332.176	10493
332.264	18105
332.352	16769
332.439	6392
332.527	5624
332.614	3491
332.702	5235
332.790	3727
332.877	7802
332.965	17115
333.052	4957
333.140	3864
333.228	8998
333.315	3060
333.403	3760
333.490	10473
333.578	8793
333.665	7885
333.753	5896
333.840	3744
333.928	4538
334.015	12208
334.103	20253
334.190	75923
334.278	22389
334.365	6727
334.452	4258
334.540	3356
334.627	4598
334.715	6349
334.802	11484
334.889	54170
334.977	60301
335.064	7460
335.151	5064
335.239	5589
335.326	9615
335.413	35821
335.501	58660
335.588	7019
335.675	4878
335.762	7517
335.850	17072
335.937	7496
336.024	16596
336.111	76087
336.199	33872
336.286	6472
336.373	3996
336.460	2523
336.547	3468
336.635	4891
336.722	4683
336.809	4438
336.896	7119
336.983	24388
337.070	62649
337.157	84300
337.245	43618
337.332	32173
337.419	5586
337.506	3986
337.593	5274
337.680	20065
337.767	75478
337.854	19604
337.941	22612
338.028	18091
338.115	7743
338.202	10192
338.289	14014
338.376	41671
338.463	16067
338.550	39819
338.637	46827
338.724	9568
338.811	14035
338.898	3515
338.984	3324
339.071	6317
339.158	5805
339.245	13582
339.332	10329
339.419	9126
339.506	9954
339.593	1705
339.679	3601
339.766	2952
339.853	4044
339.940	9363
340.027	3174
340.113	2666
340.200	3722
340.287	3376
340.374	3972
340.460	8491
340.547	4521
340.634	5183
340.720	21047
340.807	13612
340.894	2857
340.980	2840
341.067	2489
341.154	3484
341.240	5841
341.327	12147
341.414	5381
341.500	8352
341.587	3014
341.674	2858
341.760	7238
341.847	7722
341.933	3817
342.020	588
342.106	1446
342.193	2208
342.279	5755
342.366	4169
342.452	7742
342.539	3633
342.625	7147
342.712	23697
342.798	10889
342.885	4235
342.971	1732
343.058	1327
343.144	1598
343.230	2238
343.317	3332
343.403	2261
343.490	1172
343.576	1527
343.662	1957
343.749	2760
343.835	3426
343.921	6272
344.008	34279
344.094	89149
344.180	22130
344.267	7215
344.353	25547
344.439	30220
344.525	13743
344.612	12239
344.698	12815
344.784	6636
344.870	3476
344.957	3108
345.043	4416
345.129	2390
345.215	7218
345.301	5967
345.387	4733
345.474	1655
345.560	1511
345.646	2746
345.732	3858
345.818	4379
345.904	3816
345.990	2907
346.076	2765
346.162	7904
346.249	4227
346.335	1970
346.421	2233
346.507	7878
346.593	36796
346.679	9901
346.765	4024
346.851	1377
346.937	2367
347.023	1750
347.108	3507
347.194	2801
347.280	2950
347.366	3273
347.452	7979
347.538	38219
347.624	33628
347.710	29122
347.796	5381
347.882	3027
347.967	3307
348.053	7146
348.139	3937
348.225	1359
348.311	1504
348.397	1323
348.482	2813
348.568	3774
348.654	1753
348.740	1133
348.825	1621
348.911	3938
348.997	16597
349.083	39688
349.168	7069
349.254	3716
349.340	5001
349.425	1701
349.511	2688
349.597	4321
349.682	6555
349.768	27321
349.854	14186
349.939	3831
350.025	2045
350.110	3468
350.196	3059
350.282	1948
350.367	1607
350.453	2864
350.538	3813
350.624	4228
350.709	5666
350.795	883
350.880	1939
350.966	3253
351.051	4268
351.137	2247
351.222	1734
351.308	7246
351.393	26481
351.479	7930
351.564	3761
351.649	2697
351.735	2072
351.820	710
351.906	2115
351.991	2980
352.076	12971
352.162	25985
352.247	4744
352.332	2853
352.418	8348
352.503	11039
352.588	35757
352.673	30336
352.759	6384
352.844	2317
352.929	3442
353.014	4288
353.100	2660
353.185	3614
353.270	7225
353.355	7316
353.441	2294
353.526	2606
353.611	6387
353.696	7993
353.781	5505
353.866	1082
353.952	3110
354.037	5036
354.122	15219
354.207	13040
354.292	6098
354.377	2715
354.462	1837
354.547	1796
354.632	3418
354.717	6726
354.802	5689
354.887	2210
354.972	1894
355.057	842
355.142	824
355.227	2602
355.312	4179
355.397	9525
355.482	24862
355.567	12327
355.652	9088
355.737	8525
355.822	29326
355.907	26339
355.991	4364
356.076	2148
356.161	2113
356.246	1698
356.331	2104
356.416	4646
356.501	41372
356.585	49909
356.670	8368
356.755	4952
356.840	5705
356.924	26331
357.009	105807
357.094	44260
357.179	9364
357.263	5885
357.348	6683
357.433	6920
357.517	5452
357.602	4821
357.687	2874
357.771	6519
357.856	26496
357.941	16298
358.025	21087
358.110	102214
358.195	55627
358.279	8279
358.364	6029
358.448	17931
358.533	59999
358.617	44312
358.702	42863
358.787	15809
358.871	8864
358.956	7107
359.040	1806
359.125	1002
359.209	2264
359.294	10740
359.378	21980
359.462	8226
359.547	3991
359.631	2141
359.716	854
359.800	2704
359.885	7189
359.969	2300
360.053	2278
360.138	2266
360.222	3490
360.306	6340
360.391	6323
360.475	12309
360.559	31123
360.644	22112
360.728	16053
360.812	21068
360.896	69774
360.981	34616
361.065	22042
361.149	4416
361.233	4219
361.318	2548
361.402	3034
361.486	3219
361.570	1693
361.654	2865
361.739	8113
361.823	38590
361.907	71451
361.991	14547
362.075	6607
362.159	14040
362.243	10896
362.327	7905
362.411	8972
362.495	4593
362.580	3465
362.664	2505
362.748	1569
362.832	2205
362.916	4323
363.000	13564
363.084	40982
363.168	78510
363.252	21259
363.336	7014
363.420	10186
363.503	49777
363.587	70973
363.671	10087
363.755	6025
363.839	9508
363.923	3644
364.007	8501
364.091	9484
364.175	14440
364.258	84493
364.342	50691
364.426	26079
364.510	13799
364.594	12971
364.677	14106
364.761	56255
364.845	46045
364.929	14688
365.013	11169
365.096	9140
365.180	10568
365.264	17337
365.347	89470
365.431	45294
365.515	12451
365.598	2709
365.682	2535
365.766	11010
365.849	17554
365.933	4529
366.017	8348
366.100	8595
366.184	1005
366.267	2358
366.351	2464
366.435	1295
366.518	455
366.602	1355
366.685	1484
366.769	2317
366.852	8488
366.936	16060
367.019	5536
367.103	5575
367.186	19898
367.270	3125
367.353	698
367.436	1376
367.520	445
367.603	2620
367.687	2721
367.770	8451
367.853	4094
367.937	16654
368.020	32774
368.104	6795
368.187	5255
368.270	10885
368.353	11285
368.437	10468
368.520	26173
368.603	17809
368.687	18969
368.770	46537
368.853	10687
368.936	11608
369.020	16730
369.103	4380
369.186	1167
369.269	1545
369.352	5492
369.436	9685
369.519	5699
369.602	1845
369.685	3304
369.768	2252
369.851	2627
369.934	418
370.018	2595
370.101	6904
370.184	7738
370.267	5424
370.350	8494
370.433	14831
370.516	29899
370.599	36295
370.682	8372
370.765	24474
370.848	27111
370.931	53664
371.014	25649
371.097	3784
371.180	2518
371.263	1241
371.346	-358
371.429	1740
371.511	595
371.594	5296
371.677	10532
371.760	18717
371.843	8555
371.926	35384
372.009	95952
372.091	35094
372.174	17364
372.257	48210
372.340	19173
372.423	20610
372.505	31313
372.588	9840
372.671	12882
372.754	48495
372.836	27729
372.919	24682
373.002	62060
373.085	15781
373.167	7118
373.250	19155
373.332	46002
373.415	54303
373.498	120060
373.580	48727
373.663	48651
373.746	78131
373.828	19245
373.911	8744
373.993	9126
374.076	51159
374.159	54127
374.241	14839
374.324	44009
374.406	31102
374.489	28798
374.571	100507
374.654	44535
374.736	16411
374.819	56369
374.901	82241
374.983	91312
375.066	17380
375.148	5593
375.231	35610
375.313	86379
375.395	35508
375.478	5680
375.560	2942
375.643	3046
375.725	13090
375.807	69929
375.890	61825
375.972	26193
376.054	12818
376.136	22010
376.219	9696
376.301	16865
376.383	64705
376.465	25199
376.548	14022
376.630	15486
376.712	54237
376.794	28035
376.877	2904
376.959	516
377.041	2983
377.123	12193
377.205	18042
377.287	1696
377.369	1358
377.452	1568
377.534	1495
377.616	695
377.698	426
377.780	-49
377.862	1594
377.944	2481
378.026	672
378.108	477
378.190	732
378.272	973
378.354	288
378.436	863
378.518	4131
378.600	27269
378.682	18257
378.764	30017
378.846	26089
378.928	7175
379.010	9953
379.091	5049
379.173	1800
379.255	768
379.337	2582
379.419	10987
379.501	44635
379.583	19256
379.664	3764
379.746	7713
379.828	31208
379.910	42163
379.991	38238
380.073	5251
380.155	3030
380.237	2081
380.318	1879
380.400	1009
380.482	4921
380.564	9110
380.645	7571
380.727	7720
380.809	5659
380.890	2808
380.972	882
381.053	1491
381.135	2834
381.217	7469
381.298	33800
381.380	15528
381.461	10066
381.543	49254
381.624	71017
381.706	12089
381.787	7258
381.869	6793
381.951	18602
382.032	85591
382.113	62337
382.195	13361
382.276	8435
382.358	13739
382.439	47785
382.521	50061
382.602	83578
382.684	37387
382.765	69777
382.846	66962
382.928	57135
383.009	33059
383.090	22430
383.172	78944
383.253	127386
383.334	53808
383.416	73720
383.497	39353
383.578	13443
383.659	21762
383.741	73000
383.822	190969
383.903	104669
383.984	44235
384.066	95489
384.147	65438
384.228	12425
384.309	8358
384.390	6410
384.471	3336
384.553	6041
384.634	8180
384.715	7487
384.796	2980
384.877	3605
384.958	24505
385.039	36780
385.120	12198
385.201	4893
385.282	8309
385.363	10210
385.444	6138
385.525	8950
385.606	37874
385.687	37344
385.768	10339
385.849	12723
385.930	40919
386.011	80893
386.092	24433
386.173	5719
386.254	5311
386.335	6478
386.416	4912
386.496	17928
386.577	35517
386.658	16102
386.739	7496
386.820	10955
386.901	7901
386.981	6427
387.062	3511
387.143	6039
387.224	28583
387.304	32308
387.385	10430
387.466	7841
387.547	11845
387.627	5994
387.708	8827
387.789	49367
387.869	67134
387.950	18105
388.031	3104
388.111	3790
388.192	19787
388.273	29744
388.353	15095
388.434	4675
388.514	7364
388.595	41843
388.676	64055
388.756	33244
388.837	29636
388.917	19695
388.998	3414
389.078	3896
389.159	2161
389.239	1703
389.320	4985
389.400	4367
389.480	11412
389.561	35645
389.641	17594
389.722	5033
389.802	9239
389.883	12387
389.963	37500
390.043	27245
390.124	9857
390.204	10065
390.284	35844
390.365	24011
390.445	33932
390.525	70859
390.605	53149
390.686	20001
390.766	6786
390.846	3769
390.927	1036
391.007	1922
391.087	3485
391.167	5149
391.247	2731
391.328	5513
391.408	14601
391.488	12406
391.568	1710
391.648	2410
391.728	5655
391.808	4835
391.888	5294
391.969	15910
392.049	30617
392.129	17637
392.209	13853
392.289	36648
392.369	23192
392.449	29652
392.529	16689
392.609	6861
392.689	7719
392.769	30987
392.849	29496
392.929	21062
393.009	58377
393.089	36153
393.169	14064
393.248	37184
393.328	200149
393.408	247516
393.488	55093
393.568	13818
393.648	7804
393.728	6168
393.807	4022
393.887	5304
393.967	5007
394.047	8370
394.127	11473
394.206	20904
394.286	66265
394.366	261236
394.446	318451
394.525	104101
394.605	28371
394.685	19122
394.764	39244
394.844	67424
394.924	46248
395.003	12160
395.083	6914
395.163	7189
395.242	5643
395.322	6554
395.402	3230
395.481	7458
395.561	21762
395.640	68637
395.720	46181
395.799	71685
395.879	66551
395.958	39052
396.038	109815
396.117	332922
396.197	400825
396.276	181443
396.356	65169
396.435	44192
396.515	23233
396.594	15584
396.673	18690
396.753	49723
396.832	200148
396.912	172968
396.991	43815
397.070	11253
397.150	5047
397.229	4832
397.308	3778
397.388	8626
397.467	5827
397.546	2690
397.625	92
397.705	4832
397.784	4134
397.863	1922
397.942	1259
398.022	1981
398.101	15729
398.180	66390
398.259	39932
398.338	9268
398.417	3242
398.497	3133
398.576	3414
398.655	473
398.734	756
398.813	1870
398.892	13977
398.971	67848
399.050	35705
399.129	2898
399.208	965
399.287	2085
399.366	620
399.445	1644
399.524	2272
399.603	923
399.682	4093
399.761	13778
399.840	64275
399.919	58592
399.998	7137
400.077	222
400.156	-10
400.235	3216
400.313	1220
400.392	2454
400.471	14407
400.550	29011
400.629	7200
400.708	3779
400.786	4287
400.865	18646
400.944	21467
401.023	8481
401.102	-46
401.180	774
401.259	809
401.338	2782
401.416	4023
401.495	3475
401.574	2808
401.652	2442
401.731	3499
401.810	3152
401.888	1182
401.967	98
402.046	1608
402.124	4065
402.203	5167
402.281	3192
402.360	4942
402.438	23349
402.517	17786
402.596	5211
402.674	4068
402.753	1753
402.831	1400
402.910	2564
402.988	9210
403.066	40667
403.145	24935
403.223	10635
403.302	33440
403.380	24254
403.459	23040
403.537	9835
403.615	3568
403.694	-300
403.772	2270
403.850	1160
403.929	883
404.007	761
404.085	5017
404.164	4301
404.242	3452
404.320	14680
404.398	57431
404.477	59960
404.555	76561
404.633	75561
404.711	47535
404.789	32580
404.868	6813
404.946	2010
405.024	1049
405.102	732
405.180	-67
405.258	300
405.336	1278
405.415	775
405.493	6311
405.571	5261
405.649	91
405.727	1506
405.805	5613
405.883	3855
405.961	2919
406.039	6544
406.117	904
406.195	2495
406.273	11439
406.351	61021
406.429	43525
406.507	9764
406.585	2870
406.663	1782
406.740	1977
406.818	1848
406.896	1245
406.974	2080
407.052	2926
407.130	32741
407.208	54975
407.285	11168
407.363	278
407.441	872
407.519	670
407.596	1223
407.674	4481
407.752	14360
407.830	24389
407.907	14011
407.985	2339
408.063	1182
408.141	598
408.218	5106
408.296	4819
408.373	1332
408.451	1035
408.529	905
408.606	-187
408.684	380
408.762	-346
408.839	-389
408.917	-929
408.994	37
409.072	-1211
409.149	328
409.227	524
409.304	1440
409.382	305
409.459	623
409.537	1510
409.614	1251
409.692	1257
409.769	714
409.846	1029
409.924	4020
410.001	1705
410.079	2299
410.156	1911
410.233	1825
410.311	1447
410.388	742
410.465	1131
410.543	1793
410.620	73
410.697	712
410.775	890
410.852	-816
410.929	1503
411.006	2862
411.083	1711
411.161	4882
411.238	8410
411.315	5117
411.392	866
411.469	2649
411.547	2454
411.624	498
411.701	1019
411.778	1711
411.855	3057
411.932	1507
412.009	768
412.086	1146
412.163	1752
412.240	3241
412.317	3521
412.394	3004
412.471	611
412.548	-270
412.625	609
412.702	1781
412.779	5505
412.856	3518
412.933	-24
413.010	161
413.087	1702
413.164	14640
413.241	24045
413.318	4067
413.395	2804
413.471	4572
413.548	1747
413.625	809
413.702	1237
413.779	2098
413.855	5
413.932	-448
414.009	-525
414.086	77
414.162	60
414.239	2458
414.316	13141
414.393	34839
414.469	12355
414.546	552
414.623	257
414.699	451
414.776	1576
414.853	371
414.929	518
415.006	1184
415.082	2608
415.159	2236
415.236	110
415.312	714
415.389	2397
415.465	3486
415.542	1332
415.618	386
415.695	2217
415.771	949
415.848	1148
415.924	1672
416.000	1374
416.077	1018
416.153	-785
416.230	-258
416.306	120
416.383	-121
416.459	792
416.535	151
416.612	-219
416.688	419
416.764	-591
416.841	-743
416.917	298
416.993	543
417.069	975
417.146	3685
417.222	6814
417.298	2618
417.374	-231
417.451	1666
417.527	1016
417.603	1596
417.679	819
417.755	1339
417.831	-29
417.908	267
417.984	556
418.060	-721
418.136	2374
418.212	5156
418.288	1192
418.364	964
418.440	24
418.516	2731
418.592	5759
418.668	9047
418.744	9218
418.820	7392
418.896	747
418.972	-576
419.048	310
419.124	3895
419.200	2360
419.276	682
419.352	-987
419.428	128
419.504	389
419.579	1357
419.655	-573
419.731	587
419.807	4785
419.883	10759
419.959	6985
420.034	2885
420.110	3572
420.186	20996
420.262	18399
420.337	3000
420.413	1531
420.489	1174
420.565	320
420.640	891
420.716	1208
420.792	-1149
420.867	948
420.943	19
421.019	2056
421.094	475
421.170	237
421.245	-251
421.321	471
421.397	725
421.472	1234
421.548	5559
421.623	6444
421.699	1567
421.774	2093
421.850	1046
421.925	2954
422.001	3107
422.076	2373
422.152	2806
422.227	5194
422.302	6449
422.378	7154
422.453	13422
422.529	35919
422.604	122166
422.679	241443
422.755	162376
422.830	48796
422.905	16812
422.981	9240
423.056	5555
423.131	4137
423.207	3045
423.282	2579
423.357	7008
423.432	3788
423.508	3819
423.583	8687
423.658	7657
423.733	2521
423.808	3117
423.883	3101
423.959	1737
424.034	1030
424.109	1261
424.184	568
424.259	407
424.334	373
424.409	-686
424.484	416
424.559	770
424.634	754
424.709	864
424.784	2047
424.859	958
424.934	2052
425.009	12570
425.084	25425
425.159	9575
425.234	1927
425.309	174
425.384	5240
425.459	12377
425.534	3092
425.609	2083
425.683	913
425.758	525
425.833	415
425.908	1558
425.983	5780
426.058	24079
426.132	10955
426.207	2472
426.282	6086
426.357	5585
426.431	1031
426.506	1031
426.581	1814
426.655	1330
426.730	321
426.805	304
426.879	2053
426.954	902
427.029	2967
427.103	19425
427.178	54732
427.253	26516
427.327	3512
427.402	5046
427.476	18350
427.551	8706
427.625	2967
427.700	2503
427.774	257
427.849	2635
427.923	639
427.998	1153
428.072	1677
428.147	4962
428.221	15237
428.296	39890
428.370	20780
428.444	3801
428.519	7797
428.593	18942
428.667	15721
428.742	19591
428.816	14758
428.890	33888
428.965	51805
429.039	21227
429.113	22312
429.188	8261
429.262	1733
429.336	3610
429.410	11869
429.485	9397
429.559	14730
429.633	13353
429.707	2258
429.781	6958
429.855	41906
429.930	59414
430.004	39738
430.078	77449
430.152	60421
430.226	54353
430.300	58562
430.374	9593
430.448	3378
430.522	18868
430.596	69274
430.670	38274
430.744	42262
430.818	75009
430.892	15958
430.966	2441
431.040	942
431.114	451
431.188	642
431.262	875
431.336	1365
431.410	5769
431.484	21687
431.557	12859
431.631	1252
431.705	826
431.779	5181
431.853	30748
431.927	23979
432.000	3605
432.074	1225
432.148	2927
432.222	3009
432.295	537
432.369	486
432.443	1782
432.516	18376
432.590	55116
432.664	22795
432.737	2482
432.811	9
432.885	568
432.958	338
433.032	318
433.106	-68
433.179	55
433.253	643
433.326	134
433.400	-882
433.473	745
433.547	-607
433.620	839
433.694	1619
433.767	2171
433.841	180
433.914	273
433.988	-165
434.061	424
434.134	-97
434.208	83
434.281	-693
434.355	-415
434.428	947
434.501	214
434.575	10
434.648	796
434.721	-570
434.795	256
434.868	-757
434.941	-165
435.014	-21
435.088	35
435.161	493
435.234	1418
435.307	2128
435.381	1531
435.454	201
435.527	327
435.600	312
435.673	845
435.746	-12
435.819	573
435.892	341
435.966	-159
436.039	202
436.112	1576
436.185	433
436.258	354
436.331	-306
436.404	683
436.477	-707
436.550	-750
436.623	263
436.696	331
436.769	146
436.842	180
436.915	483
436.987	1699
437.060	751
437.133	-214
437.206	-471
437.279	1453
437.352	-673
437.425	102
437.498	496
437.570	3460
437.643	3479
437.716	956
437.789	42
437.861	2143
437.934	7864
438.007	2939
438.080	121
438.152	1193
438.225	2846
438.298	21059
438.370	70266
438.443	30568
438.516	7300
438.588	1752
438.661	-523
438.734	824
438.806	348
438.879	2373
438.951	1741
439.024	4226
439.096	435
439.169	902
439.241	47
439.314	175
439.386	1962
439.459	3317
439.531	4700
439.604	1672
439.676	732
439.749	-58
439.821	63
439.893	431
439.966	149
440.038	1287
440.110	787
440.183	739
440.255	55
440.327	1813
440.400	10712
440.472	48547
440.544	31497
440.617	3609
440.689	3338
440.761	3204
440.833	5599
440.905	3815
440.978	178
441.050	101
441.122	725
441.194	-19
441.266	-51
441.338	335
441.411	2203
441.483	14078
441.555	23771
441.627	5647
441.699	3924
441.771	4203
441.843	320
441.915	41
441.987	-115
442.059	183
442.131	750
442.203	3658
442.275	3225
442.347	3380
442.419	1942
442.491	9966
442.563	26444
442.635	14959
442.706	18494
442.778	14770
442.850	1326
442.922	637
442.994	868
443.066	3298
443.137	2088
443.209	1601
443.281	1782
443.353	4549
443.425	17241
443.496	53626
443.568	48588
443.640	16372
443.711	3355
443.783	1528
443.855	952
443.926	119
443.998	1168
444.070	3072
444.141	2050
444.213	2800
444.285	3042
444.356	2645
444.428	2267
444.499	910
444.571	20
444.642	489
444.714	133
444.785	1878
444.857	3342
444.928	15432
445.000	7610
445.071	8511
445.143	10975
445.214	4256
445.285	7303
445.357	25199
445.428	42422
445.500	96177
445.571	60346
445.642	25155
445.714	16163
445.785	24115
445.856	4228
445.928	3088
445.999	2561
446.070	2551
446.141	1859
446.213	4251
446.284	1841
446.355	2705
446.426	909
446.497	1028
446.569	3700
446.640	5878
446.711	1741
446.782	959
446.853	514
446.924	1729
446.995	616
447.066	1391
447.138	5359
447.209	3038
447.280	-1236
447.351	578
447.422	-699
447.493	2062
447.564	2010
447.635	2344
447.706	547
447.777	-347
447.847	-212
447.918	113
447.989	2374
448.060	3674
448.131	9735
448.202	7880
448.273	3999
448.344	1344
448.414	968
448.485	203
448.556	435
448.627	586
448.698	1198
448.768	-99
448.839	497
448.910	4640
448.981	3245
449.051	987
449.122	-120
449.193	182
449.263	691
449.334	832
449.405	938
449.475	4159
449.546	2633
449.616	5159
449.687	5006
449.758	367
449.828	793
449.899	622
449.969	48
450.040	779
450.110	1157
450.181	997
450.251	481
450.322	1499
450.392	957
450.463	947
450.533	240
450.604	929
450.674	292
450.744	1684
450.815	708
450.885	1363
450.955	230
451.026	743
451.096	185
451.166	1604
451.237	5665
451.307	17573
451.377	4956
451.447	791
451.518	21
451.588	571
451.658	1167
451.728	2954
451.799	16836
451.869	19641
451.939	3128
452.009	1233
452.079	145
452.149	1867
452.219	3233
452.289	19615
452.360	13777
452.430	1068
452.500	1612
452.570	2062
452.640	2696
452.710	9665
452.780	17398
452.850	7133
452.920	5678
452.990	2535
453.060	1378
453.129	2898
453.199	3018
453.269	16836
453.339	36275
453.409	55767
453.479	58976
453.549	91128
453.619	102506
453.688	32570
453.758	4320
453.828	2137
453.898	966
453.968	1300
454.037	1311
454.087	1016
454.107	876
454.168	148
454.177	19
454.247	895
454.249	933
454.316	1291
454.330	1508
454.386	2185
454.411	5018
454.456	9171
454.492	12143
454.525	14780
454.574	6828
454.595	3398
454.655	1128
454.665	792
454.734	2128
454.736	2280
454.804	5816
454.817	8289
454.873	16701
454.898	17438
454.943	18407
454.979	10593
455.013	3896
455.060	2598
455.082	2403
455.141	4195
455.152	4393
455.221	14291
455.222	14610
455.291	27776
455.303	26833
455.360	21342
455.384	30258
455.430	43754
455.465	32810
455.499	22765
455.546	20680
455.569	19226
455.627	11317
455.638	10120
455.707	1995
455.708	2022
455.777	1734
455.789	1915
455.846	2674
455.869	2510
455.916	2189
455.950	1995
455.985	1670
456.031	1887
456.054	1976
456.112	1370
456.124	1245
456.193	2024
456.193	2003
456.262	2330
456.274	2429
456.332	2715
456.355	2802
456.401	2634
456.436	2142
456.470	1667
456.516	1242
456.540	1017
456.597	789
456.609	761
456.678	1492
456.678	1476
456.747	975
456.759	970
456.817	1157
456.840	1059
456.886	664
456.920	1192
456.955	1733
457.001	1341
457.024	1165
457.082	1987
457.093	2115
457.162	2825
457.163	2851
457.232	3520
457.243	3370
457.301	2285
457.324	1947
457.370	1587
457.405	1813
457.439	2078
457.485	2269
457.508	2250
457.566	2468
457.577	2545
457.646	3026
457.647	3048
457.715	3260
457.727	3402
457.784	4303
457.808	4874
457.853	5832
457.889	6892
457.922	6919
457.969	6002
457.991	6045
458.050	6801
458.060	7008
458.129	8873
458.130	8964
458.198	8239
458.211	7711
458.267	5097
458.292	4160
458.336	3570
458.372	3409
458.405	4124
458.453	5039
458.474	5919
458.533	9765
458.543	10191
458.611	14999
458.614	15160
458.680	10523
458.694	8883
458.749	5361
458.775	4299
458.818	3434
458.855	3238
458.887	3156
458.936	2893
458.955	2859
459.016	3070
459.024	3132
459.093	4358
459.097	4385
459.162	4089
459.177	4100
459.230	4266
459.257	4459
459.299	4777
459.338	5113
459.368	5271
459.418	5798
459.437	5630
459.499	4243
459.505	4171
459.574	3131
459.579	3184
459.643	3929
459.659	3871
459.711	3592
459.740	3569
459.780	3870
459.820	4650
459.849	5119
459.900	5288
459.917	5150
459.981	5233
459.986	5243
460.054	4956
460.061	4968
460.123	5002
460.141	5017
460.191	5745
460.222	6150
460.260	6416
460.302	7111
460.328	6986
460.382	6169
460.397	6065
460.462	5729
460.465	5855
460.534	9123
460.543	9541
460.602	22492
460.623	27401
460.671	42376
460.703	55773
460.739	50371
460.783	40079
460.808	33396
460.864	8962
460.876	7237
460.944	4807
460.945	4779
461.013	4887
461.024	4873
461.081	5069
461.104	5355
461.150	5149
461.184	4694
461.218	4605
461.264	4372
461.286	4496
461.345	5203
461.355	5226
461.423	5587
461.425	5583
461.491	5714
461.505	5895
461.559	11255
461.585	13623
461.628	21358
461.665	28999
461.696	31834
461.745	39383
461.764	34663
461.825	10283
461.832	9642
461.901	5792
461.905	5722
461.969	5588
461.985	5408
462.037	5810
462.065	6227
462.105	7012
462.145	7970
462.173	11122
462.225	16755
462.241	18446
462.305	26582
462.310	25847
462.378	14235
462.385	12462
462.446	7149
462.465	6161
462.514	6058
462.545	6126
462.582	6321
462.625	6622
462.650	6405
462.705	5821
462.718	6019
462.785	7079
462.786	7131
462.854	9968
462.865	10502
462.922	13289
462.945	14588
462.990	11012
463.025	7286
463.058	6710
463.104	6050
463.126	5754
463.184	5565
463.194	5753
463.262	6738
463.264	6784
463.330	7065
463.344	6982
463.398	7711
463.424	8248
463.466	7785
463.504	7335
463.533	7872
463.583	8575
463.601	8567
463.663	8535
463.669	8806
463.737	11947
463.743	12248
463.805	18312
463.823	20030
463.873	31071
463.903	38055
463.940	40227
463.982	43454
464.008	35185
464.062	14284
464.076	13110
464.142	7870
464.144	7822
464.211	6812
464.221	6749
464.279	7028
464.301	6998
464.347	8189
464.381	9185
464.414	10271
464.461	11667
464.482	12109
464.540	13703
464.550	13319
464.617	9657
464.620	9526
464.685	10740
464.699	10974
464.753	13689
464.779	15171
464.820	17546
464.859	19692
464.888	18981
464.938	17436
464.956	17605
465.018	18280
465.023	18079
465.091	14872
465.098	14528
465.158	14038
465.177	13879
465.226	13962
465.257	13931
465.293	14074
465.336	14389
465.361	15332
465.416	17224
465.428	18447
465.495	24805
465.496	24955
465.563	42065
465.575	45016
465.631	54008
465.654	58035
465.698	37057
465.734	18339
465.765	16236
465.813	13494
465.833	13443
465.893	13762
465.900	13749
465.968	13329
465.972	13277
466.035	13767
466.052	13875
466.102	14057
466.131	14120
466.170	14371
466.210	14586
466.237	14955
466.290	15547
466.304	15628
466.369	15820
466.372	15891
466.439	17117
466.449	17250
466.506	18482
466.528	18949
466.573	25202
466.607	29771
466.641	42423
466.687	59935
466.708	65449
466.766	80634
466.775	74675
466.842	28487
466.845	26232
466.909	21161
466.925	20037
466.977	19629
467.004	19363
467.044	20126
467.083	20814
467.111	22901
467.163	26717
467.178	27551
467.242	30751
467.245	30598
467.312	26131
467.321	25486
467.379	24928
467.400	24653
467.446	26804
467.480	28267
467.559	25023
467.638	21262
467.717	22132
467.796	23223
467.875	23578
467.955	22763
468.034	34336
468.113	71116
468.192	102130
468.271	29974
468.350	19738
468.429	20096
468.508	19646
468.588	18669
468.667	20376
468.746	21254
468.825	19820
468.904	17492
468.983	21670
469.062	30513
469.141	37100
469.220	18497
469.299	17538
469.378	19348
469.456	24777
469.535	22778
469.614	20724
469.693	20649
469.772	27011
469.851	34536
469.930	25311
470.009	18508
470.088	17422
470.166	18396
470.245	18206
470.324	19797
470.403	18128
470.482	17096
470.560	16447
470.639	16270
470.718	19010
470.797	16897
470.875	20048
470.954	26797
471.033	29613
471.111	16374
471.190	15354
471.269	14012
471.347	15746
471.426	16548
471.505	19801
471.583	21230
471.662	21002
471.740	18073
471.819	17176
471.898	15639
471.976	17102
472.055	16803
472.133	18534
472.212	24028
472.290	24814
472.369	17996
472.447	15984
472.526	14830
472.604	15758
472.683	15095
472.761	16150
472.839	15166
472.918	14981
472.996	14823
473.075	17742
473.153	17632
473.231	16155
473.310	16748
473.388	16460
473.466	15620
473.545	17134
473.623	20153
473.701	18999
473.780	17125
473.858	15309
473.936	17012
474.014	16145
474.093	17246
474.171	23916
474.249	32656
474.327	23332
474.405	13765
474.484	14606
474.562	13886
474.640	14670
474.718	15199
474.796	15800
474.874	13745
474.952	14318
475.030	14168
475.108	14898
475.187	15981
475.265	17162
475.343	19803
475.421	21651
475.499	14987
475.577	16558
475.655	20437
475.733	37072
475.811	62615
475.889	58330
475.966	38963
476.044	16272
476.122	16011
476.200	18284
476.278	15960
476.356	14631
476.434	14851
476.512	16712
476.590	18993
476.667	18083
476.745	13872
476.823	14429
476.901	13939
476.979	15786
477.056	15353
477.134	16500
477.212	15683
477.290	14445
477.367	13482
477.445	13497
477.523	12389
477.601	14029
477.678	13445
477.756	16947
477.834	17911
477.911	12681
477.989	12768
478.066	13248
478.144	15555
478.222	16042
478.299	17908
478.377	17674
478.454	11962
478.532	11836
478.609	11840
478.687	13378
478.764	11448
478.842	12703
478.919	13157
478.997	13218
479.074	11890
479.152	14824
479.229	17358
479.307	12719
479.384	10548
479.461	11922
479.539	12674
479.616	14558
479.694	12645
479.771	13755
479.848	14746
479.926	18966
480.003	20898
480.080	10825
480.157	11106
480.235	11634
480.312	11152
480.389	13430
480.467	20844
480.544	27039
480.621	14665
480.698	13044
480.775	15267
480.853	15989
480.930	13996
481.007	13981
481.084	15134
481.161	17486
481.238	16327
481.315	12154
481.392	11825
481.470	12633
481.547	12772
481.624	11847
481.701	12335
481.778	12415
481.855	14480
481.932	21106
482.009	36213
482.086	25248
482.163	12480
482.240	14069
482.317	20313
482.393	17690
482.470	12690
482.547	12934
482.624	11794
482.701	12892
482.778	11591
482.855	10886
482.932	10948
483.009	10174
483.085	12033
483.162	13884
483.239	13178
483.316	10686
483.393	10838
483.469	10683
483.546	12871
483.623	14707
483.699	11130
483.776	11824
483.853	14282
483.930	20586
484.006	53309
484.083	93770
484.160	53805
484.236	77571
484.313	60410
484.389	44194
484.466	38889
484.543	36474
484.619	35798
484.696	37827
484.772	39833
484.849	43124
484.925	34946
485.002	35239
485.078	36012
485.155	37045
485.231	33373
485.308	33535
485.384	33779
485.461	40643
485.537	59391
485.614	70776
485.690	35663
485.766	31540
485.843	31387
485.919	36542
485.995	37612
486.072	29295
486.148	30322
486.224	29300
486.301	30102
486.377	33544
486.453	32771
486.530	33632
486.606	44703
486.682	51402
486.758	57766
486.835	62359
486.911	48242
486.987	72611
487.063	63686
487.139	62130
487.215	49824
487.292	35517
487.368	32156
487.444	34079
487.520	37573
487.596	35295
487.672	39048
487.748	56478
487.824	74546
487.900	45596
487.976	33827
488.052	33068
488.128	36851
488.204	32510
488.280	30411
488.356	35603
488.432	65382
488.508	99192
488.584	38068
488.660	25983
488.736	26461
488.812	27504
488.888	32365
488.964	37603
489.039	53826
489.115	76569
489.191	52398
489.267	28335
489.343	27215
489.418	24773
489.494	23789
489.570	22330
489.646	24033
489.722	25132
489.797	26025
489.873	35687
489.949	74969
490.024	65914
490.100	23468
490.176	23243
490.251	24837
490.327	28683
490.403	21737
490.478	21314
490.554	18536
490.629	20528
490.705	19326
490.781	20766
490.856	20607
490.932	23185
491.007	21004
491.083	22087
491.158	21048
491.234	27365
491.309	56964
491.385	59955
491.460	22441
491.536	22946
491.611	19243
491.686	20095
491.762	23559
491.837	35686
491.913	56747
491.988	75369
492.063	87482
492.139	40877
492.214	30079
492.289	17267
492.365	15806
492.440	20330
492.515	19893
492.590	21207
492.666	15748
492.741	21038
492.816	34301
492.891	20835
492.967	16995
493.042	15385
493.117	17178
493.192	19850
493.267	31172
493.342	96894
493.418	133127
493.493	28003
493.568	14314
493.643	15648
493.718	18768
493.793	25184
493.868	25268
493.943	16167
494.018	15083
494.093	14271
494.168	14742
494.243	13407
494.318	12586
494.393	12887
494.468	12310
494.543	11631
494.618	13457
494.693	12926
494.768	12815
494.842	15487
494.917	10749
494.992	13348
495.067	12257
495.142	11409
495.217	13636
495.292	13071
495.366	14661
495.441	18452
495.516	22362
495.591	27193
495.665	61541
495.740	138385
495.815	67263
495.890	22706
495.964	16947
496.039	20621
496.114	18035
496.188	19805
496.263	19932
496.338	18532
496.412	21526
496.487	24748
496.561	22479
496.636	23441
496.710	20498
496.785	21716
496.860	27210
496.934	22092
497.009	20758
497.083	20872
497.158	22085
497.232	25692
497.307	29885
497.381	27017
497.455	30166
497.530	40549
497.604	31048
497.679	32176
497.753	45299
497.827	57242
497.902	49725
497.976	58189
498.050	108333
498.125	364870
498.199	380005
498.273	70013
498.348	49848
498.422	46629
498.496	44223
498.570	40214
498.645	36098
498.719	35776
498.793	39345
498.867	53328
498.941	68671
499.016	154040
499.090	413606
499.164	156306
499.238	27005
499.312	21834
499.386	24430
499.460	23624
499.534	21851
499.609	27582
499.683	42603
499.757	39297
499.831	71242
499.905	275350
499.979	273570
500.053	50216
500.127	43316
500.201	26630
500.275	20599
500.349	20391
500.422	24031
500.496	29466
500.570	51755
500.644	148567
500.718	303866
500.792	75549
500.866	23517
500.940	29614
501.013	24622
501.087	22187
501.161	34653
501.235	45934
501.309	100817
501.382	286352
501.456	251078
501.530	57195
501.603	102995
501.677	42032
501.751	17694
501.825	21812
501.898	39879
501.972	122729
502.046	80603
502.119	23575
502.193	48866
502.266	133922
502.340	66922
502.413	57860
502.487	117466
502.561	67434
502.634	21495
502.708	14902
502.781	12923
502.855	12134
502.928	11054
503.002	11995
503.075	10616
503.149	13308
503.222	13581
503.295	15944
503.369	20503
503.442	26479
503.516	83083
503.589	227839
503.662	152595
503.736	45986
503.809	101437
503.882	87837
503.956	119359
504.029	110676
504.102	37428
504.175	37940
504.249	20023
504.322	18210
504.395	17867
504.468	12691
504.542	13658
504.615	10180
504.688	10160
504.761	8614
504.834	12674
504.907	14004
504.980	18871
505.053	12784
505.127	13567
505.200	18560
505.273	20330
505.346	12895
505.419	9858
505.492	9676
505.565	7473
505.638	8047
505.711	8081
505.784	7807
505.857	7841
505.930	9900
506.003	7987
506.076	11742
506.149	14030
506.221	18807
506.294	17029
506.367	43840
506.440	158374
506.513	86582
506.586	20419
506.659	12094
506.731	9085
506.804	10945
506.877	13590
506.950	13414
507.022	9408
507.095	12378
507.168	16446
507.241	9225
507.313	7005
507.386	8510
507.459	9910
507.531	8111
507.604	6934
507.677	8253
507.749	5788
507.822	11422
507.894	20885
507.967	31030
508.040	19093
508.112	16613
508.185	14553
508.257	13698
508.330	18537
508.402	14784
508.475	15078
508.547	16199
508.620	15175
508.692	24892
508.765	17146
508.837	11579
508.909	11973
508.982	10958
509.054	11407
509.127	11478
509.199	10288
509.271	10067
509.344	10403
509.416	10536
509.488	11064
509.560	11614
509.633	10855
509.705	11990
509.777	13237
509.849	15869
509.922	12750
509.994	14015
510.066	13050
510.138	15568
510.210	29929
510.283	27330
510.355	22185
510.427	19044
510.499	17791
510.571	17524
510.643	16588
510.715	21431
510.787	18730
510.859	17134
510.931	17861
511.003	21854
511.076	20305
511.148	15405
511.219	15911
511.291	25930
511.363	29629
511.435	16856
511.507	13808
511.579	14652
511.651	14685
511.723	13804
511.795	13064
511.867	13854
511.939	15893
512.010	32063
512.082	26233
512.154	14113
512.226	14030
512.298	21472
512.369	31460
512.441	23582
512.513	19344
512.585	16628
512.656	17801
512.728	18134
512.800	15687
512.871	15829
512.943	14296
513.015	13101
513.086	14172
513.158	14487
513.230	14395
513.301	17288
513.373	18342
513.444	14829
513.516	12391
513.588	13587
513.659	14661
513.731	15296
513.802	14135
513.874	22687
513.945	32645
514.016	17558
514.088	13328
514.159	14010
514.231	18563
514.302	27296
514.374	21581
514.445	20666
514.516	37916
514.588	29690
514.659	19709
514.730	35577
514.802	26204
514.873	19628
514.944	23555
515.016	20946
515.087	19407
515.158	26813
515.229	37624
515.301	21937
515.372	28746
515.443	23624
515.514	17329
515.585	13423
515.656	14985
515.728	13689
515.799	12463
515.870	13052
515.941	13073
516.012	14037
516.083	19432
516.154	20073
516.225	19233
516.296	18597
516.367	16614
516.438	16621
516.509	18860
516.580	25508
516.651	53679
516.722	171752
516.793	95430
516.864	29972
516.935	29473
517.006	30840
517.077	36288
517.148	67475
517.219	157279
517.289	266594
517.360	178818
517.431	72559
517.502	21768
517.573	20286
517.643	18794
517.714	22958
517.785	22698
517.856	19987
517.926	24109
517.997	24908
518.068	25475
518.138	31916
518.209	38556
518.280	103822
518.350	367866
518.421	162255
518.492	30111
518.562	22326
518.633	22956
518.703	20696
518.774	26835
518.845	41640
518.915	40857
518.986	27962
519.056	26662
519.127	36956
519.197	59149
519.268	161070
519.338	116836
519.408	28961
519.479	25549
519.549	19960
519.620	16888
519.690	14395
519.760	14254
519.831	14053
519.901	14624
519.971	13199
520.042	14587
520.112	17582
520.182	17723
520.253	18385
520.323	14955
520.393	20440
520.463	29385
520.534	20347
520.604	41138
520.674	22385
520.744	21235
520.814	42546
520.885	40966
520.955	53518
521.025	196041
521.095	86384
521.165	19067
521.235	16500
521.305	13538
521.375	12479
521.445	14389
521.515	14121
521.585	16624
521.655	15544
521.725	15000
521.795	15052
521.865	11545
521.935	21963
522.005	19096
522.075	12232
522.145	13858
522.215	14468
522.285	21356
522.355	28138
522.424	52621
522.494	48739
522.564	22675
522.634	27772
522.704	73501
522.774	32671
522.843	12854
522.913	10892
522.983	12853
523.053	11335
523.122	12323
523.192	15043
523.262	34483
523.331	37100
523.401	13369
523.471	9399
523.540	10324
523.610	7971
523.680	9517
523.749	9794
523.819	13356
523.888	13930
523.958	9489
524.027	11627
524.097	11841
524.166	10267
524.236	9494
524.305	12082
524.375	9286
524.444	9735
524.514	12096
524.583	11297
524.653	15141
524.722	16764
524.791	9652
524.861	11077
524.930	9142
524.999	8552
525.069	12744
525.138	13546
525.207	15962
525.277	11772
525.346	10673
525.415	10391
525.484	10807
525.554	12165
525.623	12037
525.692	11068
525.761	11457
525.830	10727
525.900	11357
525.969	15489
526.038	19768
526.107	27241
526.176	69104
526.245	60352
526.314	28079
526.383	43076
526.452	52252
526.522	85890
526.591	101483
526.660	45010
526.729	25388
526.797	27922
526.867	50573
526.935	208857
527.004	256621
527.073	129266
527.142	19736
527.211	13321
527.280	11908
527.349	12124
527.418	6905
527.487	10136
527.555	7467
527.624	8030
527.693	5983
527.762	9460
527.831	6714
527.899	8690
527.968	8574
528.037	8423
528.106	9455
528.174	14112
528.243	14916
528.312	20047
528.380	23047
528.449	9611
528.518	8811
528.586	5643
528.655	7151
528.723	6888
528.792	6902
528.861	7592
528.929	6378
528.998	8184
529.066	6475
529.135	7997
529.203	6811
529.272	6749
529.340	9876
529.409	9713
529.477	7886
529.545	10891
529.614	13097
529.682	13552
529.751	17215
529.819	16828
529.887	12805
529.956	8279
530.024	10612
530.092	7644
530.161	10262
530.229	11857
530.297	8007
530.365	8435
530.434	8140
530.502	8368
530.570	9289
530.638	7865
530.707	8473
530.775	9548
530.843	8527
530.911	8706
530.979	7751
531.047	8947
531.115	9448
531.183	9158
531.252	8656
531.320	9011
531.388	7789
531.456	9936
531.524	7656
531.592	9697
531.660	11201
531.728	8363
531.796	8791
531.864	8091
531.932	9381
532.000	9297
532.067	9252
532.135	10607
532.203	11519
532.271	12197
532.339	17502
532.407	32637
532.475	22741
532.542	16390
532.610	16426
532.678	19901
532.746	59499
532.814	154385
532.881	41507
532.949	12818
533.017	11465
533.084	9814
533.152	9301
533.220	9851
533.287	9086
533.355	9330
533.423	9614
533.490	9464
533.558	9979
533.625	10144
533.693	11712
533.761	11891
533.828	12553
533.896	11202
533.963	18546
534.031	23162
534.098	28639
534.166	16754
534.233	11599
534.300	13623
534.368	12572
534.435	12261
534.503	11848
534.570	12719
534.637	10293
534.705	11550
534.772	11368
534.840	13463
534.907	33435
534.974	42834
535.041	12773
535.109	12958
535.176	8370
535.243	9218
535.310	9405
535.378	8222
535.445	8247
535.512	8027
535.579	8597
535.646	8454
535.714	9741
535.781	13634
535.848	12700
535.915	14804
535.982	15131
536.049	14599
536.116	14402
536.183	12160
536.250	11761
536.317	11406
536.384	11795
536.451	13304
536.518	13374
536.585	11103
536.652	14768
536.719	14455
536.786	12015
536.853	12926
536.920	16183
536.987	21628
537.053	21589
537.120	74889
537.187	69148
537.254	10977
537.321	9076
537.388	10351
537.454	7841
537.521	8203
537.588	8228
537.654	10861
537.721	12330
537.788	12244
537.855	8559
537.921	10053
537.988	9002
538.055	9928
538.121	8290
538.188	9675
538.254	12410
538.321	18088
538.388	13326
538.454	10545
538.521	9823
538.587	8444
538.654	8752
538.720	8504
538.787	8833
538.853	9443
538.920	10884
538.986	11993
539.053	10485
539.119	10330
539.185	9751
539.252	12128
539.318	13440
539.385	13249
539.451	13642
539.517	13943
539.583	14391
539.650	25631
539.716	61646
539.782	20842
539.849	9695
539.915	10553
539.981	8739
540.047	11244
540.114	10035
540.180	12093
540.246	9423
540.312	12845
540.378	18052
540.444	20696
540.510	24872
540.576	65488
540.643	24256
540.709	9603
540.775	10518
540.841	10934
540.907	14008
540.973	22427
541.039	16624
541.105	15341
541.171	11817
541.237	10017
541.303	11052
541.369	12249
541.435	11663
541.500	16013
541.566	11332
541.632	9770
541.698	8941
541.764	10294
541.830	8167
541.896	8771
541.961	9907
542.027	9362
542.093	10094
542.159	10825
542.224	10736
542.290	15874
542.356	17517
542.421	19047
542.487	13280
542.553	12039
542.618	13160
542.684	10849
542.750	10399
542.815	13170
542.881	18872
542.947	56289
543.012	44217
543.078	10675
543.143	10300
543.209	11724
543.274	10517
543.340	12462
543.405	23075
543.471	36491
543.536	12159
543.602	11210
543.667	9982
543.732	10400
543.798	9038
543.863	11703
543.928	8624
543.994	8298
544.059	9457
544.124	9551
544.190	9118
544.255	10422
544.320	10053
544.386	9982
544.451	12635
544.516	13371
544.581	13451
544.646	36393
544.712	58438
544.777	17040
544.842	14531
544.907	15984
544.972	12885
545.037	13631
545.102	14943
545.168	14015
545.233	15586
545.298	15845
545.363	17964
545.428	18626
545.493	24450
545.558	46933
545.623	25278
545.688	15643
545.753	14144
545.818	14460
545.883	14985
545.947	14236
546.012	15845
546.077	16488
546.142	15815
546.207	14243
546.272	15706
546.337	16270
546.401	15073
546.466	15150
546.531	13711
546.596	15778
546.661	15035
546.725	15216
546.790	13893
546.855	14478
546.919	13095
546.984	15207
547.049	14978
547.113	18797
547.178	16191
547.243	17604
547.307	19222
547.372	22174
547.436	24309
547.501	19021
547.565	18383
547.630	20508
547.695	20786
547.759	23509
547.823	21630
547.888	17952
547.952	18941
548.017	19895
548.081	21381
548.146	26919
548.210	25051
548.274	20221
548.339	17399
548.403	17926
548.468	16808
548.532	18046
548.596	17434
548.660	17444
548.725	18995
548.789	21103
548.853	23985
548.917	20145
548.982	26263
549.046	27103
549.110	17897
549.174	17070
549.238	17732
549.303	17274
549.367	18910
549.431	17049
549.495	18125
549.559	17426
549.623	18498
549.687	22532
549.751	27592
549.815	24377
549.879	23039
549.943	21231
550.007	23054
550.071	24736
550.135	25223
550.199	23753
550.263	22335
550.327	22538
550.391	29468
550.455	24076
550.519	22028
550.582	24457
550.646	28291
550.710	30037
550.774	24668
550.838	25217
550.901	25991
550.965	27674
551.029	28933
551.093	32401
551.156	37700
551.220	60675
551.284	67125
551.347	37827
551.411	68521
551.475	82315
551.538	30624
551.602	26185
551.666	23081
551.729	23105
551.793	23349
551.856	23945
551.920	23512
551.983	23651
552.047	21597
552.110	21875
552.174	21485
552.237	22598
552.301	21316
552.364	20560
552.428	20740
552.491	20854
552.554	21682
552.618	21924
552.681	22668
552.745	21847
552.808	24444
552.871	25358
552.934	24215
552.998	22798
553.061	24800
553.124	25441
553.187	24566
553.251	27160
553.314	29669
553.377	31036
553.440	46254
553.503	125217
553.567	222138
553.630	49763
553.693	25867
553.756	23865
553.819	22036
553.882	21854
553.945	21152
554.008	21128
554.071	19804
554.134	21633
554.197	20000
554.260	20036
554.323	21560
554.386	21392
554.449	21204
554.512	21790
554.575	20648
554.638	21012
554.701	19218
554.764	20496
554.827	19870
554.889	20772
554.952	17798
555.015	17945
555.078	18528
555.141	18469
555.203	17239
555.266	18561
555.329	18761
555.391	17328
555.454	17314
555.517	18295
555.580	17080
555.642	16194
555.705	16125
555.768	16336
555.830	16770
555.893	16174
555.955	14904
556.018	16126
556.080	14550
556.143	16062
556.206	14914
556.268	16328
556.330	16458
556.393	16883
556.455	15950
556.518	21433
556.580	22508
556.643	15083
556.705	14228
556.767	13965
556.830	14935
556.892	15440
556.955	18172
557.017	16034
557.079	14744
557.142	13104
557.204	14982
557.266	21919
557.328	19898
557.391	14402
557.453	12718
557.515	12636
557.577	14586
557.639	15192
557.701	13896
557.764	13553
557.826	13502
557.888	14945
557.950	13927
558.012	14447
558.074	15399
558.136	25367
558.198	51278
558.260	27334
558.322	15221
558.384	16505
558.446	17880
558.508	18634
558.570	23272
558.632	29503
558.694	41470
558.756	42530
558.818	100921
558.880	255672
558.942	88944
559.003	57436
559.065	33346
559.127	18549
559.189	18828
559.251	20817
559.312	25758
559.374	49111
559.436	150412
559.498	84898
559.559	21605
559.621	19865
559.683	21834
559.744	33759
559.806	76294
559.868	112717
559.929	32935
559.991	22573
560.052	25912
560.114	51304
560.176	37938
560.237	33762
560.299	50656
560.360	21837
560.422	15166
560.483	16385
560.545	14898
560.606	14875
560.667	14473
560.729	14997
560.790	14147
560.852	15326
560.913	14534
560.974	13429
561.036	13496
561.097	13868
561.158	13825
561.220	14475
561.281	13642
561.342	14775
561.403	15825
561.465	18001
561.526	27683
561.587	34594
561.648	16838
561.709	15245
561.771	15240
561.832	14553
561.893	14353
561.954	14867
562.015	14164
562.076	14993
562.137	13666
562.198	14097
562.259	14979
562.320	13988
562.381	14860
562.442	17682
562.503	15800
562.564	15203
562.625	14442
562.686	14982
562.747	14382
562.808	13899
562.869	16322
562.930	19183
562.991	17857
563.051	17398
563.112	14560
563.173	14899
563.234	15096
563.294	14561
563.355	14743
563.416	15706
563.477	14235
563.537	15477
563.598	15140
563.659	16462
563.720	15531
563.780	15343
563.841	15090
563.901	15597
563.962	14978
564.023	14398
564.083	15563
564.144	15651
564.204	15368
564.265	15907
564.325	18996
564.386	30854
564.446	30085
564.507	15546
564.567	15804
564.628	15071
564.688	14818
564.749	15942
564.809	17480
564.869	19662
564.930	16494
564.990	16127
565.050	15020
565.111	15725
565.171	14276
565.231	15004
565.292	14829
565.352	14118
565.412	15144
565.472	15671
565.532	15584
565.593	15542
565.653	15407
565.713	15446
565.773	16308
565.833	15978
565.893	19432
565.953	17168
566.013	16258
566.074	18256
566.134	21403
566.194	30298
566.254	31150
566.314	24227
566.374	19026
566.434	19333
566.494	20087
566.554	19240
566.614	20192
566.673	21372
566.733	20964
566.793	23400
566.853	23394
566.913	23144
566.973	23916
567.033	24946
567.092	23764
567.152	24389
567.212	25232
567.272	24880
567.331	25542
567.391	26630
567.451	27647
567.511	32000
567.570	34300
567.630	25446
567.690	25022
567.749	24681
567.809	25538
567.868	28630
567.928	30131
567.988	36663
568.047	40166
568.107	46486
568.166	58068
568.226	78932
568.285	104618
568.345	103846
568.404	94972
568.464	83891
568.523	78242
568.582	77740
568.642	82093
568.701	96362
568.761	123395
568.820	169206
568.879	184266
568.939	163263
568.998	130876
569.057	105967
569.116	84084
569.176	69466
569.235	58010
569.294	49621
569.353	43180
569.413	39497
569.472	35705
569.531	32222
569.590	29060
569.649	28060
569.708	24920
569.767	25507
569.827	25192
569.886	21982
569.945	21424
570.004	20990
570.063	19509
570.122	19395
570.181	20354
570.240	21200
570.299	20870
570.358	19633
570.417	17905
570.475	16132
570.534	17299
570.593	16727
570.652	16540
570.711	16449
570.770	15902
570.829	16698
570.887	15309
570.946	15885
571.005	15426
571.064	15207
571.122	14576
571.181	17106
571.240	15831
571.299	14744
571.357	15799
571.416	16189
571.475	17386
571.533	17953
571.592	13923
571.650	15569
571.709	14039
571.768	13368
571.826	14010
571.885	14336
571.943	13874
572.002	13376
572.060	14447
572.119	13976
572.177	12494
572.236	13149
572.294	11636
572.352	12808
572.411	12163
572.469	13122
572.528	12212
572.586	12298
572.644	13709
572.703	15760
572.761	12948
572.819	13414
572.877	12356
572.936	11811
572.994	12538
573.052	11589
573.110	11783
573.169	11029
573.227	10746
573.285	12166
573.343	11245
573.401	12638
573.459	11700
573.517	11578
573.576	11962
573.634	11830
573.692	12566
573.750	11896
573.808	11612
573.866	12261
573.924	14801
573.982	15538
574.040	11928
574.098	11691
574.155	11512
574.213	11069
574.271	11184
574.329	11647
574.387	10934
574.445	11113
574.503	11051
574.560	9925
574.618	11206
574.676	10766
574.734	10774
574.792	11229
574.849	9344
574.907	10438
574.965	10308
575.022	10248
575.080	9896
575.138	11407
575.195	10297
575.253	11108
575.311	11501
575.368	10598
575.426	9812
575.483	11037
575.541	11313
575.598	11221
575.656	11205
575.713	11263
575.771	10686
575.828	10547
575.886	11935
575.943	11803
576.001	12321
576.058	12029
576.115	11896
576.173	13500
576.230	14199
576.287	14804
576.345	13554
576.402	12433
576.459	12287
576.517	12926
576.574	13696
576.631	13587
576.688	12366
576.746	12096
576.803	12033
576.860	11767
576.917	12924
576.974	12202
577.031	11607
577.089	12452
577.146	12186
577.203	11607
577.260	13606
577.317	13238
577.374	13725
577.431	12953
577.488	12486
577.545	11412
577.602	12430
577.659	13384
577.716	13551
577.773	14550
577.830	14753
577.886	14096
577.943	12954
578.000	13234
578.057	13178
578.114	15521
578.171	16330
578.227	20931
578.284	19684
578.341	18432
578.398	15762
578.454	15288
578.511	14566
578.568	16058
578.625	12766
578.681	13115
578.738	11310
578.794	13133
578.851	12141
578.908	13026
578.964	14475
579.021	14838
579.077	12413
579.134	12845
579.190	12536
579.247	12929
579.303	11948
579.360	11813
579.416	11834
579.473	12529
579.529	10675
579.586	12658
579.642	13273
579.698	13394
579.755	14026
579.811	14168
579.867	14510
579.924	14091
579.980	15388
580.036	17115
580.093	20614
580.149	27720
580.205	31794
580.261	25705
580.317	21435
580.374	18368
580.430	17942
580.486	16454
580.542	15391
580.598	14715
580.619	14603
580.654	14417
580.692	13699
580.710	13356
580.765	13825
580.767	13848
580.823	15267
580.838	14885
580.879	13893
580.911	13740
580.935	13650
580.984	13568
580.991	13565
581.047	14789
581.057	14852
581.103	15201
581.130	15683
581.159	16199
581.203	17799
581.215	18212
581.270	17905
581.276	17846
581.326	17431
581.349	17135
581.382	16659
581.422	16085
581.438	15875
581.494	15736
581.494	15731
581.550	15542
581.567	15352
581.606	15004
581.640	15244
581.661	15376
581.713	15721
581.717	15756
581.773	14097
581.786	14249
581.829	14739
581.859	15265
581.885	15717
581.932	15528
581.940	15491
581.996	16436
582.004	16398
582.052	16150
582.077	15766
582.107	15365
582.150	16434
582.163	16763
582.219	16385
582.223	16378
582.274	16266
582.296	16145
582.330	15931
582.368	16976
582.386	17451
582.441	16413
582.441	16411
582.497	16952
582.514	17188
582.552	17902
582.587	18863
582.608	19319
582.659	18778
582.663	18724
582.719	17629
582.732	17485
582.774	17306
582.805	18038
582.830	18568
582.877	18634
582.885	18653
582.941	19052
582.950	19157
582.996	19713
583.023	20225
583.052	21065
583.095	21712
583.107	21904
583.162	26093
583.168	26250
583.218	27227
583.240	26871
583.273	25862
583.313	23562
583.328	22717
583.384	22963
583.385	22889
583.439	21048
583.458	20779
583.494	20309
583.531	20286
583.549	20310
583.603	21336
583.605	21364
583.660	20555
583.676	20548
583.715	20715
583.748	20925
583.770	21134
583.820	21611
583.825	21635
583.881	21206
583.893	21127
583.936	21145
583.965	21457
583.991	21492
584.038	21450
584.046	21489
584.101	21756
584.110	21748
584.156	21799
584.183	22344
584.211	22920
584.255	23079
584.266	23095
584.321	22614
584.328	22717
584.376	23907
584.400	23839
584.431	23575
584.472	23628
584.486	23753
584.541	23602
584.545	23673
584.596	24755
584.617	24785
584.651	25101
584.689	26176
584.706	26583
584.761	27158
584.762	27141
584.816	26597
584.834	26949
584.871	27712
584.906	28284
584.926	28607
584.978	28415
584.980	28447
585.035	29788
585.051	30137
585.090	30750
585.123	31209
585.145	31607
585.195	32338
585.200	32504
585.254	34207
585.267	34832
585.309	36756
585.340	38809
585.364	39965
585.412	37922
585.419	37620
585.473	38549
585.484	38441
585.528	39506
585.556	41690
585.583	45328
585.628	51791
585.637	54389
585.692	76099
585.700	80323
585.747	98769
585.772	94743
585.801	77362
585.845	52633
585.856	49364
585.910	44154
585.917	43567
585.965	42654
585.989	42418
586.019	42978
586.061	43802
586.074	44043
586.128	45326
586.133	45384
586.183	46910
586.205	47484
586.237	48246
586.277	48761
586.292	49075
586.346	50335
586.349	50340
586.401	51603
586.421	52054
586.455	53562
586.493	56375
586.509	58750
586.564	65944
586.565	66150
586.618	82446
586.637	84808
586.672	78120
586.709	68238
586.727	65598
586.781	63771
586.781	63867
586.835	66391
586.853	66916
586.889	67581
586.925	68279
586.944	69202
586.996	71972
586.998	72167
587.052	75695
587.068	76326
587.106	78361
587.140	80149
587.161	81412
587.212	84550
587.215	84912
587.269	90261
587.284	91332
587.323	94273
587.356	96682
587.377	99120
587.427	104745
587.431	105306
587.485	110139
587.499	111654
587.539	117397
587.571	121123
587.593	124288
587.643	130497
587.648	131520
587.702	141683
587.715	143946
587.755	152820
587.786	159147
587.810	164745
587.858	175519
587.864	177414
587.917	193995
587.930	197782
587.971	214180
588.001	225749
588.025	235758
588.073	254380
588.079	257890
588.133	287376
588.145	293519
588.187	321636
588.217	341871
588.241	362718
588.288	402891
588.295	410184
588.348	468422
588.360	480671
588.402	541230
588.431	583472
588.456	630448
588.503	722517
588.510	740642
588.564	882159
588.575	912080
588.617	1072075
588.646	1184566
588.671	1308846
588.718	1549750
588.725	1589113
588.778	1886164
588.789	1941969
588.832	1991302
588.861	1990581
588.886	1814927
588.932	1369624
588.939	1339574
588.993	1126157
589.004	1125755
589.047	1629973
589.075	1941580
589.100	2050710
589.147	2129325
589.154	2103126
589.207	1854968
589.218	1805528
589.261	1683923
589.290	1610625
589.314	1628623
589.361	1674540
589.368	1697045
589.421	1878682
589.433	1915360
589.475	1904284
589.504	1857606
589.528	1688874
589.576	1280253
589.582	1308423
589.635	1699063
589.647	1772601
589.689	1873338
589.718	1883798
589.742	1712248
589.790	1364924
589.795	1335639
589.849	1052970
589.861	987587
589.902	853509
589.932	753774
589.955	699854
590.004	583884
590.009	577901
590.062	502450
590.075	482869
590.115	439888
590.146	405296
590.168	389466
590.218	351893
590.222	350235
590.275	317316
590.289	308014
590.328	289624
590.360	273350
590.381	265993
590.431	246662
590.435	246334
590.488	229375
590.503	224053
590.541	215062
590.574	206306
590.594	202049
590.645	189508
590.647	189675
590.700	179531
590.716	176154
590.753	170562
590.787	164211
590.806	161657
590.859	153466
590.859	153812
590.912	147409
590.930	144894
590.965	141348
591.001	137195
591.018	136167
591.071	131691
591.072	131259
591.124	127508
591.143	125661
591.177	123808
591.214	121006
591.230	120455
591.283	117678
591.285	117204
591.336	114556
591.356	113083
591.389	111255
591.427	108180
591.442	107502
591.495	103772
591.498	103190
591.547	101980
591.569	101016
591.600	99620
591.640	96934
591.653	96758
591.706	94827
591.711	94324
591.759	94630
591.782	94429
591.811	95102
591.853	95329
591.864	94752
591.917	90186
591.924	89259
591.969	87635
591.995	86236
592.022	86355
592.066	85929
592.075	86382
592.127	87459
592.137	87406
592.180	89245
592.208	89912
592.233	87103
592.279	80930
592.285	80812
592.338	77771
592.350	76836
592.390	76250
592.421	75441
592.443	75074
592.491	73472
592.495	73621
592.548	72557
592.562	72035
592.600	72267
592.633	72061
592.653	71849
592.704	70312
592.705	70709
592.775	70257
592.846	70048
592.916	69083
592.987	68857
593.058	66771
593.128	64787
593.199	63473
593.270	62614
593.341	61217
593.411	59898
593.482	60278
593.553	59666
593.623	58412
593.694	58818
593.764	60021
593.835	56783
593.906	56300
593.976	55588
594.047	56706
594.117	61424
594.188	60766
594.258	52273
594.329	51862
594.399	51411
594.470	50942
594.540	49912
594.611	51360
594.681	50916
594.751	49871
594.822	52197
594.892	51263
594.963	51371
595.033	51147
595.103	51539
595.174	53379
595.244	63646
595.314	72562
595.384	51043
595.455	47445
595.525	49825
595.595	50200
595.665	49210
595.736	48065
595.806	47707
595.876	47985
595.946	47877
596.016	46680
596.087	47780
596.157	46736
596.227	47256
596.297	49014
596.367	49125
596.437	50860
596.507	60148
596.577	68603
596.647	51052
596.717	48701
596.787	48523
596.857	47868
596.927	48278
596.997	48090
597.067	50503
597.137	54450
597.207	52851
597.277	49915
597.347	49293
597.417	48678
597.487	48632
597.557	49592
597.626	48729
597.696	51070
597.766	55314
597.836	65845
597.906	50825
597.975	46539
598.045	45964
598.115	46105
598.185	46222
598.254	49714
598.324	50674
598.394	50503
598.464	49499
598.533	49138
598.603	46099
598.672	47523
598.742	47503
598.812	46821
598.881	47265
598.951	47148
599.020	46329
599.090	46166
599.159	47383
599.229	47527
599.299	46298
599.368	47583
599.437	46243
599.507	46118
599.576	48271
599.646	51275
599.715	52463
599.785	46905
599.854	47137
599.924	50304
599.993	48589
600.062	46135
600.132	46764
600.201	47313
600.270	50033
600.340	50293
600.409	48728
600.478	49604
600.547	50546
600.617	50172
600.686	47371
600.755	46775
600.824	46646
600.894	45757
600.963	46098
601.032	45705
601.101	46054
601.170	45723
601.239	44947
601.308	47341
601.378	46122
601.447	46850
601.516	47298
601.585	48341
601.654	50028
601.723	49157
601.792	50258
601.861	53476
601.930	60725
601.999	54874
602.068	52507
602.137	52661
602.206	53425
602.275	52674
602.343	55504
602.412	54961
602.481	51505
602.550	53066
602.619	53343
602.688	53144
602.756	53672
602.825	52598
602.894	54365
602.963	52398
603.032	54653
603.100	53024
603.169	53624
603.238	55362
603.307	52681
603.375	51021
603.444	54332
603.513	52179
603.581	52567
603.650	54225
603.719	48617
603.787	46960
603.856	48639
603.924	48539
603.993	49081
604.061	49035
604.130	50954
604.198	51122
604.267	52542
604.335	52436
604.404	51165
604.472	52771
604.541	53429
604.609	53650
604.678	54450
604.746	55492
604.815	56763
604.883	56520
604.951	55360
605.020	55221
605.088	53696
605.156	51800
605.225	52476
605.293	51616
605.361	53056
605.429	50915
605.498	52505
605.566	52161
605.634	54105
605.702	53812
605.771	54693
605.839	55165
605.907	51473
605.975	54066
606.043	53281
606.111	50986
606.180	57063
606.248	60280
606.316	62737
606.384	55035
606.452	52968
606.520	48783
606.588	44128
606.656	41107
606.724	41125
606.792	39843
606.860	38700
606.928	35516
606.996	34959
607.064	35002
607.132	35678
607.200	35970
607.267	38140
607.335	36553
607.403	37379
607.471	37858
607.539	36592
607.607	36734
607.674	34571
607.742	34890
607.810	35017
607.878	34507
607.946	34110
608.013	36387
608.081	37031
608.149	37524
608.216	36564
608.284	36614
608.352	37217
608.419	37816
608.487	46522
608.555	38729
608.622	36434
608.690	36532
608.757	38138
608.825	39516
608.893	38719
608.960	41365
609.028	44901
609.095	49288
609.163	38823
609.230	36759
609.298	34855
609.365	33721
609.432	36908
609.500	38297
609.567	41536
609.635	45849
609.702	46713
609.769	46198
609.837	44097
609.904	38811
609.971	38338
610.039	44921
610.106	57146
610.173	96909
610.241	206953
610.308	215477
610.375	119295
610.442	56040
610.509	42177
610.577	39572
610.644	38356
610.711	37735
610.778	39479
610.845	38227
610.912	42125
610.980	48309
611.047	64911
611.114	49658
611.181	39068
611.248	37433
611.315	40156
611.382	38555
611.449	39968
611.516	42251
611.583	40819
611.650	40958
611.717	41824
611.784	40102
611.851	43886
611.918	47894
611.984	53734
612.051	75112
612.118	141188
612.185	337359
612.252	254591
612.319	69928
612.386	51898
612.452	47605
612.519	48582
612.586	56402
612.653	49771
612.719	44875
612.786	43380
612.853	41210
612.919	40705
612.986	41500
613.053	39294
613.120	37575
613.186	35243
613.253	38764
613.319	38618
613.386	38349
613.453	39300
613.519	41381
613.586	44510
613.652	53094
613.719	46577
613.785	44029
613.852	39929
613.918	39945
613.985	43364
614.051	55407
614.118	91358
614.184	90902
614.250	43660
614.317	40016
614.383	38458
614.449	38671
614.516	37550
614.582	40987
614.648	38907
614.715	38289
614.781	38209
614.847	39833
614.914	40538
614.980	39412
615.046	40547
615.112	40967
615.179	41412
615.245	46102
615.311	56837
615.377	85689
615.443	106307
615.509	72435
615.575	54297
615.642	47793
615.708	49081
615.774	51777
615.840	57968
615.906	70748
615.972	103098
616.038	188362
616.104	306450
616.170	495824
616.236	459554
616.302	119429
616.368	74917
616.434	59682
616.500	55416
616.565	54508
616.631	60774
616.697	54694
616.763	55680
616.829	66832
616.895	99971
616.961	107081
617.026	64766
617.092	48287
617.158	46360
617.224	43243
617.289	42907
617.355	42668
617.421	42371
617.487	42335
617.552	41776
617.618	39663
617.684	39562
617.749	41918
617.815	39761
617.880	38827
617.946	37849
618.012	40766
618.077	40374
618.143	40029
618.208	40996
618.274	41711
618.339	42733
618.405	39586
618.470	39778
618.536	40311
618.601	43285
618.667	40598
618.732	39158
618.798	38229
618.863	38044
618.928	38411
618.994	39970
619.059	41837
619.124	48513
619.190	42121
619.255	38958
619.320	39370
619.386	38159
619.451	36952
619.516	36995
619.581	37695
619.647	38842
619.712	38716
619.777	38800
619.842	38431
619.907	38643
619.972	38499
620.038	39493
620.103	38277
620.168	37215
620.233	37293
620.298	36964
620.363	37236
620.428	37913
620.493	39030
620.558	38938
620.623	38632
620.688	38833
620.753	37698
620.818	38856
620.883	38777
620.948	38825
621.013	38987
621.078	40296
621.143	38514
621.207	42009
621.272	42022
621.337	42473
621.402	43840
621.467	50708
621.532	51839
621.596	46410
621.661	43739
621.726	42409
621.791	42006
621.855	43438
621.920	45011
621.985	45606
622.049	48366
622.114	46991
622.179	44761
622.243	48074
622.308	44891
622.373	48273
622.437	47270
622.502	45393
622.566	46030
622.631	45234
622.695	46595
622.760	46333
622.824	44610
622.889	45218
622.953	47593
623.018	56272
623.082	55460
623.147	46220
623.211	45305
623.276	45581
623.340	43917
623.404	43306
623.469	43139
623.533	42640
623.597	42804
623.662	42494
623.726	40837
623.790	40798
623.854	40749
623.919	42048
623.983	40554
624.047	41950
624.111	40579
624.176	40813
624.240	43305
624.304	46191
624.368	40835
624.432	40798
624.496	41975
624.560	43099
624.625	43448
624.689	41747
624.753	40930
624.817	41303
624.881	39391
624.945	39305
625.009	38973
625.073	38435
625.137	40122
625.201	44908
625.265	43526
625.329	38841
625.393	40273
625.456	39363
625.520	39190
625.584	42161
625.648	48076
625.712	64292
625.776	124989
625.839	137995
625.903	63953
625.967	41522
626.031	59289
626.095	84688
626.158	43864
626.222	32755
626.286	32243
626.349	32059
626.413	30105
626.477	34134
626.540	31786
626.604	30393
626.668	30858
626.731	30177
626.795	30944
626.858	31761
626.922	29734
626.986	30328
627.049	28568
627.113	29712
627.176	30315
627.240	28731
627.303	28330
627.366	27731
627.430	29355
627.493	30053
627.557	29277
627.620	29740
627.684	28742
627.747	28605
627.810	27319
627.874	27129
627.937	25300
628.000	29046
628.064	27617
628.127	24137
628.190	26222
628.253	26281
628.317	25816
628.380	25894
628.443	24800
628.506	25470
628.569	24162
628.632	23617
628.696	23977
628.759	23376
628.822	22069
628.885	23045
628.948	23137
629.011	22315
629.074	22304
629.137	21642
629.200	23400
629.263	24397
629.326	21874
629.389	22439
629.452	22181
629.515	23673
629.578	21727
629.641	23738
629.704	22804
629.767	23302
629.830	21538
629.892	21522
629.955	21345
630.018	22663
630.081	21938
630.144	24306
630.207	21103
630.269	23948
630.332	23040
630.395	22198
630.458	19968
630.520	19949
630.583	20674
630.646	20087
630.708	18975
630.771	19781
630.834	20055
630.896	19097
630.959	19721
631.021	18877
631.084	19272
631.146	21113
631.209	22945
631.272	19686
631.334	18548
631.397	19499
631.459	18251
631.522	18699
631.584	18559
631.646	19620
631.709	19769
631.771	22979
631.834	19649
631.896	19903
631.958	16531
632.021	19577
632.083	18451
632.145	18295
632.208	17735
632.270	19256
632.332	16321
632.395	16748
632.457	19182
632.519	18106
632.581	17795
632.643	16050
632.706	18366
632.768	16830
632.830	17370
632.892	16889
632.954	16735
633.016	18225
633.078	16785
633.141	17552
633.203	17720
633.265	18288
633.327	17149
633.389	16284
633.451	18907
633.513	19822
633.575	20115
633.637	18813
633.698	17839
633.760	17397
633.822	16783
633.884	16467
633.946	17108
634.008	18950
634.070	19061
634.132	24605
634.193	19957
634.255	18023
634.317	17556
634.379	18285
634.441	16831
634.502	16481
634.564	15746
634.626	15599
634.687	15276
634.749	16494
634.811	15738
634.873	14813
634.934	15078
634.996	16036
635.057	14986
635.119	15326
635.181	16081
635.242	15534
635.304	13988
635.365	17131
635.427	15009
635.488	15477
635.550	14306
635.611	16090
635.673	14128
635.734	16982
635.796	15237
635.857	18465
635.918	15950
635.980	17090
636.041	16040
636.102	16344
636.164	16386
636.225	16725
636.286	14145
636.348	16518
636.409	15196
636.470	14670
636.531	15636
636.593	16234
636.654	15631
636.715	14408
636.776	13898
636.838	13891
636.899	14630
636.960	13341
637.021	13056
637.082	13670
637.143	14332
637.204	12691
637.265	13087
637.326	13449
637.387	13586
637.448	12834
637.509	13841
637.570	13311
637.631	14402
637.692	12312
637.753	12598
637.814	13833
637.875	13485
637.936	14056
637.997	12244
638.058	13358
638.119	13635
638.179	12446
638.240	13749
638.301	12899
638.362	12514
638.423	12938
638.483	14046
638.544	12149
638.605	13186
638.666	12039
638.726	12456
638.787	12843
638.848	11603
638.908	12059
638.969	13289
639.030	13639
639.090	11168
639.151	12017
639.211	13588
639.272	15220
639.332	21258
639.393	14759
639.453	11940
639.514	13684
639.574	12024
639.635	11704
639.695	12357
639.756	11683
639.816	13154
639.877	13647
639.937	17439
639.997	20389
640.058	12522
640.118	10775
640.178	11349
640.239	11941
640.299	11781
640.359	11348
640.420	10798
640.480	11680
640.540	11130
640.600	11902
640.661	12128
640.721	11811
640.781	14853
640.841	12272
640.901	13024
640.961	11916
641.021	11866
641.082	11867
641.142	14379
641.202	13458
641.262	10147
641.322	11431
641.382	10762
641.442	11902
641.502	11069
641.562	11917
641.622	11423
641.682	11197
641.742	11740
641.802	11101
641.861	11937
641.921	11640
641.981	12617
642.041	12307
642.101	14538
642.161	11494
642.221	9850
642.280	10365
642.340	10731
642.400	9581
642.460	11386
642.519	11418
642.579	10679
642.639	11526
642.698	9005
642.758	12521
642.818	10775
642.877	10593
642.937	10992
642.997	12128
643.056	15488
643.116	10708
643.175	11791
643.235	10146
643.294	10935
643.354	12496
643.414	11997
643.473	12401
643.532	12820
643.592	14539
643.651	20136
643.711	33313
643.770	59476
643.830	138371
643.889	305829
643.948	78978
644.008	17968
644.067	13566
644.126	11292
644.186	11414
644.245	10284
644.304	8381
644.363	11534
644.423	8442
644.482	9678
644.541	10142
644.600	8556
644.659	11469
644.719	10674
644.778	14936
644.837	18341
644.896	30472
644.955	63128
645.014	28907
645.073	16574
645.132	10923
645.191	10089
645.250	9290
645.309	11202
645.368	10347
645.427	10857
645.486	11886
645.545	17653
645.604	10323
645.663	10461
645.722	9960
645.781	9424
645.840	11048
645.898	10727
645.957	14199
646.016	16895
646.075	29296
646.134	52725
646.192	133126
646.251	205593
646.310	35056
646.369	13533
646.427	12423
646.486	9293
646.545	10064
646.603	9676
646.662	9770
646.721	8962
646.779	8756
646.838	9047
646.896	9640
646.955	10412
647.014	13455
647.072	17170
647.131	38845
647.189	23046
647.248	9897
647.306	9142
647.365	9537
647.423	7009
647.481	9367
647.540	6874
647.598	8155
647.657	7910
647.715	9030
647.773	6700
647.832	9113
647.890	6576
647.948	7889
648.007	10287
648.065	7298
648.123	7840
648.181	10950
648.240	13965
648.298	11748
648.356	7945
648.414	9445
648.472	8160
648.531	8877
648.589	7602
648.647	7211
648.705	7729
648.763	8039
648.821	7246
648.879	7516
648.937	8186
648.995	8616
649.053	9430
649.111	11481
649.169	15329
649.227	21975
649.285	40513
649.343	111278
649.401	60328
649.459	25897
649.516	21004
649.574	16872
649.632	31960
649.690	40286
649.748	19299
649.806	23180
649.863	39006
649.921	32779
649.979	21777
650.037	8921
650.094	6712
650.152	8115
650.210	6968
650.268	8460
650.325	7261
650.383	8485
650.440	6702
650.498	7171
650.556	7335
650.613	6749
650.671	6642
650.728	7458
650.786	7693
650.843	7442
650.901	5220
650.958	7332
651.016	6396
651.073	6524
651.131	6195
651.188	5460
651.246	6368
651.303	6127
651.360	5486
651.418	6292
651.475	6696
651.532	5334
651.590	6275
651.647	6719
651.704	7023
651.762	7044
651.819	6621
651.876	5659
651.933	5720
651.990	6987
652.048	4941
652.105	6410
652.162	6399
652.219	5963
652.276	5487
652.333	6210
652.390	5878
652.448	7268
652.505	6557
652.562	6554
652.619	8999
652.676	15966
652.733	15914
652.790	6844
652.847	5048
652.904	6135
652.961	5164
653.017	5443
653.074	5781
653.131	5438
653.188	4537
653.245	5972
653.302	5189
653.359	6170
653.415	5761
653.472	5824
653.529	5680
653.586	5165
653.642	5682
653.699	5657
653.756	5164
653.813	5842
653.869	5894
653.926	4555
653.983	4249
654.039	5545
654.096	4751
654.152	6723
654.209	4013
654.266	6377
654.322	5029
654.379	6524
654.435	6979
654.492	7321
654.548	8024
654.605	12623
654.661	7840
654.717	5461
654.774	6335
654.830	6148
654.887	6003
654.943	6049
655.000	6578
655.056	6260
655.112	6064
655.168	5873
655.225	5784
655.281	7439
655.337	8247
655.394	12488
655.450	9603
655.506	8354
655.562	12667
655.618	11029
655.675	5405
655.731	5604
655.787	4905
655.843	5890
655.899	4792
655.955	6187
656.011	6039
656.067	4150
656.123	5163
656.179	5132
656.235	6607
656.291	4099
656.347	6132
656.403	5043
656.459	4835
656.515	6327
656.571	6501
656.627	6012
656.683	4891
656.739	6397
656.795	5832
656.850	5468
656.906	6174
656.962	6571
657.018	4363
657.074	5861
657.129	5707
657.185	6722
657.241	7144
657.297	6248
657.352	5829
657.408	4639
657.464	6700
657.519	6292
657.575	4469
657.630	4600
657.686	5351
657.742	4763
657.797	5557
657.853	4989
657.908	6457
657.964	4672
658.019	6077
658.075	5423
658.130	5076
658.186	4811
658.241	5218
658.297	4267
658.352	4771
658.407	5673
658.463	4112
658.518	5257
658.573	5278
658.629	4519
658.684	4521
658.739	5597
658.795	3861
658.850	5446
658.905	4372
658.960	5732
659.016	4986
659.071	5598
659.126	6119
659.181	5611
659.236	8213
659.291	8694
659.346	6443
659.401	7528
659.457	9244
659.512	12863
659.567	7823
659.622	6103
659.677	4986
659.732	4844
659.787	5754
659.842	6349
659.897	8129
659.952	6181
660.007	4301
660.061	4323
660.116	4562
660.171	4799
660.226	4791
660.281	5424
660.336	4376
660.391	5855
660.445	4326
660.500	5011
660.555	5413
660.610	5261
660.664	5369
660.719	4828
660.774	5086
660.828	4875
660.883	5296
660.938	6003
660.992	4710
661.047	5437
661.101	4840
661.156	5247
661.211	4365
661.265	4650
661.320	5508
661.374	5604
661.429	4267
661.483	5862
661.538	4808
661.592	5686
661.647	5185
661.701	4599
661.755	4991
661.810	5119
661.864	4165
661.919	4917
661.973	4982
662.027	4750
662.081	4013
662.136	4595
662.190	4716
662.244	6013
662.299	4908
662.353	5023
662.407	4663
662.461	4732
662.515	4898
662.569	5275
662.624	5974
662.678	5072
662.732	5409
662.786	4995
662.840	5408
662.894	5771
662.948	4476
663.002	4786
663.056	5275
663.110	4298
663.164	4780
663.218	5285
663.272	4219
663.326	4661
663.380	5239
663.434	5872
663.488	4878
663.542	5319
663.595	5087
663.649	4802
663.703	5232
663.757	5360
663.811	5423
663.864	4530
663.918	5269
663.972	4927
664.026	4221
664.079	4194
664.133	5858
664.187	5052
664.240	4319
664.294	4754
664.348	5221
664.401	5404
664.455	4804
664.508	4965
664.562	3745
664.615	4747
664.669	4518
664.722	4208
664.776	4044
664.829	4828
664.883	4508
664.936	4761
664.990	5106
665.043	5252
665.097	5450
665.150	6518
665.203	5338
665.257	4681
665.310	5412
665.363	6111
665.417	4942
665.470	5408
665.523	5950
665.576	5583
665.630	5559
665.683	5110
665.736	4490
665.789	5269
665.842	4864
665.895	5885
665.949	5630
666.002	4896
666.055	5787
666.108	5587
666.161	5041
666.214	5558
666.267	5904
666.320	6246
666.373	5465
666.426	5547
666.479	4769
666.532	5467
666.585	6154
666.638	7684
666.691	4974
666.744	6643
666.796	5266
666.849	5702
666.902	5564
666.955	5000
667.008	4969
667.060	5217
667.113	3820
667.166	5234
667.219	5465
667.271	4409
667.324	4480
667.377	6043
667.430	5324
667.482	7845
667.535	6820
667.587	5719
667.640	5214
667.693	5502
667.745	7586
667.798	8493
667.850	5314
667.903	5717
667.955	5705
668.008	5212
668.060	6152
668.113	6434
668.165	6522
668.218	5637
668.270	5393
668.322	5895
668.375	5147
668.427	6267
668.479	5111
668.532	5080
668.584	6406
668.636	5513
668.689	5602
668.741	6117
668.793	4874
668.845	5590
668.898	6088
668.950	5611
669.002	5175
669.054	5619
669.106	5395
669.158	6622
669.211	5786
669.263	5905
669.315	7581
669.367	9333
669.419	6182
669.471	6823
669.523	6577
669.575	7506
669.627	6859
669.679	5979
669.731	6454
669.783	6078
669.835	6661
669.886	6513
669.938	6636
669.990	6400
670.042	5376
670.094	7175
670.146	7948
670.197	8043
670.249	9993
670.301	10599
670.353	13888
670.404	19180
670.456	25470
670.508	42161
670.560	68062
670.611	116996
670.663	203123
670.715	446938
670.766	623719
670.818	249122
670.869	57705
670.921	29335
670.972	20143
671.024	14529
671.075	12413
671.127	10553
671.178	8998
671.230	8685
671.281	7387
671.333	8115
671.384	6887
671.436	8035
671.487	8210
671.538	7345
671.590	8514
671.641	9725
671.692	11827
671.744	16474
671.795	16577
671.846	10232
671.897	7356
671.949	6465
672.000	5790
672.051	6134
672.102	6826
672.153	6006
672.204	5893
672.256	5498
672.307	6128
672.358	5944
672.409	5517
672.460	4821
672.511	5201
672.562	5708
672.613	4964
672.664	5786
672.715	5496
672.766	5335
672.817	5043
672.868	4588
672.919	5237
672.970	4905
673.021	5071
673.071	4052
673.122	4709
673.173	5836
673.224	3940
673.275	4682
673.326	4654
673.376	4764
673.427	4233
673.478	5287
673.528	4488
673.579	4561
673.630	4996
673.680	4597
673.731	4940
673.782	4097
673.832	4359
673.883	4087
673.934	4164
673.984	4098
674.035	3543
674.085	4774
674.136	4872
674.186	5325
674.237	5681
674.287	8931
674.338	5177
674.388	4857
674.438	4309
674.489	4528
674.539	4694
674.589	4727
674.640	4959
674.690	4912
674.740	4198
674.791	5139
674.841	4720
674.891	5399
674.942	4495
674.992	4017
675.042	3834
675.092	4733
675.142	4187
675.193	4114
675.243	3989
675.293	4812
675.343	4068
675.393	5279
675.443	4817
675.493	3798
675.543	3639
675.593	4863
675.643	4382
675.693	4014
675.743	3592
675.793	4934
675.843	3770
675.893	4248
675.943	4245
675.993	4169
676.043	3759
676.093	4683
676.142	3396
676.192	4476
676.242	3645
676.292	3930
676.341	4151
676.391	4545
676.441	3847
676.491	3726
676.540	3126
676.590	3290
676.640	4567
676.689	3798
676.739	3017
676.789	3605
676.838	3140
676.888	3548
676.937	3235
676.987	3730
677.037	3766
677.086	2907
677.136	4128
677.185	2820
677.235	3362
677.284	3797
677.333	2745
677.383	2672
677.432	2906
677.482	3620
677.531	3764
677.580	3169
677.630	3394
677.679	3177
677.728	3636
677.778	3196
677.827	3160
677.876	3946
677.925	2627
677.975	3739
678.024	3677
678.073	3556
678.122	3741
678.171	3908
678.220	3179
678.269	4408
678.319	3518
678.368	3985
678.417	4012
678.466	4078
678.515	3628
678.564	4359
678.613	3843
678.662	4065
678.711	3853
678.760	4047
678.809	3638
678.857	3376
678.906	3386
678.955	3068
679.004	4796
679.053	4509
679.102	3388
679.151	3419
679.199	3091
679.248	3107
679.297	3834
679.346	3919
679.394	3891
679.443	3458
679.492	2727
679.540	3398
679.589	3398
679.638	3657
679.686	3074
679.735	3337
679.784	3545
679.832	3408
679.881	2904
679.929	2721
679.978	2644
680.026	2688
680.075	3159
680.123	2813
680.172	3653
680.220	3131
680.268	2381
680.317	2401
680.365	3314
680.414	3320
680.462	2841
680.510	3512
680.559	2959
680.607	2399
680.655	2331
680.703	2216
680.752	2343
680.800	2907
680.848	3221
680.896	2200
680.945	3050
680.993	2846
681.041	2901
681.089	2684
681.137	3261
681.185	3073
681.233	2518
681.258	2993
681.281	3419
681.329	1402
681.377	2259
681.380	2291
681.425	2432
681.473	3846
681.502	3134
681.521	2597
681.569	2860
681.617	3275
681.624	3272
681.665	3075
681.713	3323
681.745	2950
681.761	2739
681.809	3242
681.857	3559
681.867	3452
681.904	2980
681.952	3708
681.989	3477
682.000	3389
682.048	3550
682.096	3765
682.111	3620
682.143	3216
682.191	3533
682.233	3868
682.239	3892
682.286	3320
682.334	3870
682.354	3780
682.382	3624
682.430	4162
682.476	3817
682.477	3789
682.525	3712
682.572	3117
682.598	3633
682.620	4025
682.667	3398
682.715	3971
682.720	4033
682.763	4476
682.810	3900
682.841	3836
682.857	3757
682.905	4293
682.952	4214
682.963	4318
683.000	4634
683.047	3995
683.085	4028
683.095	3991
683.142	3690
683.190	4403
683.206	4172
683.237	3717
683.284	4082
683.328	5068
683.332	5139
683.379	4798
683.426	4591
683.449	4769
683.473	4891
683.521	4538
683.568	4706
683.571	4678
683.615	4024
683.662	4457
683.693	4396
683.709	4367
683.757	4071
683.804	4960
683.814	4963
683.851	4826
683.898	5059
683.936	4579
683.945	4458
683.992	4314
684.039	4762
684.057	4718
684.086	4618
684.133	5371
684.179	5198
684.180	5173
684.227	4847
684.274	5515
684.300	5446
684.321	5402
684.368	4808
684.415	5123
684.422	5116
684.462	5076
684.509	5564
684.543	5483
684.556	5400
684.603	5346
684.649	5002
684.665	5125
684.696	5384
684.743	5524
684.786	6046
684.790	6078
684.837	5314
684.883	6934
684.908	6950
684.930	6965
684.977	6831
685.023	6489
685.029	6441
685.070	5831
685.117	6606
685.150	6290
685.164	6225
685.210	6590
685.257	7556
685.272	7555
685.303	7272
685.350	6715
685.393	6649
685.396	6660
685.443	6917
685.490	6811
685.514	6721
685.536	6498
685.583	7147
685.629	6451
685.636	6392
685.675	6071
685.722	6946
685.757	6532
685.768	6440
685.815	7094
685.861	7762
685.878	7730
685.908	7543
685.954	7015
686.000	7354
686.000	7355
686.047	7148
686.093	8304
686.121	7934
686.139	7637
686.185	7577
686.232	7612
686.242	7593
686.278	7527
686.324	6932
686.363	7436
686.370	7506
686.416	6417
686.463	7950
686.484	7844
686.509	7821
686.555	7112
686.601	7190
686.606	7298
686.647	8172
686.693	7852
686.727	7938
686.739	7971
686.785	7627
686.831	7632
686.848	7512
686.877	7217
686.923	7940
686.969	7567
686.969	7565
687.015	7714
687.061	7463
687.090	7994
687.107	8277
687.153	8358
687.199	8314
687.211	8004
687.245	7222
687.291	8328
687.332	8278
687.336	8263
687.382	8232
687.428	7572
687.453	8079
687.474	8471
687.520	7713
687.565	8270
687.574	8221
687.611	8270
687.657	8184
687.695	8473
687.702	8503
687.748	8648
687.794	8666
687.816	8507
687.839	8290
687.885	8784
687.931	8184
687.937	8209
687.976	8554
688.022	8827
688.058	8719
688.067	8663
688.113	8530
688.158	8727
688.179	8787
688.204	8907
688.249	8979
688.295	9059
688.300	9097
688.340	9511
688.386	9544
688.421	9541
688.431	9511
688.477	9393
688.522	9857
688.542	9847
688.567	9755
688.613	9075
688.658	9199
688.663	9156
688.703	9061
688.749	9290
688.784	9063
688.794	8997
688.839	9347
688.884	9177
688.905	9254
688.930	9401
688.975	9398
689.020	8997
689.026	9017
689.065	9326
689.110	9951
689.146	9753
689.155	9649
689.201	9107
689.246	9670
689.267	9596
689.291	9715
689.336	9904
689.381	9857
689.388	9910
689.426	10036
689.471	10106
689.509	9881
689.516	9871
689.561	9754
689.606	9833
689.630	9975
689.651	10093
689.696	9588
689.741	9571
689.750	9700
689.785	10204
689.830	9933
689.871	9713
689.875	9711
689.920	10102
689.965	9847
689.992	9974
690.010	10092
690.054	10515
690.099	10730
690.112	10730
690.144	10604
690.189	10390
690.233	10113
690.233	10126
690.278	10178
690.323	10689
690.354	10658
690.367	10667
690.412	10683
690.457	10751
690.474	10834
690.501	11087
690.546	11681
690.590	11916
690.595	11940
690.635	12419
690.680	12740
690.716	13271
690.724	13514
690.769	14649
690.813	16009
690.836	16257
690.857	17704
690.902	22368
690.946	26701
690.957	27926
690.991	37357
691.035	51455
691.077	64636
691.080	64712
691.124	58748
691.168	51798
691.198	47846
691.213	43906
691.257	33547
691.301	22919
691.318	19117
691.346	18110
691.390	16036
691.434	14501
691.439	14293
691.478	13661
691.522	13046
691.559	12147
691.567	12100
691.611	12088
691.655	12366
691.680	12240
691.699	12193
691.743	12226
691.787	12237
691.800	12085
691.831	11982
691.875	12583
691.919	12621
691.921	12611
691.964	12683
692.008	12494
692.041	12582
692.052	12701
692.096	12573
692.139	12886
692.162	12783
692.183	12594
692.227	12718
692.271	12523
692.282	12509
692.315	12718
692.359	12807
692.402	13031
692.403	13053
692.447	12507
692.490	12193
692.523	12028
692.534	12130
692.578	12576
692.622	12083
692.643	12478
692.666	12754
692.709	12456
692.753	12212
692.763	12105
692.797	12234
692.840	12869
692.884	12975
692.884	13001
692.928	13250
692.971	13434
693.004	13585
693.015	13636
693.059	13613
693.102	13659
693.124	13482
693.146	13576
693.189	14208
693.233	14488
693.245	14610
693.276	15163
693.320	15864
693.363	16251
693.365	16250
693.407	17543
693.450	18485
693.485	19575
693.493	20253
693.537	23580
693.580	26708
693.605	28557
693.624	32202
693.667	41120
693.710	50429
693.725	53887
693.753	71547
693.797	101057
693.840	130332
693.845	133040
693.883	122315
693.926	107449
693.966	95682
693.970	93524
694.013	70257
694.056	47543
694.086	32043
694.099	30721
694.142	26648
694.185	22289
694.206	20332
694.229	19804
694.272	18363
694.315	17278
694.326	16977
694.358	16733
694.401	16060
694.444	15700
694.446	15644
694.487	15356
694.530	14979
694.566	14575
694.573	14535
694.616	14103
694.659	14055
694.686	13642
694.702	13618
694.745	13589
694.787	13922
694.806	13904
694.830	13867
694.873	13858
694.916	13719
694.926	13674
694.959	13691
695.002	13715
695.044	13524
695.046	13495
695.087	13683
695.130	13769
695.166	13902
695.172	13988
695.215	14004
695.258	14382
695.286	14508
695.301	14485
695.343	14155
695.386	14061
695.406	13824
695.428	13693
695.471	13808
695.514	13753
695.526	13722
695.556	13885
695.599	13889
695.641	13934
695.646	13917
695.684	14129
695.726	14215
695.766	14357
695.769	14382
695.811	14198
695.854	14117
695.886	13888
695.896	13889
695.938	13853
695.981	13664
696.005	13623
696.023	13865
696.065	14239
696.108	14747
696.125	14900
696.150	14821
696.192	14683
696.235	14365
696.245	14314
696.277	14731
696.319	14987
696.361	15310
696.365	15314
696.404	15795
696.446	16048
696.485	16279
696.488	16301
696.530	16013
696.572	15901
696.604	15717
696.614	15653
696.656	15077
696.698	14656
696.724	14357
696.740	14541
696.783	14823
696.825	15329
696.844	15383
696.867	15278
696.909	15179
696.951	15026
696.964	14945
696.992	14812
697.034	14580
697.076	14235
697.083	14170
697.118	14779
697.160	15344
697.202	15938
697.203	15915
697.244	15573
697.286	15055
697.323	14461
697.327	14493
697.369	14604
697.411	14738
697.442	14741
697.453	14854
697.494	15118
697.536	15530
697.562	15689
697.578	15609
697.620	15293
697.661	14885
697.682	14679
697.703	14793
697.744	15008
697.786	15154
697.801	15165
697.828	15503
697.869	15960
697.911	16468
697.921	16539
697.952	16359
697.994	16083
698.035	15803
698.040	15727
698.077	15839
698.118	15872
698.160	16005
698.160	15964
698.201	15730
698.243	15407
698.279	15152
698.284	15212
698.325	15369
698.367	15493
698.399	15562
698.408	15541
698.449	15253
698.491	14963
698.518	14708
698.532	14843
698.573	15204
698.614	15495
698.638	15639
698.656	15853
698.697	16235
698.738	16637
698.757	16773
698.779	16668
698.820	16386
698.862	16107
698.877	15962
698.903	16193
698.944	16491
698.985	16780
698.996	16819
699.026	16639
699.067	16328
699.116	15917
699.235	15793
699.354	15665
699.474	15340
699.593	16115
699.713	16520
699.832	14896
699.951	15653
700.070	15072
700.190	14471
700.309	15661
700.428	15323
700.547	16066
700.667	14842
700.786	15037
700.905	15350
701.024	13901
701.143	14491
701.262	14348
701.381	14176
701.500	15677
701.619	15144
701.738	14497
701.857	14946
701.976	14400
702.095	14494
702.214	14798
702.333	15130
702.452	14882
702.571	13581
702.690	13550
702.809	13248
702.928	14346
703.047	14302
703.165	14369
703.284	14172
703.403	14030
703.522	14817
703.640	15303
703.759	14749
703.878	15666
703.997	14304
704.115	14340
704.234	14123
704.353	14231
704.471	13862
704.590	13106
704.708	14014
704.827	13788
704.946	14069
705.064	13544
705.183	14936
705.301	15524
705.420	18699
705.538	16507
705.656	16499
705.775	16929
705.893	25693
706.012	30808
706.130	15777
706.249	16811
706.367	15666
706.485	16331
706.604	14910
706.722	15411
706.840	16060
706.958	16847
707.077	15889
707.195	15365
707.313	14328
707.431	14330
707.549	14930
707.668	14802
707.786	15123
707.904	14929
708.022	14702
708.140	15381
708.258	14358
708.376	15176
708.494	14227
708.612	15657
708.730	19265
708.848	18036
708.966	16853
709.084	16472
709.202	15940
709.320	17139
709.438	15968
709.556	17149
709.674	16291
709.791	17113
709.909	16098
710.027	16035
710.145	16028
710.263	16734
710.380	16002
710.498	16027
710.616	15351
710.733	15904
710.851	15446
710.969	15268
711.086	14971
711.204	14893
711.322	15900
711.439	14391
711.557	15879
711.674	15059
711.792	14841
711.909	16568
712.027	16445
712.144	15089
712.262	15007
712.379	15847
712.497	19468
712.614	19004
712.732	17972
712.849	16306
712.966	16832
713.084	17623
713.201	16860
713.318	17648
713.436	17864
713.553	16517
713.670	17196
713.787	17429
713.905	17491
714.022	15852
714.139	16703
714.256	16875
714.373	16505
714.490	18281
714.608	22399
714.725	50744
714.842	54060
714.959	17764
715.076	15064
715.193	15901
715.310	15292
715.427	15530
715.544	14969
715.661	15337
715.778	16087
715.895	16354
716.011	16450
716.128	15675
716.245	15397
716.362	15231
716.479	15063
716.596	14274
716.713	14943
716.829	14332
716.946	14480
717.063	14812
717.180	13985
717.296	14451
717.413	14760
717.530	14173
717.646	13781
717.763	13511
717.880	13421
717.996	13660
718.113	13323
718.229	13823
718.346	14296
718.462	12953
718.579	14384
718.695	13864
718.812	14802
718.928	13785
719.045	12727
719.161	13075
719.277	12411
719.394	13313
719.510	13509
719.626	13575
719.743	14076
719.859	14739
719.975	14663
720.092	21012
720.208	32293
720.324	15897
720.440	13387
720.557	13315
720.673	14303
720.789	16552
720.905	23095
721.021	14720
721.137	12126
721.253	12770
721.369	13088
721.486	12539
721.602	13810
721.718	12647
721.834	11797
721.950	11862
722.066	12241
722.181	11904
722.297	12256
722.413	12052
722.529	11739
722.645	12232
722.761	12089
722.877	10966
722.993	11176
723.108	10856
723.224	10863
723.340	11515
723.456	11553
723.571	11077
723.687	11253
723.803	11809
723.918	10933
724.034	10603
724.150	11521
724.265	11249
724.381	13521
724.497	15452
724.612	11419
724.728	11119
724.843	10141
724.959	11429
725.074	13378
725.190	14734
725.305	11748
725.421	10659
725.536	10157
725.651	11155
725.767	10176
725.882	9869
725.997	9950
726.113	10272
726.228	10693
726.343	10902
726.459	10791
726.574	10312
726.689	9899
726.804	9326
726.920	10125
727.035	10521
727.150	10705
727.265	10086
727.380	9890
727.495	9928
727.610	10224
727.725	9517
727.841	11338
727.956	16251
728.071	14382
728.186	9751
728.301	9370
728.416	9996
728.531	9774
728.645	9924
728.760	9613
728.875	9174
728.990	8988
729.105	8855
729.220	9958
729.335	8919
729.449	9328
729.564	9438
729.679	9152
729.794	8909
729.908	9902
730.023	9111
730.138	8609
730.253	9527
730.367	8879
730.482	9143
730.596	10344
730.711	9421
730.826	9198
730.940	9396
731.055	9204
731.169	9288
731.284	8084
731.398	8816
731.513	8867
731.627	8818
731.742	10181
731.856	9507
731.970	8438
732.085	8326
732.199	8938
732.313	9651
732.428	11359
732.542	17657
732.656	13319
732.771	9969
732.885	8739
732.999	9014
733.113	9710
733.227	9666
733.342	8560
733.456	8336
733.570	9196
733.684	9644
733.798	9119
733.912	8916
734.026	8112
734.140	7972
734.254	8966
734.368	9594
734.482	10893
734.596	8425
734.710	8500
734.824	7975
734.938	8228
735.052	8583
735.166	8237
735.280	9224
735.393	8797
735.507	8103
735.621	9350
735.735	9055
735.849	8785
735.962	7946
736.076	8851
736.190	8862
736.303	9002
736.417	10224
736.531	8381
736.644	9047
736.758	7125
736.872	7686
736.985	7248
737.099	8287
737.212	7057
737.326	8550
737.439	7948
737.553	7819
737.666	8223
737.780	7694
737.893	7893
738.007	7300
738.120	7391
738.233	7478
738.347	8275
738.460	8286
738.573	7791
738.687	7555
738.800	8495
738.913	8131
739.026	7686
739.140	8063
739.253	8458
739.366	7499
739.479	7710
739.592	7832
739.705	7058
739.818	8152
739.932	8434
740.045	7986
740.158	8276
740.271	8304
740.384	7771
740.497	7989
740.610	8120
740.723	7699
740.836	8496
740.949	8093
741.062	7646
741.174	7934
741.287	7794
741.400	7504
741.513	7568
741.626	6852
741.739	7102
741.851	8581
741.964	6922
742.077	7138
742.189	7552
742.302	7842
742.415	8099
742.527	7492
742.640	7317
742.753	7058
742.865	7636
742.978	7099
743.090	6771
743.203	8202
743.316	7986
743.428	7417
743.541	7594
743.653	7368
743.766	7238
743.878	7380
743.990	7659
744.103	8526
744.215	7821
744.327	7667
744.440	7549
744.552	8588
744.664	7662
744.777	7700
744.889	7462
745.001	8026
745.113	7536
745.226	7077
745.338	8355
745.450	6648
745.562	7008
745.674	7404
745.786	7414
745.898	7120
746.010	7729
746.122	7590
746.234	7596
746.347	8346
746.459	7606
746.570	7598
746.682	7210
746.794	7166
746.906	7784
747.018	7193
747.130	7318
747.242	6885
747.354	6833
747.466	7596
747.577	7407
747.689	6625
747.801	7908
747.913	6944
748.024	7672
748.136	7187
748.248	7197
748.359	7414
748.471	7334
748.583	7286
748.694	7597
748.806	8707
748.918	7491
749.029	7246
749.141	7925
749.252	8236
749.364	7687
749.475	8605
749.587	7697
749.698	7659
749.809	8091
749.921	7492
750.032	7907
750.144	7230
750.255	6733
750.366	7153
750.478	6736
750.589	7369
750.700	7632
750.811	7984
750.923	8324
751.034	8459
751.145	8998
751.256	7361
751.367	6540
751.479	7543
751.590	6497
751.701	7225
751.812	6906
751.923	8110
752.034	7290
752.145	7718
752.256	7133
752.367	7123
752.478	7121
752.589	7335
752.700	7408
752.811	7120
752.922	8211
753.032	7022
753.143	7776
753.254	7846
753.365	7810
753.476	6975
753.586	7599
753.697	6999
753.808	7224
753.919	7997
754.029	7863
754.140	7253
754.251	7890
754.361	7443
754.472	7630
754.582	7574
754.693	8482
754.804	7875
754.914	7578
755.025	8062
755.135	8130
755.246	8535
755.356	8065
755.466	8596
755.577	8511
755.687	8285
755.798	8515
755.908	8373
756.018	8300
756.129	9095
756.239	8658
756.349	8248
756.460	8393
756.570	8461
756.680	8516
756.790	8626
756.900	9344
757.011	8788
757.121	9020
757.231	8209
757.341	8729
757.451	8752
757.561	8922
757.671	8589
757.781	8376
757.891	9128
758.001	9163
758.111	10152
758.221	9622
758.331	9540
758.441	9614
758.551	9792
758.661	9824
758.771	10158
758.880	11101
758.990	10893
759.100	10877
759.210	10651
759.320	10898
759.429	10802
759.539	11289
759.649	10543
759.758	11786
759.868	11642
759.978	11206
760.087	12086
760.197	11985
760.307	12534
760.416	12615
760.526	11980
760.635	12947
760.745	13359
760.854	13527
760.964	13938
761.073	14047
761.182	13508
761.292	14464
761.401	15603
761.511	14488
761.620	15104
761.729	16044
761.839	16161
761.948	16199
762.057	16535
762.166	16569
762.276	17177
762.385	18648
762.494	17712
762.603	20246
762.712	19932
762.822	20254
762.931	21377
763.040	22690
763.149	22478
763.258	23904
763.367	24657
763.476	25113
763.585	26937
763.694	28443
763.803	29894
763.912	31929
764.021	33634
764.130	35006
764.238	37319
764.347	39470
764.456	42361
764.565	46861
764.674	50398
764.783	55174
764.891	59673
765.000	68610
765.109	76118
765.217	88597
765.326	104275
765.435	122805
765.543	148712
765.652	186728
765.761	241287
765.869	321244
765.978	448667
766.086	643211
766.195	914493
766.303	1110615
766.412	818783
766.520	893283
766.629	1050640
766.737	807645
766.846	568183
766.954	403461
767.062	299676
767.171	230288
767.279	182538
767.387	145501
767.496	124114
767.604	105513
767.712	91907
767.820	83466
767.928	78341
768.037	70132
768.145	67632
768.253	63271
768.361	62517
768.469	62089
768.577	62645
768.685	67005
768.793	68894
768.901	76839
769.009	87851
769.117	106475
769.225	136226
769.333	189166
769.441	280887
769.549	447356
769.657	745933
769.765	983216
769.873	802224
769.981	914374
770.088	658068
770.196	414857
770.304	274172
770.412	196926
770.519	151496
770.627	119401
770.735	97387
770.842	81482
770.950	71966
771.058	62141
771.165	56447
771.273	50027
771.380	46200
771.488	41736
771.595	38419
771.703	36244
771.810	33622
771.918	31737
772.025	29425
772.133	27104
772.240	27182
772.348	24890
772.455	23668
772.562	23828
772.670	21666
772.777	21441
772.884	19903
772.991	19902
773.099	18641
773.206	18205
773.313	17383
773.420	17225
773.528	17149
773.635	15492
773.742	16525
773.849	15850
773.956	14924
774.063	13647
774.170	14304
774.277	14825
774.384	13709
774.491	13119
774.598	13013
774.705	13254
774.812	12660
774.919	12799
775.026	12396
775.133	12094
775.239	11355
775.346	11227
775.453	11546
775.560	10949
775.667	10701
775.773	9495
775.880	12018
775.987	11202
776.093	11248
776.200	9930
776.307	10010
776.413	10481
776.520	10178
776.627	9224
776.733	9280
776.840	7924
776.946	10224
777.053	9154
777.159	8773
777.266	7667
777.372	9290
777.478	8391
777.585	8906
777.691	7964
777.798	7376
777.904	8583
778.010	9488
778.117	8732
778.223	7951
778.329	8026
778.435	7533
778.542	7517
778.648	8062
778.754	7508
778.860	7904
778.966	7465
779.072	8297
779.178	8019
779.284	7826
779.391	9119
779.497	8875
779.603	14658
779.708	20958
779.815	49029
779.920	173527
780.026	263457
780.132	47241
780.238	13442
780.344	10458
780.450	10005
780.556	8660
780.661	7349
780.767	7351
780.873	7047
780.979	6772
781.085	6240
781.190	6671
781.296	6674
781.402	6921
781.507	5742
781.613	6369
781.719	5185
781.824	5460
781.930	6159
782.035	5835
782.141	5347
782.246	5203
782.352	5648
782.457	5960
782.563	4808
782.668	5533
782.773	5963
782.879	5400
782.984	6012
783.090	6238
783.195	5834
783.300	5093
783.405	5916
783.511	5456
783.616	5957
783.721	5109
783.826	4396
783.932	5445
784.037	5461
784.142	5560
784.247	5511
784.352	4928
784.457	5096
784.562	5684
784.667	4790
784.772	4337
784.877	4780
784.982	5239
785.087	4082
785.192	4862
785.297	4434
785.402	5121
785.507	4991
785.611	4613
785.716	4625
785.821	5148
785.926	4805
786.031	3897
786.135	4839
786.240	5358
786.345	4297
786.450	5220
786.554	4367
786.659	4389
786.763	2901
786.868	4679
786.973	5427
787.077	4641
787.182	3779
787.286	5113
787.391	3880
787.495	4266
787.600	3734
787.704	3743
787.809	4272
787.913	3763
788.017	5437
788.122	4989
788.226	4121
788.330	3850
788.435	4126
788.539	4029
788.643	4323
788.747	4223
788.852	3722
788.956	3756
789.060	4312
789.164	3284
789.268	3271
789.372	4794
789.476	3139
789.580	3556
789.684	3550
789.788	4205
789.892	3740
789.996	4657
790.100	3653
790.204	3917
790.308	3337
790.412	3925
790.516	4129
790.620	3337
790.724	4612
790.828	3702
790.931	3476
791.035	5133
791.139	4450
791.242	3697
791.346	3602
791.450	3592
791.554	3266
791.657	3070
791.761	4188
791.864	3991
791.968	3431
792.072	4390
792.175	4225
792.279	3403
792.382	3659
792.486	3659
792.589	2135
792.693	3610
792.796	3231
792.899	3916
793.003	3524
793.106	1767
793.209	2970
793.313	4517
793.416	2727
793.519	4199
793.623	4674
793.726	4438
793.829	3716
793.932	4196
794.035	3059
794.138	5121
794.242	4874
794.345	7070
794.448	11723
794.551	28248
794.654	98538
794.757	168116
794.860	30565
794.963	6453
795.066	4961
795.169	5269
795.272	4101
795.375	4380
795.477	3373
795.580	3457
795.683	3097
795.786	3783
795.889	2922
795.991	3001
796.094	4248
796.197	2658
796.300	4076
796.402	2889
796.505	2849
796.608	3253
796.710	3143
796.813	3466
796.915	3267
797.018	3247
797.120	2832
797.223	2063
797.326	3166
797.428	2766
797.530	2739
797.633	2575
797.735	4143
797.838	3858
797.940	3672
798.042	3228
798.145	2252
798.247	3162
798.349	2282
798.452	3402
798.554	2768
798.656	1957
798.758	3390
798.860	2919
798.962	2859
799.065	2311
799.167	2059
799.269	3710
799.371	3159
799.473	2880
799.575	2516
799.677	2784
799.779	3559
799.881	1223
799.983	2622
800.085	3523
800.187	2704
800.289	2031
800.390	2269
800.492	2506
800.594	2915
800.696	2974
800.798	2943
800.899	2719
801.001	2319
801.103	2223
801.205	2163
801.306	2307
801.408	1671
801.509	2977
801.611	2213
801.713	2867
801.814	1323
801.916	2607
802.017	2650
802.119	2347
802.220	2265
802.322	1198
802.423	3436
802.525	2067
802.626	2021
802.727	2732
802.829	2351
802.930	483
803.031	3752
803.133	1902
803.234	1982
803.335	2742
803.436	1639
803.538	2880
803.639	1233
803.740	2538
803.841	1723
803.942	1858
804.043	2533
804.144	2092
804.245	2012
804.346	2062
804.447	1739
804.548	2414
804.649	3258
804.750	2640
804.851	1420
804.952	2160
805.053	2217
805.154	2316
805.255	2743
805.355	2765
805.456	2144
805.557	1462
805.658	686
805.758	3042
805.859	2276
805.960	1831
806.061	1192
806.161	1443
806.262	2484
806.362	841
806.463	1629
806.564	1955
806.664	1964
806.765	2288
806.865	1921
806.966	2091
807.066	1523
807.166	3472
807.267	2490
807.367	1314
807.468	2600
807.568	1424
807.668	3075
807.769	2315
807.869	1456
807.969	2162
808.069	2675
808.170	2547
808.270	975
808.370	1901
808.470	2348
808.570	995
808.670	1907
808.770	2051
808.870	1312
808.970	2475
809.070	1327
809.170	1349
809.271	1824
809.370	1415
809.470	2102
809.570	1751
809.670	1279
809.770	1564
809.870	2700
809.970	2369
810.070	1703
810.169	1659
810.269	1103
810.369	2727
810.469	1688
810.568	1438
810.668	1152
810.768	2232
810.867	1223
810.967	1893
811.066	2372
811.166	684
811.265	2551
811.365	1993
811.464	930
811.564	2030
811.663	1690
811.763	743
811.862	2333
811.962	3054
812.061	1638
812.160	1496
812.260	2370
812.359	2319
812.458	2529
812.557	4192
812.657	3736
812.756	2727
812.855	2298
812.954	1322
813.053	2226
813.153	2005
813.252	699
813.351	2129
813.450	1611
813.549	1741
813.648	1581
813.747	1633
813.846	2036
813.945	1909
814.044	1330
814.143	2390
814.242	2586
814.341	2133
814.439	2597
814.538	3415
814.637	1016
814.736	1936
814.835	2144
814.933	1940
815.032	949
815.131	2122
815.229	2238
815.328	2427
815.427	1748
815.525	2405
815.624	2085
815.722	506
815.821	1779
815.919	2122
816.018	1518
816.116	2962
816.215	2498
816.313	2018
816.412	2248
816.510	2443
816.609	4428
816.707	2973
816.805	2340
816.904	1923
817.002	3458
817.100	3866
817.198	4000
817.296	3798
817.395	4123
817.493	4422
817.591	4705
817.689	7347
817.787	9575
817.885	13274
817.983	25397
818.081	48619
818.179	109609
818.277	237341
818.375	200583
818.473	69164
818.571	28529
818.669	19341
818.767	16439
818.865	15717
818.963	19036
819.061	25969
819.158	43700
819.256	88940
819.354	185626
819.452	325436
819.549	223204
819.647	91458
819.745	39866
819.842	23998
819.940	15272
820.038	12397
820.135	9367
820.233	8298
820.330	6156
820.428	5422
820.525	5595
820.623	4697
820.720	3701
820.818	3526
820.915	3708
821.012	3480
821.110	2498
821.207	4378
821.304	1970
821.402	2796
821.499	3684
821.596	3412
821.693	3321
821.791	2324
821.888	2877
821.985	2974
822.082	913
822.179	1801
822.276	2618
822.373	2652
822.470	2342
822.567	2519
822.664	1164
822.761	2511
822.858	1352
822.955	2549
823.052	2242
823.149	1929
823.246	2097
823.343	1122
823.440	1915
823.536	1160
823.633	1053
823.730	2148
823.827	1858
823.923	862
824.020	2724
824.117	1819
824.213	-472
824.310	2004
824.407	1203
824.503	1295
824.600	1654
824.696	1985
824.793	2467
824.889	1109
824.986	1026
825.082	897
825.179	1372
825.275	2117
825.371	1019
825.468	2700
825.564	887
825.660	1497
825.757	1818
825.853	1963
825.949	681
826.045	1945
826.142	1683
826.238	1493
826.334	1375
826.430	298
826.526	1901
826.622	333
826.718	1391
826.814	320
826.910	1711
827.006	2143
827.102	1114
827.198	2362
827.294	1114
827.390	1597
827.486	1673
827.582	716
827.678	853
827.774	2142
827.869	1231
827.965	1906
828.061	455
828.157	1371
828.252	1015
828.348	926
828.444	2281
828.539	1641
828.635	1713
828.731	2566
828.826	86
828.922	1039
829.017	989
829.113	1492
829.208	987
829.304	1333
829.399	2142
829.495	1221
829.590	1632
829.685	1474
829.781	1575
829.876	1271
829.971	614
830.066	535
830.162	1450
830.257	336
830.352	1406
830.447	1933
830.543	1481
830.638	-340
830.733	1624
830.828	559
830.923	1826
831.018	1814
831.113	1270
831.208	646
831.303	1255
831.398	1194
831.493	725
831.588	1586
831.683	-152
831.778	1484
831.873	1493
831.967	1661
832.062	267
832.157	418
832.252	1746
832.346	772
832.441	1422
832.536	2069
832.631	1622
832.725	1602
832.820	592
832.914	978
833.009	1261
833.104	702
833.198	1992
833.293	158
833.387	1398
833.482	1230
833.576	114
833.670	1967
833.765	227
833.859	629
833.954	1240
834.048	923
834.142	1064
834.237	1185
834.331	1170
834.425	427
834.519	503
834.613	1303
834.708	553
834.802	1254
834.896	706
834.990	1290
835.084	832
835.178	1092
835.272	1131
835.366	541
835.460	665
835.554	580
835.648	1411
835.742	533
835.836	942
835.930	837
836.024	1388
836.117	1336
836.211	992
836.305	1681
836.399	2276
836.493	-181
836.586	1277
836.680	389
836.774	555
836.867	1925
836.961	-188
837.055	317
837.148	1215
837.242	1104
837.335	778
837.429	1227
837.522	1320
837.616	565
837.709	1609
837.803	830
837.896	941
837.989	256
838.083	2102
838.176	2346
838.269	520
838.363	1643
838.456	285
838.549	2019
838.642	1293
838.735	1993
838.829	2065
838.922	330
839.015	714
839.108	1156
839.201	1649
839.294	1400
839.387	1484
839.480	332
839.573	1283
839.666	1513
839.759	463
839.852	196
839.945	1193
840.038	549
840.131	769
840.223	723
840.316	701
840.409	429
840.502	-94
840.594	1343
840.687	185
840.780	1314
840.873	755
840.965	631
841.058	1152
841.150	1747
841.243	1284
841.336	840
841.428	945
841.521	667
841.613	202
841.706	1101
841.798	1002
841.890	297
841.983	463
842.075	1688
842.167	1324
842.260	376
842.352	1457
842.444	580
842.537	2060
842.629	2110
842.721	937
842.813	1018
842.905	-23
842.997	1390
843.090	995
843.182	726
843.274	1248
843.366	3818
843.458	5667
843.550	4029
843.642	1179
843.734	1000
843.826	376
843.918	1005
844.009	985
844.101	774
844.193	988
844.285	445
844.377	-36
844.469	984
844.560	797
844.652	523
844.744	748
844.835	862
844.927	-64
845.019	769
845.110	784
845.202	763
845.293	283
845.385	183
845.476	1002
845.568	1373
845.659	334
845.751	423
845.842	1216
845.934	1118
846.025	852
846.116	1100
846.208	624
846.299	308
846.390	841
846.482	1208
846.573	841
846.664	811
846.755	881
846.846	1733
846.937	-486
847.029	963
847.120	-117
847.211	467
847.302	1605
847.393	-49
847.484	2104
847.575	632
847.666	448
847.757	763
847.847	356
847.938	538
848.029	904
848.120	464
848.211	653
848.302	202
848.392	-262
848.483	1262
848.574	22
848.664	596
848.755	546
848.846	874
848.936	592
849.027	930
849.118	59
849.208	69
849.299	719
849.389	912
849.480	668
849.570	1175
849.661	1254
849.751	1227
849.841	1171
849.932	688
850.022	-540
850.112	892
850.203	52
850.293	1166
850.383	-93
850.474	503
850.564	843
850.654	936
850.744	513
850.834	1186
850.924	237
851.014	876
851.104	286
851.194	841
851.284	1092
851.374	925
851.464	666
851.554	558
851.644	1343
851.734	1923
851.824	2419
851.914	2458
852.004	7818
852.094	6701
852.183	1687
852.273	1032
852.363	690
852.452	609
852.542	366
852.632	993
852.721	169
852.811	735
852.901	260
852.990	679
853.080	495
853.169	734
853.259	-355
853.348	-607
853.438	524
853.527	1096
853.617	-675
853.706	1213
853.795	862
853.885	1921
853.974	3182
854.063	5716
854.152	7086
854.242	4398
854.331	586
854.420	-500
854.509	641
854.598	695
854.687	615
854.777	347
854.866	566
854.955	634
855.044	-245
855.133	376
855.222	-301
855.311	42
855.400	253
855.488	125
855.577	185
855.666	1167
855.755	1081
855.844	1106
855.933	850
856.021	1034
856.110	1790
856.199	34
856.288	777
856.376	696
856.465	-820
856.554	1589
856.642	278
856.731	790
856.819	932
856.908	305
856.996	115
857.085	48
857.173	-314
857.262	887
857.350	596
857.438	-236
857.527	482
857.615	-22
857.703	315
857.792	61
857.880	528
857.968	209
858.056	-35
858.145	-178
858.233	-18
858.321	-712
858.409	901
858.497	408
858.585	865
858.673	1218
858.761	520
858.849	-271
858.937	-258
859.025	236
859.113	648
859.201	-310
859.289	377
859.377	16
859.465	1146
859.552	-446
859.640	214
859.728	567
859.816	621
859.903	1226
859.991	-407
860.079	382
860.166	558
860.254	-273
860.342	1010
860.429	10
860.517	526
860.604	73
860.692	443
860.779	1160
860.867	445
860.954	94
861.042	430
861.129	94
861.216	820
861.304	32
861.391	311
861.478	597
861.565	939
861.653	617
861.740	-80
861.827	-254
861.914	549
862.001	641
862.089	725
862.176	312
862.263	281
862.350	158
862.437	-42
862.524	137
862.611	-112
862.698	362
862.785	995
862.871	-101
862.958	-3
863.045	-421
863.132	659
863.219	-274
863.306	-782
863.392	-201
863.479	922
863.566	-496
863.652	546
863.739	233
863.826	109
863.912	339
863.999	-186
864.086	547
864.172	-613
864.259	-421
864.345	-467
864.432	406
864.518	-627
864.604	1012
864.691	-239
864.777	-449
864.863	540
864.950	376
865.036	-511
865.122	1243
865.209	108
865.295	-54
865.381	363
865.467	294
865.553	560
865.639	-25
865.726	898
865.812	827
865.898	1396
865.984	1696
866.070	3881
866.156	4783
866.242	1795
866.328	425
866.414	101
866.499	1343
866.585	350
866.671	36
866.757	113
866.843	571
866.928	-109
867.014	-127
867.100	893
867.186	47
867.271	-47
867.357	1512
867.442	617
867.528	874
867.614	737
867.699	1055
867.785	420
867.870	-232
867.956	257
868.041	1579
868.127	234
868.212	808
868.297	613
868.383	926
868.468	724
868.553	511
868.639	347
868.724	1707
868.809	1790
868.894	674
868.979	343
869.065	584
869.150	-453
869.235	331
869.320	-3
869.405	111
869.490	484
869.575	198
869.660	223
869.745	729
869.830	-215
869.915	-155
870.000	61
870.085	873
870.169	259
870.254	150
870.339	-485
870.424	-270
870.509	-398
870.593	423
870.678	308
870.763	5
870.847	-193
870.932	166
871.016	-62
871.101	-44
871.186	132
871.270	360
871.355	10
871.439	225
871.523	97
871.608	21
871.692	206
871.777	282
871.861	1011
871.945	354
872.030	-227
872.114	-1
872.198	245
872.282	-159
872.367	-687
872.451	0
872.535	-201
872.619	503
872.703	-293
872.787	-156
872.871	204
872.955	-27
873.039	-227
873.123	742
873.207	299
873.291	3
873.375	600
873.459	379
873.543	0
873.627	225
873.711	-109
873.794	114
873.878	-472
873.962	-546
874.045	286
874.129	-464
874.137	-489
874.213	-741
874.245	-742
874.296	-749
874.352	-267
874.380	-31
874.460	614
874.464	640
874.547	-534
874.568	-486
874.631	-342
874.676	-513
874.714	-663
874.784	30
874.798	166
874.881	1514
874.892	1318
874.965	-10
874.999	-60
875.048	-153
875.107	-78
875.131	-35
875.215	3
875.215	3
875.298	-44
875.323	-229
875.381	-655
875.430	-518
875.465	-393
875.538	16
875.548	48
875.631	-663
875.646	-674
875.714	-598
875.753	-676
875.798	-781
875.861	-45
875.881	185
875.964	-165
875.968	-166
876.047	-129
876.076	-49
876.130	25
876.183	-93
876.213	-119
876.291	423
876.296	450
876.379	9
876.398	-81
876.462	-269
876.506	-221
876.545	-195
876.613	38
876.628	94
876.711	159
876.721	165
876.794	130
876.828	-8
876.877	-173
876.935	-10
876.960	59
877.043	154
877.043	152
877.125	-255
877.150	-269
877.208	-515
877.258	-615
877.291	-526
877.365	-226
877.374	-215
877.456	202
877.472	162
877.539	55
877.579	123
877.622	160
877.687	261
877.704	302
877.787	321
877.794	329
877.869	439
877.901	439
877.952	393
878.008	603
878.034	678
878.115	-472
878.117	-490
878.199	-98
878.222	28
878.282	282
878.329	181
878.364	86
878.437	529
878.447	600
878.529	-426
878.544	-318
878.611	183
878.651	315
878.694	488
878.758	358
878.776	272
878.858	338
878.865	348
878.941	532
878.972	350
879.023	179
879.078	143
879.105	116
879.185	350
879.187	350
879.269	-1
879.292	-90
879.351	-12
879.399	255
879.433	356
879.506	363
879.516	397
879.598	595
879.613	562
879.680	45
879.720	-154
879.762	-171
879.827	117
879.844	139
879.926	437
879.933	432
880.007	550
880.040	400
880.089	97
880.147	131
880.171	149
880.253	419
880.254	413
880.335	-280
880.360	-45
880.417	406
880.467	506
880.499	798
880.574	2108
880.580	2114
880.662	940
880.680	728
880.744	588
880.787	153
880.825	-321
880.893	47
880.907	125
880.989	230
881.000	189
881.070	297
881.106	373
881.152	170
881.213	335
881.233	513
881.315	636
881.319	629
881.396	285
881.426	165
881.478	54
881.532	336
881.559	417
881.639	258
881.641	256
881.722	112
881.745	113
881.803	352
881.852	392
881.885	358
881.958	441
881.966	407
882.047	277
882.064	146
882.129	563
882.171	984
882.210	952
882.277	925
882.291	980
882.372	912
882.383	893
882.454	235
882.489	152
882.535	384
882.596	422
882.616	340
882.697	67
882.702	43
882.778	445
882.808	816
882.859	822
882.914	141
882.940	43
883.020	179
883.021	182
883.102	480
883.127	450
883.183	278
883.233	437
883.264	534
883.339	369
883.345	338
883.426	-67
883.445	-43
883.507	393
883.551	198
883.587	91
883.657	553
883.668	578
883.749	98
883.763	104
883.830	301
883.869	396
883.910	335
883.975	-62
883.991	-46
884.072	422
884.081	443
884.152	242
884.187	97
884.233	325
884.292	1051
884.314	1134
884.394	857
884.398	843
884.475	613
884.504	485
884.555	253
884.610	124
884.636	129
884.716	320
884.716	326
884.797	591
884.821	696
884.877	580
884.927	375
884.958	303
885.033	-72
885.038	-59
885.118	469
885.139	575
885.199	472
885.244	441
885.279	613
885.350	717
885.359	680
885.439	762
885.456	676
885.520	388
885.561	287
885.600	245
885.667	253
885.680	303
885.760	517
885.773	569
885.840	298
885.878	66
885.920	190
885.984	358
886.000	455
886.080	977
886.089	1042
886.160	732
886.195	502
886.240	546
886.300	637
886.320	675
886.400	724
886.406	746
886.480	1233
886.511	1317
886.560	1179
886.616	912
886.640	839
886.720	852
886.722	843
886.800	730
886.827	746
886.879	896
886.932	983
886.959	1007
887.038	939
887.039	942
887.119	908
887.143	861
887.198	1034
887.248	1163
887.278	1113
887.354	1123
887.358	1105
887.437	614
887.459	475
887.517	1109
887.564	1579
887.596	1458
887.669	1146
887.676	1133
887.755	881
887.774	830
887.835	686
887.880	602
887.914	765
887.985	1048
887.994	996
888.073	518
888.090	395
888.153	630
888.195	863
888.232	820
888.300	704
888.311	716
888.391	820
888.405	801
888.470	735
888.510	788
888.549	918
888.615	1047
888.628	1053
888.708	1151
888.720	1164
888.787	1471
888.825	1585
888.866	1368
888.930	1099
888.945	1130
889.024	1252
889.035	1266
889.103	1071
889.140	960
889.182	821
889.245	611
889.261	739
889.340	1379
889.349	1444
889.419	792
889.454	484
889.498	728
889.559	1052
889.577	1071
889.656	1159
889.664	1168
889.735	1296
889.768	1354
889.814	1146
889.873	868
889.978	1034
890.083	659
890.187	1009
890.292	779
890.397	250
890.501	1166
890.606	1544
890.710	1692
890.815	533
890.919	811
891.024	661
891.128	790
891.233	1586
891.337	606
891.442	624
891.546	435
891.650	1013
891.755	725
891.859	1064
891.963	750
892.068	940
892.172	837
892.276	334
892.380	646
892.484	459
892.589	354
892.693	2139
892.797	368
892.901	931
893.005	991
893.109	1883
893.213	1254
893.317	1329
893.421	1032
893.525	467
893.629	606
893.733	1066
893.837	1602
893.941	743
894.045	1976
894.148	1389
894.252	3104
894.356	3209
894.460	944
894.564	1170
894.667	781
894.771	918
894.875	403
894.978	1461
895.082	444
895.186	1115
895.289	1375
895.393	1115
895.496	1322
895.600	224
895.703	1426
895.807	1023
895.910	662
896.014	258
896.117	724
896.221	1359
896.324	969
896.427	1045
896.531	142
896.634	875
896.737	636
896.840	1540
896.944	663
897.047	-58
897.150	964
897.253	876
897.356	933
897.460	670
897.563	1033
897.666	705
897.769	1024
897.872	1053
897.975	642
898.078	1401
898.181	621
898.284	1266
898.387	676
898.490	727
898.593	460
898.695	343
898.798	820
898.901	1842
899.004	2026
899.107	816
899.209	503
899.312	1296
899.415	719
899.518	1083
899.620	974
899.723	238
899.826	1432
899.928	1126
900.031	703
900.133	108
900.236	740
900.338	165
900.441	663
900.543	1142
900.646	1568
900.748	580
900.851	873
900.953	483
901.055	1132
901.158	1188
901.260	536
901.362	820
901.465	1180
901.567	794
901.669	1034
901.771	710
901.873	161
901.976	1221
902.078	790
902.180	1356
902.282	800
902.384	840
902.486	555
902.588	1174
902.690	450
902.792	924
902.894	1074
902.996	579
903.098	1022
903.200	757
903.302	1031
903.404	919
903.505	942
903.607	668
903.709	1253
903.811	462
903.913	1009
904.014	1078
904.116	1224
904.218	933
904.319	409
904.421	1027
904.523	234
904.624	1350
904.726	936
904.827	890
904.929	453
905.030	1493
905.132	601
905.233	1425
905.335	947
905.436	629
905.537	811
905.639	1151
905.740	516
905.841	903
905.943	1219
906.044	294
906.145	1198
906.247	725
906.348	675
906.449	692
906.550	1154
906.651	603
906.752	658
906.854	585
906.955	1008
907.056	580
907.157	104
907.258	1085
907.359	374
907.460	670
907.561	399
907.662	590
907.762	1137
907.863	458
907.964	1220
908.065	854
908.166	979
908.267	758
908.367	624
908.468	950
908.569	190
908.670	1378
908.770	1722
908.871	40
908.971	677
909.072	1581
909.173	998
909.273	312
909.374	1312
909.474	951
909.575	633
909.675	604
909.776	787
909.876	490
909.977	692
910.077	649
910.177	325
910.278	1555
910.378	196
910.478	1110
910.579	209
910.679	1351
910.779	123
910.879	1012
910.980	985
911.080	190
911.180	478
911.280	645
911.380	167
911.480	957
911.580	492
911.680	813
911.780	1218
911.880	1426
911.980	287
912.080	491
912.180	421
912.280	590
912.380	1014
912.480	1197
912.580	1076
912.679	307
912.779	1171
912.879	847
912.979	444
913.078	-155
913.178	1331
913.278	681
913.377	1769
913.477	1844
913.577	680
913.676	1459
913.776	438
913.875	428
913.975	678
914.074	238
914.174	1421
914.273	665
914.373	1592
914.472	799
914.572	10
914.671	1520
914.770	627
914.870	783
914.969	779
915.068	467
915.167	604
915.267	804
915.366	85
915.465	1195
915.564	473
915.663	137
915.763	972
915.862	866
915.961	205
916.060	-154
916.159	578
916.258	290
916.357	1010
916.456	1011
916.555	825
916.654	1010
916.752	198
916.851	780
916.950	639
917.049	1235
917.148	598
917.247	898
917.345	614
917.444	465
917.543	817
917.642	87
917.740	682
917.839	1132
917.937	266
918.036	1563
918.135	339
918.233	652
918.332	243
918.430	633
918.529	1477
918.627	91
918.726	418
918.824	1034
918.923	1620
919.021	11
919.119	106
919.218	265
919.316	235
919.414	509
919.512	836
919.611	1007
919.709	284
919.807	177
919.905	136
920.003	767
920.102	356
920.200	843
920.298	392
920.396	488
920.494	155
920.592	666
920.690	1206
920.788	390
920.886	344
920.984	823
921.082	594
921.180	943
921.277	321
921.375	753
921.473	331
921.571	1157
921.669	698
921.766	544
921.864	1394
921.962	1731
922.060	810
922.157	1273
922.255	216
922.352	-343
922.450	1060
922.548	380
922.645	855
922.743	758
922.840	955
922.938	763
923.035	1465
923.133	395
923.230	1451
923.327	2197
923.425	943
923.522	1179
923.619	1215
923.717	642
923.814	-18
923.911	1225
924.008	1738
924.106	713
924.203	-267
924.300	385
924.397	388
924.494	373
924.591	-356
924.688	446
924.786	385
924.883	1456
924.979	878
925.077	818
925.173	1100
925.270	474
925.367	711
925.464	1442
925.561	813
925.658	646
925.755	977
925.852	939
925.948	616
926.045	1186
926.142	733
926.239	917
926.335	1085
926.432	1145
926.529	-548
926.625	724
926.722	408
926.818	238
926.915	891
927.011	802
927.108	1433
927.204	1019
927.301	395
927.397	918
927.494	304
927.590	918
927.687	498
927.783	629
927.879	450
927.976	782
928.072	1337
928.168	769
928.264	235
928.361	1211
928.457	340
928.553	442
928.649	728
928.745	329
928.841	68
928.937	778
929.033	672
929.129	722
929.225	416
929.321	1660
929.417	966
929.513	1121
929.609	370
929.705	1205
929.801	387
929.897	657
929.993	971
930.089	1152
930.184	835
930.280	767
930.376	1148
930.471	398
930.567	896
930.663	773
930.758	228
930.854	411
930.950	661
931.045	1354
931.141	304
931.236	1094
931.332	475
931.427	550
931.523	485
931.618	699
931.714	431
931.809	1421
931.905	1225
932.000	261
932.095	979
932.191	635
932.286	-231
932.381	1198
932.476	429
932.572	655
932.667	858
932.762	355
932.857	737
932.952	285
933.047	143
933.142	146
933.237	952
933.332	253
933.427	1026
933.522	1202
933.617	386
933.712	654
933.807	296
933.902	326
933.997	621
934.092	-324
934.187	653
934.282	1532
934.376	489
934.471	217
934.566	379
934.661	532
934.755	1013
934.850	-22
934.945	865
935.039	-131
935.134	451
935.228	415
935.323	6
935.417	264
935.512	235
935.606	380
935.701	484
935.795	344
935.890	571
935.984	778
936.079	-166
936.173	60
936.267	-26
936.362	-383
936.456	924
936.550	1098
936.644	654
936.738	517
936.833	349
936.927	1121
937.021	726
937.115	102
937.209	-82
937.303	1240
937.397	-328
937.491	173
937.585	539
937.679	380
937.773	661
937.867	1093
937.961	226
938.055	-38
938.149	1225
938.243	35
938.337	447
938.430	243
938.524	547
938.618	-236
938.712	614
938.805	521
938.899	-226
938.993	429
939.086	302
939.180	-79
939.274	104
939.367	504
939.461	751
939.554	587
939.648	624
939.741	158
939.835	385
939.928	224
940.022	379
940.115	-25
940.208	289
940.302	443
940.395	278
940.488	610
940.582	1233
940.675	-369
940.768	-264
940.861	-206
940.954	323
941.048	-549
941.141	1504
941.234	125
941.327	436
941.420	1208
941.513	629
941.606	75
941.699	787
941.792	-615
941.885	813
941.978	464
942.071	-220
942.164	654
942.257	-574
942.349	290
942.442	1028
942.535	369
942.628	-169
942.721	605
942.813	-857
942.906	1129
942.999	521
943.091	355
943.184	-157
943.277	130
943.369	10
943.462	346
943.554	1013
943.647	-239
943.739	60
943.832	286
943.924	-311
944.017	-89
944.109	-172
944.201	73
944.294	511
944.386	256
944.478	723
944.571	399
944.663	470
944.755	627
944.847	-171
944.940	344
945.032	-99
945.124	-22
945.216	827
945.308	-45
945.400	706
945.492	13
945.584	-450
945.676	349
945.768	685
945.860	187
945.952	-589
946.044	389
946.136	541
946.228	-298
946.320	475
946.412	-114
946.503	-555
946.595	1142
946.687	291
946.779	538
946.870	29
946.962	-488
947.054	-11
947.145	565
947.237	492
947.329	312
947.420	-701
947.512	316
947.603	-768
947.695	305
947.786	-313
947.878	-101
947.969	681
948.061	-224
948.152	181
948.243	313
948.335	-93
948.426	-551
948.517	38
948.609	581
948.700	-22
948.791	-405
948.882	52
948.973	-291
949.065	-254
949.156	-104
949.247	-377
949.338	-537
949.429	1
949.520	1244
949.611	-599
949.702	602
949.793	-154
949.884	425
949.975	-375
950.066	-251
950.157	-507
950.247	58
950.338	-494
950.429	460
950.520	-756
950.611	-12
950.701	-322
950.792	-175
950.883	64
950.973	637
951.064	106
951.155	178
951.245	-411
951.336	697
951.427	92
951.517	1365
951.608	119
951.698	-59
951.788	421
951.879	-400
951.969	-740
952.060	213
952.150	-13
952.240	243
952.331	-452
952.421	953
952.511	115
952.602	644
952.692	-447
952.782	927
952.872	129
952.962	-11
953.052	562
953.143	-34
953.233	561
953.323	151
953.413	-813
953.503	-976
953.593	199
953.683	-399
953.773	-407
953.863	-157
953.953	60
954.042	-286
954.132	-228
954.222	-551
954.312	52
954.402	68
954.492	-523
954.581	1124
954.671	109
954.761	-700
954.850	494
954.940	-744
955.030	48
955.119	-271
955.209	-373
955.298	-631
955.388	-824
955.477	419
955.567	-657
955.656	176
955.746	180
955.835	-210
955.925	-22
956.014	-513
956.103	182
956.193	261
956.282	-191
956.371	352
956.461	-799
956.550	474
956.639	-234
956.728	-229
956.817	675
956.906	31
956.995	75
957.085	211
957.174	102
957.263	845
957.352	318
957.441	86
957.530	185
957.619	250
957.708	-162
957.796	157
957.885	569
957.974	123
958.063	547
958.152	-263
958.241	247
958.329	114
958.418	-49
958.507	-243
958.596	577
958.684	-78
958.773	1072
958.861	231
958.950	-117
959.039	-68
959.127	-160
959.216	358
959.304	526
959.393	100
959.481	1003
959.570	642
959.658	217
959.746	570
959.835	992
959.923	2093
960.011	807
960.100	454
960.188	975
960.276	-437
960.365	407
960.453	670
960.541	-102
960.629	845
960.717	-186
960.805	-1080
960.893	40
960.981	-810
961.069	140
961.158	251
961.245	1125
961.333	42
961.421	-112
961.509	-54
961.597	-180
961.685	-497
961.773	-819
961.861	-94
961.949	-232
962.036	64
962.124	481
962.212	-302
962.299	-748
962.387	-723
962.475	-794
962.562	-712
962.650	529
962.738	-60
962.825	-672
962.913	72
963.000	-589
963.088	-65
963.175	-658
963.263	-28
963.350	-88
963.438	-33
963.525	-577
963.612	777
963.700	2222
963.787	8840
963.874	4618
963.962	509
964.049	198
964.136	-570
964.223	-439
964.310	-266
964.398	739
964.485	-424
964.572	303
964.659	444
964.746	1285
964.833	233
964.920	-752
965.007	351
965.094	287
965.181	191
965.268	-540
965.355	-251
965.441	-172
965.528	-833
965.615	82
965.702	229
965.789	120
965.875	-633
965.962	133
966.049	-708
966.136	-125
966.222	-362
966.309	782
966.395	215
966.482	716
966.569	-1283
966.655	-1412
966.742	30
966.828	-105
966.915	-480
967.001	-501
967.087	-1199
967.174	14
967.260	414
967.347	150
967.433	1349
967.519	5382
967.605	2115
967.692	-390
967.778	-675
967.864	151
967.950	-130
968.036	-177
968.123	249
968.209	-607
968.295	-262
968.381	441
968.467	-585
968.553	-936
968.639	24
968.725	-147
968.811	950
968.897	752
968.983	-38
969.069	-117
969.154	-923
969.240	438
969.326	-385
969.412	-339
969.497	-659
969.583	-540
969.669	917
969.755	-233
969.840	-740
969.926	225
970.012	0
970.097	-144
970.183	231
970.268	399
970.354	180
970.439	775
970.525	3343
970.610	1251
970.696	176
970.781	669
970.866	-231
970.952	94
971.037	-1257
971.122	-949
971.208	-608
971.293	255
971.378	-1355
971.463	700
971.549	346
971.634	269
971.719	36
971.804	-193
971.889	-131
971.974	-1001
972.059	-282
972.144	-190
972.229	-698
972.314	-387
972.399	274
972.484	-430
972.569	599
972.654	-709
972.739	1946
972.824	909
972.908	592
972.993	-25
973.078	-382
973.163	-765
973.247	-564
973.332	-1229
973.417	-193
973.501	-855
973.586	-652
973.671	1014
973.755	162
973.840	136
973.924	247
974.009	-586
974.093	-335
974.178	744
974.262	722
974.346	799
974.431	478
974.515	-570
974.600	-382
974.684	331
974.768	-921
974.852	-278
974.937	-847
975.021	-220
975.105	-869
975.189	-174
975.273	82
975.358	-26
975.442	-807
975.526	-358
975.610	-585
975.694	-1681
975.778	681
975.862	-719
975.946	-1865
976.030	152
976.114	-392
976.198	-337
976.281	-446
976.365	215
976.449	-87
976.533	226
976.617	-257
976.700	391
976.784	456
976.868	-138
976.951	815
977.035	914
977.119	766
977.202	-518
977.286	-959
977.369	-275
977.453	277
977.536	-145
977.620	-1401
977.703	-677
977.787	-964
977.870	-262
977.953	123
978.037	-911
978.120	688
978.203	544
978.287	1228
978.370	441
978.453	218
978.536	99
978.620	408
978.703	432
978.786	-16
978.869	-867
978.952	-750
979.035	1400
979.118	79
979.201	-478
979.284	-971
979.367	-473
979.450	750
979.533	-877
979.616	301
979.699	-82
979.782	-260
979.865	-314
979.948	-100
980.030	256
980.113	-743
980.196	-804
980.279	-618
980.361	-34
980.444	411
980.526	-233
980.609	-117
980.692	-316
980.774	436
980.857	-849
980.939	316
981.022	-1057
981.104	157
981.187	-233
981.269	-304
981.352	-537
981.434	-1128
981.516	-293
981.599	1481
981.681	-418
981.763	562
981.846	-201
981.928	-11
982.010	-987
982.092	-1090
982.174	248
982.256	-623
982.339	-374
982.421	-253
982.503	52
982.585	-835
982.667	-95
982.749	-124
982.831	-660
982.913	-1002
982.995	1228
983.077	-1009
983.158	177
983.240	-1327
983.322	-370
983.404	-100
983.486	-211
983.568	-261
983.649	-115
983.731	-535
983.813	-350
983.894	-133
983.976	-702
984.058	-74
984.139	727
984.221	-1187
984.302	-630
984.384	-573
984.465	-97
984.547	-1164
984.628	-968
984.710	-299
984.791	-519
984.872	-921
984.954	-492
985.035	133
985.116	-1166
985.198	-1019
985.279	569
985.360	-969
985.441	-746
985.522	-182
985.604	-154
985.685	-1576
985.766	424
985.847	468
985.928	-957
986.009	-1263
986.090	-671
986.171	-6
986.252	-1005
986.333	-362
986.414	-952
986.495	-484
986.576	-722
986.656	-359
986.737	-708
986.818	-892
986.899	-370
986.980	-195
987.060	-257
987.141	-701
987.222	-86
987.302	-863
987.383	-426
987.464	-934
987.544	113
987.625	-878
987.705	-372
987.786	-219
987.866	-194
987.947	-815
988.027	-455
988.108	-683
988.188	469
988.268	-481
988.349	-273
988.429	-951
988.509	-143
988.589	-312
988.670	-1750
988.750	325
988.830	-372
988.910	-647
988.990	-396
989.070	-464
989.151	-846
989.231	-1144
989.311	-689
989.391	-312
989.471	-277
989.551	-530
989.631	-665
989.711	-857
989.791	-987
989.870	-1039
989.950	133
990.030	-592
990.110	-1351
990.190	-1548
990.269	-729
990.349	-1151
990.429	-746
990.509	342
990.588	-1203
990.668	683
990.747	-888
990.827	-444
990.907	-274
990.986	-998
991.066	-1094
991.145	-740
991.225	-464
991.304	-1217
991.383	-560
991.463	-924
991.542	-668
991.622	-954
991.701	5
991.780	-1061
991.859	-309
991.939	-1125
992.018	-878
992.097	-1324
992.176	-623
992.256	-1245
992.335	-1157
992.414	-485
992.493	-593
992.572	-995
992.651	-152
992.730	-688
992.809	-1621
992.888	-1828
992.967	-1271
993.046	-403
993.125	-1777
993.203	-1022
993.282	-1342
993.361	-936
993.440	-348
993.519	-805
993.597	-352
993.676	-1472
993.755	-848
993.834	-1163
993.912	-1597
993.991	-437
994.069	-1152
994.148	-1148
994.226	-1399
994.305	-834
994.384	-642
994.462	-837
994.540	-1621
994.619	-1696
994.697	-1026
994.776	-990
994.854	56
994.932	-1903
995.011	-1282
995.089	-1307
995.167	-1821
995.245	-1421
995.324	-1495
995.402	-50
995.480	-1390
995.558	-739
995.636	-1236
995.714	-1929
995.792	-812
995.870	-1313
995.948	-1291
996.026	-926
996.104	-1581
996.182	-444
996.260	-1772
996.338	-390
996.416	-952
996.494	-1509
996.572	-837
996.649	-1797
996.727	-2177
996.805	-1239
996.883	-1945
996.960	-1603
997.038	-705
997.116	-1417
997.193	-1360
997.271	-1100
997.348	-2447
997.426	-803
997.504	-1450
997.581	-1057
997.658	-247
997.736	-2010
997.813	-1287
997.891	-941
997.968	-2107
998.046	-965
998.123	-1733
998.200	-933
998.277	-2258
998.355	-1393
998.432	-2397
998.509	-1990
998.586	-379
998.663	-1324
998.741	-1333
998.818	-1886
998.895	-1438
998.972	-1445
999.049	-577
999.126	-1429
999.203	-1035
999.280	-1706
999.357	-1955
999.434	-784
999.511	-577
999.587	-1468
999.664	-1690
999.741	-1340
999.818	-667
999.895	-1692
999.971	-1654
1000.048	-2116
1000.125	-1175
1000.202	-1400
1000.278	-1095
1000.355	-975
1000.431	-2268
1000.508	-1955
1000.584	-537
1000.661	-1396
1000.738	-2662
1000.814	-749
1000.890	-1175
1000.967	-2043
1001.043	-1435
1001.120	-1723
1001.196	-1762
1001.272	-1595
1001.349	-1743
1001.425	-351
1001.501	-1688
1001.577	-1996
1001.654	-1311
1001.730	-2307
1001.806	-1144
1001.882	-2630
1001.958	-900
1002.034	-1258
1002.110	-1237
1002.186	-2048
1002.262	-1821
1002.338	-2448
1002.414	-1398
1002.490	-1132
1002.566	-1532
1002.642	-1583
1002.718	-879
1002.794	-1592
1002.870	-1508
1002.945	-1796
1003.021	-1063
1003.097	-1945
1003.173	-1314
1003.248	-1985
1003.324	-1691
1003.400	-1577
1003.475	-1649
1003.551	-1271
1003.626	-1722
1003.702	-966
1003.777	-1852
1003.853	-1608
1003.928	-1962
1004.004	-1427
1004.079	-1429
1004.155	-1159
1004.230	-2801
1004.305	-1065
1004.381	-1970
1004.456	-1220
1004.531	-1758
1004.607	-1875
1004.682	-1370
1004.757	-937
1004.832	-2361
1004.907	-1534
1004.982	-891
1005.057	-1485
1005.133	-1199
1005.208	-1158
1005.283	-1974
1005.358	-1321
1005.433	-1934
1005.508	-1118
1005.583	-1793
1005.657	-1901
1005.732	-320
1005.807	-2527
1005.882	-2373
1005.957	-1242
1006.032	-1906
1006.106	-965
1006.181	-1338
1006.256	-1719
1006.331	-1915
1006.405	-2445
1006.480	-1589
1006.554	-2218
1006.629	-2465
1006.704	-1412
1006.778	-2020
1006.853	-1253
1006.927	-2574
1007.002	-2316
1007.076	-2109
1007.150	-2192
1007.225	-1291
1007.299	-767
1007.373	-2531
1007.448	-1608
1007.522	-1789
1007.596	-990
1007.671	-1750
1007.745	-1418
1007.819	-1499
1007.893	-1697
1007.967	-2521
1008.041	-2671
1008.115	-929
1008.190	-1955
1008.264	-1117
1008.338	-2679
1008.412	-2075
1008.486	-2406
1008.560	-1775
1008.633	-1960
1008.707	-1991
1008.781	-1112
1008.855	-2116
1008.929	-2018
1009.003	-2302
1009.076	-1817
1009.150	-1495
1009.224	-2227
1009.298	-941
1009.371	-2915
1009.445	-1866
1009.519	-1359
1009.592	-2308
1009.666	-1686
1009.739	-1503
1009.813	-2798
1009.886	-1419
1009.960	-2314
1010.033	-1717
1010.107	-539
1010.180	-2151
1010.253	-1283
1010.327	-2996
1010.400	-2181
1010.473	-1659
1010.547	-925
1010.620	-1415
1010.693	-1343
1010.766	-2214
1010.840	-1853
1010.913	-1569
1010.986	-2440
1011.059	-2526
1011.132	-2864
1011.205	-1098
1011.278	-2348
1011.351	-2095
1011.424	-2036
1011.497	-2430
1011.570	-1445
1011.643	-1988
1011.716	-1404
1011.789	-2008
1011.862	-1004
1011.934	-712
1012.007	-2082
1012.080	-1589
1012.153	-1097
1012.225	-955
1012.298	-1878
1012.371	-1432
1012.443	-2040
1012.516	-2617
1012.588	-1360
1012.661	-1846
1012.733	-1805
1012.806	-1685
1012.879	-1370
1012.951	-1636
1013.023	-1234
1013.096	-1441
1013.168	-1532
1013.241	-1097
1013.313	-2192
1013.385	-2030
1013.458	-2238
1013.530	-1977
1013.602	-2674
1013.674	-1172
1013.746	-2571
1013.819	-2304
1013.891	-1249
1013.963	-2698
1014.035	-1501
1014.107	-1520
1014.179	-1406
1014.251	-1911
1014.323	-1876
1014.395	-2080
1014.467	-1922
1014.539	-1732
1014.611	-1679
1014.683	-1894
1014.754	-1812
1014.826	-2744
1014.898	-1453
1014.970	-2267
1015.042	-1085
1015.113	-1636
1015.185	-1256
1015.257	-2091
1015.328	-1678
1015.400	-2005
1015.471	-1541
1015.543	-3238
1015.615	-1363
1015.686	-2680
1015.757	-1614
1015.829	-1821
1015.901	-1496
1015.972	-1751
1016.043	-1553
1016.115	-1989
1016.186	-2333
1016.257	-1657
1016.328	-1798
1016.400	-1058
1016.471	-1813
1016.542	-1846
1016.613	-2403
1016.685	-2348
1016.756	-1277
1016.827	-2283
1016.898	-2312
1016.969	-1236
1017.040	-2166
1017.111	-2547
1017.182	-1976
1017.253	-1612
1017.324	-2120
1017.395	-2379
1017.466	-1540
1017.537	-2280
1017.608	-2186
1017.678	-2428
1017.749	-1216
1017.820	-1509
1017.891	-2157
1017.961	-1300
1018.032	-1958
1018.103	-829
1018.173	-1231
1018.244	-2222
1018.315	-2243
1018.385	-1125
1018.456	-1178
1018.526	-1926
1018.597	-1103
1018.667	-1688
1018.738	-1948
1018.808	-2019
1018.878	-1935
1018.949	-1190
1019.019	-1668
1019.089	-1391
1019.160	-1701
1019.230	-2027
1019.300	-1174
1019.371	-2330
1019.441	-867
1019.511	-1325
1019.581	-473
1019.651	-1917
1019.721	-2113
1019.791	-2321
1019.861	-2046
1019.931	-1453
1020.001	-2274
1020.071	-1574
1020.141	-1158
1020.211	-2307
1020.281	-2342
1020.351	-1237
1020.421	-2411
1020.491	-1091
1020.560	-2115
1020.630	-2091
1020.700	-1839
1020.770	-2334
1020.839	-2437
1020.909	-1966
1020.979	-2326
1021.048	-1574
1021.118	-1081
1021.187	-1727
1021.257	-1044
1021.326	-1735
1021.396	-1875
1021.465	-1235
1021.535	-2165
1021.604	-2259
1021.674	-1255
1021.743	-1706
1021.812	-1360
1021.882	-2318
1021.951	-1586
1022.020	-2384
1022.089	-1522
1022.159	-1633
1022.228	-1564
1022.297	-1856
1022.366	-2336
1022.435	-1052
1022.504	-1470
1022.573	-1802
1022.642	-991
1022.711	-1528
1022.781	-1866
1022.849	-1667
1022.918	-2088
1022.987	-2664
1023.056	-2092
1023.125	-2217
1023.194	-1952
1023.263	-1226
1023.331	-1573
1023.400	-1214
1023.469	-776
1023.538	-1511
1023.606	-1580
1023.675	-1030
1023.744	-1648
1023.812	-1051
1023.881	-1927
1023.949	-1571
1024.018	-2340
1024.086	-1949
1024.155	-2301
1024.223	-2067
1024.292	-1246
1024.360	-2503
1024.429	-2226
1024.497	-2015
1024.565	-1645
1024.634	-1918
1024.702	-1542
1024.770	-2191
1024.838	-2588
1024.907	-921
1024.975	-2242
1025.043	-791
1025.111	-3304
1025.179	-2457
1025.247	-1541
1025.315	-1672
1025.383	-1787
1025.451	-1694
1025.519	-1749
1025.587	-2109
1025.655	-2190
1025.723	-1086
1025.791	-2193
1025.859	-2683
1025.927	-1557
1025.995	-2080
1026.062	-2430
1026.130	-1853
1026.198	-1543
1026.266	-1749
1026.333	-1654
1026.401	-1090
1026.469	-1479
1026.536	-1590
1026.604	-1453
1026.671	-1720
1026.739	-1944
1026.806	-1839
1026.874	-1824
1026.941	-2388
1027.009	-1871
1027.076	-1773
1027.144	-1432
1027.211	-1590
1027.278	-2350
1027.345	-1534
1027.413	-1339
1027.480	-2142
1027.547	-1619
1027.614	-1751
1027.682	-885
1027.749	-1144
1027.816	-1765
1027.883	-1962
1027.950	-2692
1028.017	-2185
1028.084	-1899
1028.151	-2120
1028.218	-1694
1028.285	-1463
1028.352	-1600
1028.419	-2361
1028.486	-1576
1028.553	-1458
1028.619	-2242
1028.686	-1410
1028.753	-2651
1028.820	-2341
1028.886	-2787
1028.953	-1675
1029.020	-2213
1029.086	-2127
1029.153	-2083
1029.220	-2228
1029.286	-2082
1029.353	-2202
1029.419	-1666
1029.486	-1409
1029.552	-1693
1029.619	-2031
1029.685	-1093
1029.751	-2133
1029.818	-848
1029.884	-1888
1029.951	-749
1030.017	-1929
1030.083	-405
1030.149	-2471
1030.216	-2257
1030.282	-1902
1030.348	-1635
1030.414	-1881
1030.480	-1998
1030.546	-2043
1030.612	-1510
1030.678	-1930
1030.744	-1715
1030.810	-1406
1030.876	-1512
1030.942	-1264
1031.008	-1847
1031.074	-1568
1031.140	-1734
1031.206	-1599
1031.272	-1649
1031.337	-2446
1031.403	-1898
1031.469	-2016
1031.534	-1901
1031.600	-1001
1031.666	-1612
1031.731	-2398
1031.797	-1402
1031.863	-2631
1031.928	-2076
1031.994	-2217
1032.059	-1799
1032.125	-1191
1032.190	-1290
1032.256	-1635
1032.321	-2046
1032.386	-1302
1032.452	-1365
1032.517	-1385
1032.582	-1234
1032.647	-1897
1032.713	-1141
1032.778	-1823
1032.843	-1823
1032.908	-2196
1032.974	-1893
1033.039	-2292
1033.104	-684
1033.169	-2808
1033.234	-1411
1033.299	-2044
1033.364	-1818
1033.429	-1538
1033.494	-1416
1033.559	-2136
1033.624	-773
1033.688	-1825
1033.753	-1527
1033.818	-2077
1033.883	-2094
1033.948	-2686
1034.013	-1340
1034.077	-1515
1034.142	-1766
1034.207	-1386
1034.271	-1742
1034.336	-522
1034.400	-1418
1034.465	-2132
1034.530	-596
1034.594	-1456
1034.658	-1379
1034.723	-1727
1034.787	-1416
1034.852	-1744
1034.916	-2266
1034.981	-1833
1035.045	-1701
1035.109	-1824
1035.173	-1365
1035.238	-1927
1035.302	-1193
1035.366	-2082
1035.430	-2173
1035.495	-2468
1035.559	-2032
1035.623	-2171
1035.687	-1645
1035.751	-1605
1035.815	-1454
1035.879	-2485
1035.943	-1360
1036.007	-1397
1036.071	-1475
1036.135	-1508
1036.198	-1632
1036.262	-1600
1036.326	-813
1036.390	-1576
1036.454	-1037
1036.517	-1167
1036.581	-2342
1036.645	-1857
1036.709	-1461
1036.772	-1614
1036.836	-1748
1036.900	-2362
1036.963	-1674
1037.026	-1803
1037.090	-1127
1037.154	-1354
1037.217	-1333
1037.280	-2325
1037.344	-2219
1037.407	-2096
1037.471	-1208
1037.534	-1947
1037.597	-1267
1037.661	-2354
1037.724	-1639
1037.787	-1791
1037.850	-1799
1037.913	-1783
1037.977	-914
1038.040	-1619
1038.103	-2026
1038.166	-1389
1038.229	-1215
1038.292	-1490
1038.355	-1496
1038.418	-1930
1038.481	-1821
1038.544	-1825
1038.607	-1876
1038.670	-791
1038.732	-1729
1038.795	-1862
1038.858	-1667
1038.921	-1907
1038.984	-1461
1039.046	-1659
1039.109	-1478
1039.172	-1727
1039.234	-1349
1039.297	-2807
1039.360	-1089
1039.422	-1559
1039.485	-1519
1039.547	-2258
1039.610	-1606
1039.672	-2125
1039.734	-1725
1039.797	-1482
1039.859	-1385
1039.922	-1402
1039.984	-1338
1040.046	-2237
1040.109	-2176
1040.171	-2193
1040.233	-894
1040.295	-1703
1040.358	-1817
1040.420	-2173
1040.482	-1399
1040.544	-1689
1040.606	-1560
1040.668	-984
1040.730	-1408
1040.792	-2005
1040.854	-1476
1040.916	-1490
1040.978	-1621
1041.040	-1443
1041.102	-2003
1041.164	-1583
1041.225	-1522
1041.287	-2012
1041.349	-1346
1041.411	-1593
1041.472	-1204
1041.534	-2984
1041.596	-2461
1041.657	-1540
1041.719	-1784
1041.781	-1984
1041.842	-1744
1041.904	-1471
1041.965	-1415
1042.027	-1604
1042.088	-1073
1042.150	-1476
1042.211	-1960
1042.272	-1533
1042.334	-1358
1042.395	-1556
1042.456	-1215
1042.518	-795
1042.579	-1795
1042.640	-1716
1042.701	-965
1042.763	-1802
1042.824	-1754
1042.885	-1451
1042.946	-1572
1043.007	-2641
1043.068	-1492
1043.129	-1394
1043.190	-1426
1043.251	-1698
1043.312	-1317
1043.373	-1149
1043.434	-1610
1043.495	-786
1043.556	-1890
1043.616	-1719
1043.677	-1310
1043.738	-1733
1043.799	-1550
1043.859	-1082
1043.920	-559
1043.981	-1324
1044.041	-1738
1044.102	-1674
1044.162	-2104
1044.223	-1957
1044.284	-1634
1044.344	-2014
1044.405	-1693
1044.465	-1109
1044.525	-1677
1044.586	-1673
1044.646	-1047
1044.707	-1632
1044.767	-1188
1044.827	-1730
1044.887	-1431
1044.948	-750
1045.008	-1502
1045.068	-2304
1045.128	-1251
1045.188	-1721
1045.249	-1326
1045.309	-1583
1045.369	-1202
1045.429	-1830
1045.489	-1360
1045.549	-2052
1045.609	-1376
1045.669	-1589
1045.729	-1756
1045.789	-1578
1045.848	-527
1045.908	-1457
1045.968	-1472
1046.028	-1690
1046.088	-1647
1046.147	-268
1046.207	-1871
1046.267	-1045
1046.326	-1434
1046.386	-1000
1046.446	-577
1046.505	-1744
1046.565	-382
1046.624	-75
1046.684	-943
1046.743	-335
1046.803	-743
1046.862	-173
1046.922	0
