'Start Wavelength	183.907
'End Wavelength	1046.922
'Gate Delay	5.000
'Gate Width (ms)	1.050
'Laser Output Level	0.000
'X Position	0.000
'Y Position	0.000
'Z Position	0.000
'Grid Point Number	1.000
'Shot Number	100.000
183.907	-275.000
183.977	242.000
184.047	234
184.116	757
184.186	224
184.256	818
184.325	-120
184.395	-1117
184.465	1033
184.534	-402
184.604	-109
184.674	-152
184.743	252
184.813	400
184.883	-353
184.952	433
185.022	227
185.092	-54
185.161	167
185.231	534
185.301	81
185.370	762
185.440	-100
185.509	535
185.579	122
185.649	529
185.718	194
185.788	285
185.857	-855
185.927	100
185.996	-451
186.066	-57
186.136	94
186.205	54
186.275	192
186.344	-380
186.414	-379
186.483	-616
186.553	309
186.622	558
186.692	48
186.761	62
186.831	173
186.900	-106
186.970	6
187.039	529
187.109	582
187.178	76
187.248	-349
187.317	-4
187.387	-2
187.456	135
187.526	-154
187.595	383
187.664	-14
187.734	674
187.803	309
187.873	549
187.942	781
188.012	291
188.081	-207
188.150	836
188.220	-474
188.289	604
188.358	-611
188.428	-249
188.497	-444
188.567	449
188.636	-592
188.705	93
188.775	202
188.844	-11
188.913	268
188.983	109
189.052	-230
189.121	252
189.191	-335
189.260	-51
189.329	-706
189.399	482
189.468	21
189.537	-541
189.606	86
189.676	516
189.745	237
189.814	1276
189.883	167
189.953	-26
190.022	232
190.091	653
190.161	67
190.230	-226
190.299	541
190.368	-170
190.437	-563
190.507	-48
190.576	-449
190.645	671
190.714	48
190.783	556
190.853	480
190.922	574
190.991	-374
191.060	-284
191.129	-560
191.198	454
191.268	-476
191.337	157
191.406	-47
191.475	636
191.544	-36
191.613	499
191.682	47
191.752	169
191.821	212
191.890	-204
191.959	3
192.028	234
192.097	379
192.166	205
192.235	30
192.304	408
192.373	-51
192.442	-423
192.511	198
192.580	-351
192.650	-528
192.719	187
192.788	-204
192.857	-22
192.926	293
192.995	541
193.064	251
193.133	-29
193.202	161
193.271	58
193.340	695
193.409	704
193.478	380
193.547	241
193.615	1071
193.684	243
193.753	-544
193.822	760
193.891	256
193.960	916
194.029	48
194.098	591
194.167	381
194.236	564
194.305	-87
194.374	321
194.443	-752
194.512	372
194.580	291
194.649	665
194.718	760
194.787	296
194.856	254
194.925	650
194.994	-1192
195.062	1043
195.131	-625
195.200	-338
195.269	181
195.338	494
195.407	581
195.475	43
195.544	-162
195.613	506
195.682	-39
195.751	81
195.819	-202
195.888	249
195.957	736
196.026	272
196.094	152
196.163	358
196.232	486
196.301	-2
196.369	419
196.438	1013
196.507	-8
196.576	-184
196.644	-109
196.713	-233
196.782	-210
196.850	1106
196.919	927
196.988	-39
197.056	670
197.125	1304
197.194	52
197.262	690
197.331	214
197.400	319
197.468	-81
197.537	765
197.606	313
197.674	827
197.743	1034
197.812	111
197.880	815
197.949	-674
198.017	440
198.086	-46
198.155	452
198.223	508
198.292	208
198.360	136
198.429	240
198.497	-400
198.566	198
198.635	266
198.703	743
198.772	427
198.840	680
198.909	214
198.977	-459
199.046	-426
199.114	274
199.183	769
199.251	-629
199.320	483
199.388	156
199.457	349
199.525	-131
199.594	346
199.662	330
199.731	471
199.799	-134
199.867	421
199.936	328
200.004	611
200.073	382
200.141	7
200.210	163
200.278	860
200.346	810
200.415	548
200.483	448
200.552	231
200.620	728
200.688	-231
200.757	-179
200.825	-152
200.893	239
200.962	521
201.030	-294
201.098	225
201.167	-115
201.235	1005
201.303	-94
201.372	702
201.440	-177
201.508	456
201.577	15
201.645	248
201.713	-598
201.781	-127
201.850	537
201.918	780
201.986	246
202.055	1270
202.123	-26
202.191	808
202.259	-142
202.327	387
202.396	412
202.464	473
202.532	632
202.600	663
202.669	314
202.737	290
202.805	-51
202.873	174
202.941	1050
203.009	-255
203.078	-5
203.146	826
203.214	-320
203.282	-71
203.350	299
203.418	-235
203.487	303
203.555	280
203.623	706
203.691	29
203.759	-218
203.827	482
203.895	354
203.963	-94
204.031	-297
204.099	-134
204.168	-313
204.236	665
204.304	-10
204.372	945
204.440	218
204.508	-7
204.576	503
204.644	167
204.712	-101
204.780	759
204.848	267
204.916	390
204.984	-228
205.052	1008
205.120	399
205.188	787
205.256	64
205.324	57
205.392	383
205.460	697
205.528	29
205.596	783
205.664	-29
205.732	347
205.799	498
205.867	1537
205.935	361
206.003	860
206.071	2
206.139	174
206.207	486
206.275	571
206.343	-218
206.411	88
206.478	-267
206.546	374
206.614	43
206.682	436
206.750	356
206.818	273
206.885	482
206.953	-234
207.021	544
207.089	911
207.157	336
207.225	891
207.292	-495
207.360	511
207.428	-758
207.496	-145
207.563	-15
207.631	1056
207.699	610
207.767	188
207.834	638
207.902	679
207.970	474
208.038	817
208.105	571
208.173	1042
208.241	200
208.309	429
208.376	128
208.444	99
208.512	629
208.579	242
208.647	598
208.715	500
208.782	348
208.850	222
208.918	751
208.985	467
209.053	190
209.120	547
209.188	-117
209.256	288
209.323	168
209.391	-58
209.459	1040
209.526	328
209.594	-498
209.661	659
209.729	359
209.796	813
209.864	664
209.932	-246
209.999	884
210.067	615
210.134	661
210.202	696
210.269	1002
210.337	1055
210.404	645
210.472	1076
210.539	370
210.607	371
210.674	616
210.742	777
210.809	817
210.877	-510
210.944	972
211.012	-757
211.079	1066
211.146	470
211.214	673
211.281	1268
211.349	869
211.416	900
211.484	1117
211.551	404
211.618	-119
211.686	623
211.753	551
211.821	1075
211.888	131
211.955	397
212.023	703
212.090	259
212.157	788
212.225	312
212.292	1618
212.359	1387
212.427	2981
212.494	1319
212.561	426
212.629	787
212.696	746
212.763	1203
212.831	187
212.898	1586
212.965	545
213.032	1420
213.100	389
213.167	441
213.234	1125
213.301	1163
213.369	1128
213.436	715
213.503	1088
213.570	799
213.638	187
213.705	1104
213.772	371
213.839	740
213.906	141
213.973	670
214.041	737
214.108	577
214.175	845
214.242	1052
214.309	1054
214.376	439
214.444	614
214.511	1488
214.578	491
214.645	1553
214.712	1061
214.779	211
214.846	141
214.913	1187
214.980	485
215.048	1050
215.115	770
215.182	1067
215.249	194
215.316	648
215.383	1391
215.450	1306
215.517	885
215.584	391
215.651	165
215.718	1126
215.785	1441
215.852	911
215.919	602
215.986	1201
216.053	754
216.120	410
216.187	959
216.254	627
216.321	350
216.388	783
216.455	1182
216.522	1178
216.589	1005
216.656	1651
216.722	884
216.789	1271
216.856	1250
216.923	1359
216.990	483
217.057	1811
217.124	1589
217.191	712
217.258	1184
217.324	1133
217.391	1486
217.458	2345
217.525	1113
217.592	1229
217.659	-94
217.725	1480
217.792	258
217.859	1491
217.926	1193
217.993	1093
218.059	488
218.126	710
218.193	1346
218.260	589
218.327	619
218.393	160
218.460	1032
218.527	714
218.594	278
218.660	592
218.727	953
218.794	-343
218.860	950
218.927	118
218.994	860
219.061	296
219.127	529
219.194	1552
219.261	621
219.327	362
219.394	605
219.461	128
219.527	263
219.594	434
219.661	249
219.727	88
219.794	593
219.860	681
219.927	833
219.994	928
220.060	740
220.127	1061
220.193	1213
220.260	1008
220.326	1418
220.393	3080
220.460	2675
220.526	1423
220.593	1113
220.659	2211
220.726	601
220.792	2854
220.859	2489
220.925	3948
220.992	4137
221.058	3982
221.125	2363
221.191	2242
221.258	23
221.324	1649
221.391	1009
221.457	1432
221.524	425
221.590	1337
221.657	1881
221.723	1753
221.789	1861
221.856	2208
221.922	-63
221.989	628
222.055	947
222.121	503
222.188	1136
222.254	762
222.321	-124
222.387	76
222.453	571
222.520	424
222.586	-401
222.652	592
222.719	407
222.785	683
222.851	21
222.918	742
222.984	346
223.050	509
223.116	-1385
223.183	1211
223.249	252
223.315	102
223.382	342
223.448	580
223.514	219
223.580	9
223.647	-514
223.713	72
223.779	135
223.845	415
223.911	-55
223.978	219
224.044	927
224.110	-28
224.176	275
224.242	937
224.309	-127
224.375	-6
224.441	647
224.507	149
224.573	-223
224.639	732
224.705	-113
224.772	148
224.838	-285
224.904	1027
224.970	-93
225.036	1540
225.102	-290
225.168	1134
225.234	672
225.300	-92
225.366	-287
225.432	751
225.499	880
225.565	400
225.631	620
225.697	1057
225.763	641
225.829	468
225.895	912
225.961	1791
226.027	697
226.093	918
226.159	2072
226.225	2944
226.291	4139
226.357	5905
226.423	4055
226.489	2616
226.554	1871
226.620	2322
226.686	2122
226.752	3129
226.818	4101
226.884	5988
226.950	5784
227.016	3372
227.082	2217
227.148	1576
227.214	1629
227.279	1261
227.345	1169
227.411	951
227.477	287
227.543	703
227.609	1789
227.674	1374
227.740	-411
227.806	746
227.872	-337
227.938	1294
228.003	1354
228.069	602
228.135	-248
228.201	1199
228.267	817
228.332	537
228.398	-423
228.464	1654
228.530	141
228.595	411
228.661	-187
228.727	785
228.792	1411
228.858	639
228.924	-1266
228.990	1687
229.055	-394
229.121	922
229.187	192
229.252	472
229.318	-47
229.384	818
229.449	322
229.515	590
229.581	-932
229.646	2332
229.712	455
229.777	654
229.843	558
229.909	1276
229.974	1526
230.040	879
230.105	1297
230.171	1031
230.236	538
230.302	1265
230.368	769
230.433	487
230.499	761
230.564	1411
230.630	1007
230.695	229
230.761	1187
230.826	-177
230.892	1224
230.957	748
231.023	98
231.088	481
231.154	365
231.219	725
231.284	960
231.350	1250
231.415	-498
231.481	556
231.546	1017
231.612	572
231.677	563
231.742	-767
231.808	968
231.873	334
231.939	-492
232.004	1511
232.069	1548
232.135	1087
232.200	-16
232.265	1191
232.331	725
232.396	794
232.461	457
232.527	246
232.592	229
232.657	1182
232.723	367
232.788	1338
232.853	387
232.918	969
232.984	-275
233.049	-157
233.114	359
233.179	953
233.245	420
233.310	1520
233.375	9
233.440	488
233.506	106
233.571	926
233.636	601
233.701	400
233.766	572
233.832	1779
233.897	382
233.962	-222
234.027	1405
234.092	926
234.157	887
234.222	332
234.288	1399
234.353	2511
234.418	1997
234.483	2455
234.548	1914
234.613	1467
234.678	941
234.743	1346
234.808	2786
234.873	1085
234.938	1670
235.004	1054
235.069	585
235.134	481
235.199	822
235.264	397
235.329	-184
235.394	1153
235.459	1438
235.524	617
235.589	1653
235.654	524
235.719	301
235.784	1249
235.849	1115
235.913	935
235.978	1183
236.043	2315
236.108	1502
236.173	581
236.238	719
236.303	837
236.368	38
236.433	1711
236.498	930
236.563	2664
236.627	4446
236.692	9463
236.757	7323
236.822	4700
236.887	3207
236.952	3010
237.017	1320
237.081	3651
237.146	2468
237.211	6683
237.276	9301
237.341	10675
237.405	6952
237.470	4905
237.535	2631
237.600	2055
237.664	2018
237.729	1788
237.794	2251
237.859	5247
237.923	2381
237.988	1203
238.053	2127
238.118	1738
238.182	3029
238.247	3673
238.312	498
238.376	1956
238.441	684
238.506	2067
238.570	-68
238.635	1844
238.700	822
238.764	212
238.829	1979
238.893	1269
238.958	1628
239.023	1088
239.087	1141
239.152	1050
239.216	48
239.281	1078
239.346	823
239.410	1089
239.475	1064
239.539	3674
239.604	1014
239.668	1981
239.733	992
239.797	996
239.862	1741
239.926	2928
239.991	1872
240.055	1201
240.120	1115
240.184	701
240.249	-375
240.313	696
240.378	862
240.442	2014
240.507	2734
240.571	1865
240.635	832
240.700	2376
240.764	879
240.829	632
240.893	-556
240.957	1168
241.022	1965
241.086	3070
241.151	448
241.215	-35
241.279	1344
241.344	1805
241.408	1390
241.472	975
241.537	2359
241.601	1190
241.665	576
241.730	1146
241.794	1183
241.858	1460
241.922	1002
241.987	1804
242.051	144
242.115	49
242.179	1196
242.244	1527
242.308	1488
242.372	1656
242.436	867
242.501	693
242.565	596
242.629	847
242.693	1826
242.757	-46
242.822	1211
242.886	1866
242.950	760
243.014	191
243.078	1557
243.142	842
243.206	905
243.271	2835
243.335	810
243.399	2524
243.463	4398
243.527	11836
243.591	4126
243.655	1588
243.719	871
243.783	2621
243.847	2204
243.911	2808
243.975	2166
244.040	1141
244.104	2037
244.168	2123
244.232	1392
244.296	2469
244.360	2442
244.424	1303
244.488	885
244.552	1527
244.615	-650
244.679	1427
244.743	392
244.807	756
244.871	1443
244.935	1659
244.999	-562
245.063	537
245.127	2195
245.191	2818
245.255	1962
245.319	2138
245.383	-191
245.446	2492
245.510	-79
245.574	1302
245.638	1139
245.702	411
245.766	2803
245.829	2276
245.893	784
245.957	246
246.021	2233
246.085	781
246.149	1511
246.212	4039
246.276	4346
246.340	2006
246.404	1630
246.467	2635
246.531	1136
246.595	1863
246.659	2715
246.722	700
246.786	2321
246.850	1463
246.913	2281
246.977	896
247.041	1533
247.104	1635
247.168	1585
247.232	2782
247.295	4693
247.359	3156
247.423	1109
247.486	2986
247.550	2499
247.614	1337
247.677	2241
247.741	1228
247.804	869
247.868	2712
247.932	2230
247.995	6482
248.059	2040
248.122	987
248.186	3422
248.249	3931
248.313	7489
248.376	8338
248.440	5368
248.503	1449
248.567	4483
248.630	3162
248.694	3750
248.757	6018
248.821	7907
248.884	6596
248.948	5285
249.011	8245
249.075	10133
249.138	8498
249.202	4750
249.265	3452
249.328	4150
249.392	2760
249.455	2494
249.519	2736
249.582	2392
249.645	4554
249.709	4276
249.772	3927
249.835	2705
249.899	2233
249.962	2455
250.025	1653
250.089	4337
250.152	5842
250.215	3255
250.279	1889
250.342	2203
250.405	2947
250.468	1589
250.532	2662
250.595	5349
250.658	11780
250.721	18654
250.785	7367
250.848	5158
250.911	2121
250.974	3742
251.038	3401
251.101	6060
251.164	3570
251.227	5111
251.290	3658
251.354	6076
251.417	17085
251.480	15380
251.543	13948
251.606	28236
251.669	21857
251.732	10149
251.795	9281
251.859	10654
251.922	18272
251.985	11230
252.048	5918
252.111	3892
252.174	3553
252.237	6752
252.300	10452
252.363	12971
252.426	21590
252.489	9179
252.552	6115
252.615	4086
252.678	5049
252.741	8984
252.804	12097
252.867	25146
252.930	14417
252.993	7861
253.056	6058
253.119	3957
253.182	2632
253.245	4871
253.308	4298
253.371	2359
253.434	4081
253.497	4100
253.559	6436
253.622	3844
253.685	5429
253.748	5746
253.811	3361
253.874	3811
253.937	2651
254.000	2914
254.062	4165
254.125	5611
254.188	7828
254.251	5173
254.314	2282
254.376	4342
254.439	5655
254.502	4510
254.565	3726
254.628	7173
254.690	4950
254.753	2087
254.816	1853
254.878	2740
254.941	4862
255.004	3869
255.067	2002
255.129	2656
255.192	1358
255.255	386
255.317	1580
255.380	1599
255.443	519
255.505	-46
255.568	833
255.631	2086
255.693	1050
255.756	114
255.819	1673
255.881	700
255.944	1365
256.006	560
256.069	897
256.132	-209
256.194	2019
256.257	2118
256.319	2204
256.382	1564
256.444	2589
256.507	1300
256.569	1260
256.632	906
256.694	2833
256.757	8295
256.819	18466
256.882	8966
256.944	4449
257.007	4165
257.069	2845
257.132	1711
257.194	2380
257.257	1452
257.319	1702
257.381	2139
257.444	7908
257.506	20628
257.569	22090
257.631	9703
257.693	6788
257.756	3197
257.818	2314
257.880	2226
257.943	2009
258.005	1315
258.067	816
258.130	1089
258.192	1819
258.254	2747
258.317	1967
258.379	1423
258.441	2492
258.503	3740
258.566	3016
258.628	4081
258.690	1168
258.753	2311
258.815	3057
258.877	1744
258.939	1574
259.001	1881
259.064	1751
259.126	953
259.188	2532
259.250	1730
259.312	2183
259.375	3103
259.437	2475
259.499	1388
259.561	1065
259.623	825
259.685	861
259.747	962
259.809	3130
259.872	6279
259.934	9140
259.996	8993
260.058	3491
260.120	583
260.182	619
260.244	786
260.306	728
260.368	1540
260.430	596
260.492	3745
260.554	5490
260.616	2159
260.678	4739
260.740	4647
260.802	1876
260.864	1677
260.926	899
260.988	1360
261.050	1280
261.112	4573
261.174	9628
261.236	4422
261.298	2979
261.359	2799
261.421	4591
261.483	869
261.545	2291
261.607	-1
261.669	928
261.731	1619
261.793	4267
261.854	973
261.916	2063
261.978	1311
262.040	1565
262.102	1487
262.164	1122
262.225	1066
262.287	1215
262.349	2232
262.411	1680
262.472	430
262.534	1431
262.596	2644
262.658	921
262.719	181
262.781	854
262.843	2186
262.904	937
262.966	370
263.028	1354
263.090	6876
263.151	18205
263.213	6783
263.275	4443
263.336	1610
263.398	817
263.459	60
263.521	1348
263.583	2629
263.644	1777
263.706	1060
263.767	253
263.829	605
263.891	38
263.952	-18
264.014	632
264.075	1518
264.137	5963
264.198	2067
264.260	191
264.321	114
264.383	3591
264.444	8363
264.506	1978
264.567	1403
264.629	4126
264.690	6977
264.752	2799
264.813	1611
264.875	657
264.936	1050
264.998	124
265.059	224
265.120	403
265.182	1726
265.243	12663
265.305	12195
265.366	3610
265.427	1904
265.489	1812
265.550	345
265.611	870
265.673	1111
265.734	689
265.795	380
265.857	443
265.918	1206
265.979	4406
266.040	17833
266.102	15575
266.163	5545
266.224	3719
266.286	2467
266.347	284
266.408	1217
266.469	1242
266.530	848
266.592	546
266.653	1980
266.714	3949
266.775	1079
266.836	312
266.898	187
266.959	785
267.020	635
267.081	1845
267.142	234
267.203	377
267.264	-647
267.326	1789
267.387	286
267.448	534
267.509	437
267.570	593
267.631	202
267.692	58
267.753	518
267.814	144
267.875	1762
267.936	4236
267.997	3410
268.058	2488
268.119	859
268.180	1485
268.241	-204
268.302	799
268.363	219
268.424	611
268.485	1825
268.546	69
268.607	518
268.668	-350
268.729	-187
268.790	782
268.851	524
268.912	2810
268.972	2738
269.033	1068
269.094	447
269.155	923
269.216	76
269.277	851
269.338	678
269.398	1021
269.459	377
269.520	2398
269.581	1512
269.642	2555
269.702	1332
269.763	1382
269.824	1092
269.885	943
269.945	1977
270.006	1392
270.067	464
270.128	523
270.188	818
270.249	744
270.310	1128
270.370	697
270.431	-5
270.492	340
270.553	316
270.613	2369
270.674	4699
270.734	944
270.795	1390
270.856	1945
270.916	331
270.977	933
271.038	1122
271.098	649
271.159	1767
271.219	1824
271.280	617
271.340	135
271.401	-665
271.462	2015
271.522	1084
271.583	471
271.643	935
271.704	624
271.764	1441
271.825	3539
271.885	10009
271.946	12427
272.006	5067
272.066	7405
272.127	9505
272.187	2599
272.248	1641
272.308	1850
272.369	6665
272.429	2843
272.489	3570
272.550	2677
272.610	3510
272.671	1853
272.731	2145
272.791	2473
272.852	1881
272.912	1705
272.972	678
273.033	795
273.093	1132
273.153	2253
273.214	975
273.274	645
273.334	5526
273.394	9381
273.455	3766
273.515	3913
273.575	8002
273.635	3852
273.696	4948
273.756	7447
273.816	3396
273.876	2511
273.936	3119
273.997	6210
274.057	1024
274.117	1358
274.177	2254
274.237	11969
274.297	9183
274.358	5671
274.418	7325
274.478	5764
274.538	1188
274.598	1112
274.658	4449
274.718	4675
274.778	2141
274.838	1718
274.898	1669
274.958	7049
275.018	8301
275.078	6062
275.138	2566
275.198	1492
275.258	732
275.318	663
275.378	3597
275.438	3618
275.498	1206
275.558	4312
275.618	7261
275.678	5290
275.738	5204
275.798	4412
275.858	1273
275.918	1012
275.978	717
276.038	1260
276.098	579
276.157	2122
276.217	7412
276.277	2993
276.337	1833
276.397	1470
276.457	1373
276.517	770
276.576	130
276.636	396
276.696	1969
276.756	4639
276.815	2367
276.875	1214
276.935	1647
276.995	1979
277.055	410
277.114	206
277.174	889
277.234	4837
277.293	941
277.353	626
277.413	835
277.472	1086
277.532	698
277.592	847
277.651	2883
277.711	5843
277.771	576
277.830	8048
277.890	5756
277.950	4040
278.009	11387
278.069	4208
278.128	3961
278.188	6690
278.248	2426
278.307	5955
278.367	3866
278.426	832
278.486	434
278.545	276
278.605	897
278.664	552
278.724	632
278.783	3690
278.843	8040
278.902	2733
278.962	1755
279.021	1568
279.081	1617
279.140	716
279.199	1843
279.259	1847
279.318	1309
279.378	1787
279.437	3227
279.496	10774
279.556	26980
279.615	18177
279.675	5050
279.734	3923
279.793	6321
279.853	9927
279.912	3737
279.971	2781
280.031	1288
280.090	3354
280.149	5274
280.208	4440
280.268	19711
280.327	18489
280.386	3710
280.445	3772
280.505	3653
280.564	1463
280.623	1375
280.682	2783
280.742	4648
280.801	774
280.860	941
280.919	1005
280.978	396
281.037	-430
281.097	-682
281.156	1196
281.215	-642
281.274	599
281.333	4817
281.392	3608
281.451	335
281.510	-25
281.569	309
281.628	122
281.688	576
281.747	646
281.806	-458
281.865	414
281.924	327
281.983	275
282.042	-1327
282.101	-280
282.160	132
282.219	-224
282.278	-58
282.337	3308
282.396	1325
282.454	273
282.513	556
282.572	4846
282.631	2683
282.690	245
282.749	-158
282.808	931
282.867	387
282.926	1022
282.985	-37
283.043	-702
283.102	-74
283.161	89
283.220	1397
283.279	5590
283.338	1477
283.396	316
283.455	33
283.514	420
283.573	1828
283.631	1517
283.690	933
283.749	42
283.808	2298
283.866	3660
283.925	-266
283.984	168
284.043	1028
284.101	1663
284.160	-210
284.219	-223
284.277	232
284.336	1998
284.395	7252
284.453	5765
284.512	1839
284.570	2799
284.629	2006
284.688	794
284.746	1137
284.805	1846
284.863	2302
284.922	3305
284.981	3443
285.039	5945
285.098	10499
285.156	23286
285.215	35434
285.273	34143
285.332	23372
285.390	14080
285.449	8222
285.507	6352
285.566	3423
285.624	2705
285.683	2281
285.741	1696
285.799	1531
285.858	910
285.916	875
285.975	1198
286.033	794
286.091	155
286.150	-82
286.208	585
286.267	341
286.325	1068
286.383	1624
286.442	1706
286.500	-485
286.558	1091
286.616	232
286.675	973
286.733	659
286.791	1115
286.850	709
286.908	1310
286.966	2605
287.024	1044
287.083	276
287.141	-526
287.199	-17
287.257	1496
287.315	610
287.374	447
287.432	3834
287.490	2450
287.548	640
287.606	571
287.664	-59
287.723	1330
287.781	1451
287.839	412
287.897	936
287.955	1637
288.013	2590
288.071	7492
288.129	28144
288.187	65646
288.245	32020
288.303	10546
288.361	5508
288.419	3966
288.477	2053
288.535	2129
288.593	628
288.651	1401
288.709	300
288.767	749
288.825	-51
288.883	862
288.941	-417
288.999	-75
289.057	-120
289.115	-644
289.173	-188
289.231	813
289.289	28
289.346	13
289.404	807
289.462	1391
289.520	1712
289.578	761
289.636	186
289.694	99
289.751	-301
289.809	376
289.867	-86
289.925	1023
289.983	1229
290.040	610
290.098	-344
290.156	609
290.214	866
290.271	-583
290.329	-436
290.387	130
290.444	249
290.502	-1028
290.560	-526
290.617	70
290.675	22
290.733	-12
290.790	495
290.848	249
290.906	-767
290.963	20
291.021	198
291.078	155
291.136	101
291.194	3493
291.251	7067
291.309	2213
291.366	-553
291.424	397
291.481	-324
291.539	368
291.596	-245
291.654	-1081
291.711	-114
291.769	805
291.826	1604
291.884	1248
291.941	-408
291.999	-121
292.056	263
292.114	818
292.171	165
292.228	432
292.286	101
292.343	1575
292.401	2559
292.458	896
292.515	-254
292.573	345
292.630	634
292.687	715
292.745	89
292.802	1070
292.859	4088
292.917	6960
292.974	3660
293.031	679
293.089	657
293.146	335
293.203	-91
293.260	-694
293.318	99
293.375	2915
293.432	616
293.489	-522
293.546	335
293.604	1023
293.661	3895
293.718	10118
293.775	5911
293.832	1891
293.889	284
293.947	990
294.004	550
294.061	1109
294.118	2349
294.175	6970
294.232	11826
294.289	3758
294.346	1055
294.403	1720
294.460	1266
294.517	906
294.574	-132
294.631	201
294.688	210
294.745	3508
294.802	13766
294.859	18090
294.916	5371
294.973	2114
295.030	2324
295.087	1277
295.144	498
295.201	1168
295.258	-75
295.315	1792
295.372	4185
295.429	7901
295.486	3677
295.542	3190
295.599	8149
295.656	14827
295.713	8102
295.770	9228
295.827	3582
295.883	1584
295.940	946
295.997	3417
296.054	2703
296.111	1389
296.167	1253
296.224	649
296.281	-118
296.338	407
296.394	-196
296.451	-73
296.508	4076
296.564	7835
296.621	5891
296.678	11343
296.734	16009
296.791	6620
296.848	3370
296.904	3555
296.961	7732
297.018	10704
297.074	7469
297.131	3223
297.187	1572
297.244	3100
297.301	9143
297.357	13752
297.414	5990
297.470	2163
297.527	1875
297.583	1393
297.640	1077
297.696	1768
297.753	-143
297.809	468
297.866	-256
297.922	640
297.979	290
298.035	306
298.092	1549
298.148	5133
298.204	5834
298.261	2333
298.317	5304
298.374	13306
298.430	7528
298.486	2536
298.543	1668
298.599	2413
298.656	2046
298.712	4525
298.768	11489
298.824	6838
298.881	2938
298.937	1400
298.993	1206
299.050	1752
299.106	954
299.162	1516
299.218	1416
299.275	1021
299.331	1247
299.387	2756
299.443	10332
299.500	10993
299.556	3495
299.612	1973
299.668	1855
299.724	1315
299.780	556
299.837	256
299.893	2344
299.949	8566
300.005	9940
300.061	9355
300.117	14685
300.173	7632
300.229	2834
300.285	4219
300.341	6554
300.397	2501
300.453	1320
300.510	462
300.566	389
300.622	1999
300.678	3109
300.734	7557
300.790	8385
300.845	10662
300.901	5986
300.957	8499
301.013	6769
301.069	2814
301.125	1325
301.181	2305
301.237	1446
301.293	462
301.349	1363
301.405	1051
301.461	375
301.516	1069
301.572	920
301.628	3320
301.684	2287
301.740	3765
301.796	6010
301.851	4584
301.907	8005
301.963	7947
302.019	11792
302.074	27210
302.130	27281
302.186	15343
302.242	5583
302.297	3863
302.353	3250
302.409	6949
302.464	6514
302.520	6166
302.576	11776
302.631	14718
302.687	7919
302.743	3741
302.798	2043
302.854	1940
302.910	1732
302.965	3030
303.021	5118
303.076	4372
303.132	5754
303.187	7220
303.243	3114
303.299	2424
303.354	1498
303.410	2076
303.465	849
303.521	905
303.576	863
303.632	2135
303.687	3985
303.743	9853
303.798	8875
303.853	3613
303.909	1853
303.964	2270
304.020	3399
304.075	5608
304.130	4645
304.186	8828
304.241	9566
304.297	6925
304.352	3658
304.358	3544
304.407	2620
304.449	2497
304.463	2457
304.518	1338
304.539	1544
304.573	1856
304.629	1956
304.630	1981
304.684	3219
304.720	6393
304.739	7984
304.794	11525
304.811	10074
304.850	6405
304.902	2914
304.905	2703
304.960	2206
304.992	2530
305.015	2736
305.071	2685
305.083	2508
305.126	1903
305.173	1069
305.181	921
305.236	860
305.264	1049
305.292	1287
305.347	1162
305.354	1263
305.402	1926
305.445	2060
305.457	2095
305.512	3696
305.535	3700
305.567	3624
305.622	3152
305.626	3251
305.678	5979
305.716	10380
305.733	11846
305.788	13241
305.807	11652
305.843	8876
305.897	11311
305.898	11334
305.953	10347
305.988	7343
306.008	5723
306.063	4167
306.078	3715
306.118	2799
306.168	1815
306.173	1731
306.228	1140
306.259	1259
306.283	1374
306.338	1158
306.349	1187
306.393	1416
306.440	2072
306.448	2155
306.503	1851
306.530	1807
306.558	2339
306.613	5513
306.620	5887
306.668	8707
306.711	12289
306.723	12622
306.778	9878
306.801	8022
306.833	5814
306.888	2520
306.892	2432
306.943	2277
306.982	1802
306.997	1612
307.052	1362
307.072	1260
307.107	1454
307.162	2334
307.163	2342
307.217	3349
307.253	3761
307.272	3763
307.327	4448
307.343	4029
307.381	3299
307.434	3540
307.436	3650
307.491	7017
307.524	9975
307.546	10969
307.600	12268
307.614	11182
307.655	6434
307.704	3545
307.710	3525
307.765	3739
307.795	4494
307.819	5491
307.874	9132
307.885	9297
307.929	8276
307.975	7427
307.984	7704
308.038	11330
308.065	14413
308.093	22920
308.148	44849
308.156	48783
308.202	69351
308.246	82900
308.257	80684
308.312	53024
308.336	40647
308.366	32133
308.421	19691
308.426	18649
308.475	12269
308.517	8688
308.530	8044
308.585	6489
308.607	5940
308.639	5871
308.694	6307
308.697	6346
308.748	8861
308.787	11925
308.803	11944
308.857	9378
308.877	8454
308.912	8116
308.967	8306
308.967	8315
309.021	11601
309.058	14633
309.076	18454
309.130	32310
309.148	37868
309.185	58833
309.238	92093
309.239	92392
309.293	96645
309.328	94632
309.348	84950
309.402	50169
309.418	40768
309.457	29668
309.508	17239
309.511	16863
309.566	13676
309.598	11863
309.620	11603
309.674	11849
309.688	11991
309.729	11445
309.778	10400
309.783	10270
309.837	8687
309.868	7781
309.892	9923
309.946	16626
309.959	18434
310.001	25219
310.049	31508
310.055	30405
310.109	18349
310.139	11258
310.163	8800
310.218	5146
310.229	4409
310.272	3822
310.319	3475
310.326	3385
310.381	2609
310.409	2405
310.435	2348
310.489	2147
310.499	2129
310.543	2389
310.589	2511
310.598	2520
310.652	2779
310.679	2789
310.706	2470
310.760	1860
310.769	1738
310.814	1542
310.859	1575
310.868	1684
310.923	2110
310.948	2370
310.977	2342
311.031	2257
311.038	2229
311.085	2285
311.128	2210
311.139	2202
311.193	2372
311.218	2368
311.247	2249
311.301	2067
311.308	2039
311.356	2016
311.398	1920
311.410	2039
311.464	2539
311.488	2855
311.518	2684
311.572	2218
311.578	2164
311.626	3347
311.668	4397
311.680	4306
311.734	3784
311.758	3537
311.788	3493
311.842	3438
311.847	3422
311.896	4498
311.937	5467
311.950	5459
312.004	5343
312.027	5270
312.058	4498
312.112	3110
312.117	2968
312.165	2702
312.207	2472
312.297	4113
312.386	3687
312.476	3547
312.566	7388
312.656	4439
312.745	2349
312.835	2795
312.925	3511
313.015	2340
313.104	3045
313.194	2332
313.284	2452
313.374	4461
313.463	4580
313.553	2054
313.643	2140
313.732	2256
313.822	1575
313.912	2759
314.001	3673
314.091	2767
314.180	4169
314.270	4245
314.360	4030
314.449	3427
314.539	2701
314.628	2580
314.718	3278
314.808	3051
314.897	2244
314.987	2081
315.076	3206
315.166	2971
315.255	3856
315.345	4154
315.434	3652
315.524	2958
315.613	3543
315.703	4650
315.792	4497
315.881	3745
315.971	3157
316.060	6342
316.150	8158
316.239	7276
316.328	3217
316.418	2984
316.507	2550
316.597	3472
316.686	3135
316.775	2680
316.865	7144
316.954	2045
317.043	2063
317.133	2001
317.222	2481
317.311	2330
317.400	1547
317.490	3880
317.579	3205
317.668	1892
317.757	3433
317.847	4380
317.936	5393
318.025	8639
318.114	4329
318.203	3693
318.293	6555
318.382	11300
318.471	10230
318.560	12365
318.649	28709
318.738	6870
318.828	4696
318.917	4318
319.006	4371
319.095	10455
319.184	35040
319.273	20659
319.362	11526
319.451	4069
319.540	3531
319.629	7885
319.718	15599
319.807	6153
319.896	10937
319.985	42554
320.074	18127
320.163	4160
320.252	5216
320.341	6005
320.430	5671
320.519	6938
320.608	4523
320.697	4220
320.786	2981
320.875	4923
320.964	5497
321.053	9527
321.142	12888
321.230	15478
321.319	9467
321.408	25533
321.497	9882
321.586	9317
321.675	9250
321.764	10240
321.852	7082
321.941	13833
322.030	9822
322.119	8971
322.207	24928
322.296	12934
322.385	6393
322.474	8880
322.562	28682
322.651	15607
322.740	10049
322.829	13296
322.917	10539
323.006	8340
323.095	7149
323.183	4715
323.272	6898
323.361	11773
323.449	29552
323.538	10926
323.626	19993
323.715	12680
323.804	5937
323.892	18599
323.981	13388
324.069	4175
324.158	9071
324.246	10278
324.335	5848
324.424	10010
324.512	3994
324.601	5678
324.689	12431
324.778	24070
324.866	9364
324.954	3069
325.043	2939
325.131	4832
325.220	8600
325.308	8250
325.397	6527
325.485	5250
325.574	2262
325.662	1352
325.750	2725
325.839	2028
325.927	1904
326.015	2626
326.104	3356
326.192	5134
326.280	2159
326.369	2071
326.457	4372
326.545	8166
326.634	3787
326.722	1884
326.810	1718
326.898	2540
326.987	2289
327.075	6370
327.163	6059
327.251	3347
327.340	10573
327.428	16434
327.516	2988
327.604	2197
327.692	2751
327.781	2130
327.869	3428
327.957	2547
328.045	3554
328.133	1668
328.221	2481
328.309	2089
328.397	1922
328.485	2973
328.574	4240
328.662	15076
328.750	8326
328.838	2161
328.926	2135
329.014	2164
329.102	3757
329.190	9164
329.278	6757
329.366	2031
329.454	2223
329.542	1664
329.630	1605
329.718	2040
329.806	2887
329.893	3566
329.981	4140
330.069	6986
330.157	24382
330.245	61803
330.333	36360
330.421	7462
330.509	6285
330.597	20240
330.684	14109
330.772	4667
330.860	5891
330.948	7838
331.036	4354
331.123	1657
331.211	2187
331.299	2626
331.387	6725
331.475	11515
331.562	3832
331.650	1499
331.738	3223
331.825	3211
331.913	1478
332.001	1867
332.089	1422
332.176	5205
332.264	9694
332.352	7330
332.439	3454
332.527	3112
332.614	1283
332.702	2368
332.790	1527
332.877	4309
332.965	8267
333.052	2626
333.140	1771
333.228	4822
333.315	1874
333.403	1190
333.490	4826
333.578	4120
333.665	4132
333.753	3087
333.840	2061
333.928	2488
334.015	6063
334.103	10587
334.190	37365
334.278	10310
334.365	3139
334.452	1774
334.540	1581
334.627	1490
334.715	3409
334.802	5574
334.889	27653
334.977	30223
335.064	3440
335.151	2247
335.239	3494
335.326	4363
335.413	18924
335.501	28916
335.588	4292
335.675	2499
335.762	3329
335.850	6810
335.937	3548
336.024	7598
336.111	35181
336.199	14581
336.286	2332
336.373	1627
336.460	1237
336.547	1505
336.635	3117
336.722	2749
336.809	2313
336.896	3772
336.983	13218
337.070	32218
337.157	43767
337.245	22429
337.332	15391
337.419	2086
337.506	1557
337.593	2831
337.680	9921
337.767	33646
337.854	9181
337.941	10279
338.028	8451
338.115	3449
338.202	4900
338.289	7238
338.376	22240
338.463	8027
338.550	18006
338.637	20680
338.724	4618
338.811	7409
338.898	1047
338.984	1819
339.071	2625
339.158	3297
339.245	9339
339.332	5447
339.419	5006
339.506	5752
339.593	1133
339.679	1899
339.766	1926
339.853	2784
339.940	7913
340.027	2754
340.113	2669
340.200	3363
340.287	2099
340.374	3625
340.460	6374
340.547	2852
340.634	4361
340.720	17723
340.807	10545
340.894	2409
340.980	1714
341.067	2218
341.154	2864
341.240	4158
341.327	10087
341.414	3867
341.500	3682
341.587	1995
341.674	2380
341.760	6151
341.847	8338
341.933	2532
342.020	949
342.106	1196
342.193	2799
342.279	4966
342.366	3933
342.452	6733
342.539	3482
342.625	8279
342.712	20449
342.798	8336
342.885	3779
342.971	1329
343.058	853
343.144	1820
343.230	1305
343.317	1839
343.403	1822
343.490	1500
343.576	1045
343.662	2365
343.749	1985
343.835	2018
343.921	5080
344.008	27720
344.094	65043
344.180	16773
344.267	6001
344.353	17588
344.439	19988
344.525	11660
344.612	9758
344.698	9444
344.784	5358
344.870	2748
344.957	1719
345.043	4317
345.129	3182
345.215	7026
345.301	4936
345.387	3111
345.474	1130
345.560	1437
345.646	459
345.732	1473
345.818	2771
345.904	2223
345.990	2339
346.076	2195
346.162	4597
346.249	2577
346.335	1339
346.421	2715
346.507	7172
346.593	25294
346.679	6468
346.765	2568
346.851	1875
346.937	1067
347.023	2338
347.108	2471
347.194	1869
347.280	2079
347.366	2720
347.452	6665
347.538	28576
347.624	24027
347.710	19920
347.796	2666
347.882	2100
347.967	1200
348.053	2416
348.139	2480
348.225	1430
348.311	1336
348.397	1463
348.482	2735
348.568	2525
348.654	1012
348.740	415
348.825	-627
348.911	3912
348.997	12770
349.083	29266
349.168	4759
349.254	2499
349.340	3130
349.425	1631
349.511	2991
349.597	3323
349.682	5330
349.768	19429
349.854	9900
349.939	1492
350.025	1446
350.110	3266
350.196	2012
350.282	857
350.367	801
350.453	2321
350.538	1875
350.624	2936
350.709	2708
350.795	1154
350.880	1617
350.966	2879
351.051	3251
351.137	1407
351.222	2314
351.308	6196
351.393	20870
351.479	6103
351.564	1961
351.649	1382
351.735	1439
351.820	1036
351.906	1263
351.991	2312
352.076	11554
352.162	20057
352.247	4361
352.332	2507
352.418	5998
352.503	7565
352.588	27357
352.673	25439
352.759	5483
352.844	2385
352.929	3037
353.014	4050
353.100	2899
353.185	3585
353.270	6723
353.355	7853
353.441	2345
353.526	1882
353.611	6040
353.696	7349
353.781	5099
353.866	2011
353.952	2092
354.037	6036
354.122	15619
354.207	13771
354.292	5349
354.377	1988
354.462	2034
354.547	2809
354.632	2606
354.717	3542
354.802	3802
354.887	1677
354.972	1022
355.057	1036
355.142	1099
355.227	2650
355.312	3872
355.397	8565
355.482	23217
355.567	11458
355.652	7831
355.737	8867
355.822	21655
355.907	19569
355.991	3830
356.076	1753
356.161	2035
356.246	1409
356.331	1795
356.416	4530
356.501	31746
356.585	35208
356.670	5703
356.755	4541
356.840	4120
356.924	22402
357.009	80740
357.094	36498
357.179	7814
357.263	5290
357.348	5369
357.433	5048
357.517	4578
357.602	3824
357.687	2723
357.771	4968
357.856	13795
357.941	9676
358.025	18768
358.110	79709
358.195	43148
358.279	7445
358.364	5081
358.448	16349
358.533	47085
358.617	35851
358.702	32682
358.787	13319
358.871	7259
358.956	6772
359.040	2622
359.125	1156
359.209	2185
359.294	6318
359.378	11894
359.462	6097
359.547	2649
359.631	1914
359.716	973
359.800	1481
359.885	4176
359.969	1322
360.053	2070
360.138	2171
360.222	3204
360.306	6803
360.391	5406
360.475	8510
360.559	20295
360.644	17672
360.728	12196
360.812	17566
360.896	50717
360.981	24095
361.065	13497
361.149	4104
361.233	3258
361.318	2558
361.402	2577
361.486	3156
361.570	1972
361.654	3060
361.739	7446
361.823	31437
361.907	51637
361.991	10239
362.075	5672
362.159	12819
362.243	9703
362.327	4682
362.411	5496
362.495	2878
362.580	2514
362.664	1683
362.748	1013
362.832	1851
362.916	1443
363.000	6693
363.084	27541
363.168	57097
363.252	15223
363.336	5548
363.420	7638
363.503	27951
363.587	36372
363.671	6683
363.755	4285
363.839	7427
363.923	2923
364.007	6990
364.091	7074
364.175	7318
364.258	44769
364.342	21833
364.426	9204
364.510	4949
364.594	7331
364.677	9969
364.761	41558
364.845	32984
364.929	12546
365.013	10594
365.096	7492
365.180	10117
365.264	10557
365.347	47638
365.431	21088
365.515	4869
365.598	1780
365.682	3855
365.766	4656
365.849	7095
365.933	3529
366.017	5105
366.100	3043
366.184	1343
366.267	1916
366.351	1510
366.435	1196
366.518	511
366.602	1619
366.685	1681
366.769	1893
366.852	4730
366.936	8956
367.019	5799
367.103	3103
367.186	7798
367.270	2379
367.353	580
367.436	1866
367.520	1551
367.603	1723
367.687	3649
367.770	7796
367.853	4793
367.937	13158
368.020	23464
368.104	5243
368.187	5581
368.270	10255
368.353	9127
368.437	8159
368.520	13939
368.603	11706
368.687	16443
368.770	32831
368.853	8316
368.936	8955
369.020	8588
369.103	3272
369.186	1457
369.269	1660
369.352	4814
369.436	7859
369.519	4885
369.602	1261
369.685	2702
369.768	2795
369.851	1966
369.934	770
370.018	1989
370.101	6111
370.184	6316
370.267	3450
370.350	5376
370.433	9501
370.516	22682
370.599	25812
370.682	7224
370.765	20954
370.848	23241
370.931	37086
371.014	16134
371.097	2808
371.180	3244
371.263	818
371.346	-469
371.429	1317
371.511	757
371.594	4006
371.677	8061
371.760	9466
371.843	7032
371.926	29291
372.009	70938
372.091	26241
372.174	14167
372.257	32789
372.340	12868
372.423	10640
372.505	14345
372.588	5212
372.671	10833
372.754	36944
372.836	19280
372.919	14517
373.002	30614
373.085	8188
373.167	5983
373.250	16565
373.332	35463
373.415	44165
373.498	90328
373.580	38795
373.663	37778
373.746	57480
373.828	15502
373.911	7123
373.993	7188
374.076	27041
374.159	27499
374.241	10501
374.324	33278
374.406	23146
374.489	24247
374.571	72535
374.654	32990
374.736	14608
374.819	43586
374.901	63184
374.983	67472
375.066	12991
375.148	5123
375.231	18872
375.313	44277
375.395	17562
375.478	3769
375.560	2232
375.643	2659
375.725	11529
375.807	52126
375.890	43051
375.972	14544
376.054	9495
376.136	11089
376.219	5403
376.301	14518
376.383	47301
376.465	19416
376.548	12809
376.630	15025
376.712	40176
376.794	21242
376.877	2325
376.959	1489
377.041	2242
377.123	5986
377.205	7947
377.287	983
377.369	991
377.452	1473
377.534	860
377.616	1066
377.698	1066
377.780	831
377.862	1341
377.944	2562
378.026	95
378.108	2063
378.190	1614
378.272	1421
378.354	387
378.436	172
378.518	2548
378.600	13503
378.682	12308
378.764	22209
378.846	19994
378.928	5587
379.010	7960
379.091	4569
379.173	1425
379.255	948
379.337	2197
379.419	8899
379.501	33941
379.583	13629
379.664	3011
379.746	6928
379.828	24770
379.910	32192
379.991	28812
380.073	4156
380.155	2160
380.237	1960
380.318	1055
380.400	1588
380.482	4500
380.564	8573
380.645	6645
380.727	6543
380.809	4615
380.890	3199
380.972	1094
381.053	1844
381.135	2990
381.217	6640
381.298	25899
381.380	12360
381.461	9130
381.543	37703
381.624	51651
381.706	9965
381.787	4530
381.869	4460
381.951	15818
382.032	64452
382.113	46251
382.195	10298
382.276	5750
382.358	11042
382.439	35509
382.521	40127
382.602	62048
382.684	28088
382.765	48909
382.846	42691
382.928	34477
383.009	18394
383.090	12887
383.172	46318
383.253	74398
383.334	33254
383.416	49743
383.497	26949
383.578	9085
383.659	13105
383.741	41489
383.822	113162
383.903	60745
383.984	30348
384.066	68788
384.147	45717
384.228	8845
384.309	5771
384.390	4706
384.471	2293
384.553	3714
384.634	5233
384.715	5293
384.796	2407
384.877	3134
384.958	19445
385.039	27908
385.120	9761
385.201	3893
385.282	4699
385.363	4727
385.444	3858
385.525	6668
385.606	26925
385.687	24890
385.768	6727
385.849	6934
385.930	32864
386.011	60873
386.092	18003
386.173	4181
386.254	2800
386.335	3661
386.416	2955
386.496	13230
386.577	25607
386.658	8443
386.739	4396
386.820	4915
386.901	2249
386.981	3254
387.062	1543
387.143	3648
387.224	22699
387.304	22207
387.385	7708
387.466	2992
387.547	5155
387.627	2545
387.708	7406
387.789	37544
387.869	47305
387.950	13073
388.031	1631
388.111	618
388.192	7620
388.273	11306
388.353	7370
388.434	2616
388.514	6826
388.595	32962
388.676	48634
388.756	24960
388.837	23764
388.917	15123
388.998	1139
389.078	2654
389.159	1832
389.239	929
389.320	4906
389.400	2193
389.480	7878
389.561	23167
389.641	12754
389.722	3723
389.802	7495
389.883	9881
389.963	27155
390.043	16401
390.124	3760
390.204	6836
390.284	27788
390.365	17836
390.445	17222
390.525	37956
390.605	34582
390.686	14337
390.766	4899
390.846	2450
390.927	853
391.007	582
391.087	3362
391.167	1633
391.247	421
391.328	2765
391.408	6071
391.488	4197
391.568	-192
391.648	1981
391.728	5144
391.808	5420
391.888	4391
391.969	11925
392.049	20441
392.129	10390
392.209	8556
392.289	26004
392.369	14350
392.449	12575
392.529	7019
392.609	4728
392.689	5712
392.769	23291
392.849	20310
392.929	12640
393.009	34323
393.089	20353
393.169	6050
393.248	12676
393.328	81195
393.408	98006
393.488	17907
393.568	5738
393.648	3296
393.728	2981
393.807	1233
393.887	3277
393.967	1909
394.047	4667
394.127	7528
394.206	12765
394.286	41887
394.366	154328
394.446	178507
394.525	56282
394.605	15624
394.685	10548
394.764	19172
394.844	32191
394.924	23200
395.003	6715
395.083	4096
395.163	4106
395.242	2895
395.322	3953
395.402	1790
395.481	4752
395.561	11003
395.640	35237
395.720	24888
395.799	36056
395.879	32771
395.958	21970
396.038	65670
396.117	198194
396.197	228930
396.276	95475
396.356	32122
396.435	19413
396.515	11724
396.594	8701
396.673	10958
396.753	20757
396.832	83589
396.912	80514
396.991	26310
397.070	6137
397.150	2364
397.229	2535
397.308	1028
397.388	2667
397.467	2480
397.546	1551
397.625	-482
397.705	3020
397.784	3118
397.863	1753
397.942	1120
398.022	987
398.101	8004
398.180	32117
398.259	16769
398.338	4449
398.417	1455
398.497	225
398.576	2330
398.655	-344
398.734	1447
398.813	1110
398.892	7504
398.971	33999
399.050	17267
399.129	457
399.208	647
399.287	531
399.366	191
399.445	972
399.524	1573
399.603	-167
399.682	3218
399.761	9115
399.840	36069
399.919	28889
399.998	2444
400.077	181
400.156	-762
400.235	2928
400.313	221
400.392	435
400.471	11388
400.550	23398
400.629	4934
400.708	1670
400.786	965
400.865	7119
400.944	8318
401.023	5518
401.102	354
401.180	47
401.259	128
401.338	216
401.416	2676
401.495	1192
401.574	1692
401.652	731
401.731	1961
401.810	444
401.888	-177
401.967	-790
402.046	-346
402.124	1129
402.203	3044
402.281	1695
402.360	1151
402.438	9650
402.517	6525
402.596	933
402.674	1026
402.753	479
402.831	829
402.910	1077
402.988	5556
403.066	21814
403.145	12917
403.223	6232
403.302	18712
403.380	13877
403.459	13877
403.537	5110
403.615	1326
403.694	-883
403.772	1060
403.850	380
403.929	-140
404.007	185
404.085	2352
404.164	2626
404.242	2830
404.320	13410
404.398	41660
404.477	41608
404.555	57838
404.633	56483
404.711	34585
404.789	21761
404.868	3716
404.946	720
405.024	1116
405.102	66
405.180	-169
405.258	-1384
405.336	749
405.415	-226
405.493	2230
405.571	2812
405.649	57
405.727	-897
405.805	2040
405.883	1232
405.961	2143
406.039	1866
406.117	-324
406.195	1684
406.273	9370
406.351	46317
406.429	29251
406.507	4063
406.585	1171
406.663	1341
406.740	1889
406.818	1258
406.896	245
406.974	1322
407.052	1703
407.130	24395
407.208	40054
407.285	7967
407.363	53
407.441	1165
407.519	580
407.596	459
407.674	3106
407.752	5688
407.830	9668
407.907	4999
407.985	706
408.063	627
408.141	127
408.218	2021
408.296	842
408.373	792
408.451	1362
408.529	937
408.606	-126
408.684	-207
408.762	-407
408.839	-774
408.917	-646
408.994	-896
409.072	-1232
409.149	-1173
409.227	613
409.304	256
409.382	-589
409.459	-1036
409.537	333
409.614	121
409.692	-824
409.769	-1031
409.846	8
409.924	1071
410.001	-853
410.079	21
410.156	479
410.233	-359
410.311	-618
410.388	-589
410.465	-172
410.543	-242
410.620	-437
410.697	251
410.775	1216
410.852	-1907
410.929	877
411.006	1754
411.083	-326
411.161	1657
411.238	2819
411.315	980
411.392	668
411.469	580
411.547	1415
411.624	-1153
411.701	-856
411.778	277
411.855	3238
411.932	880
412.009	-557
412.086	616
412.163	519
412.240	436
412.317	1252
412.394	259
412.471	458
412.548	-940
412.625	-22
412.702	348
412.779	2299
412.856	1074
412.933	-317
413.010	-72
413.087	1341
413.164	11023
413.241	19693
413.318	3497
413.395	1608
413.471	2340
413.548	1075
413.625	490
413.702	-86
413.779	-112
413.855	-481
413.932	-689
414.009	-1858
414.086	-510
414.162	70
414.239	474
414.316	9597
414.393	28358
414.469	9205
414.546	-496
414.623	-493
414.699	-99
414.776	557
414.853	-490
414.929	325
415.006	-54
415.082	739
415.159	-217
415.236	-220
415.312	614
415.389	2120
415.465	2723
415.542	937
415.618	-269
415.695	2518
415.771	313
415.848	23
415.924	112
416.000	-117
416.077	-928
416.153	-1029
416.230	-1425
416.306	-1097
416.383	-504
416.459	-309
416.535	-927
416.612	-466
416.688	-469
416.764	-783
416.841	-1526
416.917	-138
416.993	-339
417.069	-155
417.146	379
417.222	2977
417.298	829
417.374	-865
417.451	294
417.527	972
417.603	802
417.679	340
417.755	-35
417.831	-757
417.908	-184
417.984	-109
418.060	-929
418.136	2058
418.212	3592
418.288	896
418.364	244
418.440	-274
418.516	1686
418.592	1863
418.668	4838
418.744	8153
418.820	5851
418.896	554
418.972	-1126
419.048	-44
419.124	3145
419.200	2685
419.276	-223
419.352	-1456
419.428	-565
419.504	45
419.579	126
419.655	128
419.731	408
419.807	4936
419.883	8293
419.959	5725
420.034	1260
420.110	2616
420.186	16924
420.262	13999
420.337	1678
420.413	91
420.489	-184
420.565	542
420.640	-911
420.716	-509
420.792	-1531
420.867	313
420.943	-915
421.019	525
421.094	252
421.170	62
421.245	-1106
421.321	47
421.397	-979
421.472	692
421.548	2683
421.623	2737
421.699	292
421.774	485
421.850	-977
421.925	1009
422.001	936
422.076	-273
422.152	-1021
422.227	2378
422.302	1816
422.378	1131
422.453	2857
422.529	8248
422.604	39726
422.679	98152
422.755	54423
422.830	12193
422.905	2829
422.981	327
423.056	19
423.131	294
423.207	-10
423.282	-656
423.357	3600
423.432	1862
423.508	1344
423.583	7143
423.658	5861
423.733	526
423.808	1196
423.883	938
423.959	635
424.034	-320
424.109	-1137
424.184	-788
424.259	-1043
424.334	-581
424.409	-787
424.484	-165
424.559	-339
424.634	-542
424.709	-194
424.784	985
424.859	-227
424.934	1489
425.009	10470
425.084	20426
425.159	6982
425.234	737
425.309	-1103
425.384	2200
425.459	4067
425.534	1569
425.609	-183
425.683	254
425.758	-769
425.833	-151
425.908	715
425.983	5436
426.058	22257
426.132	9040
426.207	542
426.282	1907
426.357	1181
426.431	-366
426.506	-315
426.581	-237
426.655	-549
426.730	193
426.805	-677
426.879	173
426.954	-655
427.029	1326
427.103	16068
427.178	41506
427.253	18653
427.327	1065
427.402	1316
427.476	7220
427.551	2843
427.625	225
427.700	694
427.774	-1151
427.849	262
427.923	-580
427.998	-967
428.072	-164
428.147	1544
428.221	6548
428.296	11355
428.370	4052
428.444	134
428.519	1740
428.593	6188
428.667	5013
428.742	5975
428.816	4025
428.890	10317
428.965	15383
429.039	7062
429.113	7605
429.188	1594
429.262	-157
429.336	1342
429.410	9956
429.485	6081
429.559	5046
429.633	4454
429.707	-404
429.781	2204
429.855	14359
429.930	22989
430.004	16266
430.078	32326
430.152	24971
430.226	14386
430.300	15203
430.374	569
430.448	1511
430.522	7494
430.596	31460
430.670	17285
430.744	23100
430.818	40755
430.892	9865
430.966	637
431.040	314
431.114	-848
431.188	-1336
431.262	-842
431.336	-671
431.410	1726
431.484	8139
431.557	6425
431.631	-540
431.705	-423
431.779	22
431.853	6454
431.927	4929
432.000	-74
432.074	-553
432.148	7
432.222	35
432.295	-960
432.369	-110
432.443	107
432.516	13252
432.590	40403
432.664	15187
432.737	711
432.811	-387
432.885	-148
432.958	-309
433.032	-938
433.106	-1361
433.179	-1318
433.253	-1006
433.326	-798
433.400	-1225
433.473	-308
433.547	-1106
433.620	-1148
433.694	865
433.767	1160
433.841	-825
433.914	-1023
433.988	-583
434.061	-274
434.134	-1070
434.208	-1095
434.281	-932
434.355	-1355
434.428	-822
434.501	-1603
434.575	-976
434.648	-635
434.721	-1265
434.795	-847
434.868	-1262
434.941	-1077
435.014	-1049
435.088	-736
435.161	-552
435.234	255
435.307	909
435.381	442
435.454	-645
435.527	-428
435.600	-1109
435.673	-667
435.746	-719
435.819	-792
435.892	-1316
435.966	-793
436.039	-1199
436.112	-449
436.185	-923
436.258	-1461
436.331	-1726
436.404	-1425
436.477	-1639
436.550	-1128
436.623	-1050
436.696	-678
436.769	-539
436.842	-408
436.915	-1175
436.987	-602
437.060	-506
437.133	-1457
437.206	-1127
437.279	-104
437.352	-1029
437.425	-1241
437.498	-747
437.570	1978
437.643	2911
437.716	-733
437.789	-1338
437.861	340
437.934	2987
438.007	1192
438.080	-810
438.152	-548
438.225	1969
438.298	17581
438.370	53759
438.443	23216
438.516	3633
438.588	-593
438.661	-1226
438.734	-204
438.806	-515
438.879	288
438.951	46
439.024	366
439.096	-1033
439.169	-945
439.241	-1226
439.314	-1156
439.386	434
439.459	461
439.531	1242
439.604	-214
439.676	-362
439.749	-789
439.821	-1165
439.893	-1161
439.966	-1133
440.038	-203
440.110	304
440.183	-1584
440.255	-338
440.327	191
440.400	6526
440.472	34344
440.544	24128
440.617	2243
440.689	1535
440.761	1139
440.833	2512
440.905	1491
440.978	-653
441.050	-771
441.122	-934
441.194	-1210
441.266	-423
441.338	-1015
441.411	-53
441.483	11021
441.555	18270
441.627	3072
441.699	373
441.771	663
441.843	-895
441.915	-703
441.987	-736
442.059	-1010
442.131	-611
442.203	121
442.275	731
442.347	743
442.419	-249
442.491	1196
442.563	5252
442.635	3217
442.706	7289
442.778	7065
442.850	-244
442.922	-1021
442.994	-83
443.066	1444
443.137	143
443.209	-529
443.281	-298
443.353	565
443.425	3747
443.496	10434
443.568	9337
443.640	2645
443.711	-168
443.783	-741
443.855	-1035
443.926	-670
443.998	-910
444.070	793
444.141	369
444.213	1084
444.285	2567
444.356	295
444.428	-747
444.499	-1370
444.571	-942
444.642	-1052
444.714	-342
444.785	270
444.857	1094
444.928	4616
445.000	2088
445.071	2064
445.143	2850
445.214	810
445.285	2750
445.357	7432
445.428	10308
445.500	22006
445.571	16347
445.642	5278
445.714	5177
445.785	9000
445.856	1148
445.928	1144
445.999	969
446.070	-1
446.141	1167
446.213	1761
446.284	-190
446.355	290
446.426	-2
446.497	-1076
446.569	518
446.640	1694
446.711	1106
446.782	-540
446.853	-390
446.924	214
446.995	-786
447.066	-352
447.138	697
447.209	402
447.280	-1473
447.351	-533
447.422	-234
447.493	-703
447.564	29
447.635	1057
447.706	-787
447.777	-1286
447.847	-1037
447.918	-721
447.989	-279
448.060	-56
448.131	3088
448.202	2930
448.273	2006
448.344	610
448.414	-354
448.485	-980
448.556	256
448.627	-784
448.698	-355
448.768	-1134
448.839	-351
448.910	248
448.981	1096
449.051	-246
449.122	-2
449.193	-701
449.263	-826
449.334	-571
449.405	674
449.475	1992
449.546	1913
449.616	993
449.687	1065
449.758	-629
449.828	-860
449.899	-1096
449.969	-1248
450.040	-548
450.110	38
450.181	78
450.251	-351
450.322	-446
450.392	-451
450.463	-853
450.533	-334
450.604	-561
450.674	-710
450.744	-547
450.815	-1142
450.885	-301
450.955	-873
451.026	-304
451.096	-912
451.166	-655
451.237	745
451.307	5912
451.377	1435
451.447	-491
451.518	-639
451.588	-958
451.658	620
451.728	370
451.799	5577
451.869	7124
451.939	1071
452.009	-518
452.079	-162
452.149	-568
452.219	527
452.289	7603
452.360	5265
452.430	-347
452.500	88
452.570	158
452.640	-99
452.710	2490
452.780	5819
452.850	5200
452.920	4216
452.990	468
453.060	811
453.129	245
453.199	975
453.269	6825
453.339	17994
453.409	29210
453.479	27959
453.549	41287
453.619	46230
453.688	16553
453.758	845
453.828	479
453.898	327
453.968	-754
454.037	-73
454.087	-536
454.107	-747
454.168	-1221
454.177	-1319
454.247	-356
454.249	-342
454.316	-538
454.330	-370
454.386	100
454.411	1406
454.456	3161
454.492	4551
454.525	5735
454.574	2496
454.595	1099
454.655	-450
454.665	-678
454.734	801
454.736	890
454.804	2082
454.817	3245
454.873	6597
454.898	7392
454.943	8544
454.979	5132
455.013	2293
455.060	1146
455.082	923
455.141	2238
455.152	2430
455.221	7705
455.222	7932
455.291	15953
455.303	16855
455.360	19040
455.384	27377
455.430	38643
455.465	29527
455.499	21582
455.546	13320
455.569	9333
455.627	5891
455.638	5407
455.707	819
455.708	839
455.777	507
455.789	558
455.846	589
455.869	373
455.916	-35
455.950	632
455.985	1197
456.031	388
456.054	7
456.112	750
456.124	855
456.193	-122
456.193	-146
456.262	969
456.274	1115
456.332	1275
456.355	1302
456.401	1324
456.436	1037
456.470	636
456.516	404
456.540	335
456.597	173
456.609	144
456.678	292
456.678	276
456.747	-128
456.759	-162
456.817	-375
456.840	-464
456.886	-608
456.920	-285
456.955	43
457.001	788
457.024	1087
457.082	783
457.093	718
457.162	1648
457.163	1669
457.232	1179
457.243	1127
457.301	718
457.324	649
457.370	602
457.405	663
457.439	710
457.485	1158
457.508	1430
457.566	1140
457.577	1054
457.646	1703
457.647	1721
457.715	1439
457.727	1604
457.784	2422
457.808	2333
457.853	2293
457.889	2670
457.922	2724
457.969	2840
457.991	2855
458.050	2150
458.060	2054
458.129	2646
458.130	2677
458.198	2625
458.211	2447
458.267	1479
458.292	1509
458.336	1820
458.372	1502
458.405	1460
458.453	1880
458.474	2131
458.533	3287
458.543	3437
458.611	4532
458.614	4595
458.680	3551
458.694	3077
458.749	1979
458.775	1738
458.818	1467
458.855	1262
458.887	1288
458.936	1336
458.955	1297
459.016	2085
459.024	2167
459.093	1887
459.097	1888
459.162	2029
459.177	2090
459.230	2584
459.257	3199
459.299	3723
459.338	3628
459.368	3517
459.418	3764
459.437	3567
459.499	2588
459.505	2569
459.574	2913
459.579	2886
459.643	2315
459.659	2409
459.711	2735
459.740	2734
459.780	2940
459.820	3201
459.849	3151
459.900	3390
459.917	3507
459.981	3454
459.986	3410
460.054	3021
460.061	3042
460.123	3596
460.141	3611
460.191	3948
460.222	4336
460.260	4695
460.302	5360
460.328	5258
460.382	4340
460.397	4191
460.462	3452
460.465	3504
460.534	5734
460.543	5924
460.602	13302
460.623	16259
460.671	25044
460.703	32555
460.739	29354
460.783	23830
460.808	19743
460.864	5484
460.876	4687
460.944	3672
460.945	3654
461.013	4003
461.024	3956
461.081	3335
461.104	3208
461.150	3114
461.184	3252
461.218	3716
461.264	3688
461.286	3525
461.345	3713
461.355	3729
461.423	3434
461.425	3439
461.491	3779
461.505	3872
461.559	7713
461.585	9486
461.628	15448
461.665	20963
461.696	22395
461.745	25887
461.764	22113
461.825	6919
461.832	6705
461.901	4514
461.905	4435
461.969	3554
461.985	3581
462.037	4691
462.065	4954
462.105	4928
462.145	5179
462.173	7720
462.225	12209
462.241	13370
462.305	18705
462.310	18136
462.378	9186
462.385	7972
462.446	5136
462.465	4623
462.514	4955
462.545	5032
462.582	4639
462.625	4342
462.650	4505
462.705	4768
462.718	4866
462.785	5683
462.786	5722
462.854	7614
462.865	7915
462.922	9514
462.945	10349
462.990	7776
463.025	5208
463.058	4777
463.104	4206
463.126	4124
463.184	4444
463.194	4506
463.262	4521
463.264	4530
463.330	4732
463.344	4720
463.398	5726
463.424	6280
463.466	6079
463.504	5860
463.533	6022
463.583	6119
463.601	6200
463.663	6657
463.669	6761
463.737	7923
463.743	8008
463.805	12645
463.823	14014
463.873	22094
463.903	27068
463.940	27787
463.982	28878
464.008	22944
464.062	9252
464.076	8667
464.142	5825
464.144	5834
464.211	6403
464.221	6441
464.279	6123
464.301	6123
464.347	6467
464.381	6550
464.414	7389
464.461	8724
464.482	9023
464.540	9893
464.550	9635
464.617	7576
464.620	7484
464.685	8617
464.699	8925
464.753	11232
464.779	12253
464.820	13687
464.859	15269
464.888	14566
464.938	12801
464.956	13042
465.018	14235
465.023	14051
465.091	11094
465.098	10778
465.158	10688
465.177	10653
465.226	11203
465.257	11511
465.293	11373
465.336	11190
465.361	11806
465.416	13093
465.428	13804
465.495	17618
465.496	17731
465.563	30652
465.575	32886
465.631	39013
465.654	41667
465.698	26715
465.734	13756
465.765	12491
465.813	10623
465.833	10584
465.893	10707
465.900	10685
465.968	10280
465.972	10230
466.035	10223
466.052	10236
466.102	10989
466.131	11342
466.170	11205
466.210	10951
466.237	11257
466.290	11865
466.304	11952
466.369	12229
466.372	12272
466.439	12776
466.449	12827
466.506	13979
466.528	14385
466.573	18477
466.607	21469
466.641	30674
466.687	43390
466.708	47552
466.766	58952
466.775	54648
466.842	21300
466.845	19672
466.909	15280
466.925	14237
466.977	13993
467.004	13841
467.044	15086
467.083	16297
467.111	17888
467.163	20761
467.178	21395
467.242	23825
467.245	23746
467.312	21068
467.321	20668
467.379	19845
467.400	19486
467.446	21155
467.480	22286
467.559	19408
467.638	17384
467.717	17154
467.796	17942
467.875	18256
467.955	19344
468.034	25064
468.113	52180
468.192	73337
468.271	21528
468.350	14888
468.429	14560
468.508	14596
468.588	14009
468.667	14711
468.746	16105
468.825	15353
468.904	14447
468.983	15654
469.062	22340
469.141	28144
469.220	14778
469.299	13755
469.378	16319
469.456	19572
469.535	18462
469.614	17008
469.693	16966
469.772	19810
469.851	25456
469.930	18625
470.009	15166
470.088	13608
470.166	14119
470.245	14492
470.324	16151
470.403	14687
470.482	14057
470.560	13830
470.639	14274
470.718	15053
470.797	13751
470.875	15599
470.954	20298
471.033	23015
471.111	12353
471.190	12398
471.269	12115
471.347	12165
471.426	13810
471.505	14992
471.583	15942
471.662	16255
471.740	13942
471.819	13026
471.898	12722
471.976	12738
472.055	13563
472.133	14792
472.212	17791
472.290	18509
472.369	13719
472.447	13146
472.526	12325
472.604	13257
472.683	13979
472.761	13254
472.839	13174
472.918	13020
472.996	12428
473.075	14346
473.153	13894
473.231	12389
473.310	13819
473.388	12905
473.466	12702
473.545	15098
473.623	16849
473.701	16024
473.780	13107
473.858	11966
473.936	14127
474.014	12722
474.093	14229
474.171	17797
474.249	25294
474.327	17344
474.405	12193
474.484	11369
474.562	10981
474.640	11015
474.718	12480
474.796	12598
474.874	11832
474.952	10623
475.030	12015
475.108	11691
475.187	12891
475.265	12921
475.343	14614
475.421	15828
475.499	12655
475.577	12601
475.655	16131
475.733	27303
475.811	45457
475.889	40848
475.966	28024
476.044	11727
476.122	12584
476.200	14243
476.278	11965
476.356	10858
476.434	11483
476.512	12495
476.590	14121
476.667	14891
476.745	11613
476.823	11429
476.901	11898
476.979	11446
477.056	12589
477.134	12161
477.212	12546
477.290	12889
477.367	10329
477.445	10034
477.523	9944
477.601	10491
477.678	11441
477.756	12668
477.834	13682
477.911	10509
477.989	9614
478.066	10184
478.144	11692
478.222	10992
478.299	13069
478.377	12956
478.454	10970
478.532	9516
478.609	10713
478.687	10167
478.764	9528
478.842	10993
478.919	9792
478.997	10862
479.074	9382
479.152	10714
479.229	14373
479.307	10290
479.384	8565
479.461	9430
479.539	8895
479.616	10728
479.694	9422
479.771	11168
479.848	11233
479.926	13846
480.003	15569
480.080	9292
480.157	9462
480.235	9213
480.312	9423
480.389	10217
480.467	15634
480.544	19696
480.621	11439
480.698	10460
480.775	11893
480.853	11894
480.930	11445
481.007	10186
481.084	11605
481.161	12937
481.238	12399
481.315	9209
481.392	10362
481.470	10133
481.547	10165
481.624	9828
481.701	8861
481.778	9599
481.855	11754
481.932	14554
482.009	25345
482.086	17331
482.163	9739
482.240	9719
482.317	14512
482.393	12092
482.470	9843
482.547	9709
482.624	8985
482.701	10475
482.778	8905
482.855	8598
482.932	9287
483.009	8596
483.085	9827
483.162	11000
483.239	9772
483.316	8298
483.393	8052
483.469	8316
483.546	9872
483.623	10909
483.699	8742
483.776	9853
483.853	12159
483.930	16738
484.006	39247
484.083	67985
484.160	41512
484.236	62147
484.313	48753
484.389	35206
484.466	30554
484.543	29761
484.619	29176
484.696	30405
484.772	32071
484.849	32731
484.925	29216
485.002	27791
485.078	30436
485.155	30018
485.231	27640
485.308	26287
485.384	27592
485.461	31331
485.537	45256
485.614	53406
485.690	27646
485.766	24600
485.843	27352
485.919	29556
485.995	31222
486.072	24166
486.148	23139
486.224	23630
486.301	24550
486.377	26357
486.453	26860
486.530	27863
486.606	36509
486.682	41112
486.758	44043
486.835	45850
486.911	37893
486.987	55639
487.063	52158
487.139	56581
487.215	43879
487.292	28764
487.368	25679
487.444	26830
487.520	29478
487.596	26968
487.672	26850
487.748	32174
487.824	37673
487.900	28992
487.976	24988
488.052	26154
488.128	30088
488.204	26093
488.280	24150
488.356	28302
488.432	48660
488.508	71259
488.584	30377
488.660	21824
488.736	22180
488.812	22684
488.888	27912
488.964	32396
489.039	48492
489.115	72585
489.191	47944
489.267	23835
489.343	23208
489.418	19682
489.494	19933
489.570	18380
489.646	21626
489.722	19719
489.797	21034
489.873	28057
489.949	54458
490.024	48280
490.100	19217
490.176	18611
490.251	20285
490.327	24268
490.403	18205
490.478	18925
490.554	15160
490.629	17860
490.705	16534
490.781	17629
490.856	16800
490.932	18949
491.007	17759
491.083	18418
491.158	16934
491.234	22614
491.309	42094
491.385	43670
491.460	18138
491.536	18617
491.611	14917
491.686	17182
491.762	20572
491.837	32517
491.913	52381
491.988	68513
492.063	86366
492.139	33778
492.214	24012
492.289	14827
492.365	14137
492.440	17191
492.515	17392
492.590	17579
492.666	14070
492.741	18820
492.816	25893
492.891	17395
492.967	15324
493.042	13240
493.117	16732
493.192	18791
493.267	32735
493.342	109970
493.418	163605
493.493	31612
493.568	14323
493.643	13781
493.718	15845
493.793	20263
493.868	22403
493.943	15383
494.018	13381
494.093	12941
494.168	13235
494.243	11502
494.318	11633
494.393	11440
494.468	11716
494.543	10967
494.618	12944
494.693	12079
494.768	11747
494.842	12677
494.917	10989
494.992	12524
495.067	11104
495.142	10553
495.217	12523
495.292	11762
495.366	13635
495.441	16594
495.516	19834
495.591	24146
495.665	58604
495.740	134888
495.815	65338
495.890	19105
495.964	14072
496.039	16337
496.114	14564
496.188	16244
496.263	16618
496.338	14491
496.412	17584
496.487	19121
496.561	18574
496.636	19961
496.710	17367
496.785	17502
496.860	21527
496.934	17028
497.009	16640
497.083	16791
497.158	17526
497.232	20177
497.307	24162
497.381	20534
497.455	22804
497.530	30337
497.604	24692
497.679	23943
497.753	34703
497.827	42342
497.902	38753
497.976	44303
498.050	82990
498.125	282803
498.199	297795
498.273	54019
498.348	39420
498.422	35718
498.496	33244
498.570	30781
498.645	27276
498.719	27334
498.793	30300
498.867	40381
498.941	50251
499.016	116950
499.090	320537
499.164	122633
499.238	21738
499.312	17955
499.386	21132
499.460	20566
499.534	18320
499.609	21350
499.683	32496
499.757	29780
499.831	54532
499.905	212373
499.979	207987
500.053	37079
500.127	32543
500.201	21933
500.275	17220
500.349	16328
500.422	18733
500.496	23259
500.570	43875
500.644	114942
500.718	231650
500.792	55348
500.866	18516
500.940	21080
501.013	19645
501.087	17982
501.161	28743
501.235	36674
501.309	73622
501.382	209254
501.456	185332
501.530	41417
501.603	73587
501.677	30057
501.751	13172
501.825	17522
501.898	30393
501.972	86945
502.046	57154
502.119	16619
502.193	36263
502.266	95347
502.340	46757
502.413	40539
502.487	81174
502.561	46820
502.634	16879
502.708	12616
502.781	11357
502.855	11137
502.928	10046
503.002	9445
503.075	9838
503.149	10757
503.222	10683
503.295	12431
503.369	15653
503.442	21121
503.516	59490
503.589	157981
503.662	105376
503.736	32616
503.809	71858
503.882	60055
503.956	86154
504.029	76168
504.102	23873
504.175	21581
504.249	11630
504.322	14302
504.395	12685
504.468	11456
504.542	11240
504.615	8396
504.688	9387
504.761	7069
504.834	11820
504.907	12087
504.980	17718
505.053	10820
505.127	11733
505.200	17626
505.273	16409
505.346	9982
505.419	9217
505.492	9401
505.565	7742
505.638	7798
505.711	8298
505.784	7799
505.857	6760
505.930	9423
506.003	7354
506.076	9986
506.149	11786
506.221	14891
506.294	14311
506.367	33449
506.440	115074
506.513	62162
506.586	15609
506.659	9500
506.731	8136
506.804	9708
506.877	12743
506.950	11275
507.022	8219
507.095	9314
507.168	12472
507.241	9203
507.313	6627
507.386	7897
507.459	9960
507.531	9043
507.604	6655
507.677	7842
507.749	7161
507.822	9797
507.894	19081
507.967	26827
508.040	16299
508.112	14169
508.185	13242
508.257	11818
508.330	16942
508.402	13165
508.475	12925
508.547	13147
508.620	12869
508.692	19035
508.765	13651
508.837	9928
508.909	11549
508.982	11275
509.054	11081
509.127	10778
509.199	10258
509.271	9426
509.344	10226
509.416	10834
509.488	10833
509.560	10314
509.633	10078
509.705	12174
509.777	12849
509.849	16239
509.922	13651
509.994	13229
510.066	14169
510.138	13543
510.210	27560
510.283	24732
510.355	20290
510.427	16499
510.499	16710
510.571	15388
510.643	14393
510.715	20263
510.787	18059
510.859	16119
510.931	16698
511.003	19600
511.076	19657
511.148	14456
511.219	14710
511.291	21495
511.363	25019
511.435	14725
511.507	13441
511.579	13330
511.651	12646
511.723	12806
511.795	12749
511.867	13213
511.939	14393
512.010	25155
512.082	21368
512.154	11404
512.226	12290
512.298	19455
512.369	26697
512.441	20490
512.513	18299
512.585	15975
512.656	16466
512.728	16760
512.800	13744
512.871	13998
512.943	13829
513.015	12663
513.086	12748
513.158	13759
513.230	13523
513.301	15371
513.373	17545
513.444	13457
513.516	11727
513.588	12892
513.659	11401
513.731	13695
513.802	12345
513.874	20863
513.945	32401
514.016	15986
514.088	12178
514.159	12582
514.231	16320
514.302	23511
514.374	18921
514.445	17166
514.516	29791
514.588	22515
514.659	15988
514.730	26950
514.802	22130
514.873	16103
514.944	19276
515.016	17538
515.087	17048
515.158	21047
515.229	29368
515.301	17080
515.372	24063
515.443	18436
515.514	15280
515.585	11895
515.656	13585
515.728	12231
515.799	11396
515.870	12615
515.941	11137
516.012	12282
516.083	16574
516.154	17480
516.225	17566
516.296	17843
516.367	14797
516.438	14671
516.509	17266
516.580	22184
516.651	45577
516.722	142427
516.793	85020
516.864	25366
516.935	23564
517.006	24374
517.077	29670
517.148	56178
517.219	121255
517.289	206497
517.360	131699
517.431	51816
517.502	16772
517.573	16356
517.643	15313
517.714	18601
517.785	18864
517.856	15541
517.926	18983
517.997	19519
518.068	20285
518.138	25433
518.209	30266
518.280	79599
518.350	285352
518.421	130985
518.492	24723
518.562	17602
518.633	17198
518.703	14190
518.774	17983
518.845	19615
518.915	21007
518.986	17435
519.056	20273
519.127	30673
519.197	47877
519.268	120087
519.338	85706
519.408	22638
519.479	23184
519.549	17767
519.620	15072
519.690	12098
519.760	11821
519.831	11840
519.901	12639
519.971	10981
520.042	12296
520.112	13740
520.182	14557
520.253	16617
520.323	12943
520.393	16433
520.463	23165
520.534	15410
520.604	32058
520.674	18104
520.744	17170
520.814	32646
520.885	32301
520.955	38929
521.025	142963
521.095	61029
521.165	15152
521.235	12792
521.305	10944
521.375	11944
521.445	11487
521.515	13022
521.585	15726
521.655	14481
521.725	14228
521.795	13693
521.865	10039
521.935	18110
522.005	15140
522.075	9687
522.145	12215
522.215	11715
522.285	17052
522.355	20828
522.424	38447
522.494	33343
522.564	17683
522.634	25042
522.704	71097
522.774	32921
522.843	12377
522.913	10050
522.983	12693
523.053	10538
523.122	11396
523.192	13384
523.262	33380
523.331	37097
523.401	12664
523.471	8962
523.540	9105
523.610	7408
523.680	7853
523.749	8293
523.819	11369
523.888	11201
523.958	8462
524.027	9403
524.097	10343
524.166	8751
524.236	8548
524.305	11256
524.375	8381
524.444	7557
524.514	11214
524.583	9477
524.653	11318
524.722	13931
524.791	9426
524.861	9599
524.930	7204
524.999	7872
525.069	12808
525.138	10760
525.207	12933
525.277	9452
525.346	9487
525.415	8998
525.484	8827
525.554	10478
525.623	9596
525.692	8907
525.761	9061
525.830	7853
525.900	8670
525.969	10403
526.038	11376
526.107	10908
526.176	21589
526.245	19225
526.314	15873
526.383	19489
526.452	18629
526.522	29786
526.591	41953
526.660	33642
526.729	19731
526.797	20916
526.867	38061
526.935	170669
527.004	147635
527.073	58171
527.142	12912
527.211	8784
527.280	10099
527.349	10721
527.418	6971
527.487	8604
527.555	7329
527.624	5956
527.693	5916
527.762	7787
527.831	5953
527.899	7230
527.968	8162
528.037	6503
528.106	8892
528.174	13733
528.243	12813
528.312	16599
528.380	20573
528.449	8960
528.518	8159
528.586	5668
528.655	7557
528.723	6687
528.792	6106
528.861	6459
528.929	5757
528.998	7815
529.066	6738
529.135	5849
529.203	6180
529.272	6078
529.340	6875
529.409	7714
529.477	6117
529.545	8262
529.614	10814
529.682	8873
529.751	11808
529.819	12089
529.887	8562
529.956	6299
530.024	7552
530.092	6411
530.161	8271
530.229	9426
530.297	7434
530.365	7334
530.434	6008
530.502	6217
530.570	6855
530.638	4846
530.707	7249
530.775	9004
530.843	5692
530.911	5996
530.979	6331
531.047	6679
531.115	7700
531.183	7488
531.252	6430
531.320	5839
531.388	5719
531.456	7005
531.524	5623
531.592	7157
531.660	8642
531.728	6746
531.796	5483
531.864	6703
531.932	7274
532.000	6611
532.067	7331
532.135	8292
532.203	9938
532.271	10299
532.339	15196
532.407	30749
532.475	22395
532.542	14007
532.610	13602
532.678	17317
532.746	53103
532.814	144517
532.881	41503
532.949	10287
533.017	7622
533.084	7628
533.152	7553
533.220	7137
533.287	8456
533.355	7433
533.423	7804
533.490	6872
533.558	8276
533.625	8134
533.693	8883
533.761	9654
533.828	10192
533.896	10311
533.963	17626
534.031	22047
534.098	25943
534.166	15586
534.233	10942
534.300	12829
534.368	12802
534.435	10168
534.503	11333
534.570	10649
534.637	9054
534.705	9243
534.772	8990
534.840	8572
534.907	14089
534.974	16256
535.041	9459
535.109	9840
535.176	7201
535.243	6962
535.310	7034
535.378	7430
535.445	7034
535.512	7091
535.579	8230
535.646	7572
535.714	8341
535.781	11890
535.848	11738
535.915	13598
535.982	15306
536.049	16101
536.116	14500
536.183	11962
536.250	11547
536.317	11090
536.384	11814
536.451	12754
536.518	12751
536.585	9433
536.652	13345
536.719	14359
536.786	12548
536.853	10239
536.920	14352
536.987	19873
537.053	19972
537.120	69328
537.187	69508
537.254	10612
537.321	7740
537.388	9417
537.454	7236
537.521	6269
537.588	7520
537.654	9434
537.721	10830
537.788	10912
537.855	7640
537.921	8407
537.988	7991
538.055	9543
538.121	8219
538.188	8216
538.254	11105
538.321	16134
538.388	12475
538.454	7311
538.521	7651
538.587	6600
538.654	7133
538.720	7580
538.787	6944
538.853	8113
538.920	9204
538.986	10381
539.053	8609
539.119	8022
539.185	8541
539.252	10090
539.318	12982
539.385	12999
539.451	10557
539.517	11861
539.583	12236
539.650	22337
539.716	59396
539.782	21779
539.849	8609
539.915	9618
539.981	8437
540.047	8875
540.114	9420
540.180	10493
540.246	9228
540.312	11798
540.378	17844
540.444	20073
540.510	22282
540.576	62352
540.643	24744
540.709	8181
540.775	9524
540.841	8718
540.907	13047
540.973	18299
541.039	14105
541.105	14148
541.171	9169
541.237	8457
541.303	10364
541.369	12778
541.435	12296
541.500	15656
541.566	11598
541.632	8384
541.698	8109
541.764	8754
541.830	8803
541.896	6701
541.961	8800
542.027	8296
542.093	9061
542.159	9191
542.224	9406
542.290	14054
542.356	16460
542.421	19275
542.487	13157
542.553	10921
542.618	12070
542.684	10032
542.750	10114
542.815	11385
542.881	16995
542.947	53242
543.012	45610
543.078	9626
543.143	8355
543.209	10224
543.274	9359
543.340	11350
543.405	21240
543.471	36989
543.536	12002
543.602	8679
543.667	8084
543.732	9501
543.798	8287
543.863	10431
543.928	8521
543.994	7485
544.059	9097
544.124	8519
544.190	8229
544.255	9945
544.320	9311
544.386	9372
544.451	12473
544.516	13693
544.581	14697
544.646	32478
544.712	58037
544.777	16083
544.842	12134
544.907	12736
544.972	11120
545.037	10713
545.102	11831
545.168	10877
545.233	13318
545.298	14585
545.363	14132
545.428	14208
545.493	20784
545.558	44090
545.623	23582
545.688	11810
545.753	12506
545.818	11081
545.883	11730
545.947	11598
546.012	12991
546.077	11655
546.142	12934
546.207	11374
546.272	13054
546.337	12973
546.401	12439
546.466	12595
546.531	10523
546.596	11693
546.661	11701
546.725	11784
546.790	10029
546.855	10362
546.919	9841
546.984	10496
547.049	11860
547.113	12380
547.178	10376
547.243	12265
547.307	12770
547.372	13284
547.436	14990
547.501	11987
547.565	11072
547.630	13543
547.695	12511
547.759	15367
547.823	13833
547.888	12127
547.952	10882
548.017	11986
548.081	13262
548.146	17147
548.210	15398
548.274	11927
548.339	10673
548.403	10489
548.468	10824
548.532	10395
548.596	10860
548.660	9933
548.725	11862
548.789	11632
548.853	14801
548.917	12515
548.982	16898
549.046	17975
549.110	10960
549.174	11535
549.238	10250
549.303	9432
549.367	11967
549.431	10469
549.495	10943
549.559	9977
549.623	12032
549.687	12899
549.751	17000
549.815	13077
549.879	12093
549.943	10944
550.007	13191
550.071	13405
550.135	16017
550.199	13910
550.263	12386
550.327	14277
550.391	16858
550.455	12900
550.519	11907
550.582	12955
550.646	16093
550.710	17254
550.774	13216
550.838	12123
550.901	13239
550.965	13424
551.029	13623
551.093	15478
551.156	18803
551.220	32475
551.284	37050
551.347	19884
551.411	41426
551.475	47644
551.538	16265
551.602	12415
551.666	11791
551.729	11530
551.793	12594
551.856	14338
551.920	15098
551.983	13019
552.047	12237
552.110	12473
552.174	11111
552.237	11702
552.301	11841
552.364	11258
552.428	11556
552.491	10627
552.554	11501
552.618	11692
552.681	12102
552.745	12511
552.808	13817
552.871	16164
552.934	15037
552.998	12343
553.061	14661
553.124	15685
553.187	16703
553.251	18851
553.314	21344
553.377	23577
553.440	38757
553.503	124403
553.567	232864
553.630	46447
553.693	16012
553.756	13597
553.819	12278
553.882	11784
553.945	12149
554.008	12092
554.071	11109
554.134	11724
554.197	10691
554.260	11142
554.323	12044
554.386	11946
554.449	11777
554.512	11786
554.575	11020
554.638	11204
554.701	11063
554.764	10730
554.827	10766
554.889	10277
554.952	9597
555.015	10278
555.078	9645
555.141	10925
555.203	10135
555.266	10080
555.329	10958
555.391	10458
555.454	10175
555.517	10949
555.580	10461
555.642	9055
555.705	10104
555.768	9581
555.830	9939
555.893	8928
555.955	9058
556.018	9373
556.080	10563
556.143	9518
556.206	9898
556.268	11480
556.330	10809
556.393	9760
556.455	10722
556.518	14404
556.580	15133
556.643	9851
556.705	9371
556.767	8593
556.830	10077
556.892	11205
556.955	13243
557.017	11858
557.079	9875
557.142	9464
557.204	10236
557.266	16952
557.328	16643
557.391	9742
557.453	8643
557.515	9764
557.577	10841
557.639	10959
557.701	8723
557.764	8180
557.826	8904
557.888	10763
557.950	9205
558.012	8513
558.074	9805
558.136	11172
558.198	17182
558.260	13438
558.322	10422
558.384	10709
558.446	11470
558.508	12137
558.570	14084
558.632	18285
558.694	27627
558.756	18956
558.818	30765
558.880	73651
558.942	31189
559.003	17680
559.065	15265
559.127	10449
559.189	10551
559.251	10674
559.312	11647
559.374	17579
559.436	42740
559.498	29593
559.559	11325
559.621	10355
559.683	12142
559.744	15369
559.806	28284
559.868	35671
559.929	16297
559.991	12973
560.052	14320
560.114	18816
560.176	16366
560.237	15226
560.299	20685
560.360	12687
560.422	10842
560.483	11398
560.545	10161
560.606	10295
560.667	10906
560.729	10542
560.790	10004
560.852	10904
560.913	10494
560.974	10577
561.036	9601
561.097	10416
561.158	10391
561.220	10989
561.281	11444
561.342	11471
561.403	12497
561.465	13797
561.526	24337
561.587	34504
561.648	14349
561.709	11583
561.771	11900
561.832	11565
561.893	10754
561.954	11483
562.015	11126
562.076	11045
562.137	12393
562.198	11074
562.259	11714
562.320	12291
562.381	11793
562.442	14374
562.503	13830
562.564	11394
562.625	12084
562.686	11466
562.747	12108
562.808	11701
562.869	11186
562.930	14551
562.991	13326
563.051	13846
563.112	12088
563.173	12366
563.234	11329
563.294	12287
563.355	11811
563.416	12619
563.477	11922
563.537	12230
563.598	13373
563.659	12338
563.720	11861
563.780	12414
563.841	12779
563.901	12595
563.962	10956
564.023	11854
564.083	12806
564.144	12583
564.204	12686
564.265	12529
564.325	14299
564.386	22530
564.446	21183
564.507	12420
564.567	12027
564.628	12333
564.688	11863
564.749	12400
564.809	13715
564.869	15709
564.930	12860
564.990	12204
565.050	11995
565.111	12529
565.171	12669
565.231	12270
565.292	13466
565.352	10993
565.412	13063
565.472	12361
565.532	11678
565.593	12277
565.653	12984
565.713	12576
565.773	13360
565.833	14681
565.893	17301
565.953	13602
566.013	13533
566.074	14509
566.134	16912
566.194	22548
566.254	22930
566.314	18987
566.374	15060
566.434	14791
566.494	16265
566.554	14935
566.614	15969
566.673	16046
566.733	17561
566.793	17805
566.853	18483
566.913	18500
566.973	19381
567.033	18766
567.092	18853
567.152	19381
567.212	19245
567.272	19314
567.331	20286
567.391	20586
567.451	20544
567.511	23279
567.570	24237
567.630	18689
567.690	17780
567.749	18573
567.809	20790
567.868	21639
567.928	24824
567.988	26675
568.047	29360
568.107	34358
568.166	42093
568.226	57137
568.285	76570
568.345	76939
568.404	68295
568.464	60930
568.523	57015
568.582	58645
568.642	61195
568.701	71319
568.761	89300
568.820	123659
568.879	134455
568.939	117435
568.998	94765
569.057	75682
569.116	64129
569.176	53401
569.235	43507
569.294	38537
569.353	33843
569.413	30158
569.472	26998
569.531	25185
569.590	22430
569.649	21698
569.708	20610
569.767	20102
569.827	19978
569.886	17300
569.945	17653
570.004	16484
570.063	16243
570.122	15844
570.181	17308
570.240	16625
570.299	16952
570.358	15793
570.417	14442
570.475	13298
570.534	13595
570.593	13412
570.652	13166
570.711	13263
570.770	12935
570.829	12808
570.887	12678
570.946	13642
571.005	12021
571.064	12100
571.122	10900
571.181	12690
571.240	12701
571.299	11574
571.357	11777
571.416	12045
571.475	14442
571.533	14092
571.592	11852
571.650	11793
571.709	11105
571.768	11034
571.826	11518
571.885	11420
571.943	10472
572.002	10996
572.060	10955
572.119	10610
572.177	10677
572.236	9867
572.294	9575
572.352	10336
572.411	9856
572.469	9577
572.528	10413
572.586	11300
572.644	10955
572.703	12660
572.761	10794
572.819	9665
572.877	10363
572.936	10747
572.994	9649
573.052	10588
573.110	9779
573.169	9385
573.227	8994
573.285	9800
573.343	10119
573.401	9798
573.459	9543
573.517	9606
573.576	8887
573.634	8715
573.692	9997
573.750	10130
573.808	8673
573.866	9616
573.924	11790
573.982	11475
574.040	9256
574.098	9182
574.155	8875
574.213	8999
574.271	9166
574.329	8695
574.387	8134
574.445	9292
574.503	8946
574.560	8527
574.618	8050
574.676	8020
574.734	7985
574.792	8807
574.849	8447
574.907	8326
574.965	8225
575.022	7725
575.080	7364
575.138	9659
575.195	9640
575.253	8188
575.311	9622
575.368	9264
575.426	8152
575.483	8739
575.541	9250
575.598	8030
575.656	9101
575.713	8962
575.771	8991
575.828	8767
575.886	9056
575.943	9528
576.001	9802
576.058	9721
576.115	9637
576.173	10057
576.230	11670
576.287	11630
576.345	11568
576.402	9028
576.459	9727
576.517	10342
576.574	10979
576.631	11422
576.688	9786
576.746	9973
576.803	9834
576.860	9136
576.917	9580
576.974	9570
577.031	8775
577.089	10240
577.146	9808
577.203	9141
577.260	10343
577.317	11445
577.374	10333
577.431	10615
577.488	10259
577.545	9949
577.602	10481
577.659	10754
577.716	12581
577.773	15556
577.830	13525
577.886	11643
577.943	9866
578.000	11012
578.057	12708
578.114	13398
578.171	15751
578.227	20476
578.284	23103
578.341	17148
578.398	15492
578.454	14508
578.511	14063
578.568	13713
578.625	11694
578.681	11488
578.738	10774
578.794	10772
578.851	10714
578.908	10949
578.964	12254
579.021	12361
579.077	11223
579.134	10970
579.190	10126
579.247	10493
579.303	9429
579.360	9588
579.416	10905
579.473	9672
579.529	9723
579.586	10939
579.642	10378
579.698	10689
579.755	11047
579.811	11827
579.867	12250
579.924	12349
579.980	13421
580.036	16048
580.093	21122
580.149	29085
580.205	35652
580.261	29619
580.317	21902
580.374	18948
580.430	15665
580.486	15556
580.542	13387
580.598	13208
580.619	13162
580.654	13099
580.692	12307
580.710	11937
580.765	12159
580.767	12179
580.823	11797
580.838	11950
580.879	12396
580.911	12295
580.935	12261
580.984	12007
580.991	11986
581.047	11972
581.057	12139
581.103	12946
581.130	13252
581.159	13595
581.203	15672
581.215	16235
581.270	15611
581.276	15540
581.326	14990
581.349	14329
581.382	13374
581.422	12742
581.438	12490
581.494	11925
581.494	11924
581.550	12888
581.567	12615
581.606	11990
581.640	11686
581.661	11525
581.713	12454
581.717	12530
581.773	12157
581.786	11983
581.829	11509
581.859	11763
581.885	12028
581.932	12670
581.940	12788
581.996	12823
582.004	12658
582.052	11668
582.077	11729
582.107	11875
582.150	12057
582.163	12094
582.219	12428
582.223	12351
582.274	11624
582.296	12138
582.330	12945
582.368	12597
582.386	12489
582.441	12689
582.441	12693
582.497	12222
582.514	12606
582.552	13580
582.587	14592
582.608	15128
582.659	14350
582.663	14292
582.719	13411
582.732	13177
582.774	12607
582.805	12859
582.830	13007
582.877	13117
582.885	13162
582.941	13747
582.950	13855
582.996	14212
583.023	14630
583.052	15360
583.095	16524
583.107	16823
583.162	21162
583.168	21405
583.218	23280
583.240	21841
583.273	19653
583.313	18965
583.328	18759
583.384	16846
583.385	16800
583.439	15281
583.458	15164
583.494	14971
583.531	14153
583.549	13846
583.603	14527
583.605	14540
583.660	14501
583.676	14270
583.715	13720
583.748	13979
583.770	14197
583.820	14714
583.825	14756
583.881	14284
583.893	14351
583.936	14652
583.965	14376
583.991	13991
584.038	13956
584.046	13997
584.101	14229
584.110	14255
584.156	14408
584.183	14657
584.211	14793
584.255	14540
584.266	14412
584.321	14464
584.328	14398
584.376	14405
584.400	14706
584.431	15074
584.472	14602
584.486	14395
584.541	15187
584.545	15221
584.596	15397
584.617	15120
584.651	15049
584.689	15406
584.706	15430
584.761	14618
584.762	14635
584.816	16461
584.834	16605
584.871	16844
584.906	16972
584.926	16886
584.978	16240
584.980	16232
585.035	17309
585.051	17446
585.090	17759
585.123	18160
585.145	18269
585.195	18470
585.200	18520
585.254	19274
585.267	19672
585.309	21190
585.340	22635
585.364	23325
585.412	21240
585.419	20892
585.473	20067
585.484	19900
585.528	20067
585.556	20810
585.583	21639
585.628	22948
585.637	23319
585.692	26879
585.700	27800
585.747	31994
585.772	30828
585.801	27994
585.845	23867
585.856	23168
585.910	22111
585.917	22041
585.965	21929
585.989	22098
586.019	22449
586.061	23033
586.074	23169
586.128	23620
586.133	23726
586.183	25124
586.205	25461
586.237	25638
586.277	25732
586.292	25755
586.346	25934
586.349	25987
586.401	26775
586.421	26985
586.455	27340
586.493	28450
586.509	29484
586.564	32804
586.565	32974
586.618	40864
586.637	41584
586.672	38350
586.709	33680
586.727	32291
586.781	31652
586.781	31635
586.835	32092
586.853	32489
586.889	33180
586.925	33710
586.944	33962
586.996	35807
586.998	35849
587.052	37275
587.068	37772
587.106	38309
587.140	38731
587.161	39136
587.212	40479
587.215	40515
587.269	41833
587.284	42300
587.323	43701
587.356	45026
587.377	45893
587.427	48532
587.431	48666
587.485	50432
587.499	51026
587.539	53163
587.571	55059
587.593	56344
587.643	59835
587.648	60127
587.702	63263
587.715	64299
587.755	67102
587.786	69664
587.810	72119
587.858	76842
587.864	77346
587.917	84522
587.930	86234
587.971	91836
588.001	96677
588.025	100871
588.073	109081
588.079	110170
588.133	122291
588.145	125234
588.187	136439
588.217	145592
588.241	154089
588.288	172280
588.295	174662
588.348	198162
588.360	203668
588.402	227858
588.431	246477
588.456	263552
588.503	300200
588.510	306425
588.564	363603
588.575	376879
588.617	439697
588.646	486354
588.671	540012
588.718	650156
588.725	671771
588.778	847366
588.789	882104
588.832	1014750
588.861	1087093
588.886	1076128
588.932	996178
588.939	978670
588.993	843603
589.004	842417
589.047	1020482
589.075	1120975
589.100	1089790
589.147	965567
589.154	944501
589.207	770804
589.218	737498
589.261	676327
589.290	644453
589.314	651721
589.361	677785
589.368	691539
589.421	824085
589.433	853235
589.475	971272
589.504	1032832
589.528	1004429
589.576	903530
589.582	902947
589.635	983922
589.647	995426
589.689	894980
589.718	790960
589.742	694635
589.790	504420
589.795	490969
589.849	378185
589.861	354017
589.902	303076
589.932	268250
589.955	246282
590.004	204199
590.009	201097
590.062	174030
590.075	167860
590.115	152361
590.146	141542
590.168	135045
590.218	121592
590.222	120487
590.275	109844
590.289	107162
590.328	100804
590.360	95978
590.381	92454
590.431	85128
590.435	84655
590.488	78654
590.503	77190
590.541	74159
590.574	71763
590.594	69986
590.645	66004
590.647	65800
590.700	62266
590.716	61394
590.753	58732
590.787	56357
590.806	55441
590.859	53176
590.859	53083
590.912	50853
590.930	50151
590.965	48322
591.001	46831
591.018	46576
591.071	45736
591.072	45772
591.124	44855
591.143	44506
591.177	42986
591.214	41668
591.230	41196
591.283	39882
591.285	39856
591.336	39846
591.356	40018
591.389	39537
591.427	38853
591.442	38135
591.495	35739
591.498	35589
591.547	35119
591.569	34997
591.600	34476
591.640	33685
591.653	33465
591.706	32837
591.711	32793
591.759	32472
591.782	32372
591.811	32735
591.853	33231
591.864	32906
591.917	31398
591.924	31189
591.969	30765
591.995	30613
592.022	30343
592.066	29845
592.075	29851
592.127	30109
592.137	30162
592.180	31106
592.208	31742
592.233	30241
592.279	27368
592.285	27312
592.338	27022
592.350	26981
592.390	26265
592.421	25758
592.443	25855
592.491	26110
592.495	26068
592.548	25711
592.562	25630
592.600	24993
592.633	24474
592.653	24356
592.704	23965
592.705	24093
592.775	23693
592.846	24662
592.916	24263
592.987	24067
593.058	23823
593.128	22201
593.199	22566
593.270	22121
593.341	20756
593.411	21530
593.482	20280
593.553	20963
593.623	21065
593.694	19976
593.764	20874
593.835	19758
593.906	19362
593.976	19380
594.047	19712
594.117	21596
594.188	21367
594.258	19056
594.329	18180
594.399	17324
594.470	18184
594.540	18146
594.611	16951
594.681	18050
594.751	17103
594.822	17766
594.892	18325
594.963	18656
595.033	17289
595.103	17819
595.174	17581
595.244	21624
595.314	25191
595.384	18051
595.455	15880
595.525	17204
595.595	17318
595.665	16842
595.736	15983
595.806	16184
595.876	15832
595.946	15787
596.016	15532
596.087	15834
596.157	16163
596.227	16032
596.297	16455
596.367	14867
596.437	17895
596.507	19413
596.577	23199
596.647	16390
596.717	15509
596.787	15425
596.857	15616
596.927	15898
596.997	15022
597.067	16075
597.137	19099
597.207	17844
597.277	16147
597.347	15102
597.417	15430
597.487	16350
597.557	16422
597.626	15862
597.696	15564
597.766	18064
597.836	22143
597.906	16166
597.975	14839
598.045	14140
598.115	14330
598.185	14759
598.254	15796
598.324	16358
598.394	15806
598.464	15943
598.533	14607
598.603	14321
598.672	15009
598.742	14664
598.812	13792
598.881	14539
598.951	13984
599.020	13161
599.090	13736
599.159	14408
599.229	13328
599.299	12572
599.368	12975
599.437	13544
599.507	13481
599.576	13465
599.646	16188
599.715	16828
599.785	14060
599.854	13260
599.924	14393
599.993	15115
600.062	13819
600.132	12351
600.201	12638
600.270	14089
600.340	13635
600.409	13900
600.478	13246
600.547	13019
600.617	12889
600.686	13968
600.755	12829
600.824	13978
600.894	14053
600.963	12488
601.032	11913
601.101	13284
601.170	12124
601.239	12877
601.308	13021
601.378	13176
601.447	12115
601.516	12997
601.585	12105
601.654	13448
601.723	12949
601.792	12784
601.861	14540
601.930	18580
601.999	15477
602.068	12868
602.137	12887
602.206	12676
602.275	12366
602.343	14623
602.412	14717
602.481	12391
602.550	11703
602.619	11645
602.688	12774
602.756	12666
602.825	12933
602.894	12292
602.963	11326
603.032	11814
603.100	11305
603.169	11539
603.238	11878
603.307	11421
603.375	12106
603.444	11493
603.513	12391
603.581	11108
603.650	11061
603.719	10491
603.787	10268
603.856	12174
603.924	11043
603.993	11249
604.061	11326
604.130	11508
604.198	12835
604.267	11609
604.335	11088
604.404	11606
604.472	11746
604.541	11547
604.609	11849
604.678	12011
604.746	11464
604.815	11884
604.883	11645
604.951	12983
605.020	11062
605.088	11842
605.156	11182
605.225	10648
605.293	10526
605.361	11259
605.429	10970
605.498	11277
605.566	11510
605.634	12017
605.702	11678
605.771	10911
605.839	10984
605.907	11077
605.975	11831
606.043	11039
606.111	11269
606.180	12511
606.248	16191
606.316	19147
606.384	11702
606.452	15065
606.520	15838
606.588	11565
606.656	10495
606.724	9842
606.792	11010
606.860	9677
606.928	9274
606.996	9077
607.064	9149
607.132	9353
607.200	9397
607.267	9489
607.335	9507
607.403	9695
607.471	8520
607.539	9051
607.607	9860
607.674	9080
607.742	10784
607.810	9920
607.878	9785
607.946	9366
608.013	8985
608.081	9455
608.149	8962
608.216	9026
608.284	9929
608.352	9592
608.419	9502
608.487	12895
608.555	11210
608.622	8823
608.690	8896
608.757	9760
608.825	9950
608.893	10186
608.960	11103
609.028	12572
609.095	13023
609.163	9982
609.230	9261
609.298	10776
609.365	8025
609.432	9382
609.500	9433
609.567	10196
609.635	10144
609.702	10103
609.769	10968
609.837	11054
609.904	10366
609.971	9716
610.039	12770
610.106	15271
610.173	22205
610.241	47742
610.308	60707
610.375	42128
610.442	15433
610.509	11008
610.577	10349
610.644	9509
610.711	9349
610.778	10529
610.845	10283
610.912	11429
610.980	13537
611.047	22071
611.114	15090
611.181	9396
611.248	7830
611.315	10122
611.382	8219
611.449	9744
611.516	9362
611.583	9517
611.650	9221
611.717	9420
611.784	9548
611.851	11109
611.918	10999
611.984	11383
612.051	14875
612.118	25210
612.185	54677
612.252	39406
612.319	12782
612.386	11158
612.452	10004
612.519	11280
612.586	15017
612.653	11253
612.719	9719
612.786	9092
612.853	8667
612.919	8704
612.986	9236
613.053	9040
613.120	8777
613.186	7556
613.253	10187
613.319	9156
613.386	9065
613.453	9287
613.519	10760
613.586	14919
613.652	21566
613.719	17033
613.785	13894
613.852	10207
613.918	9552
613.985	11392
614.051	17143
614.118	38613
614.184	37599
614.250	11061
614.317	9462
614.383	8941
614.449	8376
614.516	9235
614.582	9027
614.648	7870
614.715	8135
614.781	8497
614.847	9575
614.914	9094
614.980	9808
615.046	9890
615.112	9451
615.179	10469
615.245	10593
615.311	14741
615.377	23787
615.443	29592
615.509	17270
615.575	12649
615.642	11647
615.708	11134
615.774	12679
615.840	13646
615.906	17845
615.972	25707
616.038	49618
616.104	70742
616.170	88724
616.236	73782
616.302	22341
616.368	15259
616.434	11947
616.500	12833
616.565	12423
616.631	12073
616.697	11563
616.763	11730
616.829	13064
616.895	18797
616.961	19683
617.026	13386
617.092	10919
617.158	10632
617.224	10218
617.289	10971
617.355	9599
617.421	9644
617.487	10746
617.552	10321
617.618	9461
617.684	9098
617.749	11419
617.815	9721
617.880	8955
617.946	9990
618.012	10444
618.077	9654
618.143	9154
618.208	9815
618.274	10547
618.339	10762
618.405	8855
618.470	10152
618.536	11120
618.601	12785
618.667	10594
618.732	11920
618.798	10989
618.863	10520
618.928	10255
618.994	11940
619.059	14223
619.124	18968
619.190	14746
619.255	10848
619.320	10351
619.386	10413
619.451	9149
619.516	9983
619.581	9888
619.647	10349
619.712	9863
619.777	10244
619.842	10482
619.907	10221
619.972	10410
620.038	10902
620.103	10142
620.168	8792
620.233	10560
620.298	9850
620.363	9607
620.428	10423
620.493	9541
620.558	10317
620.623	10520
620.688	10053
620.753	9973
620.818	10025
620.883	10187
620.948	9768
621.013	9547
621.078	9722
621.143	8992
621.207	11300
621.272	11719
621.337	12308
621.402	11888
621.467	14944
621.532	15817
621.596	13380
621.661	11772
621.726	11610
621.791	11865
621.855	12565
621.920	13283
621.985	12376
622.049	14233
622.114	12834
622.179	12408
622.243	13335
622.308	12414
622.373	14285
622.437	13556
622.502	12659
622.566	12294
622.631	11547
622.695	13389
622.760	13362
622.824	12772
622.889	13873
622.953	14617
623.018	22348
623.082	21424
623.147	13843
623.211	12827
623.276	13305
623.340	12345
623.404	11813
623.469	11816
623.533	11845
623.597	10880
623.662	11770
623.726	11060
623.790	11875
623.854	11931
623.919	12305
623.983	11841
624.047	12281
624.111	11158
624.176	11290
624.240	11495
624.304	13548
624.368	11671
624.432	10982
624.496	12581
624.560	12490
624.625	14269
624.689	11689
624.753	10712
624.817	10646
624.881	10735
624.945	10680
625.009	10563
625.073	11382
625.137	11531
625.201	15807
625.265	15213
625.329	11889
625.393	12264
625.456	11826
625.520	10923
625.584	12811
625.648	14604
625.712	20238
625.776	44805
625.839	49231
625.903	21187
625.967	12359
626.031	20375
626.095	29116
626.158	13484
626.222	9487
626.286	10708
626.349	9246
626.413	9343
626.477	12627
626.540	9789
626.604	9180
626.668	9621
626.731	9584
626.795	9767
626.858	9977
626.922	9180
626.986	10817
627.049	8298
627.113	9223
627.176	9472
627.240	8837
627.303	8659
627.366	9258
627.430	9228
627.493	9663
627.557	8953
627.620	10106
627.684	9088
627.747	9480
627.810	7702
627.874	9293
627.937	8015
628.000	10411
628.064	8754
628.127	7563
628.190	8355
628.253	8826
628.317	8108
628.380	8258
628.443	8267
628.506	8591
628.569	8555
628.632	7223
628.696	8308
628.759	7940
628.822	7315
628.885	7934
628.948	8549
629.011	7450
629.074	8075
629.137	7073
629.200	7064
629.263	8687
629.326	7651
629.389	7271
629.452	7643
629.515	7764
629.578	7668
629.641	8696
629.704	7115
629.767	8437
629.830	7661
629.892	7083
629.955	7715
630.018	8768
630.081	8001
630.144	10915
630.207	7854
630.269	9070
630.332	8101
630.395	7601
630.458	7975
630.520	7016
630.583	7702
630.646	7134
630.708	6234
630.771	6825
630.834	7070
630.896	6005
630.959	5827
631.021	6381
631.084	6785
631.146	7409
631.209	7733
631.272	7192
631.334	6660
631.397	6277
631.459	6058
631.522	6762
631.584	6960
631.646	6411
631.709	7158
631.771	9241
631.834	7045
631.896	6257
631.958	5847
632.021	7689
632.083	5760
632.145	6617
632.208	6552
632.270	6737
632.332	5476
632.395	5527
632.457	7508
632.519	6102
632.581	7334
632.643	4571
632.706	6363
632.768	4782
632.830	6650
632.892	7198
632.954	5967
633.016	6113
633.078	5472
633.141	5785
633.203	5282
633.265	6805
633.327	5534
633.389	4688
633.451	6741
633.513	7586
633.575	7685
633.637	6807
633.698	7009
633.760	5797
633.822	6181
633.884	5756
633.946	5751
634.008	5045
634.070	6919
634.132	9828
634.193	7177
634.255	6189
634.317	5067
634.379	6405
634.441	5118
634.502	4724
634.564	4795
634.626	4707
634.687	5309
634.749	5610
634.811	5450
634.873	3926
634.934	5413
634.996	5448
635.057	4837
635.119	4386
635.181	4642
635.242	5793
635.304	3102
635.365	6578
635.427	4535
635.488	4555
635.550	4438
635.611	4862
635.673	2797
635.734	5724
635.796	5459
635.857	6657
635.918	4634
635.980	5535
636.041	4821
636.102	4881
636.164	4875
636.225	5755
636.286	3037
636.348	5772
636.409	4455
636.470	4435
636.531	5172
636.593	5064
636.654	5774
636.715	4664
636.776	4720
636.838	3061
636.899	4486
636.960	4335
637.021	4558
637.082	4580
637.143	4525
637.204	3398
637.265	4024
637.326	4580
637.387	3882
637.448	3677
637.509	4484
637.570	4264
637.631	4632
637.692	3663
637.753	2612
637.814	3994
637.875	3760
637.936	4683
637.997	3815
638.058	3990
638.119	4402
638.179	3381
638.240	2558
638.301	3685
638.362	3475
638.423	4324
638.483	4536
638.544	2892
638.605	3230
638.666	3229
638.726	4318
638.787	4421
638.848	3348
638.908	4058
638.969	4799
639.030	3939
639.090	3310
639.151	3560
639.211	4605
639.272	5965
639.332	11165
639.393	6116
639.453	3091
639.514	3040
639.574	3816
639.635	3433
639.695	4982
639.756	2996
639.816	4027
639.877	4781
639.937	9922
639.997	11095
640.058	4550
640.118	2549
640.178	4437
640.239	3028
640.299	3554
640.359	3705
640.420	3888
640.480	3503
640.540	3394
640.600	2363
640.661	4337
640.721	3145
640.781	5482
640.841	2731
640.901	3926
640.961	3624
641.021	4410
641.082	3720
641.142	7066
641.202	4913
641.262	904
641.322	3312
641.382	2127
641.442	3479
641.502	3744
641.562	4182
641.622	2731
641.682	3818
641.742	3186
641.802	3431
641.861	3171
641.921	3935
641.981	4548
642.041	4423
642.101	6191
642.161	3044
642.221	2303
642.280	3452
642.340	2977
642.400	2730
642.460	3724
642.519	3485
642.579	2286
642.639	2902
642.698	560
642.758	5147
642.818	3624
642.877	2997
642.937	3652
642.997	4940
643.056	7016
643.116	2926
643.175	4291
643.235	2631
643.294	3143
643.354	3296
643.414	3244
643.473	3558
643.532	3056
643.592	3061
643.651	4153
643.711	7217
643.770	11210
643.830	22958
643.889	52038
643.948	13628
644.008	4197
644.067	3571
644.126	2378
644.186	2157
644.245	2973
644.304	1598
644.363	4221
644.423	1044
644.482	2269
644.541	3023
644.600	1283
644.659	3075
644.719	1831
644.778	3129
644.837	3174
644.896	5589
644.955	11239
645.014	5651
645.073	5979
645.132	2757
645.191	3387
645.250	2144
645.309	4213
645.368	2375
645.427	3648
645.486	2392
645.545	4220
645.604	2048
645.663	2590
645.722	2141
645.781	3623
645.840	2904
645.898	2339
645.957	3170
646.016	2770
646.075	5870
646.134	8633
646.192	22268
646.251	33956
646.310	5923
646.369	2118
646.427	3006
646.486	1290
646.545	2619
646.603	1878
646.662	2228
646.721	2378
646.779	1979
646.838	1041
646.896	3254
646.955	2288
647.014	3401
647.072	2999
647.131	6602
647.189	3706
647.248	1131
647.306	1828
647.365	2867
647.423	603
647.481	3488
647.540	1594
647.598	2398
647.657	2616
647.715	2514
647.773	1485
647.832	2609
647.890	988
647.948	1208
648.007	3095
648.065	2005
648.123	2175
648.181	4458
648.240	4353
648.298	4508
648.356	2437
648.414	1996
648.472	2125
648.531	1862
648.589	1768
648.647	2369
648.705	1126
648.763	1840
648.821	1289
648.879	1769
648.937	2880
648.995	2168
649.053	1833
649.111	2439
649.169	3212
649.227	4177
649.285	6934
649.343	18459
649.401	12391
649.459	14687
649.516	11218
649.574	5899
649.632	15763
649.690	20713
649.748	7269
649.806	9249
649.863	16314
649.921	7402
649.979	3132
650.037	3248
650.094	754
650.152	2329
650.210	1152
650.268	2643
650.325	2142
650.383	2333
650.440	990
650.498	1876
650.556	1225
650.613	911
650.671	1824
650.728	1965
650.786	1899
650.843	1708
650.901	332
650.958	2185
651.016	1744
651.073	1638
651.131	671
651.188	1569
651.246	1297
651.303	204
651.360	2382
651.418	1233
651.475	1770
651.532	415
651.590	1523
651.647	813
651.704	1881
651.762	1764
651.819	1840
651.876	767
651.933	1158
651.990	2062
652.048	-174
652.105	950
652.162	1477
652.219	1984
652.276	1574
652.333	1754
652.390	286
652.448	2179
652.505	1851
652.562	2191
652.619	3521
652.676	6288
652.733	7756
652.790	1973
652.847	622
652.904	1693
652.961	1108
653.017	731
653.074	1983
653.131	1518
653.188	812
653.245	1378
653.302	1875
653.359	510
653.415	1129
653.472	1058
653.529	1498
653.586	447
653.642	276
653.699	747
653.756	299
653.813	1049
653.869	1234
653.926	769
653.983	737
654.039	788
654.096	202
654.152	1909
654.209	-291
654.266	1659
654.322	688
654.379	2328
654.435	2167
654.492	1505
654.548	2843
654.605	5300
654.661	2681
654.717	1445
654.774	1364
654.830	1078
654.887	790
654.943	1875
655.000	1918
655.056	619
655.112	1367
655.168	548
655.225	1524
655.281	2562
655.337	1819
655.394	3206
655.450	2555
655.506	2345
655.562	3707
655.618	3877
655.675	890
655.731	1437
655.787	1185
655.843	2365
655.899	984
655.955	764
656.011	1198
656.067	145
656.123	1671
656.179	1353
656.235	2220
656.291	-525
656.347	1636
656.403	1040
656.459	575
656.515	1025
656.571	713
656.627	914
656.683	1581
656.739	1642
656.795	585
656.850	1678
656.906	1581
656.962	2360
657.018	618
657.074	783
657.129	697
657.185	1149
657.241	873
657.297	583
657.352	1103
657.408	663
657.464	2099
657.519	926
657.575	459
657.630	998
657.686	1154
657.742	1329
657.797	1045
657.853	891
657.908	2006
657.964	303
658.019	1043
658.075	1173
658.130	1443
658.186	85
658.241	1056
658.297	1030
658.352	789
658.407	1837
658.463	684
658.518	788
658.573	1688
658.629	110
658.684	1026
658.739	1069
658.795	-242
658.850	619
658.905	606
658.960	1188
659.016	811
659.071	1083
659.126	1879
659.181	1474
659.236	3974
659.291	4569
659.346	1592
659.401	2440
659.457	4355
659.512	4903
659.567	2946
659.622	1397
659.677	544
659.732	241
659.787	797
659.842	1288
659.897	1966
659.952	1349
660.007	1062
660.061	907
660.116	113
660.171	916
660.226	1804
660.281	1867
660.336	571
660.391	771
660.445	1097
660.500	1470
660.555	738
660.610	1118
660.664	1130
660.719	1231
660.774	858
660.828	1086
660.883	377
660.938	1119
660.992	18
661.047	1218
661.101	655
661.156	800
661.211	-270
661.265	1041
661.320	908
661.374	1156
661.429	965
661.483	1478
661.538	-27
661.592	1359
661.647	566
661.701	63
661.755	537
661.810	801
661.864	84
661.919	13
661.973	1374
662.027	334
662.081	318
662.136	497
662.190	1346
662.244	1255
662.299	472
662.353	1528
662.407	582
662.461	876
662.515	1506
662.569	624
662.624	1646
662.678	432
662.732	805
662.786	1236
662.840	824
662.894	1148
662.948	696
663.002	585
663.056	929
663.110	706
663.164	157
663.218	1066
663.272	479
663.326	1395
663.380	1060
663.434	1155
663.488	131
663.542	1560
663.595	161
663.649	74
663.703	1364
663.757	632
663.811	96
663.864	728
663.918	401
663.972	1290
664.026	256
664.079	921
664.133	1812
664.187	2049
664.240	5
664.294	954
664.348	1472
664.401	1341
664.455	387
664.508	502
664.562	156
664.615	310
664.669	-72
664.722	1042
664.776	518
664.829	705
664.883	236
664.936	1149
664.990	664
665.043	1118
665.097	159
665.150	1390
665.203	788
665.257	1112
665.310	1134
665.363	831
665.417	960
665.470	1056
665.523	459
665.576	884
665.630	713
665.683	794
665.736	839
665.789	1073
665.842	-76
665.895	1718
665.949	414
666.002	1395
666.055	464
666.108	1713
666.161	105
666.214	1738
666.267	1476
666.320	1804
666.373	1280
666.426	1323
666.479	114
666.532	191
666.585	1432
666.638	1212
666.691	1512
666.744	1726
666.796	577
666.849	1387
666.902	1937
666.955	1132
667.008	326
667.060	857
667.113	-163
667.166	1337
667.219	1320
667.271	917
667.324	648
667.377	1160
667.430	1099
667.482	2417
667.535	2604
667.587	619
667.640	746
667.693	1705
667.745	2947
667.798	3944
667.850	1383
667.903	776
667.955	545
668.008	729
668.060	2151
668.113	529
668.165	1495
668.218	1100
668.270	1211
668.322	1527
668.375	1093
668.427	1328
668.479	299
668.532	1702
668.584	1852
668.636	1565
668.689	952
668.741	1124
668.793	967
668.845	431
668.898	1956
668.950	518
669.002	870
669.054	759
669.106	795
669.158	1012
669.211	979
669.263	1226
669.315	2754
669.367	3153
669.419	966
669.471	1882
669.523	2121
669.575	2913
669.627	1912
669.679	835
669.731	844
669.783	1984
669.835	1592
669.886	1446
669.938	898
669.990	1247
670.042	224
670.094	1579
670.146	1827
670.197	2329
670.249	3027
670.301	3804
670.353	5380
670.404	8271
670.456	10794
670.508	19008
670.560	31624
670.611	54938
670.663	96096
670.715	219205
670.766	340402
670.818	127122
670.869	24377
670.921	11494
670.972	7321
671.024	4980
671.075	4156
671.127	3531
671.178	2398
671.230	2647
671.281	2608
671.333	2487
671.384	1186
671.436	1765
671.487	1785
671.538	1928
671.590	2316
671.641	2372
671.692	2237
671.744	3310
671.795	2472
671.846	1675
671.897	1394
671.949	1416
672.000	788
672.051	1272
672.102	2369
672.153	1127
672.204	902
672.256	872
672.307	968
672.358	1459
672.409	1901
672.460	1839
672.511	1267
672.562	835
672.613	440
672.664	1276
672.715	1259
672.766	1471
672.817	619
672.868	628
672.919	964
672.970	724
673.021	1206
673.071	150
673.122	899
673.173	792
673.224	849
673.275	693
673.326	1132
673.376	879
673.427	147
673.478	1067
673.528	1809
673.579	1071
673.630	1234
673.680	1350
673.731	249
673.782	729
673.832	524
673.883	553
673.934	227
673.984	1377
674.035	1215
674.085	687
674.136	946
674.186	912
674.237	1687
674.287	1810
674.338	553
674.388	438
674.438	-96
674.489	704
674.539	1526
674.589	497
674.640	918
674.690	1440
674.740	447
674.791	1703
674.841	582
674.891	1047
674.942	1258
674.992	516
675.042	352
675.092	279
675.142	-354
675.193	608
675.243	601
675.293	943
675.343	102
675.393	724
675.443	721
675.493	355
675.543	452
675.593	753
675.643	484
675.693	335
675.743	226
675.793	846
675.843	314
675.893	521
675.943	1410
675.993	1150
676.043	249
676.093	648
676.142	893
676.192	647
676.242	-98
676.292	278
676.341	520
676.391	-155
676.441	-312
676.491	493
676.540	-16
676.590	153
676.640	134
676.689	594
676.739	373
676.789	1169
676.838	191
676.888	640
676.937	-365
676.987	-99
677.037	-204
677.086	-416
677.136	1006
677.185	266
677.235	179
677.284	474
677.333	54
677.383	313
677.432	747
677.482	-351
677.531	62
677.580	-709
677.630	671
677.679	-19
677.728	311
677.778	232
677.827	-54
677.876	99
677.925	495
677.975	-83
678.024	-162
678.073	980
678.122	496
678.171	699
678.220	367
678.269	842
678.319	451
678.368	818
678.417	420
678.466	780
678.515	777
678.564	547
678.613	805
678.662	1042
678.711	-44
678.760	759
678.809	-4
678.857	-463
678.906	779
678.955	228
679.004	505
679.053	179
679.102	251
679.151	685
679.199	305
679.248	-117
679.297	423
679.346	538
679.394	458
679.443	435
679.492	218
679.540	1055
679.589	747
679.638	719
679.686	-63
679.735	227
679.784	-5
679.832	884
679.881	-16
679.929	211
679.978	476
680.026	-112
680.075	-198
680.123	-12
680.172	-231
680.220	844
680.268	720
680.317	-438
680.365	116
680.414	257
680.462	-13
680.510	712
680.559	-762
680.607	267
680.655	196
680.703	317
680.752	450
680.800	-290
680.848	-650
680.896	-81
680.945	-391
680.993	-744
681.041	-580
681.089	980
681.137	-385
681.185	-308
681.233	311
681.258	240
681.281	161
681.329	-121
681.377	374
681.380	361
681.425	-118
681.473	737
681.502	169
681.521	-249
681.569	478
681.617	-496
681.624	-435
681.665	-139
681.713	577
681.745	696
681.761	739
681.809	-272
681.857	939
681.867	743
681.904	14
681.952	410
681.989	9
682.000	-124
682.048	602
682.096	404
682.111	341
682.143	153
682.191	531
682.233	1065
682.239	1135
682.286	397
682.334	-393
682.354	-46
682.382	386
682.430	787
682.476	421
682.477	402
682.525	245
682.572	277
682.598	631
682.620	950
682.667	47
682.715	792
682.720	760
682.763	273
682.810	429
682.841	276
682.857	195
682.905	271
682.952	554
682.963	677
683.000	1068
683.047	767
683.085	1298
683.095	1431
683.142	696
683.190	745
683.206	680
683.237	540
683.284	1237
683.328	528
683.332	452
683.379	1289
683.426	726
683.449	751
683.473	825
683.521	1166
683.568	1316
683.571	1332
683.615	1340
683.662	984
683.693	961
683.709	922
683.757	1192
683.804	1800
683.814	1585
683.851	818
683.898	1265
683.936	1207
683.945	1184
683.992	972
684.039	730
684.057	902
684.086	1129
684.133	1121
684.179	1179
684.180	1176
684.227	1859
684.274	2443
684.300	2269
684.321	2073
684.368	855
684.415	1871
684.422	1781
684.462	1245
684.509	1578
684.543	1419
684.556	1333
684.603	1075
684.649	1459
684.665	1522
684.696	1703
684.743	1605
684.786	1458
684.790	1434
684.837	1739
684.883	1921
684.908	2247
684.930	2566
684.977	1896
685.023	1467
685.029	1446
685.070	1179
685.117	1472
685.150	1861
685.164	2001
685.210	1766
685.257	2343
685.272	2344
685.303	2286
685.350	1598
685.393	1533
685.396	1535
685.443	1576
685.490	2236
685.514	2198
685.536	2128
685.583	1426
685.629	2264
685.636	2285
685.675	2405
685.722	2117
685.757	1901
685.768	1817
685.815	2285
685.861	2357
685.878	2319
685.908	2192
685.954	2136
686.000	2274
686.000	2277
686.047	2364
686.093	2963
686.121	2930
686.139	2781
686.185	2590
686.232	2325
686.242	2277
686.278	2099
686.324	2361
686.363	1821
686.370	1761
686.416	2497
686.463	2628
686.484	2824
686.509	2955
686.555	2789
686.601	2892
686.606	2870
686.647	2701
686.693	2740
686.727	3076
686.739	3178
686.785	2560
686.831	2674
686.848	2664
686.877	2661
686.923	2436
686.969	2637
686.969	2637
687.015	2021
687.061	2529
687.090	2326
687.107	2216
687.153	2599
687.199	2886
687.211	2804
687.245	2636
687.291	3181
687.332	3060
687.336	3039
687.382	3639
687.428	3396
687.453	3376
687.474	3256
687.520	2579
687.565	2485
687.574	2455
687.611	2623
687.657	2980
687.695	2833
687.702	2800
687.748	3011
687.794	2815
687.816	3110
687.839	3358
687.885	3201
687.931	2736
687.937	2722
687.976	2721
688.022	2716
688.058	2687
688.067	2685
688.113	3147
688.158	3171
688.179	3261
688.204	3311
688.249	3448
688.295	3166
688.300	3136
688.340	3116
688.386	3522
688.421	3875
688.431	3932
688.477	3419
688.522	3266
688.542	3270
688.567	3322
688.613	3151
688.658	3374
688.663	3411
688.703	3727
688.749	3202
688.784	3437
688.794	3515
688.839	3130
688.884	3914
688.905	3981
688.930	3994
688.975	3731
689.020	3420
689.026	3420
689.065	3633
689.110	3964
689.146	3931
689.155	3900
689.201	3939
689.246	3657
689.267	3683
689.291	3651
689.336	3283
689.381	2629
689.388	2657
689.426	3150
689.471	3440
689.509	3866
689.516	3940
689.561	3992
689.606	4162
689.630	4260
689.651	4197
689.696	3600
689.741	4257
689.750	4061
689.785	3620
689.830	4029
689.871	3893
689.875	3872
689.920	3830
689.965	3840
689.992	4042
690.010	4256
690.054	4065
690.099	4350
690.112	4369
690.144	4341
690.189	4338
690.233	3887
690.233	3893
690.278	4407
690.323	4240
690.354	4640
690.367	4821
690.412	4834
690.457	5030
690.474	4920
690.501	4812
690.546	5125
690.590	5117
690.595	5099
690.635	5349
690.680	6584
690.716	6841
690.724	6977
690.769	7740
690.813	9312
690.836	9496
690.857	10760
690.902	14329
690.946	18225
690.957	19210
690.991	27314
691.035	38094
691.077	49706
691.080	49879
691.124	47556
691.168	44645
691.198	43268
691.213	39830
691.257	29712
691.301	20114
691.318	16480
691.346	14754
691.390	11764
691.434	8871
691.439	8487
691.478	7609
691.522	7139
691.559	6679
691.567	6659
691.611	6291
691.655	5738
691.680	5485
691.699	5398
691.743	5620
691.787	5581
691.800	5488
691.831	5375
691.875	5567
691.919	5679
691.921	5658
691.964	5246
692.008	5693
692.041	5368
692.052	5362
692.096	5105
692.139	5903
692.162	5808
692.183	5596
692.227	5723
692.271	5752
692.282	5665
692.315	5525
692.359	5258
692.402	5658
692.403	5676
692.447	5864
692.490	5931
692.523	5935
692.534	5929
692.578	6071
692.622	5615
692.643	5822
692.666	6055
692.709	5496
692.753	5601
692.763	5634
692.797	5995
692.840	6198
692.884	6213
692.884	6228
692.928	6480
692.971	6511
693.004	6761
693.015	6791
693.059	6704
693.102	6459
693.124	6315
693.146	6451
693.189	6664
693.233	7018
693.245	7123
693.276	7586
693.320	8232
693.363	8768
693.365	8776
693.407	9925
693.450	10752
693.485	11615
693.493	12196
693.537	14833
693.580	17808
693.605	19671
693.624	22994
693.667	30189
693.710	38048
693.725	40995
693.753	56604
693.797	81453
693.840	106960
693.845	109441
693.883	105912
693.926	100696
693.966	96631
693.970	94535
694.013	71159
694.056	48615
694.086	32797
694.099	30845
694.142	24435
694.185	18290
694.206	15393
694.229	14818
694.272	13435
694.315	12025
694.326	11640
694.358	10951
694.401	10256
694.444	9319
694.446	9249
694.487	8759
694.530	8172
694.566	8051
694.573	8078
694.616	7490
694.659	7398
694.686	7077
694.702	6947
694.745	6896
694.787	6351
694.806	6263
694.830	6379
694.873	6582
694.916	6717
694.926	6678
694.959	6469
695.002	6391
695.044	6153
695.046	6137
695.087	6238
695.130	6079
695.166	6108
695.172	6180
695.215	6421
695.258	6529
695.286	6680
695.301	6693
695.343	6634
695.386	6675
695.406	6619
695.428	6587
695.471	6604
695.514	6482
695.526	6415
695.556	6381
695.599	6503
695.641	6578
695.646	6573
695.684	6475
695.726	6193
695.766	5989
695.769	6002
695.811	5881
695.854	5781
695.886	5666
695.896	5682
695.938	5780
695.981	5735
696.005	5735
696.023	5848
696.065	6024
696.108	6380
696.125	6427
696.150	6363
696.192	6310
696.235	6245
696.245	6194
696.277	6322
696.319	6509
696.361	6731
696.365	6737
696.404	7071
696.446	7247
696.485	7334
696.488	7335
696.530	7242
696.572	7041
696.604	6899
696.614	6917
696.656	6855
696.698	6784
696.724	6732
696.740	6688
696.783	6549
696.825	6502
696.844	6390
696.867	6338
696.909	6217
696.951	6007
696.964	6016
696.992	6117
697.034	5947
697.076	5868
697.083	5839
697.118	5983
697.160	6140
697.202	6343
697.203	6327
697.244	6151
697.286	6084
697.323	5881
697.327	5906
697.369	6034
697.411	6118
697.442	6314
697.453	6413
697.494	6502
697.536	6678
697.562	6767
697.578	6759
697.620	6711
697.661	6645
697.682	6576
697.703	6531
697.744	6351
697.786	6337
697.801	6268
697.828	6382
697.869	6540
697.911	6735
697.921	6751
697.952	6841
697.994	6986
698.035	7099
698.040	7089
698.077	6792
698.118	6452
698.160	6073
698.160	6050
698.201	6007
698.243	5915
698.279	5850
698.284	5890
698.325	6087
698.367	6232
698.399	6320
698.408	6352
698.449	6452
698.491	6478
698.518	6524
698.532	6558
698.573	6557
698.614	6567
698.638	6541
698.656	6619
698.697	6776
698.738	6922
698.757	6965
698.779	6750
698.820	6305
698.862	5860
698.877	5680
698.903	6002
698.944	6477
698.985	6955
698.996	7068
699.026	6809
699.067	6423
699.116	5944
699.235	7256
699.354	6038
699.474	7318
699.593	6634
699.713	6898
699.832	6472
699.951	6597
700.070	6844
700.190	5740
700.309	6936
700.428	6775
700.547	7295
700.667	6386
700.786	5968
700.905	6432
701.024	6697
701.143	6563
701.262	5744
701.381	6024
701.500	5741
701.619	6613
701.738	6208
701.857	6969
701.976	5737
702.095	5943
702.214	6168
702.333	5787
702.452	5806
702.571	6668
702.690	5926
702.809	5701
702.928	5993
703.047	6054
703.165	5415
703.284	6529
703.403	5573
703.522	6176
703.640	5897
703.759	6518
703.878	6880
703.997	6634
704.115	5618
704.234	5950
704.353	5642
704.471	5487
704.590	5536
704.708	5570
704.827	5445
704.946	5403
705.064	5949
705.183	5489
705.301	7227
705.420	8642
705.538	7385
705.656	7385
705.775	8580
705.893	20091
706.012	30273
706.130	8274
706.249	7442
706.367	7220
706.485	6816
706.604	6128
706.722	6862
706.840	7377
706.958	7220
707.077	6786
707.195	6298
707.313	7099
707.431	6326
707.549	6406
707.668	6605
707.786	6467
707.904	5666
708.022	5518
708.140	6104
708.258	6551
708.376	6224
708.494	6187
708.612	6174
708.730	7037
708.848	7873
708.966	6772
709.084	7138
709.202	6637
709.320	7490
709.438	6398
709.556	6888
709.674	6277
709.791	7617
709.909	7592
710.027	7048
710.145	7247
710.263	7728
710.380	6692
710.498	6008
710.616	6974
710.733	6651
710.851	7006
710.969	6666
711.086	7262
711.204	6301
711.322	6676
711.439	6498
711.557	6299
711.674	5959
711.792	6961
711.909	8408
712.027	10223
712.144	6801
712.262	6682
712.379	7345
712.497	9035
712.614	8819
712.732	8251
712.849	7550
712.966	9043
713.084	8723
713.201	7335
713.318	7429
713.436	7683
713.553	7438
713.670	7378
713.787	7853
713.905	6951
714.022	7584
714.139	7173
714.256	7287
714.373	8348
714.490	7937
714.608	9415
714.725	16912
714.842	19207
714.959	7128
715.076	6875
715.193	6539
715.310	6821
715.427	6779
715.544	6787
715.661	6482
715.778	7458
715.895	7308
716.011	6993
716.128	7049
716.245	7154
716.362	7368
716.479	7384
716.596	6694
716.713	6663
716.829	5780
716.946	6881
717.063	6182
717.180	5819
717.296	6332
717.413	6581
717.530	6407
717.646	5428
717.763	6448
717.880	5938
717.996	5328
718.113	6677
718.229	4893
718.346	6096
718.462	5445
718.579	6270
718.695	7359
718.812	7649
718.928	6823
719.045	6506
719.161	5402
719.277	6652
719.394	6144
719.510	6460
719.626	6091
719.743	6374
719.859	5925
719.975	6342
720.092	7812
720.208	11173
720.324	6989
720.440	5786
720.557	6220
720.673	7858
720.789	7475
720.905	13947
721.021	7666
721.137	5540
721.253	4801
721.369	4499
721.486	5909
721.602	7422
721.718	5659
721.834	4510
721.950	5970
722.066	4921
722.181	5507
722.297	5355
722.413	5681
722.529	5676
722.645	5072
722.761	5361
722.877	4895
722.993	5509
723.108	4567
723.224	5068
723.340	5113
723.456	5078
723.571	4216
723.687	4690
723.803	4442
723.918	4578
724.034	5037
724.150	4864
724.265	4608
724.381	6594
724.497	8144
724.612	4651
724.728	4993
724.843	4874
724.959	4788
725.074	6570
725.190	7717
725.305	5559
725.421	5195
725.536	3696
725.651	5370
725.767	3714
725.882	4732
725.997	4644
726.113	4364
726.228	4890
726.343	4036
726.459	4223
726.574	4643
726.689	4493
726.804	3790
726.920	3966
727.035	4452
727.150	4376
727.265	4107
727.380	3987
727.495	3827
727.610	4010
727.725	4737
727.841	5688
727.956	13887
728.071	10784
728.186	3793
728.301	3040
728.416	4194
728.531	4523
728.645	3420
728.760	3585
728.875	3716
728.990	3962
729.105	3339
729.220	4216
729.335	4095
729.449	3848
729.564	3089
729.679	3425
729.794	3137
729.908	3738
730.023	3987
730.138	3578
730.253	4408
730.367	3638
730.482	3967
730.596	3960
730.711	3423
730.826	3566
730.940	3612
731.055	3319
731.169	2980
731.284	3492
731.398	2731
731.513	3873
731.627	3342
731.742	3671
731.856	3211
731.970	3644
732.085	2649
732.199	2661
732.313	3721
732.428	4598
732.542	5194
732.656	5096
732.771	3972
732.885	3344
732.999	3777
733.113	3535
733.227	4011
733.342	3580
733.456	3202
733.570	3827
733.684	3110
733.798	3695
733.912	3248
734.026	2868
734.140	2798
734.254	3693
734.368	4396
734.482	5911
734.596	3480
734.710	3461
734.824	4049
734.938	3764
735.052	2815
735.166	3030
735.280	3024
735.393	3111
735.507	2689
735.621	3916
735.735	4683
735.849	3386
735.962	2805
736.076	3603
736.190	3448
736.303	4086
736.417	3707
736.531	2609
736.644	2481
736.758	2678
736.872	2662
736.985	3386
737.099	2929
737.212	2838
737.326	2950
737.439	3127
737.553	3156
737.666	3578
737.780	2700
737.893	3037
738.007	2939
738.120	2969
738.233	3380
738.347	3912
738.460	2905
738.573	2367
738.687	2652
738.800	3382
738.913	3706
739.026	3390
739.140	3361
739.253	3596
739.366	3295
739.479	2820
739.592	2439
739.705	3501
739.818	2934
739.932	2497
740.045	3034
740.158	2525
740.271	3609
740.384	3560
740.497	2565
740.610	3956
740.723	3333
740.836	3008
740.949	3442
741.062	3786
741.174	3750
741.287	3112
741.400	3087
741.513	3113
741.626	3259
741.739	3025
741.851	2667
741.964	3212
742.077	2029
742.189	2977
742.302	2732
742.415	2913
742.527	2899
742.640	2846
742.753	2672
742.865	3101
742.978	3426
743.090	3316
743.203	2807
743.316	2940
743.428	2508
743.541	2854
743.653	2224
743.766	2467
743.878	3587
743.990	2846
744.103	3665
744.215	3129
744.327	2556
744.440	2888
744.552	3698
744.664	2973
744.777	2506
744.889	2423
745.001	2946
745.113	2447
745.226	3485
745.338	3307
745.450	2956
745.562	3981
745.674	3002
745.786	3057
745.898	3352
746.010	3132
746.122	3002
746.234	3280
746.347	2793
746.459	3335
746.570	3280
746.682	2681
746.794	3292
746.906	2620
747.018	2561
747.130	3370
747.242	2538
747.354	2862
747.466	3333
747.577	2542
747.689	3216
747.801	3036
747.913	3559
748.024	2359
748.136	2453
748.248	3444
748.359	2801
748.471	3047
748.583	3061
748.694	3735
748.806	4257
748.918	3014
749.029	3198
749.141	3193
749.252	3535
749.364	2821
749.475	4704
749.587	3341
749.698	2558
749.809	3434
749.921	2977
750.032	3383
750.144	2628
750.255	2276
750.366	2749
750.478	3184
750.589	3093
750.700	2884
750.811	2892
750.923	4393
751.034	4293
751.145	5423
751.256	3126
751.367	3314
751.479	2915
751.590	3299
751.701	3073
751.812	2924
751.923	3363
752.034	3779
752.145	3301
752.256	2953
752.367	3224
752.478	3826
752.589	3772
752.700	3522
752.811	2804
752.922	3591
753.032	3117
753.143	3708
753.254	2506
753.365	3655
753.476	3661
753.586	3884
753.697	3641
753.808	3172
753.919	3436
754.029	3820
754.140	4337
754.251	3366
754.361	3568
754.472	3647
754.582	3773
754.693	4149
754.804	4465
754.914	3120
755.025	3019
755.135	3625
755.246	2884
755.356	3790
755.466	3749
755.577	3579
755.687	3155
755.798	3931
755.908	3839
756.018	3323
756.129	4010
756.239	3574
756.349	4464
756.460	4014
756.570	4003
756.680	3475
756.790	3702
756.900	4729
757.011	3787
757.121	4316
757.231	4264
757.341	4826
757.451	4600
757.561	3819
757.671	4158
757.781	4502
757.891	4874
758.001	4394
758.111	5133
758.221	4261
758.331	4720
758.441	5493
758.551	5117
758.661	5662
758.771	5437
758.880	5357
758.990	4567
759.100	5486
759.210	6262
759.320	5517
759.429	5264
759.539	6197
759.649	5741
759.758	5534
759.868	5808
759.978	6068
760.087	6460
760.197	7113
760.307	7167
760.416	6395
760.526	6073
760.635	6334
760.745	7678
760.854	8111
760.964	7426
761.073	7835
761.182	8504
761.292	8541
761.401	8151
761.511	8856
761.620	8695
761.729	9347
761.839	9388
761.948	9844
762.057	10068
762.166	10457
762.276	10733
762.385	12528
762.494	11664
762.603	11472
762.712	12889
762.822	13774
762.931	12964
763.040	13660
763.149	14607
763.258	15633
763.367	15418
763.476	17372
763.585	17867
763.694	18696
763.803	19800
763.912	20421
764.021	22100
764.130	24347
764.238	25516
764.347	27414
764.456	28989
764.565	32238
764.674	35489
764.783	38165
764.891	42255
765.000	48640
765.109	54379
765.217	62637
765.326	72788
765.435	86634
765.543	104009
765.652	127804
765.761	162504
765.869	210874
765.978	280958
766.086	380373
766.195	502092
766.303	589981
766.412	452116
766.520	441504
766.629	570155
766.737	482381
766.846	360710
766.954	266563
767.062	201783
767.171	159541
767.279	125087
767.387	100312
767.496	83664
767.604	70517
767.712	62070
767.820	56474
767.928	51462
768.037	46773
768.145	44656
768.253	42750
768.361	40494
768.469	41016
768.577	41650
768.685	42696
768.793	46313
768.901	50955
769.009	58274
769.117	71486
769.225	91940
769.333	123067
769.441	177566
769.549	265506
769.657	410714
769.765	523964
769.873	419307
769.981	493367
770.088	404386
770.196	269153
770.304	184725
770.412	135440
770.519	102602
770.627	82945
770.735	67071
770.842	56755
770.950	49128
771.058	41609
771.165	37015
771.273	32996
771.380	31144
771.488	27420
771.595	25259
771.703	23168
771.810	21942
771.918	19813
772.025	18749
772.133	17845
772.240	16609
772.348	15366
772.455	14528
772.562	13701
772.670	13598
772.777	12629
772.884	12323
772.991	11273
773.099	11081
773.206	10454
773.313	10885
773.420	10411
773.528	9024
773.635	9511
773.742	9033
773.849	8636
773.956	8519
774.063	8105
774.170	8048
774.277	6915
774.384	7965
774.491	7336
774.598	6860
774.705	7368
774.812	7699
774.919	6921
775.026	6416
775.133	7156
775.239	6350
775.346	5750
775.453	5336
775.560	6096
775.667	5936
775.773	4123
775.880	5676
775.987	5783
776.093	6076
776.200	5509
776.307	5292
776.413	5845
776.520	4472
776.627	4805
776.733	5512
776.840	3757
776.946	4853
777.053	4398
777.159	4033
777.266	3300
777.372	4512
777.478	4510
777.585	4117
777.691	4651
777.798	3742
777.904	4501
778.010	5072
778.117	4548
778.223	3926
778.329	3508
778.435	3631
778.542	3638
778.648	2485
778.754	3248
778.860	3475
778.966	3170
779.072	3197
779.178	4002
779.284	3460
779.391	4113
779.497	4060
779.603	6836
779.708	10090
779.815	25294
779.920	85395
780.026	156706
780.132	32760
780.238	7657
780.344	4753
780.450	5049
780.556	2833
780.661	2461
780.767	2975
780.873	2323
780.979	3269
781.085	2468
781.190	2503
781.296	2478
781.402	2015
781.507	2030
781.613	2308
781.719	1425
781.824	2976
781.930	2291
782.035	1511
782.141	2647
782.246	1339
782.352	1627
782.457	1886
782.563	2289
782.668	1715
782.773	2084
782.879	1076
782.984	2041
783.090	2424
783.195	2425
783.300	2176
783.405	2508
783.511	1338
783.616	2066
783.721	1801
783.826	2276
783.932	2448
784.037	2089
784.142	1172
784.247	1458
784.352	1490
784.457	1112
784.562	498
784.667	1799
784.772	1253
784.877	1329
784.982	1516
785.087	1613
785.192	1549
785.297	991
785.402	1190
785.507	1210
785.611	1795
785.716	1525
785.821	1117
785.926	793
786.031	921
786.135	1363
786.240	874
786.345	507
786.450	1976
786.554	1035
786.659	463
786.763	117
786.868	1442
786.973	1844
787.077	583
787.182	1046
787.286	1549
787.391	1045
787.495	1428
787.600	978
787.704	435
787.809	1144
787.913	-82
788.017	1624
788.122	1565
788.226	1391
788.330	314
788.435	1489
788.539	1465
788.643	1031
788.747	653
788.852	1296
788.956	1150
789.060	1234
789.164	799
789.268	1142
789.372	478
789.476	-335
789.580	565
789.684	799
789.788	722
789.892	748
789.996	1326
790.100	279
790.204	992
790.308	346
790.412	301
790.516	220
790.620	1256
790.724	643
790.828	784
790.931	762
791.035	1420
791.139	1166
791.242	-573
791.346	640
791.450	479
791.554	23
791.657	-558
791.761	1021
791.864	699
791.968	986
792.072	267
792.175	972
792.279	149
792.382	460
792.486	682
792.589	347
792.693	764
792.796	15
792.899	744
793.003	1033
793.106	-998
793.209	245
793.313	1935
793.416	-509
793.519	511
793.623	525
793.726	841
793.829	741
793.932	962
794.035	-569
794.138	2042
794.242	1181
794.345	2132
794.448	5386
794.551	13559
794.654	49178
794.757	97924
794.860	20331
794.963	3396
795.066	1808
795.169	2001
795.272	166
795.375	1335
795.477	772
795.580	836
795.683	-26
795.786	278
795.889	-279
795.991	1340
796.094	1353
796.197	-583
796.300	911
796.402	173
796.505	20
796.608	305
796.710	207
796.813	416
796.915	517
797.018	394
797.120	831
797.223	-794
797.326	335
797.428	-510
797.530	-199
797.633	703
797.735	892
797.838	-58
797.940	550
798.042	-516
798.145	-398
798.247	250
798.349	-864
798.452	98
798.554	164
798.656	-886
798.758	-60
798.860	198
798.962	-149
799.065	-34
799.167	25
799.269	1543
799.371	30
799.473	1
799.575	-224
799.677	363
799.779	1132
799.881	-1182
799.983	-309
800.085	-269
800.187	-68
800.289	-268
800.390	-165
800.492	12
800.594	775
800.696	-216
800.798	-269
800.899	82
801.001	221
801.103	258
801.205	68
801.306	362
801.408	-144
801.509	134
801.611	613
801.713	394
801.814	-736
801.916	-833
802.017	44
802.119	-1116
802.220	239
802.322	-1335
802.423	1217
802.525	-929
802.626	145
802.727	-408
802.829	220
802.930	-1743
803.031	876
803.133	-1323
803.234	-786
803.335	-227
803.436	-527
803.538	287
803.639	-1455
803.740	-340
803.841	-50
803.942	-320
804.043	267
804.144	-968
804.245	69
804.346	-666
804.447	-273
804.548	363
804.649	864
804.750	166
804.851	-519
804.952	-625
805.053	-330
805.154	-1594
805.255	567
805.355	-411
805.456	-450
805.557	-567
805.658	-193
805.758	43
805.859	-515
805.960	-131
806.061	-1026
806.161	-605
806.262	-162
806.362	-808
806.463	-622
806.564	91
806.664	-218
806.765	-544
806.865	259
806.966	-903
807.066	-471
807.166	129
807.267	379
807.367	-787
807.468	557
807.568	-1547
807.668	429
807.769	-244
807.869	-607
807.969	-743
808.069	-665
808.170	-236
808.270	-492
808.370	-400
808.470	-656
808.570	-1162
808.670	-432
808.770	-115
808.870	-759
808.970	370
809.070	-205
809.170	-1077
809.271	-136
809.370	-524
809.470	-181
809.570	-290
809.670	-997
809.770	-624
809.870	-5
809.970	-931
810.070	-521
810.169	-398
810.269	-1114
810.369	31
810.469	-558
810.568	-1393
810.668	-249
810.768	-1158
810.867	-699
810.967	-1059
811.066	-400
811.166	-690
811.265	435
811.365	-306
811.464	31
811.564	-137
811.663	-57
811.763	-1918
811.862	-292
811.962	201
812.061	-422
812.160	-924
812.260	-190
812.359	71
812.458	-382
812.557	1116
812.657	1529
812.756	45
812.855	-51
812.954	-458
813.053	-509
813.153	-1260
813.252	-675
813.351	-427
813.450	-335
813.549	-1338
813.648	366
813.747	-350
813.846	-642
813.945	-275
814.044	-800
814.143	-108
814.242	683
814.341	-758
814.439	-450
814.538	-179
814.637	-253
814.736	-596
814.835	-65
814.933	-385
815.032	184
815.131	-425
815.229	-425
815.328	261
815.427	314
815.525	150
815.624	48
815.722	-191
815.821	-536
815.919	-1089
816.018	-295
816.116	555
816.215	363
816.313	-472
816.412	-87
816.510	-356
816.609	877
816.707	382
816.805	828
816.904	86
817.002	433
817.100	1240
817.198	1093
817.296	420
817.395	1341
817.493	2355
817.591	1276
817.689	3367
817.787	5682
817.885	9225
817.983	17813
818.081	35775
818.179	82839
818.277	190939
818.375	190903
818.473	68209
818.571	25655
818.669	15541
818.767	12478
818.865	11391
818.963	14075
819.061	19135
819.158	35496
819.256	70428
819.354	149122
819.452	282247
819.549	222810
819.647	88378
819.745	36115
819.842	20480
819.940	13230
820.038	9319
820.135	6583
820.233	6075
820.330	2921
820.428	2562
820.525	3043
820.623	1410
820.720	779
820.818	1244
820.915	1462
821.012	746
821.110	33
821.207	603
821.304	218
821.402	407
821.499	836
821.596	493
821.693	289
821.791	-132
821.888	637
821.985	896
822.082	-299
822.179	546
822.276	-334
822.373	-65
822.470	-829
822.567	-45
822.664	-443
822.761	-397
822.858	-854
822.955	-739
823.052	-567
823.149	-671
823.246	358
823.343	-1089
823.440	-247
823.536	-1066
823.633	-588
823.730	-79
823.827	-573
823.923	-542
824.020	1283
824.117	-1253
824.213	-986
824.310	-373
824.407	343
824.503	104
824.600	-26
824.696	-469
824.793	-401
824.889	-1014
824.986	-530
825.082	-980
825.179	-379
825.275	-1261
825.371	-1178
825.468	-252
825.564	-1955
825.660	-410
825.757	-406
825.853	270
825.949	-1840
826.045	-1158
826.142	-889
826.238	-1096
826.334	-485
826.430	-1726
826.526	-383
826.622	-1392
826.718	-526
826.814	-1302
826.910	-44
827.006	-796
827.102	-2018
827.198	-551
827.294	-1198
827.390	-547
827.486	-119
827.582	-1805
827.678	-787
827.774	-616
827.869	-1543
827.965	253
828.061	-991
828.157	-730
828.252	-822
828.348	-1532
828.444	-208
828.539	-1315
828.635	-836
828.731	-699
828.826	-1823
828.922	-1415
829.017	-767
829.113	-998
829.208	-1213
829.304	-1081
829.399	-137
829.495	-1283
829.590	-965
829.685	-1485
829.781	-813
829.876	-1593
829.971	-1207
830.066	-1064
830.162	-868
830.257	-1073
830.352	-602
830.447	-317
830.543	-677
830.638	-2039
830.733	-297
830.828	-1325
830.923	-597
831.018	-611
831.113	-1367
831.208	-1257
831.303	-911
831.398	-782
831.493	-1268
831.588	-496
831.683	-1365
831.778	-1218
831.873	-891
831.967	-882
832.062	-1691
832.157	-1451
832.252	220
832.346	-1494
832.441	-331
832.536	-209
832.631	311
832.725	599
832.820	-1713
832.914	-1266
833.009	-1111
833.104	-778
833.198	-825
833.293	-1414
833.387	-857
833.482	-813
833.576	-1930
833.670	-539
833.765	-1520
833.859	-1790
833.954	-1064
834.048	-1161
834.142	-1104
834.237	-1870
834.331	-1179
834.425	-859
834.519	-1031
834.613	-51
834.708	-1834
834.802	-268
834.896	-1289
834.990	-1515
835.084	-1097
835.178	-1969
835.272	-1252
835.366	-2403
835.460	-1114
835.554	-1422
835.648	-823
835.742	-1536
835.836	-502
835.930	-2432
836.024	46
836.117	-1253
836.211	-1193
836.305	-1318
836.399	-419
836.493	-1663
836.586	42
836.680	-1756
836.774	-1608
836.867	-373
836.961	-1527
837.055	-943
837.148	-724
837.242	-800
837.335	-1592
837.429	-1204
837.522	-1594
837.616	-1770
837.709	-81
837.803	-1302
837.896	-535
837.989	-1141
838.083	-493
838.176	-697
838.269	-194
838.363	-832
838.456	-955
838.549	-438
838.642	-195
838.735	485
838.829	88
838.922	-1623
839.015	-742
839.108	-1663
839.201	-842
839.294	-1161
839.387	-1036
839.480	-1060
839.573	-811
839.666	-466
839.759	-1666
839.852	-2030
839.945	-682
840.038	-1570
840.131	-722
840.223	-1796
840.316	-962
840.409	-1659
840.502	-2181
840.594	-540
840.687	-1174
840.780	-1444
840.873	-1085
840.965	-1060
841.058	-636
841.150	-491
841.243	-2196
841.336	-89
841.428	-104
841.521	-762
841.613	-1429
841.706	-1120
841.798	-1487
841.890	-689
841.983	-2331
842.075	-1052
842.167	-1079
842.260	-1660
842.352	-829
842.444	-1583
842.537	-640
842.629	500
842.721	-612
842.813	-1701
842.905	-1782
842.997	-802
843.090	-1939
843.182	-746
843.274	-829
843.366	1207
843.458	2436
843.550	1664
843.642	-1061
843.734	-1014
843.826	-962
843.918	-878
844.009	-246
844.101	-1033
844.193	-2231
844.285	-1833
844.377	-1288
844.469	-96
844.560	-1261
844.652	-829
844.744	-542
844.835	-1307
844.927	-397
845.019	-1006
845.110	-1783
845.202	-1094
845.293	-1504
845.385	-1870
845.476	-1267
845.568	-1043
845.659	-381
845.751	-848
845.842	-1125
845.934	-981
846.025	-1649
846.116	-631
846.208	-1256
846.299	-931
846.390	-808
846.482	-625
846.573	-871
846.664	-1083
846.755	-1275
846.846	-940
846.937	-2295
847.029	-1178
847.120	-1741
847.211	-1489
847.302	-863
847.393	-1861
847.484	-642
847.575	-1023
847.666	-852
847.757	-1305
847.847	-1445
847.938	-1174
848.029	-1144
848.120	-1656
848.211	-1702
848.302	-512
848.392	-1258
848.483	-987
848.574	-1919
848.664	-1789
848.755	-919
848.846	-1453
848.936	-1237
849.027	-943
849.118	-1872
849.208	-1418
849.299	-764
849.389	-860
849.480	-1052
849.570	-1496
849.661	-1286
849.751	-1767
849.841	-401
849.932	-1856
850.022	-1250
850.112	-583
850.203	-1423
850.293	-1722
850.383	-1083
850.474	-1883
850.564	-702
850.654	-1667
850.744	-825
850.834	-1666
850.924	-1495
851.014	-1534
851.104	-1570
851.194	-1643
851.284	-938
851.374	-810
851.464	-1549
851.554	-646
851.644	-1145
851.734	-437
851.824	-692
851.914	-476
852.004	2524
852.094	1184
852.183	-618
852.273	-518
852.363	-1163
852.452	-1534
852.542	-1031
852.632	-1540
852.721	-1161
852.811	-1128
852.901	-1483
852.990	-1281
853.080	-1119
853.169	-1596
853.259	-1903
853.348	-1822
853.438	-1297
853.527	-822
853.617	-2026
853.706	-1376
853.795	-1569
853.885	-291
853.974	-734
854.063	416
854.152	1457
854.242	-852
854.331	-1242
854.420	-1670
854.509	-1218
854.598	-537
854.687	-1058
854.777	-1703
854.866	-1286
854.955	-1228
855.044	-844
855.133	-1733
855.222	-1169
855.311	-1941
855.400	-1040
855.488	-1209
855.577	-2175
855.666	-751
855.755	-950
855.844	-619
855.933	-661
856.021	-565
856.110	-1195
856.199	-2092
856.288	-1187
856.376	-2999
856.465	-1773
856.554	-1891
856.642	-2185
856.731	-1687
856.819	-74
856.908	-1196
856.996	-1714
857.085	-1859
857.173	-1432
857.262	-1069
857.350	-1310
857.438	-1324
857.527	-1387
857.615	-2115
857.703	-1306
857.792	-1370
857.880	-611
857.968	-1435
858.056	-1791
858.145	-1883
858.233	-1879
858.321	-1472
858.409	126
858.497	-2460
858.585	-1941
858.673	-1302
858.761	-1486
858.849	-1661
858.937	-1092
859.025	-1585
859.113	-1405
859.201	-2767
859.289	-818
859.377	-1360
859.465	-1317
859.552	-1133
859.640	-1899
859.728	-1525
859.816	-1477
859.903	-1945
859.991	-1530
860.079	-962
860.166	-1115
860.254	-961
860.342	-1372
860.429	-1287
860.517	-1464
860.604	-1730
860.692	-1385
860.779	-1570
860.867	-1757
860.954	-1455
861.042	-1537
861.129	-1815
861.216	-1092
861.304	-1325
861.391	-1647
861.478	-1971
861.565	-1000
861.653	-928
861.740	-1695
861.827	-1884
861.914	-1388
862.001	-1583
862.089	-1585
862.176	-1053
862.263	-1683
862.350	-1306
862.437	-1578
862.524	-1552
862.611	-1025
862.698	-1978
862.785	-1874
862.871	-1226
862.958	-1548
863.045	-2284
863.132	-1778
863.219	-1678
863.306	-2345
863.392	-801
863.479	-1200
863.566	-1289
863.652	-1511
863.739	-2220
863.826	-1481
863.912	-1336
863.999	-852
864.086	-1501
864.172	-1437
864.259	-1771
864.345	-1278
864.432	-1231
864.518	-1378
864.604	-1472
864.691	-2103
864.777	-655
864.863	-1587
864.950	-1850
865.036	-2907
865.122	-982
865.209	-1246
865.295	-2317
865.381	-1735
865.467	-1140
865.553	-803
865.639	-2150
865.726	-1729
865.812	-995
865.898	-1095
865.984	-470
866.070	10
866.156	-95
866.242	-1486
866.328	-1274
866.414	-1644
866.499	-1394
866.585	-1949
866.671	-1573
866.757	-1174
866.843	-2027
866.928	-1763
867.014	-1527
867.100	-1575
867.186	-1694
867.271	-1534
867.357	-1362
867.442	-1883
867.528	-1947
867.614	-1120
867.699	-1676
867.785	-1186
867.870	-1551
867.956	-1740
868.041	-1450
868.127	-1327
868.212	-1564
868.297	-1204
868.383	-1974
868.468	-1054
868.553	-715
868.639	-1005
868.724	78
868.809	15
868.894	-1413
868.979	-1407
869.065	-1829
869.150	-1874
869.235	-1895
869.320	-1786
869.405	-1287
869.490	-1915
869.575	-1759
869.660	-816
869.745	-1617
869.830	-1641
869.915	-1804
870.000	-1487
870.085	-476
870.169	-721
870.254	-1031
870.339	-2351
870.424	-1509
870.509	-472
870.593	-1176
870.678	-901
870.763	-2518
870.847	-1262
870.932	-1894
871.016	-952
871.101	-1858
871.186	-1408
871.270	-2237
871.355	-1529
871.439	-1179
871.523	-1214
871.608	-1454
871.692	-885
871.777	-2170
871.861	-1687
871.945	-1507
872.030	-1328
872.114	-1510
872.198	-1592
872.282	-1118
872.367	-852
872.451	-2079
872.535	-1027
872.619	-1144
872.703	-2387
872.787	-1431
872.871	-1225
872.955	-1888
873.039	-1847
873.123	-2055
873.207	-1782
873.291	-1181
873.375	-1804
873.459	-2311
873.543	-2323
873.627	-2272
873.711	-1554
873.794	-1278
873.878	-1583
873.962	-1931
874.045	-1356
874.129	-1726
874.137	-1756
874.213	-2051
874.245	-1981
874.296	-1881
874.352	-2202
874.380	-2352
874.460	-1467
874.464	-1433
874.547	-2123
874.568	-1838
874.631	-992
874.676	-1526
874.714	-1968
874.784	-1575
874.798	-1497
874.881	225
874.892	16
874.965	-1456
874.999	-1431
875.048	-1374
875.107	-1739
875.131	-1900
875.215	-849
875.215	-849
875.298	-1374
875.323	-1474
875.381	-1725
875.430	-1576
875.465	-1451
875.538	-1592
875.548	-1618
875.631	-1489
875.646	-1346
875.714	-704
875.753	-953
875.798	-1227
875.861	-1532
875.881	-1594
875.964	-1027
875.968	-1045
876.047	-1524
876.076	-1310
876.130	-864
876.183	-630
876.213	-531
876.291	-1234
876.296	-1270
876.379	-1484
876.398	-1434
876.462	-1438
876.506	-1409
876.545	-1268
876.613	-1392
876.628	-1445
876.711	-1228
876.721	-1089
876.794	-33
876.828	-660
876.877	-1592
876.935	-1269
876.960	-1079
877.043	-1480
877.043	-1480
877.125	-1096
877.150	-880
877.208	-360
877.258	-758
877.291	-1051
877.365	-784
877.374	-761
877.456	-1215
877.472	-1162
877.539	-844
877.579	-826
877.622	-848
877.687	-1011
877.704	-1055
877.787	-601
877.794	-653
877.869	-1029
877.901	-752
877.952	-376
878.008	-599
878.034	-686
878.115	-1015
878.117	-1025
878.199	-827
878.222	-1110
878.282	-1465
878.329	-970
878.364	-772
878.437	-1136
878.447	-1141
878.529	-1048
878.544	-867
878.611	-328
878.651	-467
878.694	-420
878.758	-457
878.776	-491
878.858	-702
878.865	-698
878.941	-677
878.972	-361
879.023	157
879.078	-652
879.105	-1035
879.185	-186
879.187	-165
879.269	-691
879.292	-672
879.351	-655
879.399	-555
879.433	-440
879.506	-226
879.516	-183
879.598	-215
879.613	-265
879.680	-931
879.720	-955
879.762	-677
879.827	-725
879.844	-750
879.926	-969
879.933	-988
880.007	-1082
880.040	-874
880.089	-630
880.147	-43
880.171	261
880.253	155
880.254	150
880.335	-352
880.360	-243
880.417	354
880.467	268
880.499	171
880.574	782
880.580	795
880.662	393
880.680	213
880.744	-184
880.787	-278
880.825	-210
880.893	-45
880.907	-116
880.989	-86
881.000	-256
881.070	-614
881.106	-258
881.152	-15
881.213	-219
881.233	-277
881.315	-347
881.319	-356
881.396	-13
881.426	195
881.478	123
881.532	-309
881.559	-364
881.639	-151
881.641	-145
881.722	2
881.745	-77
881.803	127
881.852	410
881.885	373
881.958	62
881.966	34
882.047	-72
882.064	-12
882.129	530
882.171	663
882.210	832
882.277	838
882.291	849
882.372	830
882.383	843
882.454	-57
882.489	-424
882.535	-219
882.596	-119
882.616	-152
882.697	332
882.702	305
882.778	333
882.808	383
882.859	238
882.914	309
882.940	396
883.020	339
883.021	346
883.102	416
883.127	557
883.183	675
883.233	329
883.264	267
883.339	320
883.345	331
883.426	849
883.445	906
883.507	756
883.551	309
883.587	256
883.657	574
883.668	601
883.749	760
883.763	726
883.830	383
883.869	359
883.910	412
883.975	193
883.991	144
884.072	210
884.081	166
884.152	314
884.187	560
884.233	550
884.292	421
884.314	422
884.394	299
884.398	287
884.475	811
884.504	1039
884.555	912
884.610	559
884.636	548
884.716	666
884.716	674
884.797	522
884.821	514
884.877	655
884.927	678
884.958	654
885.033	616
885.038	650
885.118	967
885.139	1078
885.199	1210
885.244	1193
885.279	972
885.350	677
885.359	745
885.439	1068
885.456	1115
885.520	1257
885.561	1570
885.600	1431
885.667	716
885.680	696
885.760	909
885.773	894
885.840	711
885.878	634
885.920	929
885.984	1328
886.000	1355
886.080	1236
886.089	1253
886.160	1404
886.195	1317
886.240	1332
886.300	1611
886.320	1623
886.400	1227
886.406	1210
886.480	1736
886.511	1841
886.560	1775
886.616	1757
886.640	1850
886.720	2215
886.722	2209
886.800	1759
886.827	1576
886.879	1401
886.932	1177
886.959	1386
887.038	2143
887.039	2144
887.119	1156
887.143	815
887.198	1375
887.248	1959
887.278	1800
887.354	1246
887.358	1265
887.437	1416
887.459	1497
887.517	1553
887.564	1489
887.596	1581
887.669	1758
887.676	1762
887.755	1706
887.774	1668
887.835	2287
887.880	2752
887.914	2479
887.985	1781
887.994	1767
888.073	1669
888.090	1628
888.153	1425
888.195	1264
888.232	1298
888.300	1309
888.311	1338
888.391	1476
888.405	1479
888.470	1604
888.510	1723
888.549	1713
888.615	1718
888.628	1782
888.708	1985
888.720	2011
888.787	2522
888.825	2776
888.866	2563
888.930	2244
888.945	2266
889.024	2291
889.035	2283
889.103	2152
889.140	2082
889.182	2306
889.245	2584
889.261	2525
889.340	2163
889.349	2111
889.419	2345
889.454	2453
889.498	2482
889.559	2497
889.577	2373
889.656	1781
889.664	1716
889.735	2687
889.768	3138
889.814	2964
889.873	2709
889.978	2839
890.083	2738
890.187	2688
890.292	2204
890.397	3187
890.501	2130
890.606	2673
890.710	2643
890.815	2038
890.919	1650
891.024	2853
891.128	2569
891.233	2064
891.337	2614
891.442	2910
891.546	2523
891.650	2007
891.755	1966
891.859	2924
891.963	1802
892.068	2487
892.172	2577
892.276	2326
892.380	2404
892.484	1568
892.589	2794
892.693	2394
892.797	1915
892.901	2002
893.005	1607
893.109	2255
893.213	1260
893.317	2469
893.421	2200
893.525	1701
893.629	1744
893.733	2046
893.837	1768
893.941	2356
894.045	3363
894.148	5270
894.252	10696
894.356	5906
894.460	2144
894.564	2647
894.667	1768
894.771	2668
894.875	2191
894.978	1699
895.082	2094
895.186	1813
895.289	1992
895.393	1425
895.496	2031
895.600	2687
895.703	1234
895.807	2130
895.910	2078
896.014	1805
896.117	2108
896.221	2601
896.324	1402
896.427	1779
896.531	1405
896.634	1876
896.737	1413
896.840	1780
896.944	1909
897.047	1765
897.150	2063
897.253	1658
897.356	1857
897.460	1837
897.563	2272
897.666	2462
897.769	2345
897.872	1210
897.975	1586
898.078	946
898.181	1322
898.284	1456
898.387	2123
898.490	1962
898.593	2082
898.695	1258
898.798	1715
898.901	2219
899.004	1475
899.107	1600
899.209	1496
899.312	2775
899.415	1976
899.518	1860
899.620	1411
899.723	2183
899.826	2085
899.928	2608
900.031	1083
900.133	2095
900.236	1255
900.338	1094
900.441	1773
900.543	1941
900.646	1886
900.748	1039
900.851	1005
900.953	1856
901.055	1490
901.158	1604
901.260	1716
901.362	2268
901.465	1446
901.567	2133
901.669	1633
901.771	2253
901.873	1287
901.976	1422
902.078	2156
902.180	698
902.282	1053
902.384	1413
902.486	1794
902.588	2472
902.690	2273
902.792	1717
902.894	1439
902.996	1437
903.098	1057
903.200	1969
903.302	1562
903.404	1776
903.505	1419
903.607	1937
903.709	2107
903.811	970
903.913	744
904.014	1110
904.116	1177
904.218	1394
904.319	1924
904.421	2382
904.523	1188
904.624	900
904.726	1883
904.827	1254
904.929	1557
905.030	1882
905.132	1672
905.233	2477
905.335	1085
905.436	1513
905.537	1024
905.639	1264
905.740	1865
905.841	1674
905.943	1588
906.044	894
906.145	1028
906.247	1234
906.348	1622
906.449	1273
906.550	1719
906.651	598
906.752	1261
906.854	1357
906.955	1368
907.056	1115
907.157	1274
907.258	786
907.359	1463
907.460	1213
907.561	1182
907.662	1238
907.762	1836
907.863	1372
907.964	1831
908.065	2303
908.166	1219
908.267	1418
908.367	1229
908.468	1359
908.569	1441
908.670	2130
908.770	2658
908.871	2663
908.971	1769
909.072	1497
909.173	1691
909.273	1649
909.374	1280
909.474	2255
909.575	1595
909.675	1314
909.776	1635
909.876	1334
909.977	1570
910.077	1731
910.177	1084
910.278	1914
910.378	1236
910.478	1692
910.579	2111
910.679	1611
910.779	1046
910.879	1814
910.980	1822
911.080	2435
911.180	874
911.280	1918
911.380	1883
911.480	1593
911.580	1786
911.680	1547
911.780	1249
911.880	1511
911.980	1939
912.080	1634
912.180	2007
912.280	1691
912.380	871
912.480	2059
912.580	1344
912.679	1505
912.779	2296
912.879	1626
912.979	1739
913.078	1402
913.178	1892
913.278	1288
913.377	1739
913.477	365
913.577	981
913.676	1674
913.776	1369
913.875	1105
913.975	1959
914.074	1064
914.174	713
914.273	1578
914.373	1605
914.472	1715
914.572	1540
914.671	1487
914.770	1212
914.870	1207
914.969	2376
915.068	1525
915.167	971
915.267	1549
915.366	1589
915.465	1258
915.564	858
915.663	654
915.763	1230
915.862	1480
915.961	1533
916.060	561
916.159	1062
916.258	652
916.357	1865
916.456	1592
916.555	1030
916.654	1407
916.752	1337
916.851	1665
916.950	1690
917.049	1770
917.148	1302
917.247	1462
917.345	863
917.444	1092
917.543	1105
917.642	758
917.740	944
917.839	1052
917.937	805
918.036	1575
918.135	1244
918.233	1468
918.332	1369
918.430	-8
918.529	1747
918.627	1625
918.726	1723
918.824	1405
918.923	602
919.021	1096
919.119	1292
919.218	388
919.316	910
919.414	771
919.512	1854
919.611	971
919.709	1454
919.807	1448
919.905	1295
920.003	1080
920.102	894
920.200	708
920.298	2149
920.396	1162
920.494	1087
920.592	1259
920.690	920
920.788	2261
920.886	1068
920.984	1305
921.082	742
921.180	1912
921.277	1196
921.375	1443
921.473	1377
921.571	974
921.669	985
921.766	2000
921.864	1162
921.962	1297
922.060	1173
922.157	1459
922.255	1237
922.352	1238
922.450	1276
922.548	2179
922.645	1376
922.743	273
922.840	1791
922.938	1573
923.035	2108
923.133	1236
923.230	1102
923.327	2049
923.425	1078
923.522	1722
923.619	960
923.717	885
923.814	1513
923.911	812
924.008	1039
924.106	1453
924.203	858
924.300	920
924.397	727
924.494	1266
924.591	876
924.688	321
924.786	1341
924.883	1102
924.979	1189
925.077	1514
925.173	1606
925.270	1866
925.367	252
925.464	2288
925.561	1439
925.658	1275
925.755	1290
925.852	1834
925.948	820
926.045	1621
926.142	1323
926.239	1661
926.335	2121
926.432	1070
926.529	1633
926.625	813
926.722	1453
926.818	1407
926.915	1814
927.011	1719
927.108	647
927.204	850
927.301	901
927.397	1196
927.494	1215
927.590	839
927.687	1282
927.783	902
927.879	1137
927.976	1050
928.072	1314
928.168	962
928.264	1454
928.361	1076
928.457	741
928.553	1132
928.649	1361
928.745	1415
928.841	906
928.937	1381
929.033	2250
929.129	959
929.225	951
929.321	1499
929.417	527
929.513	616
929.609	1100
929.705	1165
929.801	1735
929.897	1092
929.993	599
930.089	2029
930.184	661
930.280	1736
930.376	705
930.471	1365
930.567	1854
930.663	1849
930.758	1160
930.854	761
930.950	1213
931.045	1207
931.141	1836
931.236	1230
931.332	1287
931.427	788
931.523	603
931.618	1198
931.714	468
931.809	921
931.905	1424
932.000	341
932.095	111
932.191	1653
932.286	612
932.381	886
932.476	1083
932.572	1059
932.667	1151
932.762	1155
932.857	832
932.952	852
933.047	835
933.142	1032
933.237	1068
933.332	842
933.427	1885
933.522	793
933.617	972
933.712	722
933.807	1247
933.902	651
933.997	843
934.092	1286
934.187	983
934.282	1076
934.376	166
934.471	1594
934.566	101
934.661	1620
934.755	952
934.850	1679
934.945	1264
935.039	884
935.134	571
935.228	695
935.323	1023
935.417	1000
935.512	968
935.606	884
935.701	291
935.795	124
935.890	1359
935.984	2050
936.079	1134
936.173	916
936.267	1299
936.362	1014
936.456	771
936.550	1574
936.644	730
936.738	1477
936.833	1229
936.927	2227
937.021	2215
937.115	113
937.209	343
937.303	1918
937.397	820
937.491	1492
937.585	1520
937.679	1138
937.773	576
937.867	1553
937.961	930
938.055	1550
938.149	769
938.243	762
938.337	582
938.430	617
938.524	1280
938.618	422
938.712	703
938.805	869
938.899	514
938.993	218
939.086	615
939.180	673
939.274	1323
939.367	1168
939.461	456
939.554	372
939.648	715
939.741	997
939.835	885
939.928	822
940.022	911
940.115	1629
940.208	1623
940.302	1071
940.395	1457
940.488	159
940.582	1643
940.675	661
940.768	285
940.861	772
940.954	999
941.048	-278
941.141	1603
941.234	786
941.327	912
941.420	1262
941.513	424
941.606	150
941.699	1464
941.792	740
941.885	818
941.978	1070
942.071	1055
942.164	1187
942.257	482
942.349	923
942.442	1097
942.535	675
942.628	299
942.721	507
942.813	583
942.906	760
942.999	233
943.091	774
943.184	-68
943.277	1100
943.369	201
943.462	386
943.554	833
943.647	357
943.739	1199
943.832	-59
943.924	389
944.017	1315
944.109	-76
944.201	576
944.294	233
944.386	605
944.478	545
944.571	1178
944.663	535
944.755	1235
944.847	829
944.940	-32
945.032	347
945.124	4
945.216	1421
945.308	338
945.400	534
945.492	987
945.584	346
945.676	539
945.768	488
945.860	1003
945.952	453
946.044	639
946.136	570
946.228	868
946.320	-279
946.412	758
946.503	22
946.595	1006
946.687	727
946.779	869
946.870	384
946.962	954
947.054	595
947.145	308
947.237	138
947.329	920
947.420	773
947.512	1053
947.603	637
947.695	620
947.786	404
947.878	666
947.969	413
948.061	-362
948.152	-256
948.243	1200
948.335	-121
948.426	357
948.517	1061
948.609	-520
948.700	-102
948.791	206
948.882	-127
948.973	340
949.065	169
949.156	1075
949.247	-333
949.338	530
949.429	382
949.520	578
949.611	-336
949.702	956
949.793	764
949.884	404
949.975	-58
950.066	911
950.157	319
950.247	66
950.338	410
950.429	530
950.520	792
950.611	374
950.701	178
950.792	422
950.883	282
950.973	355
951.064	780
951.155	397
951.245	576
951.336	106
951.427	-272
951.517	1244
951.608	-273
951.698	573
951.788	-13
951.879	237
951.969	233
952.060	584
952.150	76
952.240	1487
952.331	-660
952.421	888
952.511	477
952.602	227
952.692	-303
952.782	81
952.872	875
952.962	954
953.052	401
953.143	430
953.233	324
953.323	1401
953.413	232
953.503	41
953.593	126
953.683	1008
953.773	-542
953.863	-85
953.953	-225
954.042	794
954.132	-18
954.222	1077
954.312	295
954.402	-253
954.492	897
954.581	834
954.671	950
954.761	427
954.850	1509
954.940	284
955.030	623
955.119	478
955.209	1103
955.298	381
955.388	139
955.477	1252
955.567	-752
955.656	729
955.746	1020
955.835	474
955.925	150
956.014	543
956.103	524
956.193	887
956.282	446
956.371	972
956.461	-173
956.550	1262
956.639	488
956.728	-511
956.817	830
956.906	311
956.995	729
957.085	254
957.174	1370
957.263	-29
957.352	636
957.441	776
957.530	732
957.619	1285
957.708	1629
957.796	1865
957.885	832
957.974	600
958.063	1021
958.152	264
958.241	1628
958.329	2221
958.418	1389
958.507	749
958.596	1227
958.684	1269
958.773	1363
958.861	1444
958.950	2567
959.039	1921
959.127	1390
959.216	1939
959.304	2027
959.393	1691
959.481	1848
959.570	1768
959.658	2158
959.746	2092
959.835	2236
959.923	2478
960.011	1561
960.100	2901
960.188	661
960.276	1185
960.365	1254
960.453	1324
960.541	311
960.629	1445
960.717	1289
960.805	1194
960.893	1539
960.981	433
961.069	1193
961.158	435
961.245	753
961.333	988
961.421	202
961.509	608
961.597	830
961.685	1007
961.773	-619
961.861	509
961.949	998
962.036	58
962.124	-386
962.212	-107
962.299	-40
962.387	-704
962.475	133
962.562	-376
962.650	316
962.738	180
962.825	-573
962.913	777
963.000	-518
963.088	811
963.175	-19
963.263	34
963.350	406
963.438	-454
963.525	695
963.612	2238
963.700	2638
963.787	6700
963.874	3924
963.962	1500
964.049	-644
964.136	78
964.223	-663
964.310	131
964.398	-299
964.485	241
964.572	67
964.659	1088
964.746	884
964.833	606
964.920	169
965.007	253
965.094	337
965.181	23
965.268	-370
965.355	-2
965.441	-228
965.528	-947
965.615	69
965.702	62
965.789	-1095
965.875	-663
965.962	-411
966.049	-833
966.136	424
966.222	-394
966.309	110
966.395	-1023
966.482	-197
966.569	-272
966.655	-1104
966.742	-144
966.828	-366
966.915	136
967.001	-876
967.087	-165
967.174	-180
967.260	132
967.347	334
967.433	1564
967.519	4152
967.605	1375
967.692	-387
967.778	-261
967.864	-124
967.950	-307
968.036	-1148
968.123	-1086
968.209	-154
968.295	-1192
968.381	1408
968.467	-207
968.553	-1322
968.639	288
968.725	-825
968.811	85
968.897	-19
968.983	90
969.069	-265
969.154	395
969.240	-344
969.326	-1203
969.412	-1121
969.497	-530
969.583	-576
969.669	-338
969.755	-776
969.840	-403
969.926	48
970.012	-715
970.097	104
970.183	-157
970.268	-775
970.354	498
970.439	-289
970.525	2799
970.610	65
970.696	-40
970.781	-1100
970.866	-760
970.952	421
971.037	-587
971.122	-581
971.208	-769
971.293	-933
971.378	-969
971.463	-316
971.549	96
971.634	-709
971.719	-526
971.804	219
971.889	-16
971.974	-668
972.059	232
972.144	-191
972.229	-1077
972.314	-607
972.399	-961
972.484	-754
972.569	56
972.654	-1004
972.739	1554
972.824	986
972.908	-4
972.993	-892
973.078	-1173
973.163	-701
973.247	51
973.332	-1400
973.417	700
973.501	-1415
973.586	-547
973.671	-330
973.755	-548
973.840	497
973.924	-58
974.009	114
974.093	-74
974.178	430
974.262	99
974.346	950
974.431	-412
974.515	-946
974.600	-1009
974.684	-381
974.768	-979
974.852	-331
974.937	-796
975.021	-52
975.105	708
975.189	-880
975.273	-4
975.358	-713
975.442	-1432
975.526	179
975.610	-1232
975.694	-1457
975.778	217
975.862	-637
975.946	-1626
976.030	1183
976.114	-884
976.198	-531
976.281	-639
976.365	-86
976.449	-884
976.533	-646
976.617	-1346
976.700	-243
976.784	200
976.868	-1242
976.951	-438
977.035	-407
977.119	-703
977.202	-1386
977.286	-1407
977.369	188
977.453	-662
977.536	-1540
977.620	-775
977.703	-808
977.787	-1558
977.870	1
977.953	-412
978.037	-1914
978.120	-343
978.203	-685
978.287	1072
978.370	-560
978.453	-1561
978.536	-1000
978.620	481
978.703	55
978.786	-708
978.869	-1006
978.952	-1438
979.035	-53
979.118	-903
979.201	-656
979.284	99
979.367	-488
979.450	-136
979.533	-791
979.616	-855
979.699	-371
979.782	-883
979.865	-317
979.948	-1469
980.030	-1200
980.113	-1429
980.196	-1338
980.279	-339
980.361	-1217
980.444	-340
980.526	-679
980.609	-1057
980.692	-1050
980.774	-1574
980.857	-1998
980.939	-756
981.022	-1997
981.104	-1237
981.187	-1448
981.269	91
981.352	-1091
981.434	-1704
981.516	-1460
981.599	-215
981.681	-395
981.763	-431
981.846	-1140
981.928	-1607
982.010	-1108
982.092	-2532
982.174	-593
982.256	-701
982.339	-1063
982.421	-789
982.503	-1533
982.585	-1226
982.667	-1776
982.749	-347
982.831	-1708
982.913	-1552
982.995	-985
983.077	-1777
983.158	81
983.240	-1467
983.322	-1146
983.404	-725
983.486	-2002
983.568	-732
983.649	-1634
983.731	-361
983.813	-1742
983.894	-207
983.976	-1541
984.058	-1624
984.139	-442
984.221	-2099
984.302	-889
984.384	-804
984.465	-876
984.547	-1563
984.628	-1047
984.710	-679
984.791	-965
984.872	-1288
984.954	-1900
985.035	-1065
985.116	-1066
985.198	-2063
985.279	-550
985.360	-1381
985.441	-1646
985.522	-378
985.604	-1633
985.685	-2190
985.766	-891
985.847	-243
985.928	-1150
986.009	-1379
986.090	-1638
986.171	-189
986.252	-1832
986.333	-1385
986.414	-2074
986.495	-1564
986.576	-1855
986.656	-604
986.737	-952
986.818	-727
986.899	-1983
986.980	-1702
987.060	30
987.141	-1642
987.222	-1136
987.302	-1067
987.383	-875
987.464	-659
987.544	-1900
987.625	-1779
987.705	-633
987.786	-747
987.866	-2182
987.947	-1066
988.027	-1126
988.108	-1672
988.188	-1802
988.268	-465
988.349	-1241
988.429	-1093
988.509	-1045
988.589	-1009
988.670	-3034
988.750	-1179
988.830	-1480
988.910	-698
988.990	-1243
989.070	-2588
989.151	-1196
989.231	-1832
989.311	-760
989.391	-1341
989.471	-1441
989.551	-1004
989.631	-1920
989.711	-370
989.791	-2684
989.870	-1729
989.950	-939
990.030	-1842
990.110	-2036
990.190	-1512
990.269	-2009
990.349	-1217
990.429	-1432
990.509	-801
990.588	-1556
990.668	-597
990.747	-1857
990.827	-1451
990.907	-1393
990.986	-1704
991.066	-971
991.145	-1628
991.225	-452
991.304	-2237
991.383	-1734
991.463	-1482
991.542	-1309
991.622	-1928
991.701	-2132
991.780	-2011
991.859	-1472
991.939	-1228
992.018	-2040
992.097	-1196
992.176	-2073
992.256	-1307
992.335	-2810
992.414	-554
992.493	-2365
992.572	-2116
992.651	-113
992.730	-2196
992.809	-1683
992.888	-1620
992.967	-1891
993.046	-1341
993.125	-2543
993.203	-1879
993.282	-1475
993.361	-1631
993.440	-1013
993.519	-1919
993.597	-2027
993.676	-2527
993.755	-1656
993.834	-1603
993.912	-2106
993.991	-966
994.069	-2143
994.148	-2182
994.226	-1419
994.305	-803
994.384	-1920
994.462	-954
994.540	-2082
994.619	-1186
994.697	-1828
994.776	-2375
994.854	-1538
994.932	-1807
995.011	-1493
995.089	-2417
995.167	-2069
995.245	-1755
995.324	-2441
995.402	-1513
995.480	-2130
995.558	-1127
995.636	-2928
995.714	-1359
995.792	-1191
995.870	-1735
995.948	-1922
996.026	-1797
996.104	-2647
996.182	-898
996.260	-2342
996.338	-1231
996.416	-2191
996.494	-2206
996.572	-853
996.649	-1272
996.727	-2687
996.805	-2036
996.883	-2101
996.960	-2417
997.038	-2329
997.116	-1735
997.193	-3076
997.271	-1715
997.348	-2494
997.426	-2052
997.504	-1725
997.581	-1460
997.658	-524
997.736	-2931
997.813	-2373
997.891	-1559
997.968	-2340
998.046	-1185
998.123	-2750
998.200	-1301
998.277	-2653
998.355	-1206
998.432	-3626
998.509	-1690
998.586	-1972
998.663	-1549
998.741	-1188
998.818	-2487
998.895	-2272
998.972	-1487
999.049	-1748
999.126	-2537
999.203	-1907
999.280	-2083
999.357	-2145
999.434	-1921
999.511	-1494
999.587	-1600
999.664	-2062
999.741	-2093
999.818	-2010
999.895	-2232
999.971	-2127
1000.048	-2063
1000.125	-1700
1000.202	-2766
1000.278	-1805
1000.355	-2058
1000.431	-2361
1000.508	-2240
1000.584	-1816
1000.661	-2118
1000.738	-2360
1000.814	-1984
1000.890	-2565
1000.967	-1888
1001.043	-2151
1001.120	-2747
1001.196	-1444
1001.272	-2362
1001.349	-1870
1001.425	-2144
1001.501	-2109
1001.577	-2051
1001.654	-1831
1001.730	-1666
1001.806	-2063
1001.882	-2458
1001.958	-2431
1002.034	-2073
1002.110	-1648
1002.186	-2292
1002.262	-1855
1002.338	-2536
1002.414	-1813
1002.490	-1913
1002.566	-2006
1002.642	-2315
1002.718	-1664
1002.794	-1725
1002.870	-1857
1002.945	-2888
1003.021	-2590
1003.097	-2837
1003.173	-1164
1003.248	-2340
1003.324	-2468
1003.400	-566
1003.475	-2523
1003.551	-1602
1003.626	-1498
1003.702	-2887
1003.777	-1929
1003.853	-1504
1003.928	-3221
1004.004	-1713
1004.079	-2280
1004.155	-2209
1004.230	-3011
1004.305	-1315
1004.381	-2442
1004.456	-1942
1004.531	-1537
1004.607	-2539
1004.682	-2024
1004.757	-1313
1004.832	-2383
1004.907	-2199
1004.982	-1996
1005.057	-1651
1005.133	-1484
1005.208	-1631
1005.283	-2191
1005.358	-2015
1005.433	-2166
1005.508	-1981
1005.583	-2417
1005.657	-2079
1005.732	-1431
1005.807	-2313
1005.882	-1687
1005.957	-2640
1006.032	-1564
1006.106	-1762
1006.181	-1985
1006.256	-1964
1006.331	-2871
1006.405	-2209
1006.480	-2257
1006.554	-3456
1006.629	-1488
1006.704	-1843
1006.778	-2210
1006.853	-1812
1006.927	-2153
1007.002	-1698
1007.076	-2172
1007.150	-2479
1007.225	-1905
1007.299	-2888
1007.373	-2485
1007.448	-1271
1007.522	-1917
1007.596	-1026
1007.671	-2612
1007.745	-2124
1007.819	-2532
1007.893	-2473
1007.967	-1914
1008.041	-2607
1008.115	-2792
1008.190	-3142
1008.264	-1664
1008.338	-3089
1008.412	-3057
1008.486	-1521
1008.560	-3165
1008.633	-2361
1008.707	-1771
1008.781	-1673
1008.855	-2542
1008.929	-2221
1009.003	-2953
1009.076	-1905
1009.150	-2378
1009.224	-1724
1009.298	-2752
1009.371	-2238
1009.445	-1291
1009.519	-2398
1009.592	-3173
1009.666	-1918
1009.739	-2166
1009.813	-2297
1009.886	-1638
1009.960	-2024
1010.033	-1898
1010.107	-2022
1010.180	-2827
1010.253	-2061
1010.327	-2629
1010.400	-2415
1010.473	-2254
1010.547	-1269
1010.620	-2359
1010.693	-2660
1010.766	-2662
1010.840	-1948
1010.913	-2738
1010.986	-2569
1011.059	-1738
1011.132	-2257
1011.205	-1582
1011.278	-2850
1011.351	-2785
1011.424	-2533
1011.497	-2707
1011.570	-2201
1011.643	-2962
1011.716	-2357
1011.789	-2888
1011.862	-1972
1011.934	-1886
1012.007	-3317
1012.080	-3144
1012.153	-2847
1012.225	-1905
1012.298	-2613
1012.371	-3284
1012.443	-1504
1012.516	-2445
1012.588	-2238
1012.661	-1537
1012.733	-3034
1012.806	-1638
1012.879	-2845
1012.951	-2109
1013.023	-2948
1013.096	-1808
1013.168	-2539
1013.241	-2114
1013.313	-2741
1013.385	-2910
1013.458	-2525
1013.530	-1494
1013.602	-2762
1013.674	-2537
1013.746	-3594
1013.819	-2619
1013.891	-2374
1013.963	-2834
1014.035	-1430
1014.107	-1709
1014.179	-1921
1014.251	-2742
1014.323	-2312
1014.395	-1817
1014.467	-2349
1014.539	-2858
1014.611	-3197
1014.683	-1898
1014.754	-2865
1014.826	-3141
1014.898	-2478
1014.970	-2882
1015.042	-1330
1015.113	-2204
1015.185	-2415
1015.257	-3153
1015.328	-2327
1015.400	-3054
1015.471	-1992
1015.543	-2581
1015.615	-2304
1015.686	-2408
1015.757	-2088
1015.829	-2127
1015.901	-2402
1015.972	-1853
1016.043	-1630
1016.115	-2535
1016.186	-2113
1016.257	-3134
1016.328	-2494
1016.400	-2077
1016.471	-2143
1016.542	-2672
1016.613	-2322
1016.685	-2783
1016.756	-1906
1016.827	-2544
1016.898	-2822
1016.969	-2498
1017.040	-2802
1017.111	-2049
1017.182	-2209
1017.253	-2141
1017.324	-2636
1017.395	-2304
1017.466	-1895
1017.537	-2638
1017.608	-1776
1017.678	-2108
1017.749	-2157
1017.820	-2109
1017.891	-2746
1017.961	-3173
1018.032	-2620
1018.103	-1651
1018.173	-3114
1018.244	-3319
1018.315	-2065
1018.385	-1977
1018.456	-3060
1018.526	-3085
1018.597	-2353
1018.667	-2274
1018.738	-2026
1018.808	-2682
1018.878	-2768
1018.949	-2346
1019.019	-2459
1019.089	-2847
1019.160	-1971
1019.230	-2864
1019.300	-2048
1019.371	-3386
1019.441	-2795
1019.511	-1885
1019.581	-2484
1019.651	-2312
1019.721	-2790
1019.791	-2406
1019.861	-2453
1019.931	-3038
1020.001	-2594
1020.071	-2775
1020.141	-1947
1020.211	-3225
1020.281	-2940
1020.351	-2678
1020.421	-2335
1020.491	-2673
1020.560	-3192
1020.630	-3092
1020.700	-2272
1020.770	-3362
1020.839	-2268
1020.909	-3066
1020.979	-2566
1021.048	-3090
1021.118	-3227
1021.187	-2018
1021.257	-2454
1021.326	-3257
1021.396	-3170
1021.465	-2469
1021.535	-2081
1021.604	-3277
1021.674	-2596
1021.743	-2432
1021.812	-2152
1021.882	-2364
1021.951	-2355
1022.020	-2598
1022.089	-3093
1022.159	-3330
1022.228	-2588
1022.297	-3175
1022.366	-3315
1022.435	-3543
1022.504	-2449
1022.573	-2581
1022.642	-2838
1022.711	-2881
1022.781	-2035
1022.849	-1983
1022.918	-3245
1022.987	-2534
1023.056	-2323
1023.125	-2084
1023.194	-1996
1023.263	-1820
1023.331	-1570
1023.400	-3279
1023.469	-2778
1023.538	-2705
1023.606	-3224
1023.675	-2968
1023.744	-2321
1023.812	-2785
1023.881	-2360
1023.949	-2002
1024.018	-2685
1024.086	-3121
1024.155	-2176
1024.223	-3037
1024.292	-3419
1024.360	-2420
1024.429	-2903
1024.497	-3524
1024.565	-2267
1024.634	-2264
1024.702	-2717
1024.770	-2730
1024.838	-2101
1024.907	-1950
1024.975	-2639
1025.043	-2446
1025.111	-2450
1025.179	-2075
1025.247	-2877
1025.315	-2550
1025.383	-2057
1025.451	-2520
1025.519	-2855
1025.587	-2270
1025.655	-3359
1025.723	-2921
1025.791	-2659
1025.859	-2299
1025.927	-2361
1025.995	-2358
1026.062	-2222
1026.130	-2354
1026.198	-3086
1026.266	-3156
1026.333	-2268
1026.401	-3242
1026.469	-2350
1026.536	-2194
1026.604	-2595
1026.671	-2709
1026.739	-2928
1026.806	-2635
1026.874	-2973
1026.941	-2608
1027.009	-2930
1027.076	-3158
1027.144	-1952
1027.211	-2933
1027.278	-2854
1027.345	-2661
1027.413	-2181
1027.480	-2790
1027.547	-2276
1027.614	-2578
1027.682	-2145
1027.749	-2931
1027.816	-2041
1027.883	-2875
1027.950	-3015
1028.017	-3267
1028.084	-1668
1028.151	-3720
1028.218	-2681
1028.285	-2753
1028.352	-2921
1028.419	-2889
1028.486	-2680
1028.553	-2034
1028.619	-1741
1028.686	-3082
1028.753	-2863
1028.820	-3176
1028.886	-2983
1028.953	-2471
1029.020	-2754
1029.086	-1856
1029.153	-2638
1029.220	-3462
1029.286	-2718
1029.353	-2449
1029.419	-2297
1029.486	-3035
1029.552	-2072
1029.619	-3114
1029.685	-2879
1029.751	-3050
1029.818	-2064
1029.884	-3369
1029.951	-2088
1030.017	-3358
1030.083	-2501
1030.149	-2335
1030.216	-2342
1030.282	-2600
1030.348	-3096
1030.414	-2703
1030.480	-2621
1030.546	-2792
1030.612	-2380
1030.678	-2885
1030.744	-2641
1030.810	-3246
1030.876	-2314
1030.942	-2800
1031.008	-2154
1031.074	-2530
1031.140	-2161
1031.206	-1961
1031.272	-2335
1031.337	-3023
1031.403	-2275
1031.469	-3061
1031.534	-3221
1031.600	-2870
1031.666	-3705
1031.731	-2854
1031.797	-2318
1031.863	-3178
1031.928	-3054
1031.994	-3329
1032.059	-2742
1032.125	-3105
1032.190	-2342
1032.256	-2883
1032.321	-2944
1032.386	-2896
1032.452	-2335
1032.517	-2647
1032.582	-3036
1032.647	-2988
1032.713	-2266
1032.778	-2727
1032.843	-3125
1032.908	-2949
1032.974	-2723
1033.039	-3100
1033.104	-3233
1033.169	-3024
1033.234	-2657
1033.299	-3230
1033.364	-2867
1033.429	-2702
1033.494	-3651
1033.559	-2658
1033.624	-2726
1033.688	-2912
1033.753	-3370
1033.818	-3027
1033.883	-2825
1033.948	-3098
1034.013	-3057
1034.077	-2766
1034.142	-2150
1034.207	-2810
1034.271	-1994
1034.336	-2712
1034.400	-2289
1034.465	-2980
1034.530	-2805
1034.594	-2988
1034.658	-2754
1034.723	-3132
1034.787	-2894
1034.852	-3208
1034.916	-3666
1034.981	-3208
1035.045	-1977
1035.109	-2644
1035.173	-2115
1035.238	-3100
1035.302	-2532
1035.366	-2689
1035.430	-2599
1035.495	-3424
1035.559	-2039
1035.623	-2842
1035.687	-2891
1035.751	-2655
1035.815	-3570
1035.879	-3225
1035.943	-2920
1036.007	-2528
1036.071	-2321
1036.135	-2068
1036.198	-2091
1036.262	-3477
1036.326	-2005
1036.390	-3127
1036.454	-2892
1036.517	-2953
1036.581	-2180
1036.645	-2754
1036.709	-2771
1036.772	-3059
1036.836	-2480
1036.900	-2729
1036.963	-2503
1037.026	-2718
1037.090	-2708
1037.154	-3103
1037.217	-2721
1037.280	-3491
1037.344	-2834
1037.407	-3299
1037.471	-3079
1037.534	-3057
1037.597	-2704
1037.661	-3691
1037.724	-2548
1037.787	-3803
1037.850	-2996
1037.913	-3505
1037.977	-2270
1038.040	-2935
1038.103	-2713
1038.166	-3040
1038.229	-2939
1038.292	-3227
1038.355	-2397
1038.418	-2953
1038.481	-2310
1038.544	-2511
1038.607	-2546
1038.670	-3610
1038.732	-2312
1038.795	-3495
1038.858	-2625
1038.921	-3286
1038.984	-2348
1039.046	-3173
1039.109	-3128
1039.172	-2830
1039.234	-2222
1039.297	-3300
1039.360	-2846
1039.422	-2880
1039.485	-2323
1039.547	-2629
1039.610	-2719
1039.672	-3489
1039.734	-2672
1039.797	-2971
1039.859	-2270
1039.922	-3261
1039.984	-2530
1040.046	-3147
1040.109	-3178
1040.171	-3546
1040.233	-3200
1040.295	-3127
1040.358	-3056
1040.420	-2861
1040.482	-3567
1040.544	-2949
1040.606	-3404
1040.668	-3537
1040.730	-3147
1040.792	-2775
1040.854	-3424
1040.916	-2938
1040.978	-3156
1041.040	-2427
1041.102	-2958
1041.164	-3025
1041.225	-3242
1041.287	-3350
1041.349	-2660
1041.411	-2178
1041.472	-2676
1041.534	-2683
1041.596	-3406
1041.657	-3196
1041.719	-2837
1041.781	-3178
1041.842	-3023
1041.904	-2854
1041.965	-2932
1042.027	-2551
1042.088	-2591
1042.150	-3318
1042.211	-3444
1042.272	-2150
1042.334	-2780
1042.395	-2636
1042.456	-2413
1042.518	-2698
1042.579	-2620
1042.640	-2815
1042.701	-2586
1042.763	-3007
1042.824	-3433
1042.885	-3104
1042.946	-3047
1043.007	-3021
1043.068	-2639
1043.129	-2595
1043.190	-3008
1043.251	-2180
1043.312	-2781
1043.373	-3295
1043.434	-2874
1043.495	-2995
1043.556	-2250
1043.616	-2500
1043.677	-2895
1043.738	-3057
1043.799	-3184
1043.859	-2683
1043.920	-3463
1043.981	-2867
1044.041	-2937
1044.102	-2424
1044.162	-2637
1044.223	-3467
1044.284	-2867
1044.344	-3597
1044.405	-2644
1044.465	-3055
1044.525	-2734
1044.586	-3028
1044.646	-2905
1044.707	-2410
1044.767	-2815
1044.827	-3447
1044.887	-3160
1044.948	-2985
1045.008	-2525
1045.068	-2700
1045.128	-2475
1045.188	-2455
1045.249	-2311
1045.309	-3182
1045.369	-2191
1045.429	-2852
1045.489	-1923
1045.549	-2945
1045.609	-3302
1045.669	-3241
1045.729	-3234
1045.789	-3331
1045.848	-2672
1045.908	-2601
1045.968	-2759
1046.028	-2615
1046.088	-2434
1046.147	-2189
1046.207	-2699
1046.267	-2585
1046.326	-2095
1046.386	-3509
1046.446	-2135
1046.505	-2177
1046.565	-1962
1046.624	-2130
1046.684	-2631
1046.743	-2248
1046.803	-2052
1046.862	-1735
1046.922	0
