'Start Wavelength	183.907
'End Wavelength	1046.922
'Gate Delay	5.000
'Gate Width (ms)	1.050
'Laser Output Level	0.000
'X Position	0.000
'Y Position	0.000
'Z Position	0.000
'Grid Point Number	1.000
'Shot Number	100.000
183.907	229.000
183.977	-1007.000
184.047	130
184.116	564
184.186	-302
184.256	658
184.325	-50
184.395	-375
184.465	160
184.534	54
184.604	-390
184.674	518
184.743	-358
184.813	149
184.883	-197
184.952	99
185.022	-603
185.092	-33
185.161	-161
185.231	744
185.301	-276
185.370	776
185.440	1
185.509	-1615
185.579	-1203
185.649	181
185.718	293
185.788	308
185.857	-868
185.927	-65
185.996	390
186.066	442
186.136	-305
186.205	-96
186.275	564
186.344	-277
186.414	-1049
186.483	-821
186.553	1096
186.622	-468
186.692	-680
186.761	137
186.831	-69
186.900	249
186.970	697
187.039	161
187.109	477
187.178	-308
187.248	234
187.317	215
187.387	-1017
187.456	-762
187.526	-548
187.595	546
187.664	-724
187.734	516
187.803	66
187.873	42
187.942	-261
188.012	67
188.081	331
188.150	-301
188.220	-195
188.289	497
188.358	-911
188.428	141
188.497	-536
188.567	-68
188.636	-536
188.705	-13
188.775	-567
188.844	-128
188.913	111
188.983	-636
189.052	-1199
189.121	-211
189.191	-448
189.260	330
189.329	-88
189.399	-104
189.468	-345
189.537	-283
189.606	-833
189.676	-220
189.745	-10
189.814	32
189.883	-782
189.953	386
190.022	-231
190.091	-381
190.161	-679
190.230	351
190.299	-83
190.368	38
190.437	-584
190.507	-31
190.576	-597
190.645	-224
190.714	-546
190.783	-289
190.853	-533
190.922	166
190.991	-99
191.060	-421
191.129	-1027
191.198	229
191.268	-1109
191.337	-873
191.406	364
191.475	-586
191.544	-937
191.613	853
191.682	-833
191.752	56
191.821	-750
191.890	-1263
191.959	-135
192.028	44
192.097	135
192.166	-448
192.235	-513
192.304	-328
192.373	-845
192.442	-46
192.511	624
192.580	-224
192.650	-39
192.719	-28
192.788	-146
192.857	212
192.926	-849
192.995	-209
193.064	-332
193.133	313
193.202	45
193.271	-407
193.340	389
193.409	-580
193.478	-379
193.547	76
193.615	-114
193.684	467
193.753	-527
193.822	-231
193.891	-563
193.960	253
194.029	-1002
194.098	165
194.167	-721
194.236	246
194.305	-336
194.374	11
194.443	-29
194.512	-739
194.580	-368
194.649	582
194.718	-612
194.787	-57
194.856	-1358
194.925	119
194.994	-78
195.062	-477
195.131	-430
195.200	-616
195.269	-893
195.338	-351
195.407	130
195.475	-80
195.544	-103
195.613	2
195.682	14
195.751	-488
195.819	-591
195.888	-140
195.957	-41
196.026	-287
196.094	199
196.163	225
196.232	-325
196.301	-577
196.369	-946
196.438	-1029
196.507	-43
196.576	741
196.644	-217
196.713	-276
196.782	-326
196.850	-271
196.919	152
196.988	339
197.056	-478
197.125	4
197.194	692
197.262	135
197.331	295
197.400	-88
197.468	47
197.537	-200
197.606	-149
197.674	204
197.743	16
197.812	-562
197.880	-595
197.949	-182
198.017	-390
198.086	-457
198.155	-1118
198.223	319
198.292	-759
198.360	550
198.429	-700
198.497	-361
198.566	-295
198.635	-598
198.703	297
198.772	33
198.840	-869
198.909	-392
198.977	-254
199.046	-465
199.114	-131
199.183	345
199.251	-552
199.320	-365
199.388	-817
199.457	-130
199.525	10
199.594	-218
199.662	128
199.731	-619
199.799	-152
199.867	-398
199.936	-199
200.004	692
200.073	377
200.141	306
200.210	-918
200.278	12
200.346	-285
200.415	-15
200.483	-1009
200.552	238
200.620	-503
200.688	-721
200.757	-333
200.825	-90
200.893	-38
200.962	224
201.030	-1025
201.098	-715
201.167	64
201.235	-247
201.303	-656
201.372	-162
201.440	-528
201.508	-380
201.577	-579
201.645	127
201.713	-744
201.781	-187
201.850	-37
201.918	231
201.986	-55
202.055	395
202.123	-1058
202.191	-546
202.259	439
202.327	-557
202.396	-97
202.464	-443
202.532	-657
202.600	-233
202.669	-922
202.737	-294
202.805	-805
202.873	30
202.941	539
203.009	-1094
203.078	-15
203.146	547
203.214	-1384
203.282	-234
203.350	-226
203.418	-413
203.487	-1124
203.555	-366
203.623	-323
203.691	413
203.759	-486
203.827	45
203.895	-341
203.963	-1236
204.031	-564
204.099	-516
204.168	179
204.236	-347
204.304	-406
204.372	-544
204.440	-723
204.508	13
204.576	-1021
204.644	74
204.712	-944
204.780	-129
204.848	-555
204.916	-217
204.984	-200
205.052	-56
205.120	58
205.188	-157
205.256	-626
205.324	-484
205.392	-738
205.460	-182
205.528	-679
205.596	437
205.664	-479
205.732	-323
205.799	-526
205.867	-115
205.935	-1054
206.003	155
206.071	-1477
206.139	-933
206.207	-237
206.275	-62
206.343	-1279
206.411	299
206.478	-1021
206.546	-429
206.614	-1069
206.682	-125
206.750	18
206.818	-560
206.885	-681
206.953	-1178
207.021	-75
207.089	-123
207.157	-1015
207.225	378
207.292	-39
207.360	-364
207.428	-873
207.496	-1383
207.563	-144
207.631	-601
207.699	-184
207.767	-191
207.834	-1428
207.902	-298
207.970	-351
208.038	-1098
208.105	-828
208.173	-446
208.241	43
208.309	737
208.376	134
208.444	-562
208.512	-999
208.579	-894
208.647	-63
208.715	159
208.782	-664
208.850	-861
208.918	-679
208.985	-396
209.053	-494
209.120	-86
209.188	-701
209.256	-459
209.323	-1265
209.391	-690
209.459	344
209.526	-568
209.594	-618
209.661	-255
209.729	-737
209.796	77
209.864	-642
209.932	-1059
209.999	594
210.067	-974
210.134	-511
210.202	-120
210.269	-234
210.337	12
210.404	-1334
210.472	-228
210.539	-441
210.607	-391
210.674	-901
210.742	-473
210.809	-1077
210.877	-389
210.944	-687
211.012	-1191
211.079	134
211.146	-741
211.214	-771
211.281	-25
211.349	-995
211.416	-392
211.484	-633
211.551	-194
211.618	58
211.686	-362
211.753	-554
211.821	281
211.888	-714
211.955	56
212.023	205
212.090	-335
212.157	-569
212.225	-486
212.292	-172
212.359	-246
212.427	-36
212.494	-150
212.561	-419
212.629	-258
212.696	-1028
212.763	-141
212.831	-1048
212.898	239
212.965	-742
213.032	-205
213.100	-962
213.167	-743
213.234	-316
213.301	737
213.369	-146
213.436	-20
213.503	-718
213.570	-441
213.638	-157
213.705	-1405
213.772	-1445
213.839	101
213.906	-1366
213.973	-518
214.041	-1041
214.108	-168
214.175	-196
214.242	-476
214.309	-458
214.376	-271
214.444	-885
214.511	-173
214.578	-565
214.645	609
214.712	-615
214.779	-317
214.846	-879
214.913	-130
214.980	-447
215.048	-467
215.115	-53
215.182	-487
215.249	-1232
215.316	-478
215.383	-359
215.450	79
215.517	-434
215.584	-240
215.651	-864
215.718	-133
215.785	-760
215.852	-401
215.919	-623
215.986	221
216.053	-408
216.120	-948
216.187	-228
216.254	-394
216.321	-336
216.388	373
216.455	278
216.522	114
216.589	-625
216.656	-582
216.722	-601
216.789	129
216.856	-1272
216.923	-401
216.990	-402
217.057	217
217.124	-645
217.191	119
217.258	-1120
217.324	-441
217.391	170
217.458	-471
217.525	-1329
217.592	-953
217.659	-1249
217.725	-642
217.792	-500
217.859	93
217.926	-610
217.993	-722
218.059	312
218.126	-114
218.193	-565
218.260	-1102
218.327	-662
218.393	-312
218.460	-817
218.527	-927
218.594	-446
218.660	-593
218.727	399
218.794	-434
218.860	-409
218.927	-1387
218.994	-812
219.061	-565
219.127	-1094
219.194	-429
219.261	-867
219.327	-1000
219.394	-368
219.461	-722
219.527	-425
219.594	174
219.661	-1319
219.727	-1310
219.794	-1050
219.860	-367
219.927	-791
219.994	-521
220.060	-866
220.127	-640
220.193	-796
220.260	-212
220.326	-888
220.393	-710
220.460	106
220.526	356
220.593	225
220.659	1373
220.726	-1316
220.792	-382
220.859	-411
220.925	183
220.992	509
221.058	682
221.125	83
221.191	-447
221.258	-510
221.324	-482
221.391	-701
221.457	9
221.524	-613
221.590	-635
221.657	-27
221.723	-218
221.789	-718
221.856	20
221.922	-450
221.989	-934
222.055	-173
222.121	-1263
222.188	156
222.254	-951
222.321	-984
222.387	-1333
222.453	-141
222.520	-701
222.586	-396
222.652	-900
222.719	-1252
222.785	-331
222.851	-1258
222.918	-501
222.984	-1147
223.050	-126
223.116	-1200
223.183	-589
223.249	-1529
223.315	-149
223.382	-1212
223.448	-366
223.514	-1143
223.580	183
223.647	-1208
223.713	-1308
223.779	-1259
223.845	-789
223.911	-484
223.978	-607
224.044	-907
224.110	-987
224.176	-121
224.242	-321
224.309	-1322
224.375	-605
224.441	-318
224.507	-456
224.573	-1199
224.639	-292
224.705	-583
224.772	-673
224.838	-937
224.904	-271
224.970	-532
225.036	-1109
225.102	-1210
225.168	87
225.234	-808
225.300	-399
225.366	-1306
225.432	-126
225.499	-642
225.565	-1109
225.631	-556
225.697	-474
225.763	-927
225.829	-392
225.895	-865
225.961	-88
226.027	-706
226.093	-1140
226.159	49
226.225	244
226.291	89
226.357	1162
226.423	-375
226.489	-418
226.554	-709
226.620	-17
226.686	-901
226.752	957
226.818	153
226.884	992
226.950	1153
227.016	-555
227.082	-910
227.148	-164
227.214	-744
227.279	-1016
227.345	-243
227.411	-1343
227.477	-1208
227.543	-901
227.609	-1485
227.674	368
227.740	-289
227.806	-835
227.872	-1029
227.938	-601
228.003	-267
228.069	-948
228.135	-1263
228.201	-826
228.267	-1068
228.332	-825
228.398	-696
228.464	-592
228.530	-536
228.595	-897
228.661	-1171
228.727	-732
228.792	-29
228.858	-675
228.924	-2042
228.990	-6
229.055	-1324
229.121	-266
229.187	-762
229.252	-1348
229.318	-989
229.384	-798
229.449	-382
229.515	-1961
229.581	-1176
229.646	1295
229.712	-904
229.777	-1028
229.843	-644
229.909	-944
229.974	-65
230.040	-651
230.105	-1031
230.171	-1042
230.236	-786
230.302	-872
230.368	-1972
230.433	-251
230.499	-399
230.564	278
230.630	-964
230.695	-198
230.761	-275
230.826	-1650
230.892	22
230.957	-1128
231.023	-1352
231.088	-777
231.154	-1207
231.219	14
231.284	-1445
231.350	-82
231.415	-1785
231.481	433
231.546	-687
231.612	-767
231.677	-1531
231.742	-1367
231.808	512
231.873	-391
231.939	-2361
232.004	-96
232.069	-669
232.135	-845
232.200	-1217
232.265	-312
232.331	-1284
232.396	-767
232.461	-1302
232.527	-693
232.592	-1415
232.657	-382
232.723	-944
232.788	-821
232.853	-485
232.918	-414
232.984	-951
233.049	-754
233.114	-1302
233.179	-756
233.245	-697
233.310	-190
233.375	-2132
233.440	-1216
233.506	-1222
233.571	-1156
233.636	-1375
233.701	-285
233.766	-1093
233.832	-700
233.897	-1096
233.962	-1707
234.027	-120
234.092	-832
234.157	-801
234.222	-1264
234.288	-1571
234.353	-1122
234.418	-736
234.483	233
234.548	-672
234.613	-1443
234.678	-785
234.743	-1388
234.808	66
234.873	-1597
234.938	-630
235.004	-418
235.069	-523
235.134	-1447
235.199	-225
235.264	-725
235.329	-2305
235.394	-610
235.459	-42
235.524	-2208
235.589	-452
235.654	-730
235.719	-2463
235.784	-497
235.849	-418
235.913	-1102
235.978	-734
236.043	-277
236.108	-1190
236.173	-1136
236.238	-929
236.303	-1132
236.368	-1796
236.433	914
236.498	-752
236.563	-879
236.627	73
236.692	1348
236.757	890
236.822	861
236.887	-491
236.952	-285
237.017	-2128
237.081	418
237.146	-1017
237.211	947
237.276	512
237.341	3217
237.405	-39
237.470	-843
237.535	-444
237.600	-138
237.664	-176
237.729	-1026
237.794	-1648
237.859	167
237.923	-670
237.988	-327
238.053	-1259
238.118	-286
238.182	-1689
238.247	302
238.312	-1609
238.376	-1071
238.441	-3107
238.506	373
238.570	-1612
238.635	547
238.700	-1038
238.764	-1480
238.829	-1250
238.893	-1203
238.958	-631
239.023	-937
239.087	-1493
239.152	-758
239.216	-1254
239.281	121
239.346	-1022
239.410	-683
239.475	-1036
239.539	-800
239.604	-2036
239.668	133
239.733	-2253
239.797	-706
239.862	-469
239.926	-400
239.991	-1005
240.055	-850
240.120	-1237
240.184	-548
240.249	-2025
240.313	-1031
240.378	-1593
240.442	-803
240.507	-1026
240.571	-961
240.635	-2077
240.700	-384
240.764	-1938
240.829	-595
240.893	-1817
240.957	-570
241.022	-1363
241.086	-461
241.151	-1647
241.215	-1658
241.279	-564
241.344	-1505
241.408	-977
241.472	-1337
241.537	457
241.601	-643
241.665	-1951
241.730	-1358
241.794	-543
241.858	-1180
241.922	-1289
241.987	-498
242.051	-1084
242.115	-2196
242.179	-1247
242.244	-1354
242.308	-79
242.372	-866
242.436	-376
242.501	-502
242.565	-1839
242.629	-1943
242.693	-1171
242.757	-1108
242.822	-1241
242.886	-963
242.950	-654
243.014	-1292
243.078	-938
243.142	-1359
243.206	-2172
243.271	-1015
243.335	-1457
243.399	-681
243.463	-182
243.527	1155
243.591	-923
243.655	-1104
243.719	-1893
243.783	-457
243.847	-1402
243.911	-161
243.975	-1685
244.040	-1859
244.104	411
244.168	-607
244.232	-1044
244.296	-1242
244.360	-1362
244.424	-1485
244.488	-959
244.552	-1419
244.615	-2080
244.679	-693
244.743	-1506
244.807	-1583
244.871	-945
244.935	-678
244.999	-1984
245.063	-1538
245.127	370
245.191	-1564
245.255	-1174
245.319	-1472
245.383	-2184
245.446	405
245.510	-1036
245.574	-876
245.638	-847
245.702	-1839
245.766	-685
245.829	-19
245.893	-1721
245.957	-1595
246.021	-1031
246.085	-1152
246.149	-1605
246.212	429
246.276	-1198
246.340	-1202
246.404	-1025
246.467	-313
246.531	-3036
246.595	-264
246.659	-498
246.722	-1522
246.786	-134
246.850	-875
246.913	-1206
246.977	-1550
247.041	-638
247.104	-883
247.168	-1281
247.232	-820
247.295	-1320
247.359	-318
247.423	-600
247.486	-1629
247.550	-690
247.614	-1102
247.677	-1532
247.741	-369
247.804	-1462
247.868	-993
247.932	-1412
247.995	413
248.059	-1393
248.122	-1296
248.186	-290
248.249	-567
248.313	150
248.376	634
248.440	-1547
248.503	-2207
248.567	57
248.630	-398
248.694	77
248.757	435
248.821	226
248.884	457
248.948	-966
249.011	730
249.075	303
249.138	521
249.202	-804
249.265	-1555
249.328	263
249.392	-653
249.455	-440
249.519	-624
249.582	-1305
249.645	-846
249.709	-752
249.772	-372
249.835	-1202
249.899	-1709
249.962	-435
250.025	-1445
250.089	-962
250.152	752
250.215	-380
250.279	-1656
250.342	103
250.405	-510
250.468	-1942
250.532	-891
250.595	-900
250.658	162
250.721	2608
250.785	-479
250.848	751
250.911	-1131
250.974	-480
251.038	-704
251.101	-260
251.164	-1361
251.227	-1042
251.290	-909
251.354	27
251.417	2091
251.480	2307
251.543	-27
251.606	4965
251.669	3090
251.732	623
251.795	468
251.859	1038
251.922	1420
251.985	1274
252.048	-58
252.111	-521
252.174	-613
252.237	-663
252.300	1089
252.363	663
252.426	3839
252.489	-515
252.552	131
252.615	-1656
252.678	-369
252.741	340
252.804	1271
252.867	2996
252.930	2866
252.993	-34
253.056	-303
253.119	-1792
253.182	-623
253.245	-782
253.308	-189
253.371	-1560
253.434	-1018
253.497	-323
253.559	325
253.622	-359
253.685	-588
253.748	-980
253.811	-1208
253.874	-506
253.937	-1492
254.000	-1353
254.062	-1086
254.125	-543
254.188	439
254.251	-463
254.314	-1198
254.376	-1275
254.439	-109
254.502	-764
254.565	-607
254.628	487
254.690	-1585
254.753	-1923
254.816	-868
254.878	-566
254.941	-257
255.004	-2033
255.067	-903
255.129	-1649
255.192	-1043
255.255	-2530
255.317	-1126
255.380	-1423
255.443	-716
255.505	-1587
255.568	-2844
255.631	-965
255.693	-1049
255.756	-1816
255.819	-308
255.881	-1870
255.944	-1212
256.006	-1422
256.069	-1671
256.132	-1582
256.194	-661
256.257	-1569
256.319	-1008
256.382	-1979
256.444	-985
256.507	-1202
256.569	-1180
256.632	-2793
256.694	-1353
256.757	296
256.819	4704
256.882	-517
256.944	-679
257.007	-159
257.069	-1056
257.132	-1092
257.194	-871
257.257	-1247
257.319	-2262
257.381	-1380
257.444	715
257.506	4526
257.569	5233
257.631	528
257.693	-122
257.756	-904
257.818	-868
257.880	-1324
257.943	-459
258.005	-2526
258.067	-753
258.130	-1278
258.192	-1101
258.254	-1490
258.317	-1393
258.379	-1031
258.441	-763
258.503	-981
258.566	-2208
258.628	11
258.690	-1574
258.753	-589
258.815	-1320
258.877	-1398
258.939	-1465
259.001	-965
259.064	-1516
259.126	-2663
259.188	-1138
259.250	-900
259.312	-679
259.375	-1090
259.437	-1115
259.499	-1011
259.561	-1103
259.623	-1591
259.685	-1481
259.747	-974
259.809	-1541
259.872	-1438
259.934	-163
259.996	54
260.058	-127
260.120	-1957
260.182	-923
260.244	-1564
260.306	-928
260.368	-1363
260.430	-2548
260.492	-1448
260.554	-335
260.616	-1366
260.678	-672
260.740	-1220
260.802	-2009
260.864	-1458
260.926	-2059
260.988	-770
261.050	-2314
261.112	-1193
261.174	-152
261.236	-751
261.298	-1401
261.359	-1547
261.421	-343
261.483	-2190
261.545	-871
261.607	-2793
261.669	-1499
261.731	-1624
261.793	-1190
261.854	-2926
261.916	-1288
261.978	-1496
262.040	-596
262.102	-1281
262.164	-1531
262.225	-1520
262.287	-1139
262.349	-1603
262.411	-1898
262.472	-1388
262.534	-1800
262.596	-1785
262.658	-1576
262.719	-1965
262.781	-1216
262.843	-2361
262.904	-672
262.966	-1854
263.028	-1397
263.090	-235
263.151	1249
263.213	-533
263.275	-1492
263.336	-1384
263.398	-668
263.459	-1855
263.521	-889
263.583	-1310
263.644	-766
263.706	-1832
263.767	-1570
263.829	-1051
263.891	-1857
263.952	-1279
264.014	-1686
264.075	-2039
264.137	-621
264.198	-619
264.260	-1931
264.321	-1380
264.383	-1546
264.444	509
264.506	-1947
264.567	-1110
264.629	-1043
264.690	-1423
264.752	-627
264.813	-1337
264.875	-2069
264.936	-1080
264.998	-1751
265.059	-2555
265.120	-1550
265.182	-879
265.243	1799
265.305	1163
265.366	-1147
265.427	-1130
265.489	-596
265.550	-1949
265.611	-1348
265.673	-2011
265.734	-1305
265.795	-1772
265.857	-2093
265.918	-1428
265.979	-658
266.040	3426
266.102	3231
266.163	-292
266.224	-1112
266.286	-1337
266.347	-2562
266.408	-1362
266.469	-998
266.530	-1366
266.592	-1618
266.653	-1595
266.714	-1584
266.775	-2517
266.836	-1653
266.898	-1922
266.959	-1654
267.020	-1691
267.081	-766
267.142	-1982
267.203	-1004
267.264	-2293
267.326	-1250
267.387	-2345
267.448	-1485
267.509	-1562
267.570	-916
267.631	-2276
267.692	-1876
267.753	-1224
267.814	-2391
267.875	-1002
267.936	-400
267.997	-1171
268.058	-810
268.119	-2177
268.180	-1782
268.241	-2330
268.302	-1137
268.363	-2014
268.424	-1922
268.485	-1148
268.546	-1571
268.607	-1447
268.668	-858
268.729	-2047
268.790	-1588
268.851	-2078
268.912	-1637
268.972	-1813
269.033	-1710
269.094	-2516
269.155	-2077
269.216	-1562
269.277	-1392
269.338	-1308
269.398	-1534
269.459	-2739
269.520	-1319
269.581	-1292
269.642	-990
269.702	-2092
269.763	-1410
269.824	-2631
269.885	-1235
269.945	-1631
270.006	-1750
270.067	-1820
270.128	-2219
270.188	-2122
270.249	-2266
270.310	-2185
270.370	-1928
270.431	-1375
270.492	-1546
270.553	-2294
270.613	-1860
270.674	-1609
270.734	-1182
270.795	-1363
270.856	-827
270.916	-2078
270.977	-1525
271.038	-1275
271.098	-1782
271.159	-1721
271.219	-1901
271.280	-1981
271.340	-1837
271.401	-2065
271.462	-2154
271.522	-1362
271.583	-1934
271.643	-2008
271.704	-1764
271.764	-2817
271.825	-1481
271.885	876
271.946	985
272.006	-1335
272.066	160
272.127	167
272.187	-1608
272.248	-1700
272.308	-1650
272.369	-372
272.429	-714
272.489	-1364
272.550	-1290
272.610	-863
272.671	-1694
272.731	-954
272.791	-1019
272.852	-2037
272.912	-787
272.972	-1718
273.033	-1928
273.093	-2235
273.153	-999
273.214	-1944
273.274	-1364
273.334	-806
273.394	98
273.455	-1226
273.515	-829
273.575	-800
273.635	-375
273.696	-254
273.756	474
273.816	-1266
273.876	-1296
273.936	-1331
273.997	-216
274.057	-1114
274.117	-1946
274.177	-901
274.237	505
274.297	109
274.358	-683
274.418	-412
274.478	-553
274.538	-1770
274.598	-2009
274.658	-1331
274.718	-1110
274.778	-2144
274.838	-1667
274.898	-1796
274.958	-825
275.018	-609
275.078	-152
275.138	-1843
275.198	-1688
275.258	-2781
275.318	-1878
275.378	-2126
275.438	-683
275.498	-1423
275.558	-1747
275.618	-667
275.678	-1096
275.738	-913
275.798	-1200
275.858	-1881
275.918	-1369
275.978	-1826
276.038	-2392
276.098	-1653
276.157	-1062
276.217	-498
276.277	-889
276.337	-1960
276.397	-1800
276.457	-1788
276.517	-1717
276.576	-1617
276.636	-1967
276.696	-2006
276.756	-1120
276.815	-1449
276.875	-1635
276.935	-2368
276.995	-1229
277.055	-1532
277.114	-1277
277.174	-1815
277.234	-452
277.293	-1102
277.353	-1601
277.413	-1806
277.472	-1406
277.532	-1984
277.592	-1410
277.651	-1232
277.711	-788
277.771	-2349
277.830	903
277.890	-489
277.950	-1077
278.009	1879
278.069	-925
278.128	-478
278.188	-1057
278.248	-766
278.307	-362
278.367	-813
278.426	-1591
278.486	-2312
278.545	-1464
278.605	-2051
278.664	-1652
278.724	-1750
278.783	-230
278.843	807
278.902	-644
278.962	-2262
279.021	-2312
279.081	-571
279.140	-935
279.199	-1311
279.259	-720
279.318	-1136
279.378	-668
279.437	-1417
279.496	2244
279.556	7195
279.615	4358
279.675	-542
279.734	-227
279.793	-826
279.853	1151
279.912	-1070
279.971	-1684
280.031	-1776
280.090	139
280.149	-1
280.208	46
280.268	3332
280.327	3581
280.386	-999
280.445	-1447
280.505	-1359
280.564	-531
280.623	-1135
280.682	-1145
280.742	-1027
280.801	-1362
280.860	-2031
280.919	-2481
280.978	-1360
281.037	-1988
281.097	-2434
281.156	-1807
281.215	-2343
281.274	-1498
281.333	-671
281.392	-1029
281.451	-2027
281.510	-1534
281.569	-1597
281.628	-2046
281.688	-1773
281.747	-1279
281.806	-854
281.865	-2072
281.924	-2502
281.983	-1722
282.042	-2380
282.101	-1755
282.160	-2180
282.219	-2306
282.278	-1950
282.337	-817
282.396	-1897
282.454	-913
282.513	-1649
282.572	-256
282.631	-1328
282.690	-1186
282.749	-1761
282.808	-1967
282.867	-1624
282.926	-1359
282.985	-1521
283.043	-1926
283.102	-2618
283.161	-1735
283.220	-1787
283.279	-412
283.338	-1954
283.396	-1813
283.455	-1746
283.514	-1388
283.573	-1321
283.631	-1621
283.690	-1807
283.749	-1951
283.808	-1144
283.866	-937
283.925	-1885
283.984	-1575
284.043	-2143
284.101	-1485
284.160	-1878
284.219	-398
284.277	-910
284.336	-1300
284.395	-431
284.453	-408
284.512	-1107
284.570	-456
284.629	-1873
284.688	-1816
284.746	-1174
284.805	-264
284.863	-1184
284.922	-293
284.981	-511
285.039	404
285.098	1617
285.156	6102
285.215	12062
285.273	12979
285.332	8272
285.390	3784
285.449	1033
285.507	-305
285.566	-253
285.624	-232
285.683	-419
285.741	-838
285.799	-1651
285.858	-1823
285.916	-1811
285.975	-1279
286.033	-1690
286.091	-1241
286.150	-1134
286.208	-1657
286.267	-1211
286.325	-2218
286.383	-1676
286.442	-1253
286.500	-1900
286.558	-1252
286.616	-2326
286.675	-444
286.733	-2254
286.791	-1723
286.850	-1103
286.908	-945
286.966	-1170
287.024	-1935
287.083	-1943
287.141	-1838
287.199	-1403
287.257	-1976
287.315	-1195
287.374	-1050
287.432	-1497
287.490	-723
287.548	-1650
287.606	-1842
287.664	-1791
287.723	-1540
287.781	-1912
287.839	-1776
287.897	-1891
287.955	-1392
288.013	-2156
288.071	-119
288.129	4985
288.187	17495
288.245	7519
288.303	1174
288.361	-354
288.419	-1116
288.477	-1166
288.535	-1621
288.593	-2023
288.651	-2079
288.709	-1739
288.767	-1114
288.825	-2648
288.883	-1805
288.941	-1532
288.999	-1588
289.057	-2290
289.115	-1877
289.173	-1837
289.231	-1408
289.289	-1974
289.346	-1968
289.404	-1533
289.462	-1717
289.520	-1516
289.578	-1179
289.636	-2167
289.694	-1689
289.751	-1982
289.809	-1507
289.867	-1581
289.925	-1267
289.983	-1948
290.040	-1405
290.098	-2095
290.156	-1296
290.214	-1710
290.271	-1010
290.329	-1655
290.387	-1575
290.444	-1715
290.502	-1280
290.560	-1759
290.617	-1491
290.675	-2143
290.733	-1461
290.790	-1012
290.848	-2054
290.906	-2268
290.963	-1937
291.021	-1599
291.078	-1970
291.136	-2402
291.194	-1183
291.251	1005
291.309	-704
291.366	-1556
291.424	-1400
291.481	-1853
291.539	-1249
291.596	-2079
291.654	-2021
291.711	-883
291.769	-1761
291.826	-1832
291.884	-1414
291.941	-1649
291.999	-2044
292.056	-1363
292.114	-1881
292.171	-1595
292.228	-1987
292.286	-2099
292.343	-1704
292.401	-1577
292.458	-1852
292.515	-2023
292.573	-1766
292.630	-1461
292.687	-1731
292.745	-2011
292.802	-731
292.859	-687
292.917	612
292.974	-606
293.031	-1032
293.089	-1523
293.146	-1879
293.203	-2124
293.260	-2460
293.318	-1651
293.375	-1032
293.432	-1693
293.489	-1560
293.546	-1870
293.604	-1521
293.661	-762
293.718	2267
293.775	57
293.832	-1085
293.889	-1919
293.947	-642
294.004	-1427
294.061	-1518
294.118	-668
294.175	229
294.232	2311
294.289	-57
294.346	-1353
294.403	-865
294.460	-2294
294.517	-1637
294.574	-1274
294.631	-1000
294.688	-1563
294.745	-723
294.802	3446
294.859	5596
294.916	472
294.973	-1045
295.030	-1678
295.087	-717
295.144	-1592
295.201	-1251
295.258	-1960
295.315	-1261
295.372	-160
295.429	1356
295.486	25
295.542	-833
295.599	2152
295.656	3416
295.713	973
295.770	2166
295.827	-427
295.883	-1060
295.940	-708
295.997	87
296.054	-1148
296.111	-1077
296.167	-1161
296.224	-1681
296.281	-1492
296.338	-2101
296.394	-1739
296.451	-1227
296.508	-861
296.564	959
296.621	887
296.678	2446
296.734	3338
296.791	619
296.848	-62
296.904	107
296.961	528
297.018	2294
297.074	951
297.131	-31
297.187	-1932
297.244	-212
297.301	1956
297.357	4569
297.414	350
297.470	-373
297.527	-1847
297.583	-1162
297.640	-998
297.696	-601
297.753	-1602
297.809	-892
297.866	-1846
297.922	-1115
297.979	-1657
298.035	-1492
298.092	-922
298.148	425
298.204	211
298.261	-670
298.317	-154
298.374	2535
298.430	840
298.486	-509
298.543	-1589
298.599	-1327
298.656	-1150
298.712	-279
298.768	2276
298.824	1006
298.881	-805
298.937	-866
298.993	-768
299.050	-918
299.106	-1181
299.162	-1059
299.218	-727
299.275	-1778
299.331	-1297
299.387	-608
299.443	1935
299.500	2392
299.556	-17
299.612	-968
299.668	-1102
299.724	-693
299.780	-970
299.837	-941
299.893	-1151
299.949	940
300.005	2755
300.061	1754
300.117	3210
300.173	2330
300.229	-404
300.285	-563
300.341	97
300.397	-403
300.453	-2041
300.510	-1281
300.566	-1360
300.622	-1023
300.678	-813
300.734	1919
300.790	1937
300.845	2309
300.901	1110
300.957	1326
301.013	1376
301.069	-719
301.125	-810
301.181	-316
301.237	-1464
301.293	-1837
301.349	-1286
301.405	-1573
301.461	-1444
301.516	-453
301.572	-1415
301.628	-373
301.684	-346
301.740	378
301.796	1221
301.851	1098
301.907	1226
301.963	1851
302.019	2714
302.074	9000
302.130	9735
302.186	4723
302.242	849
302.297	307
302.353	424
302.409	826
302.464	983
302.520	1095
302.576	2020
302.631	3481
302.687	2239
302.743	165
302.798	-248
302.854	-539
302.910	-527
302.965	-127
303.021	860
303.076	822
303.132	164
303.187	1102
303.243	-102
303.299	-606
303.354	-1198
303.410	-199
303.465	-1097
303.521	-304
303.576	-1169
303.632	-675
303.687	-398
303.743	2077
303.798	2250
303.853	410
303.909	-368
303.964	89
304.020	-355
304.075	1220
304.130	398
304.186	2857
304.241	3131
304.297	1315
304.352	-793
304.358	-756
304.407	-459
304.449	-817
304.463	-935
304.518	-221
304.539	-561
304.573	-1119
304.629	-73
304.630	-87
304.684	-683
304.720	852
304.739	1621
304.794	3204
304.811	2706
304.850	1477
304.902	493
304.905	435
304.960	-612
304.992	-584
305.015	-586
305.071	54
305.083	-66
305.126	-544
305.173	-504
305.181	-473
305.236	-1074
305.264	-733
305.292	-483
305.347	-1451
305.354	-1346
305.402	-531
305.445	-93
305.457	-5
305.512	12
305.535	89
305.567	243
305.622	-150
305.626	-105
305.678	813
305.716	2320
305.733	2887
305.788	3518
305.807	3111
305.843	2400
305.897	2487
305.898	2484
305.953	3394
305.988	2129
306.008	1443
306.063	718
306.078	526
306.118	123
306.168	-242
306.173	-293
306.228	-248
306.259	-480
306.283	-599
306.338	-597
306.349	-642
306.393	-746
306.440	-448
306.448	-402
306.503	0
306.530	-288
306.558	-382
306.613	1622
306.620	1672
306.668	2019
306.711	3468
306.723	3654
306.778	3100
306.801	2087
306.833	967
306.888	122
306.892	72
306.943	-412
306.982	-689
306.997	-732
307.052	37
307.072	-62
307.107	-357
307.162	193
307.163	190
307.217	407
307.253	879
307.272	997
307.327	407
307.343	276
307.381	152
307.434	-42
307.436	-18
307.491	1738
307.524	2390
307.546	2531
307.600	3963
307.614	3397
307.655	1286
307.704	724
307.710	745
307.765	573
307.795	727
307.819	881
307.874	2156
307.885	2161
307.929	2031
307.975	1950
307.984	2045
308.038	3401
308.065	4474
308.093	7417
308.148	16204
308.156	18070
308.202	28012
308.246	34412
308.257	33914
308.312	21724
308.336	15896
308.366	11485
308.421	6707
308.426	6275
308.475	3631
308.517	2696
308.530	2453
308.585	2052
308.607	1740
308.639	1552
308.694	1558
308.697	1581
308.748	2441
308.787	3181
308.803	3215
308.857	3191
308.877	2876
308.912	2271
308.967	1774
308.967	1774
309.021	3262
309.058	4305
309.076	5359
309.130	10173
309.148	12128
309.185	20871
309.238	36160
309.239	36290
309.293	40377
309.328	39242
309.348	35019
309.402	19252
309.418	15138
309.457	10455
309.508	5786
309.511	5622
309.566	4561
309.598	4079
309.620	3885
309.674	4056
309.688	4145
309.729	4086
309.778	3353
309.783	3241
309.837	2228
309.868	1725
309.892	2388
309.946	4385
309.959	4946
310.001	6144
310.049	7330
310.055	7163
310.109	5072
310.139	3458
310.163	2371
310.218	694
310.229	366
310.272	408
310.319	753
310.326	757
310.381	650
310.409	656
310.435	612
310.489	342
310.499	322
310.543	569
310.589	804
310.598	801
310.652	727
310.679	596
310.706	319
310.760	93
310.769	25
310.814	562
310.859	1057
310.868	988
310.923	528
310.948	344
310.977	506
311.031	857
311.038	901
311.085	577
311.128	82
311.139	199
311.193	1019
311.218	1313
311.247	1097
311.301	747
311.308	690
311.356	617
311.398	611
311.410	558
311.464	229
311.488	62
311.518	290
311.572	791
311.578	841
311.626	632
311.668	379
311.680	527
311.734	1251
311.758	1551
311.788	1273
311.842	779
311.847	721
311.896	1419
311.937	2063
311.950	1897
312.004	1113
312.027	769
312.058	934
312.112	1233
312.117	1261
312.165	1151
312.207	1054
312.297	1346
312.386	388
312.476	1288
312.566	1956
312.656	1116
312.745	1023
312.835	935
312.925	1148
313.015	481
313.104	984
313.194	1187
313.284	125
313.374	1147
313.463	73
313.553	1188
313.643	268
313.732	1204
313.822	323
313.912	736
314.001	449
314.091	1184
314.180	361
314.270	837
314.360	922
314.449	1307
314.539	-117
314.628	1209
314.718	846
314.808	948
314.897	879
314.987	333
315.076	700
315.166	758
315.255	603
315.345	980
315.434	789
315.524	1644
315.613	1566
315.703	614
315.792	1428
315.881	1441
315.971	602
316.060	1292
316.150	962
316.239	2797
316.328	1411
316.418	997
316.507	245
316.597	1552
316.686	646
316.775	840
316.865	1917
316.954	978
317.043	-177
317.133	1098
317.222	-325
317.311	1063
317.400	-694
317.490	1438
317.579	-113
317.668	976
317.757	165
317.847	1034
317.936	825
318.025	1653
318.114	1020
318.203	1304
318.293	1954
318.382	3578
318.471	2297
318.560	3040
318.649	7650
318.738	1440
318.828	180
318.917	349
319.006	974
319.095	2812
319.184	9586
319.273	5335
319.362	2093
319.451	884
319.540	701
319.629	1579
319.718	2742
319.807	1762
319.896	3082
319.985	12241
320.074	4209
320.163	346
320.252	936
320.341	1829
320.430	800
320.519	921
320.608	1051
320.697	728
320.786	161
320.875	648
320.964	-185
321.053	1491
321.142	1080
321.230	1888
321.319	1494
321.408	3981
321.497	1411
321.586	1363
321.675	1165
321.764	1678
321.852	596
321.941	2470
322.030	2080
322.119	897
322.207	3952
322.296	3041
322.385	1503
322.474	802
322.562	4291
322.651	2991
322.740	1309
322.829	2258
322.917	1554
323.006	1821
323.095	1199
323.183	884
323.272	420
323.361	2690
323.449	6826
323.538	1466
323.626	4071
323.715	3224
323.804	660
323.892	3636
323.981	2407
324.069	664
324.158	2067
324.246	2420
324.335	275
324.424	2093
324.512	937
324.601	921
324.689	2084
324.778	4860
324.866	1744
324.954	1285
325.043	200
325.131	463
325.220	1852
325.308	2230
325.397	457
325.485	523
325.574	216
325.662	313
325.750	-331
325.839	1144
325.927	674
326.015	923
326.104	198
326.192	608
326.280	268
326.369	939
326.457	982
326.545	1215
326.634	268
326.722	618
326.810	238
326.898	880
326.987	301
327.075	1366
327.163	954
327.251	845
327.340	1657
327.428	3244
327.516	-595
327.604	283
327.692	-251
327.781	481
327.869	702
327.957	43
328.045	-243
328.133	539
328.221	352
328.309	-132
328.397	535
328.485	1538
328.574	28
328.662	1677
328.750	834
328.838	11
328.926	-76
329.014	413
329.102	593
329.190	2457
329.278	488
329.366	619
329.454	-289
329.542	849
329.630	-706
329.718	835
329.806	480
329.893	315
329.981	313
330.069	1694
330.157	6286
330.245	18674
330.333	10485
330.421	1959
330.509	505
330.597	2907
330.684	2163
330.772	1308
330.860	1378
330.948	1906
331.036	-215
331.123	-8
331.211	-532
331.299	-97
331.387	397
331.475	2782
331.562	604
331.650	181
331.738	254
331.825	642
331.913	-61
332.001	251
332.089	-364
332.176	1794
332.264	1310
332.352	1238
332.439	602
332.527	603
332.614	-599
332.702	618
332.790	290
332.877	1382
332.965	1054
333.052	349
333.140	-21
333.228	727
333.315	20
333.403	487
333.490	276
333.578	145
333.665	287
333.753	1105
333.840	-429
333.928	628
334.015	1391
334.103	2756
334.190	11226
334.278	2785
334.365	-203
334.452	834
334.540	-628
334.627	-491
334.715	402
334.802	576
334.889	6425
334.977	7874
335.064	1288
335.151	240
335.239	-182
335.326	1291
335.413	4940
335.501	8598
335.588	281
335.675	470
335.762	505
335.850	1514
335.937	297
336.024	2040
336.111	9179
336.199	3971
336.286	826
336.373	107
336.460	220
336.547	739
336.635	817
336.722	105
336.809	-33
336.896	791
336.983	2513
337.070	8498
337.157	12343
337.245	6534
337.332	3625
337.419	57
337.506	317
337.593	195
337.680	1882
337.767	9562
337.854	1796
337.941	2520
338.028	1182
338.115	289
338.202	1089
338.289	891
338.376	4418
338.463	2048
338.550	4561
338.637	6262
338.724	269
338.811	945
338.898	-13
338.984	-328
339.071	641
339.158	626
339.245	732
339.332	1623
339.419	76
339.506	1549
339.593	-724
339.679	196
339.766	-158
339.853	227
339.940	271
340.027	322
340.113	-12
340.200	828
340.287	34
340.374	760
340.460	739
340.547	-877
340.634	758
340.720	2663
340.807	674
340.894	-116
340.980	-239
341.067	-116
341.154	143
341.240	965
341.327	1107
341.414	1022
341.500	-50
341.587	831
341.674	-298
341.760	558
341.847	1044
341.933	277
342.020	-778
342.106	702
342.193	-223
342.279	865
342.366	-50
342.452	298
342.539	15
342.625	983
342.712	2792
342.798	441
342.885	-389
342.971	261
343.058	52
343.144	-427
343.230	532
343.317	16
343.403	-132
343.490	611
343.576	-245
343.662	-253
343.749	-228
343.835	432
343.921	1133
344.008	5847
344.094	15943
344.180	3620
344.267	333
344.353	4532
344.439	4173
344.525	2354
344.612	2357
344.698	2187
344.784	1291
344.870	700
344.957	-122
345.043	1045
345.129	-820
345.215	1025
345.301	-432
345.387	180
345.474	-400
345.560	6
345.646	-736
345.732	416
345.818	-71
345.904	660
345.990	-110
346.076	26
346.162	413
346.249	82
346.335	138
346.421	470
346.507	450
346.593	5459
346.679	222
346.765	794
346.851	-424
346.937	-87
347.023	1101
347.108	1184
347.194	-804
347.280	385
347.366	-328
347.452	1167
347.538	5511
347.624	7463
347.710	4012
347.796	483
347.882	321
347.967	-256
348.053	-322
348.139	405
348.225	-123
348.311	56
348.397	-269
348.482	454
348.568	343
348.654	-1327
348.740	-724
348.825	-1236
348.911	972
348.997	2157
349.083	7712
349.168	629
349.254	-549
349.340	252
349.425	-89
349.511	110
349.597	-448
349.682	861
349.768	4181
349.854	2135
349.939	808
350.025	-271
350.110	302
350.196	-81
350.282	-457
350.367	652
350.453	114
350.538	315
350.624	-421
350.709	866
350.795	-294
350.880	26
350.966	43
351.051	336
351.137	-319
351.222	283
351.308	1043
351.393	3324
351.479	-153
351.564	171
351.649	228
351.735	182
351.820	-348
351.906	681
351.991	-646
352.076	1740
352.162	2607
352.247	619
352.332	-182
352.418	783
352.503	274
352.588	4739
352.673	4226
352.759	876
352.844	-566
352.929	-61
353.014	-242
353.100	-3
353.185	46
353.270	658
353.355	1109
353.441	-115
353.526	-691
353.611	-150
353.696	322
353.781	922
353.866	-975
353.952	399
354.037	-229
354.122	1568
354.207	1097
354.292	677
354.377	-506
354.462	692
354.547	-180
354.632	221
354.717	22
354.802	268
354.887	45
354.972	-94
355.057	814
355.142	-139
355.227	47
355.312	514
355.397	590
355.482	2898
355.567	452
355.652	1670
355.737	768
355.822	4780
355.907	2832
355.991	1052
356.076	-765
356.161	103
356.246	-111
356.331	98
356.416	-664
356.501	8004
356.585	8653
356.670	-11
356.755	1299
356.840	895
356.924	4383
357.009	18221
357.094	6484
357.179	-219
357.263	176
357.348	870
357.433	353
357.517	751
357.602	-329
357.687	-111
357.771	775
357.856	3193
357.941	2544
358.025	3020
358.110	18114
358.195	8898
358.279	584
358.364	-210
358.448	1548
358.533	9162
358.617	5272
358.702	6829
358.787	2081
358.871	955
358.956	812
359.040	-277
359.125	-26
359.209	217
359.294	597
359.378	2970
359.462	274
359.547	363
359.631	-341
359.716	-643
359.800	-188
359.885	1422
359.969	-1248
360.053	759
360.138	-311
360.222	199
360.306	211
360.391	323
360.475	1245
360.559	4358
360.644	1940
360.728	1346
360.812	3580
360.896	13127
360.981	4528
361.065	1812
361.149	1181
361.233	159
361.318	-586
361.402	281
361.486	806
361.570	-46
361.654	-860
361.739	1446
361.823	5810
361.907	13560
361.991	1568
362.075	232
362.159	477
362.243	2123
362.327	-279
362.411	1944
362.495	48
362.580	404
362.664	-365
362.748	220
362.832	-139
362.916	-917
363.000	2067
363.084	6182
363.168	13955
363.252	3081
363.336	732
363.420	1581
363.503	7310
363.587	10493
363.671	1327
363.755	155
363.839	1403
363.923	-561
364.007	172
364.091	850
364.175	466
364.258	14098
364.342	6902
364.426	4514
364.510	1062
364.594	1645
364.677	2130
364.761	9957
364.845	8770
364.929	1696
365.013	1151
365.096	935
365.180	519
365.264	3005
365.347	14448
365.431	6372
365.515	433
365.598	-1076
365.682	809
365.766	211
365.849	966
365.933	-182
366.017	1738
366.100	153
366.184	-717
366.267	977
366.351	-161
366.435	-618
366.518	-283
366.602	-122
366.685	-102
366.769	-267
366.852	1171
366.936	1398
367.019	108
367.103	17
367.186	1960
367.270	-696
367.353	-1023
367.436	773
367.520	-688
367.603	371
367.687	-1245
367.770	396
367.853	164
367.937	2590
368.020	4976
368.104	114
368.187	1051
368.270	1754
368.353	493
368.437	1910
368.520	2405
368.603	1935
368.687	1268
368.770	7211
368.853	908
368.936	1115
369.020	1481
369.103	-11
369.186	-1051
369.269	-498
369.352	139
369.436	477
369.519	-1
369.602	-1231
369.685	520
369.768	-900
369.851	373
369.934	-545
370.018	-720
370.101	41
370.184	964
370.267	-270
370.350	1136
370.433	1443
370.516	4253
370.599	6527
370.682	-558
370.765	3454
370.848	4423
370.931	8292
371.014	4233
371.097	-824
371.180	1193
371.263	833
371.346	-1158
371.429	391
371.511	-658
371.594	830
371.677	831
371.760	2290
371.843	295
371.926	5861
372.009	15256
372.091	6495
372.174	1688
372.257	8892
372.340	3120
372.423	2040
372.505	3230
372.588	488
372.671	1915
372.754	7137
372.836	3746
372.919	3764
373.002	7876
373.085	1425
373.167	591
373.250	1917
373.332	7782
373.415	9601
373.498	20913
373.580	8283
373.663	8044
373.746	13639
373.828	1769
373.911	2057
373.993	598
374.076	7441
374.159	6760
374.241	1553
374.324	6421
374.406	5137
374.489	5130
374.571	19550
374.654	7695
374.736	3136
374.819	10004
374.901	16756
374.983	16106
375.066	2388
375.148	260
375.231	5125
375.313	12707
375.395	3292
375.478	-660
375.560	947
375.643	435
375.725	2106
375.807	12910
375.890	11811
375.972	1526
376.054	1794
376.136	2229
376.219	508
376.301	3084
376.383	11266
376.465	4217
376.548	1627
376.630	1207
376.712	9730
376.794	3901
376.877	649
376.959	-731
377.041	226
377.123	404
377.205	1879
377.287	-1210
377.369	347
377.452	-512
377.534	-21
377.616	-568
377.698	-191
377.780	-1213
377.862	-255
377.944	-31
378.026	-749
378.108	-87
378.190	-500
378.272	288
378.354	280
378.436	-274
378.518	-898
378.600	1541
378.682	3139
378.764	3918
378.846	3734
378.928	266
379.010	785
379.091	1587
379.173	-96
379.255	-1496
379.337	0
379.419	672
379.501	6880
379.583	2193
379.664	-50
379.746	-239
379.828	5101
379.910	4807
379.991	6364
380.073	390
380.155	168
380.237	-259
380.318	-497
380.400	-256
380.482	218
380.564	959
380.645	640
380.727	-504
380.809	966
380.890	-564
380.972	-457
381.053	-974
381.135	730
381.217	231
381.298	5767
381.380	1412
381.461	1407
381.543	8360
381.624	12145
381.706	2352
381.787	612
381.869	438
381.951	3044
382.032	14486
382.113	12154
382.195	449
382.276	2060
382.358	1857
382.439	7605
382.521	9499
382.602	17026
382.684	7127
382.765	10904
382.846	9145
382.928	9817
383.009	4499
383.090	3102
383.172	11233
383.253	22099
383.334	7576
383.416	13030
383.497	6714
383.578	1499
383.659	2256
383.741	9919
383.822	32121
383.903	15347
383.984	5986
384.066	16075
384.147	9648
384.228	1667
384.309	186
384.390	916
384.471	-669
384.553	186
384.634	-110
384.715	1101
384.796	-446
384.877	532
384.958	3051
385.039	4869
385.120	957
385.201	1380
385.282	58
385.363	766
385.444	-77
385.525	958
385.606	6713
385.687	6368
385.768	1080
385.849	1065
385.930	7068
386.011	14654
386.092	2718
386.173	1139
386.254	-883
386.335	847
386.416	17
386.496	2587
386.577	4797
386.658	1815
386.739	-159
386.820	466
386.901	-236
386.981	884
387.062	-806
387.143	-164
387.224	3790
387.304	5333
387.385	1718
387.466	-596
387.547	847
387.627	189
387.708	1467
387.789	8167
387.869	10750
387.950	3456
388.031	-206
388.111	-1732
388.192	531
388.273	2803
388.353	839
388.434	125
388.514	777
388.595	8000
388.676	10430
388.756	4880
388.837	4411
388.917	1881
388.998	-1953
389.078	1292
389.159	-177
389.239	-709
389.320	1537
389.400	-314
389.480	1632
389.561	5155
389.641	2998
389.722	400
389.802	244
389.883	2035
389.963	6692
390.043	4194
390.124	-286
390.204	1403
390.284	4481
390.365	2402
390.445	3788
390.525	8012
390.605	6964
390.686	1602
390.766	654
390.846	-146
390.927	-517
391.007	-583
391.087	258
391.167	-146
391.247	-866
391.328	521
391.408	1037
391.488	1613
391.568	-1430
391.648	-162
391.728	789
391.808	797
391.888	356
391.969	1908
392.049	3844
392.129	2299
392.209	1118
392.289	7140
392.369	2821
392.449	2353
392.529	693
392.609	1477
392.689	1234
392.769	5604
392.849	3989
392.929	3868
393.009	8508
393.089	5580
393.169	1978
393.248	3738
393.328	36134
393.408	43474
393.488	7319
393.568	1486
393.648	723
393.728	34
393.807	-512
393.887	1744
393.967	237
394.047	805
394.127	723
394.206	2532
394.286	12278
394.366	56637
394.446	69406
394.525	18184
394.605	4245
394.685	2753
394.764	4959
394.844	7732
394.924	5161
395.003	1511
395.083	495
395.163	537
395.242	428
395.322	1267
395.402	-1154
395.481	2334
395.561	2121
395.640	9180
395.720	6222
395.799	10526
395.879	9856
395.958	6662
396.038	19588
396.117	74423
396.197	88423
396.276	31141
396.356	8691
396.435	4584
396.515	2722
396.594	1564
396.673	2149
396.753	7615
396.832	36582
396.912	30205
396.991	5956
397.070	2607
397.150	-1088
397.229	1039
397.308	175
397.388	963
397.467	879
397.546	658
397.625	-2613
397.705	1773
397.784	-203
397.863	-1180
397.942	-804
398.022	138
398.101	1021
398.180	8892
398.259	3198
398.338	1166
398.417	-622
398.497	-484
398.576	279
398.655	-909
398.734	-18
398.813	-428
398.892	1664
398.971	9670
399.050	3631
399.129	-786
399.208	-519
399.287	710
399.366	-369
399.445	-257
399.524	-192
399.603	-1086
399.682	-138
399.761	900
399.840	9418
399.919	9751
399.998	-69
400.077	-464
400.156	-1383
400.235	1589
400.313	-808
400.392	-1064
400.471	2021
400.550	3608
400.629	106
400.708	383
400.786	-1406
400.865	1297
400.944	464
401.023	1970
401.102	-1130
401.180	-531
401.259	-1113
401.338	-436
401.416	-504
401.495	-943
401.574	-301
401.652	-540
401.731	254
401.810	-1557
401.888	-943
401.967	-1115
402.046	27
402.124	424
402.203	-1041
402.281	-41
402.360	-1585
402.438	2949
402.517	-215
402.596	360
402.674	-638
402.753	-363
402.831	-374
402.910	360
402.988	102
403.066	5413
403.145	3262
403.223	1587
403.302	3536
403.380	4237
403.459	3250
403.537	721
403.615	66
403.694	-2154
403.772	173
403.850	-60
403.929	-637
404.007	-993
404.085	310
404.164	-491
404.242	43
404.320	4908
404.398	15894
404.477	14611
404.555	15329
404.633	15067
404.711	12460
404.789	9186
404.868	875
404.946	36
405.024	-586
405.102	-526
405.180	-952
405.258	-1518
405.336	-414
405.415	-1295
405.493	287
405.571	849
405.649	-856
405.727	-645
405.805	-223
405.883	-363
405.961	-45
406.039	-415
406.117	-1070
406.195	151
406.273	538
406.351	10246
406.429	6964
406.507	792
406.585	-1005
406.663	347
406.740	-1047
406.818	-1492
406.896	-843
406.974	165
407.052	-1683
407.130	5682
407.208	8548
407.285	2178
407.363	-688
407.441	-307
407.519	-929
407.596	-412
407.674	695
407.752	1677
407.830	3008
407.907	1287
407.985	-1464
408.063	-1087
408.141	-696
408.218	1367
408.296	-1550
408.373	-822
408.451	370
408.529	-442
408.606	-1403
408.684	-383
408.762	-1102
408.839	-1292
408.917	-1508
408.994	394
409.072	-1385
409.149	-712
409.227	-242
409.304	-611
409.382	-779
409.459	-1177
409.537	-773
409.614	-577
409.692	-240
409.769	-1182
409.846	-1310
409.924	360
410.001	-2198
410.079	-625
410.156	166
410.233	349
410.311	-930
410.388	-594
410.465	399
410.543	-1132
410.620	-488
410.697	-815
410.775	-874
410.852	-1737
410.929	-267
411.006	243
411.083	-972
411.161	-750
411.238	-71
411.315	-487
411.392	-98
411.469	-310
411.547	-688
411.624	-1783
411.701	-1461
411.778	-1228
411.855	-847
411.932	-1250
412.009	-1504
412.086	-403
412.163	-1001
412.240	-849
412.317	665
412.394	-331
412.471	-325
412.548	-1224
412.625	-1391
412.702	-268
412.779	-726
412.856	64
412.933	-1647
413.010	-562
413.087	-551
413.164	304
413.241	3246
413.318	-482
413.395	510
413.471	-515
413.548	71
413.625	-38
413.702	-2315
413.779	-421
413.855	-780
413.932	-932
414.009	-2177
414.086	-663
414.162	-1367
414.239	-872
414.316	547
414.393	5528
414.469	-157
414.546	-912
414.623	-1390
414.699	-975
414.776	-1876
414.853	-1040
414.929	-743
415.006	-828
415.082	-679
415.159	-1158
415.236	-1166
415.312	-363
415.389	-405
415.465	-851
415.542	-1103
415.618	-1992
415.695	61
415.771	-910
415.848	-1050
415.924	-108
416.000	-1099
416.077	502
416.153	-1820
416.230	-1744
416.306	-585
416.383	-1313
416.459	-1397
416.535	-1505
416.612	-1499
416.688	-539
416.764	-1346
416.841	-1430
416.917	-1857
416.993	-167
417.069	-1048
417.146	-1008
417.222	-453
417.298	-1066
417.374	-2181
417.451	-1088
417.527	-765
417.603	-926
417.679	-1444
417.755	-647
417.831	-1455
417.908	-6
417.984	-1022
418.060	-1878
418.136	-872
418.212	-539
418.288	-1049
418.364	-283
418.440	-1270
418.516	-522
418.592	-983
418.668	406
418.744	-47
418.820	1104
418.896	-797
418.972	-1467
419.048	-688
419.124	262
419.200	-2196
419.276	-388
419.352	-1451
419.428	-843
419.504	-1994
419.579	-671
419.655	-1402
419.731	-382
419.807	223
419.883	-90
419.959	-304
420.034	128
420.110	-740
420.186	2060
420.262	2341
420.337	121
420.413	-1394
420.489	-110
420.565	-1192
420.640	-1273
420.716	-623
420.792	-1594
420.867	-160
420.943	-901
421.019	-594
421.094	-1876
421.170	-1143
421.245	-1243
421.321	-596
421.397	-665
421.472	-157
421.548	-569
421.623	609
421.699	-436
421.774	-567
421.850	-1067
421.925	-530
422.001	296
422.076	-359
422.152	-1346
422.227	-714
422.302	524
422.378	-260
422.453	715
422.529	3916
422.604	21515
422.679	52659
422.755	31593
422.830	6279
422.905	2002
422.981	-813
423.056	-523
423.131	165
423.207	-458
423.282	-1461
423.357	1164
423.432	-1171
423.508	-355
423.583	-853
423.658	810
423.733	-979
423.808	-219
423.883	-289
423.959	-458
424.034	-1563
424.109	-774
424.184	-2555
424.259	-1160
424.334	-1361
424.409	-1178
424.484	-1313
424.559	-606
424.634	-555
424.709	-1287
424.784	-1036
424.859	-1066
424.934	-1611
425.009	676
425.084	2520
425.159	905
425.234	-96
425.309	-772
425.384	381
425.459	1725
425.534	-312
425.609	-1542
425.683	-915
425.758	-954
425.833	-1164
425.908	-298
425.983	-846
426.058	3940
426.132	-496
426.207	-1260
426.282	938
426.357	-1205
426.431	-473
426.506	-296
426.581	-2005
426.655	-757
426.730	-317
426.805	-1383
426.879	-707
426.954	-915
427.029	-945
427.103	2508
427.178	8455
427.253	4210
427.327	-391
427.402	-371
427.476	659
427.551	-704
427.625	-681
427.700	-657
427.774	-1735
427.849	-493
427.923	-2065
427.998	-1236
428.072	-1398
428.147	-473
428.221	343
428.296	4735
428.370	1166
428.444	-869
428.519	-345
428.593	211
428.667	485
428.742	1238
428.816	337
428.890	3168
428.965	5586
429.039	2145
429.113	404
429.188	210
429.262	-989
429.336	-507
429.410	-402
429.485	825
429.559	331
429.633	672
429.707	-952
429.781	-661
429.855	3470
429.930	6864
430.004	4768
430.078	8307
430.152	6785
430.226	7216
430.300	8091
430.374	1486
430.448	-461
430.522	1774
430.596	6989
430.670	4963
430.744	6077
430.818	13435
430.892	2235
430.966	-482
431.040	-387
431.114	-1385
431.188	-1547
431.262	-745
431.336	-576
431.410	219
431.484	703
431.557	1109
431.631	-828
431.705	-1400
431.779	-896
431.853	3449
431.927	1641
432.000	-532
432.074	-34
432.148	-968
432.222	-1404
432.295	-1219
432.369	-688
432.443	-635
432.516	2343
432.590	10260
432.664	3883
432.737	-793
432.811	-1798
432.885	-1249
432.958	-310
433.032	-585
433.106	-1421
433.179	-1018
433.253	-870
433.326	-1010
433.400	-1172
433.473	110
433.547	-1492
433.620	-483
433.694	-1358
433.767	-256
433.841	-1189
433.914	-666
433.988	-1309
434.061	-618
434.134	-473
434.208	-1253
434.281	-1787
434.355	-1525
434.428	-1241
434.501	-993
434.575	-1186
434.648	-870
434.721	-1005
434.795	-1739
434.868	-1644
434.941	-808
435.014	-1649
435.088	-1257
435.161	-985
435.234	-656
435.307	-327
435.381	-225
435.454	-1393
435.527	-1233
435.600	-1608
435.673	-1372
435.746	-932
435.819	-1293
435.892	-942
435.966	-1139
436.039	-2175
436.112	-257
436.185	-1756
436.258	-1752
436.331	-1663
436.404	-1082
436.477	-1465
436.550	-1770
436.623	-1219
436.696	-1692
436.769	-1060
436.842	-1282
436.915	-875
436.987	-645
437.060	-1162
437.133	-593
437.206	-2094
437.279	-1064
437.352	-2096
437.425	-1516
437.498	-1537
437.570	250
437.643	-279
437.716	-238
437.789	-1730
437.861	-1322
437.934	135
438.007	-631
438.080	-1392
438.152	-850
438.225	-130
438.298	3618
438.370	16107
438.443	7876
438.516	666
438.588	-1148
438.661	-1479
438.734	-573
438.806	-1796
438.879	-841
438.951	-1818
439.024	-1011
439.096	-1314
439.169	-1139
439.241	-1288
439.314	-1030
439.386	-881
439.459	-448
439.531	-1116
439.604	-1034
439.676	-903
439.749	-854
439.821	-1640
439.893	-947
439.966	-1216
440.038	-979
440.110	-1193
440.183	-764
440.255	-1334
440.327	-188
440.400	1551
440.472	9307
440.544	7320
440.617	-112
440.689	-394
440.761	-634
440.833	624
440.905	-399
440.978	-1067
441.050	-831
441.122	-795
441.194	-1110
441.266	-1704
441.338	-1181
441.411	-1155
441.483	1747
441.555	4403
441.627	282
441.699	87
441.771	-749
441.843	-1414
441.915	-1150
441.987	-1662
442.059	-842
442.131	-1913
442.203	-660
442.275	-898
442.347	-475
442.419	-815
442.491	412
442.563	3384
442.635	3038
442.706	1523
442.778	1744
442.850	-780
442.922	-279
442.994	-1372
443.066	-110
443.137	-835
443.209	-912
443.281	-1061
443.353	-479
443.425	1897
443.496	8148
443.568	8964
443.640	2855
443.711	-386
443.783	-315
443.855	-1173
443.926	-793
443.998	-1360
444.070	-367
444.141	-842
444.213	-838
444.285	-678
444.356	-1141
444.428	-1011
444.499	-443
444.571	-1509
444.642	131
444.714	-1243
444.785	-879
444.857	-706
444.928	379
445.000	592
445.071	194
445.143	76
445.214	-445
445.285	-163
445.357	2422
445.428	7013
445.500	18338
445.571	12322
445.642	4835
445.714	1862
445.785	3789
445.856	-106
445.928	-436
445.999	-978
446.070	-486
446.141	-877
446.213	923
446.284	-989
446.355	205
446.426	-1370
446.497	-577
446.569	-1778
446.640	-493
446.711	-788
446.782	-1722
446.853	-526
446.924	-487
446.995	-1299
447.066	-402
447.138	-217
447.209	-157
447.280	-1487
447.351	-772
447.422	-1522
447.493	-581
447.564	-498
447.635	-1313
447.706	-1502
447.777	-1228
447.847	-1158
447.918	-929
447.989	-614
448.060	-127
448.131	566
448.202	8
448.273	-1246
448.344	-449
448.414	-498
448.485	-954
448.556	-636
448.627	-1231
448.698	-481
448.768	-997
448.839	-1482
448.910	-578
448.981	-256
449.051	-761
449.122	-1031
449.193	-938
449.263	-42
449.334	-311
449.405	-1020
449.475	300
449.546	439
449.616	586
449.687	526
449.758	-583
449.828	-768
449.899	-272
449.969	-1321
450.040	-1043
450.110	-882
450.181	-176
450.251	-1328
450.322	-880
450.392	-916
450.463	-544
450.533	-994
450.604	-328
450.674	-858
450.744	-555
450.815	-1330
450.885	403
450.955	-421
451.026	-923
451.096	-1443
451.166	-1135
451.237	-765
451.307	2901
451.377	583
451.447	-779
451.518	-415
451.588	-856
451.658	-249
451.728	-438
451.799	2298
451.869	3125
451.939	-175
452.009	-305
452.079	-1125
452.149	-281
452.219	-271
452.289	3530
452.360	2491
452.430	208
452.500	-681
452.570	-342
452.640	355
452.710	1613
452.780	2735
452.850	1745
452.920	161
452.990	303
453.060	-117
453.129	-866
453.199	-1085
453.269	4092
453.339	10197
453.409	16347
453.479	13762
453.549	22014
453.619	24103
453.688	10735
453.758	611
453.828	238
453.898	-335
453.968	-650
454.037	-260
454.087	-435
454.107	-516
454.168	-461
454.177	-466
454.247	-76
454.249	-119
454.316	-1490
454.330	-1156
454.386	147
454.411	427
454.456	727
454.492	1694
454.525	2566
454.574	1453
454.595	960
454.655	165
454.665	49
454.734	-679
454.736	-628
454.804	612
454.817	1084
454.873	2655
454.898	3183
454.943	4096
454.979	2294
455.013	687
455.060	286
455.082	176
455.141	592
455.152	674
455.221	3254
455.222	3326
455.291	6201
455.303	6743
455.360	8591
455.384	12581
455.430	18501
455.465	14201
455.499	10467
455.546	6599
455.569	4772
455.627	2559
455.638	2178
455.707	-98
455.708	-88
455.777	-376
455.789	-386
455.846	-455
455.869	-380
455.916	-216
455.950	-269
455.985	-314
456.031	-134
456.054	-111
456.112	-35
456.124	-2
456.193	-647
456.193	-660
456.262	46
456.274	108
456.332	204
456.355	121
456.401	-11
456.436	109
456.470	203
456.516	-511
456.540	-839
456.597	-122
456.609	4
456.678	99
456.678	89
456.747	-381
456.759	-436
456.817	-528
456.840	-263
456.886	332
456.920	280
456.955	156
457.001	497
457.024	579
457.082	67
457.093	2
457.162	329
457.163	340
457.232	169
457.243	171
457.301	229
457.324	159
457.370	141
457.405	663
457.439	1107
457.485	626
457.508	357
457.566	-99
457.577	-161
457.646	165
457.647	177
457.715	354
457.727	475
457.784	1126
457.808	1139
457.853	1263
457.889	1530
457.922	1289
457.969	1153
457.991	1335
458.050	1131
458.060	1114
458.129	2044
458.130	2080
458.198	1952
458.211	1745
458.267	1223
458.292	1093
458.336	917
458.372	818
458.405	1113
458.453	1238
458.474	1240
458.533	1938
458.543	2058
458.611	3099
458.614	3173
458.680	2742
458.694	2271
458.749	1770
458.775	1727
458.818	896
458.855	400
458.887	463
458.936	442
458.955	434
459.016	138
459.024	124
459.093	1435
459.097	1440
459.162	540
459.177	477
459.230	963
459.257	1132
459.299	1150
459.338	1402
459.368	1541
459.418	1311
459.437	1122
459.499	903
459.505	951
459.574	1419
459.579	1430
459.643	840
459.659	634
459.711	418
459.740	430
459.780	462
459.820	863
459.849	1054
459.900	1208
459.917	1305
459.981	1092
459.986	1040
460.054	1424
460.061	1394
460.123	1402
460.141	1384
460.191	1185
460.222	1247
460.260	1597
460.302	2247
460.328	2370
460.382	1697
460.397	1494
460.462	1541
460.465	1594
460.534	2297
460.543	2429
460.602	6406
460.623	8034
460.671	13283
460.703	18047
460.739	16353
460.783	13274
460.808	11773
460.864	3713
460.876	3034
460.944	1469
460.945	1446
461.013	1671
461.024	1610
461.081	1217
461.104	1240
461.150	1487
461.184	1489
461.218	1234
461.264	896
461.286	998
461.345	1163
461.355	1108
461.423	1514
461.425	1502
461.491	1111
461.505	1167
461.559	2448
461.585	2908
461.628	4341
461.665	5971
461.696	6451
461.745	7789
461.764	7248
461.825	3329
461.832	3171
461.901	1515
461.905	1482
461.969	1011
461.985	949
462.037	1353
462.065	1633
462.105	2159
462.145	2289
462.173	2540
462.225	3414
462.241	3755
462.305	5185
462.310	5056
462.378	3238
462.385	2893
462.446	1850
462.465	1766
462.514	1599
462.545	1301
462.582	1283
462.625	1739
462.650	1762
462.705	1246
462.718	1256
462.785	1812
462.786	1819
462.854	1813
462.865	1891
462.922	3284
462.945	3725
462.990	3095
463.025	2446
463.058	1939
463.104	1441
463.126	1469
463.184	1476
463.194	1571
463.262	1984
463.264	2019
463.330	2299
463.344	2203
463.398	2389
463.424	2667
463.466	2165
463.504	1583
463.533	2018
463.583	2824
463.601	2696
463.663	1853
463.669	1847
463.737	2446
463.743	2463
463.805	3517
463.823	3845
463.873	6015
463.903	7376
463.940	7657
463.982	8365
464.008	7149
464.062	3532
464.076	3373
464.142	2660
464.144	2648
464.211	2424
464.221	2405
464.279	2439
464.301	2426
464.347	2222
464.381	2068
464.414	2263
464.461	2600
464.482	2850
464.540	3449
464.550	3351
464.617	2440
464.620	2414
464.685	3753
464.699	3994
464.753	4800
464.779	5283
464.820	5900
464.859	6581
464.888	6298
464.938	5655
464.956	5807
465.018	5936
465.023	5806
465.091	4352
465.098	4171
465.158	4659
465.177	4912
465.226	5155
465.257	5170
465.293	5332
465.336	5614
465.361	5588
465.416	5350
465.428	5584
465.495	6839
465.496	6869
465.563	9798
465.575	10343
465.631	12573
465.654	13585
465.698	9704
465.734	6073
465.765	5533
465.813	4607
465.833	4415
465.893	4253
465.900	4298
465.968	4539
465.972	4552
466.035	3939
466.052	3746
466.102	4172
466.131	4422
466.170	4513
466.210	4616
466.237	4692
466.290	4824
466.304	4805
466.369	4558
466.372	4569
466.439	4828
466.449	4834
466.506	5087
466.528	5203
466.573	6929
466.607	8166
466.641	10524
466.687	13879
466.708	15093
466.766	18329
466.775	17118
466.842	7818
466.845	7361
466.909	6896
466.925	6814
466.977	6558
467.004	6414
467.044	6749
467.083	7090
467.111	7936
467.163	9455
467.178	9553
467.242	9940
467.245	9919
467.312	9190
467.321	9082
467.379	8486
467.400	8249
467.446	8559
467.480	8762
467.559	7286
467.638	8399
467.717	6738
467.796	7028
467.875	7471
467.955	7327
468.034	9380
468.113	17216
468.192	23626
468.271	8368
468.350	6017
468.429	6599
468.508	6256
468.588	5969
468.667	6585
468.746	6642
468.825	6163
468.904	5534
468.983	5988
469.062	7683
469.141	9223
469.220	5959
469.299	5829
469.378	5717
469.456	9570
469.535	8306
469.614	7266
469.693	6753
469.772	8746
469.851	9393
469.930	6903
470.009	5622
470.088	6439
470.166	5845
470.245	6698
470.324	6110
470.403	6260
470.482	6184
470.560	5966
470.639	5565
470.718	7256
470.797	5140
470.875	6149
470.954	7217
471.033	8776
471.111	5074
471.190	6617
471.269	4601
471.347	4563
471.426	5577
471.505	6934
471.583	6719
471.662	7020
471.740	6418
471.819	6502
471.898	5836
471.976	6782
472.055	5287
472.133	7057
472.212	6668
472.290	7762
472.369	5339
472.447	5670
472.526	4940
472.604	6426
472.683	6109
472.761	5486
472.839	4577
472.918	5656
472.996	4255
473.075	5255
473.153	5184
473.231	3929
473.310	5542
473.388	5537
473.466	5832
473.545	6301
473.623	6220
473.701	6104
473.780	5397
473.858	4741
473.936	6498
474.014	5917
474.093	4848
474.171	6670
474.249	7896
474.327	6271
474.405	4153
474.484	4606
474.562	4127
474.640	5129
474.718	4993
474.796	4736
474.874	4888
474.952	4638
475.030	4871
475.108	4311
475.187	5545
475.265	5315
475.343	5061
475.421	6292
475.499	4520
475.577	5277
475.655	5188
475.733	7948
475.811	12091
475.889	11774
475.966	7813
476.044	5001
476.122	4787
476.200	5484
476.278	4870
476.356	3954
476.434	4445
476.512	4447
476.590	5625
476.667	6119
476.745	3785
476.823	4727
476.901	4579
476.979	4616
477.056	4014
477.134	4957
477.212	4241
477.290	4682
477.367	3544
477.445	4170
477.523	3706
477.601	3004
477.678	3521
477.756	5158
477.834	3699
477.911	3593
477.989	4179
478.066	3611
478.144	3927
478.222	4397
478.299	4995
478.377	5282
478.454	3254
478.532	4124
478.609	3382
478.687	3845
478.764	3405
478.842	2864
478.919	3235
478.997	3712
479.074	3901
479.152	3297
479.229	4242
479.307	3584
479.384	3581
479.461	3722
479.539	3029
479.616	4244
479.694	2825
479.771	4824
479.848	3630
479.926	3632
480.003	4832
480.080	2699
480.157	3387
480.235	2339
480.312	2728
480.389	4051
480.467	4573
480.544	5564
480.621	3866
480.698	4775
480.775	3529
480.853	3240
480.930	3294
481.007	4135
481.084	4386
481.161	4280
481.238	4131
481.315	3735
481.392	2475
481.470	3051
481.547	2748
481.624	2795
481.701	3012
481.778	3261
481.855	3397
481.932	5363
482.009	7197
482.086	4602
482.163	2900
482.240	3630
482.317	4265
482.393	4022
482.470	3023
482.547	3126
482.624	2803
482.701	3234
482.778	2254
482.855	2286
482.932	2622
483.009	2381
483.085	2857
483.162	2898
483.239	3895
483.316	1770
483.393	2831
483.469	3017
483.546	2968
483.623	3243
483.699	3442
483.776	3257
483.853	3389
483.930	5269
484.006	11593
484.083	20806
484.160	17763
484.236	31777
484.313	23027
484.389	16037
484.466	15098
484.543	13703
484.619	12378
484.696	14979
484.772	13835
484.849	14514
484.925	13542
485.002	13169
485.078	13203
485.155	12732
485.231	12760
485.308	12262
485.384	12225
485.461	13021
485.537	16344
485.614	18231
485.690	12294
485.766	11727
485.843	10140
485.919	12264
485.995	11891
486.072	11168
486.148	10763
486.224	9772
486.301	10847
486.377	12211
486.453	11488
486.530	11492
486.606	16749
486.682	17826
486.758	17307
486.835	17070
486.911	14133
486.987	19115
487.063	17193
487.139	17635
487.215	15656
487.292	12250
487.368	11627
487.444	11289
487.520	13089
487.596	11128
487.672	12968
487.748	16964
487.824	20227
487.900	13253
487.976	11133
488.052	10618
488.128	12378
488.204	10587
488.280	10450
488.356	11090
488.432	15499
488.508	20341
488.584	10859
488.660	9024
488.736	9029
488.812	9190
488.888	11241
488.964	12547
489.039	15666
489.115	18033
489.191	13487
489.267	8891
489.343	9027
489.418	8529
489.494	8083
489.570	7371
489.646	8669
489.722	8793
489.797	8477
489.873	9830
489.949	16634
490.024	14668
490.100	8222
490.176	7273
490.251	6609
490.327	8831
490.403	6134
490.478	7405
490.554	5511
490.629	6238
490.705	5230
490.781	6998
490.856	6442
490.932	7507
491.007	7130
491.083	6652
491.158	6316
491.234	8100
491.309	12508
491.385	12170
491.460	5388
491.536	6255
491.611	6037
491.686	6199
491.762	6764
491.837	8663
491.913	12705
491.988	15431
492.063	18163
492.139	8926
492.214	7362
492.289	5498
492.365	4203
492.440	6449
492.515	5312
492.590	6563
492.666	4190
492.741	6446
492.816	7011
492.891	5176
492.967	5596
493.042	4764
493.117	5674
493.192	7141
493.267	10687
493.342	37163
493.418	50473
493.493	9342
493.568	4776
493.643	4035
493.718	5390
493.793	5665
493.868	6501
493.943	4967
494.018	5599
494.093	4371
494.168	4180
494.243	4502
494.318	3853
494.393	3688
494.468	3876
494.543	4016
494.618	4548
494.693	3081
494.768	3218
494.842	4451
494.917	3401
494.992	4531
495.067	4106
495.142	3363
495.217	4383
495.292	3196
495.366	4764
495.441	4781
495.516	6408
495.591	6915
495.665	13464
495.740	27918
495.815	12215
495.890	5457
495.964	3230
496.039	7102
496.114	4702
496.188	4449
496.263	5194
496.338	5135
496.412	5104
496.487	5943
496.561	5650
496.636	5927
496.710	5257
496.785	6340
496.860	6732
496.934	5248
497.009	4719
497.083	5422
497.158	4770
497.232	5773
497.307	6647
497.381	5604
497.455	6606
497.530	8307
497.604	6628
497.679	7039
497.753	9885
497.827	12741
497.902	11200
497.976	14521
498.050	25391
498.125	85195
498.199	81457
498.273	14503
498.348	11652
498.422	11018
498.496	9419
498.570	9021
498.645	7843
498.719	6832
498.793	8142
498.867	11322
498.941	13779
499.016	34666
499.090	93197
499.164	28482
499.238	5754
499.312	4965
499.386	5944
499.460	5055
499.534	5531
499.609	6314
499.683	8540
499.757	8847
499.831	15656
499.905	61078
499.979	52107
500.053	9117
500.127	7690
500.201	5001
500.275	4231
500.349	4111
500.422	4501
500.496	7167
500.570	10731
500.644	30982
500.718	60335
500.792	12613
500.866	5414
500.940	6732
501.013	5378
501.087	4905
501.161	7240
501.235	7856
501.309	20489
501.382	55546
501.456	44928
501.530	10650
501.603	18130
501.677	6957
501.751	2190
501.825	4464
501.898	8854
501.972	22239
502.046	12954
502.119	4464
502.193	10420
502.266	24825
502.340	11432
502.413	10116
502.487	20658
502.561	10779
502.634	3817
502.708	3457
502.781	2072
502.855	3088
502.928	2264
503.002	2676
503.075	2012
503.149	2701
503.222	3522
503.295	2775
503.369	4244
503.442	5496
503.516	15753
503.589	39621
503.662	22844
503.736	7838
503.809	18793
503.882	13455
503.956	24292
504.029	18788
504.102	7019
504.175	9257
504.249	2607
504.322	4235
504.395	3671
504.468	3419
504.542	2289
504.615	1616
504.688	1974
504.761	1419
504.834	3322
504.907	3031
504.980	3619
505.053	3040
505.127	826
505.200	5169
505.273	2938
505.346	1971
505.419	1250
505.492	1837
505.565	1068
505.638	2625
505.711	1608
505.784	1109
505.857	1347
505.930	2910
506.003	1770
506.076	3938
506.149	2886
506.221	2865
506.294	4257
506.367	8084
506.440	31372
506.513	14929
506.586	3370
506.659	2262
506.731	1699
506.804	2720
506.877	2000
506.950	2881
507.022	2711
507.095	2057
507.168	3119
507.241	2157
507.313	753
507.386	1357
507.459	2480
507.531	1486
507.604	1297
507.677	2971
507.749	790
507.822	3521
507.894	6035
507.967	11030
508.040	6327
508.112	5838
508.185	4332
508.257	3882
508.330	5562
508.402	4966
508.475	4300
508.547	3994
508.620	4373
508.692	5781
508.765	3816
508.837	3402
508.909	3024
508.982	3194
509.054	3619
509.127	2941
509.199	3098
509.271	3089
509.344	2752
509.416	3494
509.488	3584
509.560	3952
509.633	3010
509.705	4169
509.777	4154
509.849	4563
509.922	3212
509.994	4882
510.066	4910
510.138	4664
510.210	11913
510.283	9777
510.355	8354
510.427	6463
510.499	5787
510.571	5610
510.643	4823
510.715	7255
510.787	3744
510.859	6130
510.931	5145
511.003	6496
511.076	6815
511.148	5118
511.219	4838
511.291	8083
511.363	8008
511.435	4657
511.507	4291
511.579	5230
511.651	5287
511.723	4518
511.795	4413
511.867	3947
511.939	4448
512.010	6496
512.082	6068
512.154	2852
512.226	3974
512.298	8088
512.369	10126
512.441	7997
512.513	6500
512.585	4898
512.656	5639
512.728	5723
512.800	4552
512.871	5552
512.943	5426
513.015	3561
513.086	4436
513.158	5202
513.230	4388
513.301	4039
513.373	5513
513.444	4094
513.516	4836
513.588	4055
513.659	4519
513.731	4298
513.802	3704
513.874	6348
513.945	7916
514.016	3715
514.088	3830
514.159	3354
514.231	4696
514.302	9819
514.374	7390
514.445	5797
514.516	10369
514.588	7131
514.659	4726
514.730	8224
514.802	7375
514.873	4709
514.944	8267
515.016	5722
515.087	4631
515.158	7248
515.229	8315
515.301	5046
515.372	7955
515.443	4649
515.514	5314
515.585	3689
515.656	4866
515.728	3874
515.799	3121
515.870	4749
515.941	4260
516.012	3651
516.083	6194
516.154	5379
516.225	5867
516.296	6989
516.367	4568
516.438	5365
516.509	4671
516.580	5561
516.651	14058
516.722	38663
516.793	19293
516.864	7613
516.935	7617
517.006	8692
517.077	9130
517.148	16688
517.219	37657
517.289	56042
517.360	34010
517.431	13961
517.502	3608
517.573	5284
517.643	4905
517.714	6019
517.785	6504
517.856	5067
517.926	6727
517.997	5858
518.068	6856
518.138	8525
518.209	8955
518.280	24756
518.350	86456
518.421	29955
518.492	7048
518.562	5807
518.633	4907
518.703	3417
518.774	7847
518.845	9224
518.915	9662
518.986	6202
519.056	6824
519.127	8736
519.197	12048
519.268	33593
519.338	21718
519.408	7362
519.479	6158
519.549	4336
519.620	4803
519.690	3546
519.760	3887
519.831	3072
519.901	4457
519.971	4126
520.042	3388
520.112	3497
520.182	4194
520.253	4655
520.323	3420
520.393	4983
520.463	7983
520.534	3277
520.604	10824
520.674	6444
520.744	5218
520.814	10645
520.885	8382
520.955	11186
521.025	39115
521.095	12908
521.165	4471
521.235	2728
521.305	2185
521.375	3427
521.445	2915
521.515	3151
521.585	3566
521.655	2710
521.725	4122
521.795	4143
521.865	1597
521.935	5909
522.005	3330
522.075	2109
522.145	3311
522.215	3185
522.285	4611
522.355	5487
522.424	9216
522.494	6834
522.564	4024
522.634	5846
522.704	16089
522.774	5771
522.843	3465
522.913	2412
522.983	1453
523.053	1886
523.122	2909
523.192	2451
523.262	6281
523.331	6275
523.401	3435
523.471	2063
523.540	2123
523.610	1236
523.680	2284
523.749	1729
523.819	2682
523.888	2896
523.958	1735
524.027	2619
524.097	2715
524.166	2598
524.236	1917
524.305	3203
524.375	1419
524.444	1977
524.514	3240
524.583	2059
524.653	2223
524.722	3452
524.791	555
524.861	3350
524.930	1982
524.999	1382
525.069	3502
525.138	2273
525.207	2595
525.277	3574
525.346	1286
525.415	2472
525.484	1914
525.554	1827
525.623	2527
525.692	2997
525.761	1726
525.830	2334
525.900	1451
525.969	3102
526.038	3951
526.107	5144
526.176	14498
526.245	10320
526.314	5466
526.383	9917
526.452	8006
526.522	19651
526.591	18136
526.660	6819
526.729	4245
526.797	6862
526.867	9875
526.935	47339
527.004	52702
527.073	22631
527.142	2263
527.211	2839
527.280	3045
527.349	2051
527.418	170
527.487	3672
527.555	801
527.624	1093
527.693	896
527.762	2941
527.831	334
527.899	2543
527.968	1730
528.037	621
528.106	2383
528.174	3639
528.243	2302
528.312	3326
528.380	3218
528.449	708
528.518	2450
528.586	174
528.655	1806
528.723	1301
528.792	214
528.861	622
528.929	547
528.998	2823
529.066	902
529.135	1115
529.203	556
529.272	224
529.340	2071
529.409	2751
529.477	821
529.545	1331
529.614	3832
529.682	1767
529.751	2515
529.819	4129
529.887	2181
529.956	1568
530.024	2558
530.092	1458
530.161	1982
530.229	2241
530.297	1448
530.365	2066
530.434	1724
530.502	1039
530.570	1742
530.638	-224
530.707	1869
530.775	2636
530.843	1378
530.911	2045
530.979	1355
531.047	868
531.115	1461
531.183	2344
531.252	2564
531.320	1755
531.388	786
531.456	2489
531.524	-857
531.592	2825
531.660	3438
531.728	1259
531.796	880
531.864	1304
531.932	1797
532.000	1805
532.067	2104
532.135	3542
532.203	3078
532.271	1238
532.339	4508
532.407	7140
532.475	4771
532.542	3542
532.610	3980
532.678	3349
532.746	13958
532.814	32052
532.881	7372
532.949	2807
533.017	1948
533.084	2209
533.152	1707
533.220	1872
533.287	903
533.355	1768
533.423	1658
533.490	1593
533.558	2580
533.625	2251
533.693	2195
533.761	2496
533.828	3536
533.896	2124
533.963	5221
534.031	5596
534.098	6784
534.166	3052
534.233	1740
534.300	4178
534.368	3825
534.435	3219
534.503	3184
534.570	2531
534.637	1968
534.705	2068
534.772	2534
534.840	1945
534.907	7862
534.974	8120
535.041	2346
535.109	2561
535.176	1304
535.243	1736
535.310	1377
535.378	645
535.445	2061
535.512	2172
535.579	1928
535.646	1369
535.714	1932
535.781	3892
535.848	3387
535.915	4491
535.982	4406
536.049	4744
536.116	5131
536.183	2870
536.250	2733
536.317	2455
536.384	2400
536.451	3294
536.518	2589
536.585	903
536.652	3630
536.719	3178
536.786	1348
536.853	1917
536.920	3907
536.987	4085
537.053	4013
537.120	17534
537.187	13234
537.254	1304
537.321	970
537.388	3697
537.454	404
537.521	2311
537.588	1682
537.654	2894
537.721	2905
537.788	3322
537.855	2188
537.921	2339
537.988	2586
538.055	3131
538.121	1362
538.188	2579
538.254	1899
538.321	3415
538.388	2583
538.454	2111
538.521	1988
538.587	2683
538.654	2075
538.720	2639
538.787	1534
538.853	2051
538.920	1806
538.986	2497
539.053	1251
539.119	2578
539.185	2186
539.252	2948
539.318	1714
539.385	3910
539.451	2946
539.517	4041
539.583	3595
539.650	5131
539.716	12102
539.782	5105
539.849	1436
539.915	3206
539.981	1191
540.047	2356
540.114	2272
540.180	3619
540.246	919
540.312	2672
540.378	3687
540.444	5335
540.510	6006
540.576	13860
540.643	3343
540.709	1331
540.775	3028
540.841	1266
540.907	4134
540.973	6087
541.039	4139
541.105	3623
541.171	2027
541.237	2110
541.303	3109
541.369	4384
541.435	3500
541.500	3694
541.566	1518
541.632	1854
541.698	751
541.764	2634
541.830	1168
541.896	800
541.961	2852
542.027	1599
542.093	1670
542.159	2789
542.224	1608
542.290	4945
542.356	3063
542.421	3927
542.487	3763
542.553	2719
542.618	3368
542.684	2189
542.750	2202
542.815	3911
542.881	3768
542.947	12123
543.012	8516
543.078	2280
543.143	2587
543.209	3164
543.274	2318
543.340	2949
543.405	5510
543.471	7333
543.536	3174
543.602	2887
543.667	1177
543.732	3711
543.798	114
543.863	3387
543.928	1776
543.994	1256
544.059	1913
544.124	2372
544.190	1809
544.255	2393
544.320	2677
544.386	1437
544.451	3487
544.516	3078
544.581	2634
544.646	7334
544.712	12344
544.777	3962
544.842	3100
544.907	3643
544.972	2919
545.037	3049
545.102	4006
545.168	3533
545.233	4269
545.298	4290
545.363	3639
545.428	4578
545.493	6020
545.558	9020
545.623	4553
545.688	3672
545.753	3371
545.818	3384
545.883	4072
545.947	2559
546.012	3003
546.077	4017
546.142	3708
546.207	2096
546.272	3814
546.337	2889
546.401	3541
546.466	4277
546.531	2411
546.596	3200
546.661	3002
546.725	3340
546.790	2510
546.855	3251
546.919	1402
546.984	3481
547.049	3325
547.113	3930
547.178	3373
547.243	3757
547.307	4804
547.372	4824
547.436	4373
547.501	3943
547.565	4115
547.630	4911
547.695	4311
547.759	4987
547.823	3873
547.888	4531
547.952	4008
548.017	4699
548.081	3823
548.146	5859
548.210	4470
548.274	3929
548.339	3766
548.403	4491
548.468	4136
548.532	3752
548.596	3834
548.660	3440
548.725	3920
548.789	4483
548.853	5714
548.917	5163
548.982	5731
549.046	5566
549.110	3496
549.174	3638
549.238	3472
549.303	3630
549.367	4985
549.431	4726
549.495	4174
549.559	4525
549.623	5177
549.687	4986
549.751	6403
549.815	4205
549.879	6319
549.943	4020
550.007	4723
550.071	5564
550.135	6092
550.199	4741
550.263	6090
550.327	5563
550.391	5756
550.455	4552
550.519	4977
550.582	5949
550.646	6292
550.710	5890
550.774	6563
550.838	5886
550.901	5954
550.965	6766
551.029	5395
551.093	8074
551.156	8106
551.220	11228
551.284	11637
551.347	7747
551.411	12064
551.475	13633
551.538	7344
551.602	5806
551.666	4954
551.729	5051
551.793	6413
551.856	6154
551.920	5420
551.983	6411
552.047	4852
552.110	5821
552.174	4294
552.237	4564
552.301	4826
552.364	5221
552.428	4717
552.491	4436
552.554	4872
552.618	5633
552.681	5307
552.745	4321
552.808	6088
552.871	6788
552.934	7253
552.998	5092
553.061	5957
553.124	6685
553.187	5227
553.251	6750
553.314	7715
553.377	9434
553.440	14984
553.503	44285
553.567	70597
553.630	12862
553.693	6081
553.756	5741
553.819	5545
553.882	4888
553.945	5531
554.008	5384
554.071	4487
554.134	5341
554.197	4127
554.260	5235
554.323	5982
554.386	5540
554.449	4517
554.512	6014
554.575	4855
554.638	4675
554.701	5562
554.764	5307
554.827	4884
554.889	4366
554.952	4159
555.015	4294
555.078	3712
555.141	5006
555.203	4081
555.266	4163
555.329	4584
555.391	5059
555.454	3897
555.517	4270
555.580	4317
555.642	3768
555.705	3187
555.768	3971
555.830	3352
555.893	3976
555.955	2791
556.018	4300
556.080	4074
556.143	3702
556.206	3945
556.268	4344
556.330	4498
556.393	3534
556.455	3536
556.518	4707
556.580	4893
556.643	3505
556.705	4192
556.767	3378
556.830	4180
556.892	3638
556.955	3896
557.017	4301
557.079	3087
557.142	2714
557.204	3288
557.266	5489
557.328	4872
557.391	3150
557.453	3170
557.515	3001
557.577	2987
557.639	2710
557.701	3218
557.764	2759
557.826	2034
557.888	3573
557.950	2983
558.012	3571
558.074	3389
558.136	5995
558.198	10487
558.260	5536
558.322	2646
558.384	3907
558.446	3715
558.508	3842
558.570	4997
558.632	6500
558.694	7964
558.756	10028
558.818	22455
558.880	54401
558.942	15439
559.003	11700
559.065	6349
559.127	4244
559.189	4770
559.251	4953
559.312	6424
559.374	11343
559.436	32826
559.498	15444
559.559	4398
559.621	5033
559.683	4797
559.744	7656
559.806	17077
559.868	22676
559.929	5772
559.991	5381
560.052	5648
560.114	12055
560.176	7685
560.237	7521
560.299	9593
560.360	4553
560.422	3336
560.483	3813
560.545	3090
560.606	3268
560.667	3570
560.729	2471
560.790	3259
560.852	3858
560.913	3345
560.974	3939
561.036	2873
561.097	3888
561.158	3254
561.220	3735
561.281	2794
561.342	3178
561.403	4840
561.465	3903
561.526	5910
561.587	8083
561.648	3012
561.709	3990
561.771	3271
561.832	3454
561.893	2893
561.954	4420
562.015	2831
562.076	3311
562.137	4233
562.198	3246
562.259	2986
562.320	3758
562.381	3359
562.442	4425
562.503	3753
562.564	3782
562.625	3818
562.686	3442
562.747	2815
562.808	3707
562.869	4062
562.930	4769
562.991	4059
563.051	5130
563.112	4138
563.173	3688
563.234	3311
563.294	3273
563.355	3253
563.416	3838
563.477	4047
563.537	3123
563.598	4451
563.659	4699
563.720	2681
563.780	4883
563.841	3383
563.901	4455
563.962	3861
564.023	3461
564.083	3563
564.144	4239
564.204	3586
564.265	4648
564.325	4998
564.386	7162
564.446	5945
564.507	4193
564.567	2861
564.628	4201
564.688	3897
564.749	3947
564.809	4856
564.869	4938
564.930	4569
564.990	5058
565.050	3932
565.111	3616
565.171	3146
565.231	4560
565.292	4082
565.352	3580
565.412	4812
565.472	4688
565.532	3951
565.593	3649
565.653	3829
565.713	5252
565.773	4081
565.833	5295
565.893	5769
565.953	4838
566.013	3832
566.074	4536
566.134	5797
566.194	6929
566.254	7584
566.314	5548
566.374	4718
566.434	5891
566.494	4828
566.554	5050
566.614	5214
566.673	5072
566.733	5568
566.793	6640
566.853	5463
566.913	6083
566.973	6031
567.033	6821
567.092	5740
567.152	6786
567.212	5703
567.272	6937
567.331	7473
567.391	6667
567.451	7441
567.511	8503
567.570	7990
567.630	6987
567.690	6797
567.749	6247
567.809	7420
567.868	8254
567.928	8381
567.988	9096
568.047	10994
568.107	12848
568.166	16629
568.226	23311
568.285	31779
568.345	28996
568.404	25471
568.464	22335
568.523	19036
568.582	21265
568.642	22109
568.701	25668
568.761	35348
568.820	51686
568.879	54683
568.939	43462
568.998	32944
569.057	28063
569.116	21941
569.176	17825
569.235	15494
569.294	13398
569.353	10870
569.413	9961
569.472	9625
569.531	7955
569.590	7335
569.649	8707
569.708	6238
569.767	7326
569.827	6556
569.886	6670
569.945	5508
570.004	6102
570.063	5271
570.122	6323
570.181	5491
570.240	6150
570.299	6208
570.358	5908
570.417	5005
570.475	4817
570.534	5527
570.593	5137
570.652	4865
570.711	4947
570.770	3751
570.829	5189
570.887	4162
570.946	4396
571.005	4553
571.064	4681
571.122	4055
571.181	4174
571.240	3898
571.299	3924
571.357	4289
571.416	5009
571.475	4957
571.533	5433
571.592	4349
571.650	4415
571.709	4197
571.768	4225
571.826	3935
571.885	3884
571.943	4000
572.002	4004
572.060	3986
572.119	3804
572.177	4193
572.236	5037
572.294	3534
572.352	5245
572.411	3217
572.469	4071
572.528	3503
572.586	4265
572.644	3567
572.703	4295
572.761	4035
572.819	3788
572.877	4416
572.936	3746
572.994	3470
573.052	3582
573.110	4140
573.169	3719
573.227	3003
573.285	4285
573.343	3960
573.401	4174
573.459	3401
573.517	3909
573.576	3736
573.634	3658
573.692	3778
573.750	3325
573.808	2590
573.866	3820
573.924	4040
573.982	5204
574.040	3466
574.098	4695
574.155	3171
574.213	4495
574.271	3066
574.329	4244
574.387	2214
574.445	3639
574.503	3267
574.560	2443
574.618	3087
574.676	3675
574.734	2788
574.792	4107
574.849	3422
574.907	3751
574.965	3089
575.022	2811
575.080	2582
575.138	3914
575.195	3377
575.253	2546
575.311	3464
575.368	3885
575.426	2765
575.483	4267
575.541	3635
575.598	3271
575.656	3221
575.713	4013
575.771	3929
575.828	3253
575.886	3760
575.943	4324
576.001	3935
576.058	4040
576.115	3339
576.173	4679
576.230	4234
576.287	4137
576.345	3551
576.402	3609
576.459	3766
576.517	3526
576.574	4312
576.631	4926
576.688	3083
576.746	3873
576.803	3478
576.860	3590
576.917	4378
576.974	3880
577.031	3306
577.089	3622
577.146	3903
577.203	4161
577.260	4148
577.317	3930
577.374	4161
577.431	5008
577.488	3380
577.545	4070
577.602	4640
577.659	5541
577.716	4809
577.773	5825
577.830	4757
577.886	5752
577.943	4093
578.000	5063
578.057	5568
578.114	5953
578.171	7073
578.227	9566
578.284	8884
578.341	7440
578.398	6503
578.454	5461
578.511	5228
578.568	5795
578.625	4116
578.681	4210
578.738	3876
578.794	5285
578.851	3966
578.908	4497
578.964	4235
579.021	5493
579.077	3884
579.134	4285
579.190	4288
579.247	3818
579.303	4764
579.360	4216
579.416	3774
579.473	3768
579.529	4617
579.586	5017
579.642	5499
579.698	4285
579.755	4578
579.811	5322
579.867	5515
579.924	6340
579.980	5657
580.036	8015
580.093	9070
580.149	14119
580.205	17554
580.261	13439
580.317	9767
580.374	8908
580.430	7829
580.486	7170
580.542	5865
580.598	6082
580.619	5646
580.654	4892
580.692	5113
580.710	5229
580.765	5517
580.767	5530
580.823	6710
580.838	6341
580.879	5380
580.911	5429
580.935	5485
580.984	5377
580.991	5367
581.047	6282
581.057	6270
581.103	6230
581.130	6527
581.159	6852
581.203	7977
581.215	8274
581.270	7582
581.276	7493
581.326	6635
581.349	6307
581.382	5917
581.422	5835
581.438	5779
581.494	5564
581.494	5563
581.550	5752
581.567	5947
581.606	6364
581.640	6000
581.661	5807
581.713	6420
581.717	6463
581.773	6083
581.786	5969
581.829	5646
581.859	5717
581.885	5839
581.932	5946
581.940	5956
581.996	6265
582.004	6115
582.052	5145
582.077	5051
582.107	5109
582.150	6153
582.163	6410
582.219	6702
582.223	6636
582.274	5993
582.296	6224
582.330	6572
582.368	6377
582.386	6304
582.441	6175
582.441	6175
582.497	7254
582.514	6992
582.552	6581
582.587	7511
582.608	7953
582.659	6777
582.663	6695
582.719	7751
582.732	7503
582.774	6664
582.805	6617
582.830	6636
582.877	6596
582.885	6578
582.941	6722
582.950	6744
582.996	6912
583.023	7624
583.052	8509
583.095	8878
583.107	9039
583.162	11904
583.168	12014
583.218	12358
583.240	11894
583.273	11204
583.313	10249
583.328	9905
583.384	9061
583.385	9025
583.439	8076
583.458	8009
583.494	7776
583.531	7704
583.549	7791
583.603	7515
583.605	7495
583.660	7650
583.676	7578
583.715	7578
583.748	7955
583.770	8260
583.820	8276
583.825	8255
583.881	7312
583.893	7438
583.936	7968
583.965	7645
583.991	7244
584.038	7555
584.046	7686
584.101	8135
584.110	8142
584.156	8000
584.183	8089
584.211	8008
584.255	8290
584.266	8507
584.321	7728
584.328	7894
584.376	8707
584.400	8296
584.431	7993
584.472	8130
584.486	7987
584.541	8313
584.545	8288
584.596	8419
584.617	8404
584.651	8511
584.689	9077
584.706	9306
584.761	8927
584.762	8936
584.816	9894
584.834	9726
584.871	9529
584.906	9906
584.926	10046
584.978	9980
584.980	9995
585.035	10449
585.051	10521
585.090	10448
585.123	11075
585.145	11486
585.195	10863
585.200	10860
585.254	11851
585.267	12124
585.309	13255
585.340	14564
585.364	15082
585.412	13738
585.419	13521
585.473	12751
585.484	12674
585.528	12980
585.556	13672
585.583	14741
585.628	16407
585.637	17055
585.692	23249
585.700	24413
585.747	29653
585.772	28174
585.801	23151
585.845	15976
585.856	14986
585.910	14758
585.917	14595
585.965	14243
585.989	14278
586.019	14223
586.061	14567
586.074	14743
586.128	14955
586.133	15011
586.183	15466
586.205	15405
586.237	15688
586.277	16012
586.292	15952
586.346	16763
586.349	16728
586.401	16622
586.421	16988
586.455	17602
586.493	18522
586.509	19153
586.564	20994
586.565	21063
586.618	26294
586.637	27060
586.672	24530
586.709	21241
586.727	20668
586.781	21238
586.781	21246
586.835	20548
586.853	20534
586.889	21286
586.925	21698
586.944	21932
586.996	23059
586.998	23100
587.052	23978
587.068	24291
587.106	24957
587.140	25304
587.161	25532
587.212	26246
587.215	26322
587.269	27847
587.284	28362
587.323	29293
587.356	29729
587.377	30284
587.427	32320
587.431	32470
587.485	33703
587.499	34048
587.539	35303
587.571	36348
587.593	37300
587.643	40157
587.648	40430
587.702	42766
587.715	43447
587.755	45820
587.786	47194
587.810	48653
587.858	52680
587.864	53157
587.917	57892
587.930	58897
587.971	63153
588.001	66296
588.025	69091
588.073	75973
588.079	76973
588.133	85860
588.145	87841
588.187	96435
588.217	102781
588.241	108549
588.288	120821
588.295	122849
588.348	140694
588.360	144704
588.402	162158
588.431	174928
588.456	188254
588.503	215985
588.510	221045
588.564	263374
588.575	272877
588.617	319861
588.646	354023
588.671	396515
588.718	480399
588.725	498249
588.778	639486
588.789	667498
588.832	780189
588.861	846494
588.886	837367
588.932	782829
588.939	771167
588.993	667609
589.004	661666
589.047	814312
589.075	901719
589.100	866346
589.147	756587
589.154	739524
589.207	595569
589.218	567492
589.261	519282
589.290	490495
589.314	498021
589.361	520944
589.368	533364
589.421	640889
589.433	663851
589.475	761074
589.504	817972
589.528	797760
589.576	724041
589.582	726955
589.635	792128
589.647	801179
589.689	711185
589.718	626839
589.742	548924
589.790	392534
589.795	382306
589.849	291426
589.861	271330
589.902	232473
589.932	204734
589.955	189365
590.004	158610
590.009	156520
590.062	134194
590.075	128884
590.115	117407
590.146	108650
590.168	103794
590.218	93313
590.222	92729
590.275	84581
590.289	82493
590.328	77667
590.360	73700
590.381	71457
590.431	66333
590.435	66120
590.488	61155
590.503	59944
590.541	57942
590.574	55998
590.594	54696
590.645	51489
590.647	51436
590.700	48589
590.716	47742
590.753	46398
590.787	45072
590.806	44145
590.859	41689
590.859	41700
590.912	39735
590.930	39182
590.965	38891
591.001	38355
591.018	37886
591.071	36596
591.072	36536
591.124	35484
591.143	35103
591.177	34466
591.214	33768
591.230	33706
591.283	33222
591.285	33156
591.336	31741
591.356	31194
591.389	31367
591.427	31334
591.442	30953
591.495	29510
591.498	29359
591.547	28332
591.569	27849
591.600	27456
591.640	26674
591.653	26789
591.706	27376
591.711	27380
591.759	26807
591.782	26529
591.811	26535
591.853	26309
591.864	26201
591.917	25581
591.924	25437
591.969	24910
591.995	24581
592.022	24738
592.066	24860
592.075	24846
592.127	24586
592.137	24494
592.180	25127
592.208	25442
592.233	24833
592.279	23636
592.285	23582
592.338	22782
592.350	22570
592.390	22422
592.421	22248
592.443	21837
592.491	20837
592.495	20923
592.548	21700
592.562	21883
592.600	21532
592.633	21169
592.653	21013
592.704	20420
592.705	20535
592.775	20455
592.846	19992
592.916	20640
592.987	19898
593.058	19074
593.128	18211
593.199	18173
593.270	18758
593.341	18084
593.411	17938
593.482	17572
593.553	18359
593.623	16557
593.694	17859
593.764	17465
593.835	16346
593.906	16327
593.976	16712
594.047	16313
594.117	18266
594.188	18034
594.258	15585
594.329	16323
594.399	16013
594.470	15430
594.540	15138
594.611	14663
594.681	14994
594.751	15538
594.822	15237
594.892	15628
594.963	14500
595.033	14951
595.103	15316
595.174	16030
595.244	18790
595.314	20845
595.384	15038
595.455	14701
595.525	14288
595.595	15384
595.665	15028
595.736	13877
595.806	14799
595.876	13864
595.946	14076
596.016	14160
596.087	14786
596.157	14799
596.227	14097
596.297	15319
596.367	14581
596.437	16177
596.507	17713
596.577	20223
596.647	14775
596.717	14657
596.787	13932
596.857	14988
596.927	14509
596.997	14368
597.067	14768
597.137	17151
597.207	16570
597.277	14450
597.347	13708
597.417	14015
597.487	15316
597.557	15672
597.626	14857
597.696	14660
597.766	16184
597.836	18042
597.906	15483
597.975	14115
598.045	12807
598.115	13503
598.185	13867
598.254	14743
598.324	14814
598.394	15472
598.464	14043
598.533	13223
598.603	13439
598.672	14055
598.742	13485
598.812	13715
598.881	13666
598.951	14024
599.020	13211
599.090	13587
599.159	13897
599.229	14073
599.299	13117
599.368	13138
599.437	13064
599.507	13354
599.576	14566
599.646	15743
599.715	16371
599.785	14131
599.854	12610
599.924	13472
599.993	12737
600.062	11960
600.132	12822
600.201	12335
600.270	14183
600.340	13649
600.409	13542
600.478	13498
600.547	13065
600.617	14024
600.686	12064
600.755	12519
600.824	12487
600.894	12282
600.963	12514
601.032	12656
601.101	12597
601.170	12756
601.239	11844
601.308	12648
601.378	12438
601.447	11948
601.516	13193
601.585	12685
601.654	13247
601.723	12545
601.792	13446
601.861	13954
601.930	17968
601.999	14334
602.068	12215
602.137	14281
602.206	13145
602.275	12989
602.343	13442
602.412	14673
602.481	12810
602.550	13832
602.619	12704
602.688	13041
602.756	13533
602.825	12900
602.894	13559
602.963	12169
603.032	13302
603.100	13582
603.169	12284
603.238	13135
603.307	13392
603.375	13692
603.444	13030
603.513	12857
603.581	12422
603.650	13746
603.719	11610
603.787	11717
603.856	12084
603.924	12489
603.993	12932
604.061	12245
604.130	12866
604.198	12512
604.267	13438
604.335	12363
604.404	13711
604.472	13001
604.541	13787
604.609	13484
604.678	13072
604.746	13528
604.815	13521
604.883	14107
604.951	14044
605.020	14348
605.088	12817
605.156	13339
605.225	13122
605.293	13624
605.361	12475
605.429	12548
605.498	13250
605.566	13632
605.634	12816
605.702	13463
605.771	13866
605.839	13858
605.907	12926
605.975	13568
606.043	14353
606.111	14032
606.180	14480
606.248	17806
606.316	19042
606.384	13940
606.452	14815
606.520	13658
606.588	12793
606.656	11820
606.724	10689
606.792	12562
606.860	11109
606.928	10021
606.996	10579
607.064	9994
607.132	10269
607.200	11030
607.267	10659
607.335	10727
607.403	10486
607.471	10461
607.539	9546
607.607	10597
607.674	10375
607.742	9732
607.810	9189
607.878	10329
607.946	10372
608.013	9899
608.081	9598
608.149	10512
608.216	9876
608.284	10946
608.352	10668
608.419	9595
608.487	13298
608.555	11578
608.622	10397
608.690	10550
608.757	10474
608.825	11505
608.893	11037
608.960	11709
609.028	11956
609.095	13888
609.163	11001
609.230	10159
609.298	9953
609.365	9371
609.432	10021
609.500	10513
609.567	11832
609.635	12295
609.702	12740
609.769	13447
609.837	12397
609.904	10304
609.971	9447
610.039	12669
610.106	15445
610.173	25053
610.241	54099
610.308	60505
610.375	37276
610.442	14670
610.509	11002
610.577	11162
610.644	10667
610.711	10436
610.778	10798
610.845	11079
610.912	12681
610.980	16355
611.047	23174
611.114	16405
611.181	11142
611.248	10154
611.315	11987
611.382	10051
611.449	10967
611.516	12385
611.583	11054
611.650	10177
611.717	11533
611.784	11659
611.851	11294
611.918	12916
611.984	13848
612.051	19525
612.118	35784
612.185	85545
612.252	60113
612.319	16687
612.386	13874
612.452	12110
612.519	11794
612.586	15413
612.653	13030
612.719	12315
612.786	11413
612.853	10218
612.919	10936
612.986	11641
613.053	10538
613.120	10081
613.186	9267
613.253	11520
613.319	10420
613.386	10510
613.453	9228
613.519	11420
613.586	11875
613.652	14546
613.719	12299
613.785	11614
613.852	10406
613.918	10854
613.985	13766
614.051	21008
614.118	43447
614.184	42362
614.250	13263
614.317	11085
614.383	10308
614.449	9973
614.516	9883
614.582	10188
614.648	10471
614.715	10465
614.781	9740
614.847	10794
614.914	10047
614.980	10611
615.046	10732
615.112	10247
615.179	10644
615.245	12054
615.311	13653
615.377	20952
615.443	24279
615.509	15585
615.575	12272
615.642	12043
615.708	11508
615.774	12941
615.840	14185
615.906	17593
615.972	25815
616.038	45115
616.104	71603
616.170	121609
616.236	106221
616.302	26876
616.368	17321
616.434	14154
616.500	14287
616.565	14469
616.631	15646
616.697	13703
616.763	13827
616.829	16987
616.895	26412
616.961	26067
617.026	15263
617.092	11683
617.158	11906
617.224	10968
617.289	11045
617.355	11486
617.421	10205
617.487	11821
617.552	10541
617.618	9975
617.684	10039
617.749	11904
617.815	9157
617.880	9964
617.946	10020
618.012	9899
618.077	10065
618.143	10527
618.208	11443
618.274	11094
618.339	11808
618.405	10257
618.470	11003
618.536	9958
618.601	11822
618.667	10032
618.732	10987
618.798	10661
618.863	10764
618.928	9963
618.994	11212
619.059	11629
619.124	12525
619.190	11862
619.255	10257
619.320	10108
619.386	9853
619.451	9075
619.516	9940
619.581	10946
619.647	10763
619.712	11006
619.777	10600
619.842	10773
619.907	10514
619.972	10057
620.038	10308
620.103	9440
620.168	8694
620.233	10556
620.298	9481
620.363	9475
620.428	10566
620.493	10078
620.558	10191
620.623	10021
620.688	10337
620.753	9946
620.818	10084
620.883	9787
620.948	10155
621.013	9830
621.078	10113
621.143	9219
621.207	12001
621.272	10623
621.337	10943
621.402	11618
621.467	13684
621.532	14479
621.596	12380
621.661	11891
621.726	11400
621.791	11654
621.855	11269
621.920	12604
621.985	12995
622.049	13528
622.114	12246
622.179	13070
622.243	13126
622.308	12153
622.373	13620
622.437	13413
622.502	11199
622.566	12721
622.631	11218
622.695	12833
622.760	12363
622.824	12134
622.889	12168
622.953	11991
623.018	15399
623.082	15006
623.147	12352
623.211	12467
623.276	12325
623.340	11739
623.404	12014
623.469	11370
623.533	11907
623.597	10694
623.662	11979
623.726	10388
623.790	10577
623.854	10258
623.919	11549
623.983	11356
624.047	11246
624.111	11019
624.176	10949
624.240	10599
624.304	12998
624.368	11085
624.432	10272
624.496	11249
624.560	11494
624.625	12425
624.689	11018
624.753	10704
624.817	10374
624.881	10468
624.945	10101
625.009	11425
625.073	10282
625.137	10538
625.201	12248
625.265	12364
625.329	9614
625.393	11152
625.456	9739
625.520	11071
625.584	11466
625.648	13490
625.712	17358
625.776	34963
625.839	37852
625.903	17838
625.967	11596
626.031	17328
626.095	22886
626.158	10749
626.222	8218
626.286	9325
626.349	8492
626.413	7778
626.477	10103
626.540	8262
626.604	8318
626.668	9307
626.731	9101
626.795	8963
626.858	8576
626.922	7208
626.986	8909
627.049	7426
627.113	9134
627.176	8992
627.240	7539
627.303	7909
627.366	8114
627.430	7997
627.493	8013
627.557	8002
627.620	8741
627.684	7960
627.747	7916
627.810	7589
627.874	7671
627.937	6219
628.000	8873
628.064	8271
628.127	6028
628.190	7962
628.253	6666
628.317	7544
628.380	6531
628.443	7339
628.506	6895
628.569	7376
628.632	5322
628.696	6988
628.759	6367
628.822	6123
628.885	6455
628.948	6991
629.011	6259
629.074	5950
629.137	5681
629.200	6217
629.263	7736
629.326	5882
629.389	5537
629.452	6243
629.515	6514
629.578	6124
629.641	7016
629.704	6307
629.767	6450
629.830	6580
629.892	6618
629.955	5112
630.018	6322
630.081	5406
630.144	7528
630.207	5518
630.269	6922
630.332	6485
630.395	5729
630.458	5690
630.520	4587
630.583	6491
630.646	5491
630.708	5302
630.771	5171
630.834	6218
630.896	5135
630.959	5960
631.021	4718
631.084	5480
631.146	5923
631.209	6659
631.272	5400
631.334	5383
631.397	4977
631.459	4697
631.522	5015
631.584	4557
631.646	5327
631.709	4270
631.771	5432
631.834	6205
631.896	5319
631.958	4879
632.021	5288
632.083	4802
632.145	5477
632.208	4030
632.270	5128
632.332	3816
632.395	4365
632.457	5380
632.519	5434
632.581	5888
632.643	3607
632.706	5209
632.768	3689
632.830	4466
632.892	3865
632.954	5017
633.016	4811
633.078	3898
633.141	4084
633.203	4115
633.265	4616
633.327	4382
633.389	4470
633.451	5110
633.513	5251
633.575	6347
633.637	4349
633.698	4242
633.760	4878
633.822	4475
633.884	5021
633.946	4712
634.008	4954
634.070	5876
634.132	8302
634.193	5688
634.255	4515
634.317	4211
634.379	5042
634.441	4282
634.502	3628
634.564	4121
634.626	3481
634.687	3923
634.749	4154
634.811	5111
634.873	3558
634.934	4142
634.996	5764
635.057	3368
635.119	3224
635.181	3471
635.242	4930
635.304	2411
635.365	6366
635.427	4150
635.488	3625
635.550	3383
635.611	4208
635.673	2260
635.734	4513
635.796	3434
635.857	4772
635.918	3136
635.980	4774
636.041	4166
636.102	4198
636.164	4029
636.225	4864
636.286	3165
636.348	4656
636.409	4545
636.470	3363
636.531	3986
636.593	4105
636.654	3362
636.715	3484
636.776	3433
636.838	3249
636.899	3862
636.960	3327
637.021	2582
637.082	3771
637.143	3117
637.204	2717
637.265	2564
637.326	3275
637.387	3213
637.448	2539
637.509	3038
637.570	3321
637.631	3722
637.692	2642
637.753	1886
637.814	2707
637.875	2969
637.936	3465
637.997	3376
638.058	2699
638.119	3513
638.179	3088
638.240	3179
638.301	3563
638.362	2298
638.423	2428
638.483	4203
638.544	1890
638.605	3590
638.666	2287
638.726	4003
638.787	4480
638.848	2698
638.908	2981
638.969	3756
639.030	3017
639.090	2074
639.151	2604
639.211	3688
639.272	3408
639.332	5630
639.393	3355
639.453	2551
639.514	2381
639.574	2983
639.635	2175
639.695	2793
639.756	1886
639.816	3115
639.877	2589
639.937	4487
639.997	4913
640.058	2710
640.118	1837
640.178	3028
640.239	2565
640.299	2331
640.359	2770
640.420	3266
640.480	2833
640.540	2018
640.600	2205
640.661	2613
640.721	1356
640.781	3168
640.841	1992
640.901	3563
640.961	3165
641.021	2067
641.082	2022
641.142	3413
641.202	3077
641.262	674
641.322	3155
641.382	1840
641.442	2737
641.502	2954
641.562	3034
641.622	2075
641.682	2557
641.742	1904
641.802	2633
641.861	3431
641.921	1520
641.981	3963
642.041	3237
642.101	2840
642.161	1346
642.221	1472
642.280	2482
642.340	1552
642.400	1768
642.460	3135
642.519	2175
642.579	2401
642.639	2637
642.698	800
642.758	4302
642.818	2558
642.877	1729
642.937	2127
642.997	2108
643.056	3703
643.116	1107
643.175	3857
643.235	1521
643.294	2253
643.354	2639
643.414	2059
643.473	2022
643.532	1524
643.592	2235
643.651	4817
643.711	8567
643.770	14092
643.830	33328
643.889	75498
643.948	18109
644.008	3914
644.067	2332
644.126	1676
644.186	1936
644.245	3130
644.304	695
644.363	3685
644.423	779
644.482	2250
644.541	2285
644.600	1247
644.659	2137
644.719	1855
644.778	2414
644.837	3728
644.896	7055
644.955	14308
645.014	5846
645.073	4184
645.132	2294
645.191	2726
645.250	2174
645.309	2869
645.368	1223
645.427	2764
645.486	1665
645.545	3557
645.604	1414
645.663	1536
645.722	1672
645.781	2068
645.840	1567
645.898	2601
645.957	3820
646.016	3197
646.075	6970
646.134	12458
646.192	31457
646.251	49767
646.310	6637
646.369	2702
646.427	2191
646.486	965
646.545	2293
646.603	1918
646.662	2662
646.721	1681
646.779	1547
646.838	117
646.896	1929
646.955	2180
647.014	3052
647.072	3471
647.131	8328
647.189	4250
647.248	555
647.306	2533
647.365	1746
647.423	699
647.481	2233
647.540	44
647.598	1760
647.657	1030
647.715	2479
647.773	333
647.832	1798
647.890	1016
647.948	628
648.007	2009
648.065	882
648.123	1354
648.181	3241
648.240	4446
648.298	2954
648.356	867
648.414	505
648.472	1945
648.531	2221
648.589	1524
648.647	1137
648.705	985
648.763	1747
648.821	1063
648.879	1256
648.937	1008
648.995	1186
649.053	952
649.111	1961
649.169	3374
649.227	4766
649.285	9134
649.343	25809
649.401	14085
649.459	6151
649.516	5907
649.574	5541
649.632	16629
649.690	20338
649.748	6852
649.806	8421
649.863	15910
649.921	7887
649.979	4355
650.037	1216
650.094	641
650.152	744
650.210	908
650.268	1704
650.325	1339
650.383	1290
650.440	583
650.498	481
650.556	1356
650.613	266
650.671	1182
650.728	204
650.786	1561
650.843	625
650.901	-719
650.958	1674
651.016	1108
651.073	131
651.131	1065
651.188	618
651.246	1763
651.303	-645
651.360	1837
651.418	790
651.475	839
651.532	-286
651.590	1614
651.647	113
651.704	972
651.762	813
651.819	1261
651.876	402
651.933	1032
651.990	993
652.048	-486
652.105	174
652.162	306
652.219	98
652.276	846
652.333	1183
652.390	554
652.448	1043
652.505	1315
652.562	1551
652.619	2174
652.676	5202
652.733	6201
652.790	672
652.847	-247
652.904	933
652.961	-517
653.017	-492
653.074	1433
653.131	119
653.188	-590
653.245	-79
653.302	829
653.359	11
653.415	504
653.472	-571
653.529	1459
653.586	42
653.642	447
653.699	578
653.756	-121
653.813	520
653.869	1216
653.926	-272
653.983	91
654.039	765
654.096	204
654.152	1267
654.209	-744
654.266	1024
654.322	-261
654.379	583
654.435	317
654.492	677
654.548	2127
654.605	1482
654.661	1644
654.717	437
654.774	1211
654.830	970
654.887	733
654.943	60
655.000	692
655.056	1060
655.112	689
655.168	-156
655.225	486
655.281	734
655.337	1537
655.394	2149
655.450	842
655.506	795
655.562	2123
655.618	1854
655.675	-186
655.731	187
655.787	-303
655.843	1438
655.899	-268
655.955	333
656.011	1276
656.067	-826
656.123	385
656.179	496
656.235	1764
656.291	-1292
656.347	794
656.403	-531
656.459	1233
656.515	-50
656.571	216
656.627	744
656.683	349
656.739	881
656.795	655
656.850	-53
656.906	460
656.962	511
657.018	172
657.074	169
657.129	98
657.185	1031
657.241	477
657.297	-159
657.352	1247
657.408	-509
657.464	1491
657.519	2
657.575	141
657.630	-60
657.686	-172
657.742	129
657.797	16
657.853	40
657.908	2072
657.964	-76
658.019	540
658.075	1031
658.130	334
658.186	-605
658.241	1452
658.297	-396
658.352	-54
658.407	1386
658.463	295
658.518	242
658.573	629
658.629	-783
658.684	63
658.739	782
658.795	-133
658.850	998
658.905	-129
658.960	469
659.016	-35
659.071	451
659.126	584
659.181	337
659.236	2119
659.291	2542
659.346	743
659.401	1304
659.457	2758
659.512	3583
659.567	2508
659.622	717
659.677	400
659.732	-529
659.787	492
659.842	707
659.897	636
659.952	522
660.007	213
660.061	78
660.116	88
660.171	-285
660.226	878
660.281	1747
660.336	-18
660.391	1091
660.445	-415
660.500	-227
660.555	1055
660.610	-898
660.664	949
660.719	-363
660.774	717
660.828	1212
660.883	1136
660.938	266
660.992	-580
661.047	482
661.101	-534
661.156	-99
661.211	-267
661.265	-579
661.320	495
661.374	429
661.429	241
661.483	428
661.538	-1064
661.592	272
661.647	21
661.701	54
661.755	-227
661.810	-212
661.864	-233
661.919	-21
661.973	726
662.027	-542
662.081	-682
662.136	44
662.190	-129
662.244	713
662.299	-581
662.353	-134
662.407	-280
662.461	-76
662.515	775
662.569	-23
662.624	757
662.678	-316
662.732	-234
662.786	198
662.840	1190
662.894	809
662.948	806
663.002	162
663.056	-118
663.110	-1301
663.164	-67
663.218	-30
663.272	706
663.326	767
663.380	344
663.434	130
663.488	-236
663.542	472
663.595	-186
663.649	-266
663.703	980
663.757	-214
663.811	-610
663.864	-940
663.918	104
663.972	-474
664.026	321
664.079	-626
664.133	993
664.187	-639
664.240	-272
664.294	-118
664.348	56
664.401	597
664.455	620
664.508	-87
664.562	-81
664.615	-177
664.669	-802
664.722	303
664.776	-589
664.829	351
664.883	277
664.936	-847
664.990	911
665.043	527
665.097	-33
665.150	1207
665.203	-548
665.257	25
665.310	634
665.363	315
665.417	-645
665.470	228
665.523	170
665.576	378
665.630	519
665.683	240
665.736	91
665.789	52
665.842	294
665.895	-81
665.949	1191
666.002	126
666.055	613
666.108	113
666.161	-415
666.214	327
666.267	-537
666.320	427
666.373	396
666.426	441
666.479	178
666.532	24
666.585	-593
666.638	135
666.691	-370
666.744	950
666.796	346
666.849	237
666.902	-146
666.955	60
667.008	-153
667.060	253
667.113	-764
667.166	-95
667.219	119
667.271	-81
667.324	-50
667.377	557
667.430	1167
667.482	1421
667.535	518
667.587	253
667.640	588
667.693	-241
667.745	329
667.798	1428
667.850	507
667.903	-24
667.955	-270
668.008	-632
668.060	683
668.113	-299
668.165	575
668.218	-102
668.270	297
668.322	-33
668.375	45
668.427	936
668.479	404
668.532	775
668.584	-397
668.636	112
668.689	420
668.741	-131
668.793	1022
668.845	910
668.898	685
668.950	343
669.002	-515
669.054	-34
669.106	-103
669.158	806
669.211	986
669.263	120
669.315	1482
669.367	1932
669.419	1235
669.471	1331
669.523	1264
669.575	2124
669.627	264
669.679	-309
669.731	650
669.783	1103
669.835	1880
669.886	539
669.938	403
669.990	-153
670.042	311
670.094	924
670.146	956
670.197	1446
670.249	1851
670.301	1092
670.353	3947
670.404	6348
670.456	8291
670.508	14789
670.560	26128
670.611	46664
670.663	82887
670.715	186530
670.766	272744
670.818	92036
670.869	19243
670.921	8166
670.972	5440
671.024	3900
671.075	3471
671.127	2452
671.178	981
671.230	1316
671.281	1382
671.333	684
671.384	1008
671.436	343
671.487	1346
671.538	412
671.590	1366
671.641	899
671.692	1945
671.744	2520
671.795	2835
671.846	771
671.897	1103
671.949	718
672.000	406
672.051	415
672.102	1357
672.153	402
672.204	384
672.256	373
672.307	-206
672.358	278
672.409	293
672.460	-210
672.511	-193
672.562	696
672.613	301
672.664	373
672.715	224
672.766	-260
672.817	482
672.868	-1
672.919	-235
672.970	195
673.021	44
673.071	-62
673.122	580
673.173	665
673.224	-426
673.275	415
673.326	100
673.376	-653
673.427	-639
673.478	-267
673.528	91
673.579	-15
673.630	-848
673.680	-242
673.731	-568
673.782	-533
673.832	129
673.883	724
673.934	-620
673.984	-168
674.035	216
674.085	-326
674.136	-30
674.186	-4
674.237	174
674.287	902
674.338	-551
674.388	-168
674.438	-164
674.489	-222
674.539	677
674.589	-560
674.640	123
674.690	469
674.740	-270
674.791	-350
674.841	-106
674.891	68
674.942	-402
674.992	-477
675.042	-162
675.092	666
675.142	-593
675.193	-119
675.243	-233
675.293	-859
675.343	-911
675.393	-283
675.443	378
675.493	327
675.543	-585
675.593	196
675.643	-430
675.693	-679
675.743	-114
675.793	-451
675.843	-415
675.893	264
675.943	-276
675.993	-789
676.043	-667
676.093	-106
676.142	-227
676.192	-321
676.242	261
676.292	-612
676.341	-614
676.391	-877
676.441	-935
676.491	-217
676.540	-420
676.590	-105
676.640	-763
676.689	-173
676.739	-426
676.789	-879
676.838	-201
676.888	-766
676.937	-665
676.987	-47
677.037	0
677.086	-977
677.136	-652
677.185	-53
677.235	-825
677.284	-925
677.333	-998
677.383	-718
677.432	-1110
677.482	-727
677.531	-414
677.580	-926
677.630	-408
677.679	-589
677.728	-601
677.778	-486
677.827	-16
677.876	-145
677.925	-853
677.975	537
678.024	-813
678.073	-261
678.122	-207
678.171	-1109
678.220	-738
678.269	-822
678.319	-757
678.368	-690
678.417	-632
678.466	-82
678.515	400
678.564	20
678.613	-755
678.662	-795
678.711	-540
678.760	-574
678.809	-810
678.857	-617
678.906	-266
678.955	141
679.004	-70
679.053	-1016
679.102	-337
679.151	-473
679.199	-177
679.248	-1107
679.297	-1438
679.346	-492
679.394	-339
679.443	-577
679.492	11
679.540	-794
679.589	-343
679.638	-617
679.686	-440
679.735	-846
679.784	-777
679.832	-976
679.881	-1172
679.929	-1260
679.978	-1313
680.026	-742
680.075	-306
680.123	-1587
680.172	-1367
680.220	-636
680.268	14
680.317	-1409
680.365	-1366
680.414	-1086
680.462	-963
680.510	-572
680.559	-1066
680.607	-1210
680.655	-545
680.703	-483
680.752	-733
680.800	-1084
680.848	-443
680.896	-1249
680.945	-1213
680.993	-694
681.041	-1340
681.089	-1067
681.137	-491
681.185	-955
681.233	-1064
681.258	-834
681.281	-652
681.329	-677
681.377	-1405
681.380	-1313
681.425	-322
681.473	301
681.502	-211
681.521	-634
681.569	-614
681.617	452
681.624	416
681.665	-109
681.713	-533
681.745	-274
681.761	-201
681.809	-351
681.857	986
681.867	740
681.904	-256
681.952	531
681.989	434
682.000	362
682.048	989
682.096	346
682.111	434
682.143	493
682.191	958
682.233	883
682.239	833
682.286	637
682.334	303
682.354	494
682.382	679
682.430	795
682.476	288
682.477	244
682.525	878
682.572	1168
682.598	1278
682.620	1351
682.667	1782
682.715	1888
682.720	1881
682.763	1438
682.810	1414
682.841	1334
682.857	1258
682.905	1273
682.952	2125
682.963	2251
683.000	2565
683.047	2038
683.085	2529
683.095	2624
683.142	2771
683.190	1775
683.206	1847
683.237	1886
683.284	2286
683.328	2516
683.332	2507
683.379	2491
683.426	2240
683.449	2445
683.473	2638
683.521	2451
683.568	2297
683.571	2359
683.615	2745
683.662	2904
683.693	2442
683.709	2156
683.757	2824
683.804	3054
683.814	3034
683.851	2879
683.898	3480
683.936	3684
683.945	3722
683.992	3508
684.039	3593
684.057	3667
684.086	3704
684.133	3815
684.179	3751
684.180	3723
684.227	4325
684.274	3902
684.300	3692
684.321	3522
684.368	3935
684.415	4706
684.422	4644
684.462	4123
684.509	3751
684.543	4198
684.556	4329
684.603	4444
684.649	4439
684.665	4416
684.696	4371
684.743	4501
684.786	4623
684.790	4620
684.837	4167
684.883	5468
684.908	5309
684.930	5089
684.977	5467
685.023	5349
685.029	5400
685.070	5512
685.117	5913
685.150	5236
685.164	5022
685.210	5374
685.257	6048
685.272	6199
685.303	6318
685.350	5655
685.393	5793
685.396	5801
685.443	6176
685.490	6579
685.514	6587
685.536	6528
685.583	6614
685.629	6235
685.636	6253
685.675	6247
685.722	6252
685.757	6232
685.768	6224
685.815	6325
685.861	6461
685.878	6509
685.908	6643
685.954	6941
686.000	7015
686.000	7006
686.047	7392
686.093	8207
686.121	8355
686.139	8334
686.185	7449
686.232	7016
686.242	7034
686.278	7159
686.324	7184
686.363	7380
686.370	7408
686.416	7796
686.463	7148
686.484	7458
686.509	7876
686.555	7513
686.601	8421
686.606	8377
686.647	7611
686.693	7705
686.727	7115
686.739	6961
686.785	7509
686.831	7549
686.848	7682
686.877	7913
686.923	7602
686.969	8351
686.969	8353
687.015	7553
687.061	8200
687.090	7773
687.107	7540
687.153	8499
687.199	7997
687.211	7939
687.245	7724
687.291	8405
687.332	8493
687.336	8528
687.382	8988
687.428	8696
687.453	8699
687.474	8504
687.520	8855
687.565	8164
687.574	8132
687.611	8192
687.657	8513
687.695	8625
687.702	8692
687.748	8858
687.794	9557
687.816	9546
687.839	9312
687.885	9044
687.931	8921
687.937	8901
687.976	8978
688.022	9083
688.058	9370
688.067	9467
688.113	9287
688.158	9434
688.179	9514
688.204	9517
688.249	9542
688.295	9802
688.300	9788
688.340	9953
688.386	9729
688.421	9873
688.431	9866
688.477	9759
688.522	9855
688.542	9906
688.567	10119
688.613	10296
688.658	10667
688.663	10665
688.703	10568
688.749	10121
688.784	10793
688.794	11017
688.839	10296
688.884	10580
688.905	10495
688.930	10343
688.975	10452
689.020	10766
689.026	10711
689.065	10467
689.110	10972
689.146	10652
689.155	10585
689.201	10826
689.246	10641
689.267	10631
689.291	10711
689.336	11170
689.381	11047
689.388	11041
689.426	11089
689.471	11112
689.509	11376
689.516	11385
689.561	11065
689.606	11040
689.630	10681
689.651	10632
689.696	11064
689.741	11505
689.750	11584
689.785	11821
689.830	11293
689.871	11590
689.875	11616
689.920	11233
689.965	11298
689.992	11044
690.010	11072
690.054	11470
690.099	11826
690.112	11963
690.144	12281
690.189	12402
690.233	12874
690.233	12895
690.278	12521
690.323	12682
690.354	12926
690.367	13128
690.412	13473
690.457	13749
690.474	13927
690.501	14342
690.546	14855
690.590	15591
690.595	15589
690.635	16317
690.680	17545
690.716	18297
690.724	18861
690.769	22158
690.813	25176
690.836	26706
690.857	30339
690.902	38112
690.946	46377
690.957	48242
690.991	66684
691.035	91403
691.077	115380
691.080	115717
691.124	115162
691.168	114978
691.198	115278
691.213	107283
691.257	82715
691.301	58154
691.318	48630
691.346	43590
691.390	34937
691.434	26457
691.439	25410
691.478	23238
691.522	21733
691.559	20099
691.567	19966
691.611	18592
691.655	17391
691.680	16538
691.699	16365
691.743	16659
691.787	16489
691.800	16296
691.831	16010
691.875	15884
691.919	15777
691.921	15739
691.964	15397
692.008	15431
692.041	15004
692.052	14985
692.096	14867
692.139	15278
692.162	15074
692.183	14889
692.227	14894
692.271	15092
692.282	14987
692.315	15252
692.359	15928
692.402	16164
692.403	16195
692.447	16252
692.490	15785
692.523	15814
692.534	15945
692.578	15833
692.622	16193
692.643	16159
692.666	15957
692.709	15868
692.753	15536
692.763	15414
692.797	15702
692.840	15929
692.884	16396
692.884	16437
692.928	16841
692.971	17503
693.004	17657
693.015	17725
693.059	17788
693.102	17960
693.124	17952
693.146	18289
693.189	19294
693.233	20010
693.245	20198
693.276	21494
693.320	23175
693.363	24582
693.365	24585
693.407	27265
693.450	30298
693.485	32510
693.493	33887
693.537	40860
693.580	47560
693.605	51515
693.624	59492
693.667	78107
693.710	97144
693.725	103610
693.753	139677
693.797	196245
693.840	253110
693.845	259312
693.883	258764
693.926	257140
693.966	256363
693.970	251467
694.013	194842
694.056	138153
694.086	98769
694.099	93196
694.142	74872
694.185	56666
694.206	47739
694.229	44742
694.272	39216
694.315	33436
694.326	31846
694.358	30082
694.401	27695
694.444	25547
694.446	25361
694.487	24257
694.530	23055
694.566	22094
694.573	22003
694.616	21108
694.659	20298
694.686	19614
694.702	19399
694.745	18918
694.787	18079
694.806	17751
694.830	17710
694.873	17591
694.916	17240
694.926	17197
694.959	17347
695.002	17174
695.044	17178
695.046	17139
695.087	17531
695.130	17742
695.166	17757
695.172	17756
695.215	17640
695.258	17443
695.286	17306
695.301	17284
695.343	16939
695.386	16731
695.406	16528
695.428	16520
695.471	16491
695.514	16648
695.526	16576
695.556	16736
695.599	17122
695.641	17444
695.646	17403
695.684	16983
695.726	16651
695.766	16406
695.769	16468
695.811	16624
695.854	16787
695.886	16942
695.896	16895
695.938	16318
695.981	15819
696.005	15540
696.023	15971
696.065	16747
696.108	17698
696.125	17981
696.150	17896
696.192	17699
696.235	17678
696.245	17575
696.277	17652
696.319	17800
696.361	17865
696.365	17820
696.404	18429
696.446	19291
696.485	19738
696.488	19786
696.530	19844
696.572	19976
696.604	19849
696.614	19642
696.656	18861
696.698	17757
696.724	17109
696.740	17080
696.783	16832
696.825	16801
696.844	16570
696.867	16604
696.909	16842
696.951	16906
696.964	16950
696.992	16925
697.034	16632
697.076	16361
697.083	16265
697.118	16649
697.160	17163
697.202	17655
697.203	17617
697.244	17312
697.286	17026
697.323	16679
697.327	16733
697.369	16688
697.411	16839
697.442	16779
697.453	16854
697.494	17091
697.536	17322
697.562	17365
697.578	17314
697.620	17077
697.661	16885
697.682	16684
697.703	16711
697.744	16807
697.786	16879
697.801	16828
697.828	17104
697.869	17495
697.911	17870
697.921	17924
697.952	17653
697.994	17197
698.035	16716
698.040	16614
698.077	16397
698.118	16058
698.160	15764
698.160	15717
698.201	16026
698.243	16296
698.279	16522
698.284	16588
698.325	16741
698.367	16909
698.399	16981
698.408	16994
698.449	16831
698.491	16677
698.518	16507
698.532	16644
698.573	16945
698.614	17249
698.638	17359
698.656	17419
698.697	17458
698.738	17484
698.757	17450
698.779	17487
698.820	17452
698.862	17422
698.877	17363
698.903	17562
698.944	17796
698.985	18026
698.996	18040
699.026	18045
699.067	17981
699.116	17854
699.235	17798
699.354	17158
699.474	17872
699.593	17689
699.713	17719
699.832	17683
699.951	17938
700.070	16284
700.190	16428
700.309	16788
700.428	16633
700.547	16204
700.667	17063
700.786	17447
700.905	15992
701.024	15982
701.143	16816
701.262	15432
701.381	15828
701.500	16513
701.619	16228
701.738	15527
701.857	16156
701.976	14544
702.095	15826
702.214	15285
702.333	15315
702.452	15117
702.571	15135
702.690	15495
702.809	15203
702.928	15086
703.047	15735
703.165	14794
703.284	15617
703.403	15442
703.522	15340
703.640	15453
703.759	15573
703.878	18556
703.997	15668
704.115	14981
704.234	14598
704.353	14425
704.471	14167
704.590	14430
704.708	14599
704.827	13191
704.946	14489
705.064	15083
705.183	14142
705.301	16890
705.420	23442
705.538	21125
705.656	19234
705.775	20709
705.893	38787
706.012	54259
706.130	20116
706.249	18956
706.367	18097
706.485	19188
706.604	18709
706.722	17852
706.840	19196
706.958	20259
707.077	18136
707.195	16456
707.313	16608
707.431	16574
707.549	16555
707.668	16230
707.786	17075
707.904	17145
708.022	17083
708.140	16433
708.258	17046
708.376	15657
708.494	16124
708.612	17277
708.730	22625
708.848	22511
708.966	20298
709.084	17920
709.202	18889
709.320	20101
709.438	20002
709.556	19608
709.674	19104
709.791	19950
709.909	18513
710.027	18610
710.145	18191
710.263	19064
710.380	18503
710.498	19008
710.616	18467
710.733	16778
710.851	17479
710.969	18116
711.086	17307
711.204	18225
711.322	17764
711.439	17187
711.557	17255
711.674	17307
711.792	17632
711.909	20313
712.027	21512
712.144	17365
712.262	17517
712.379	17868
712.497	24315
712.614	24926
712.732	21621
712.849	20079
712.966	19525
713.084	20677
713.201	21749
713.318	21617
713.436	20893
713.553	20595
713.670	20827
713.787	20492
713.905	20866
714.022	19270
714.139	19214
714.256	20217
714.373	19723
714.490	21458
714.608	26913
714.725	63485
714.842	77010
714.959	21362
715.076	18760
715.193	18379
715.310	17837
715.427	17810
715.544	17513
715.661	18018
715.778	17848
715.895	19194
716.011	17692
716.128	17288
716.245	18188
716.362	17515
716.479	18347
716.596	17145
716.713	17102
716.829	16981
716.946	16855
717.063	15926
717.180	17026
717.296	15990
717.413	17340
717.530	15425
717.646	15977
717.763	16087
717.880	15565
717.996	15550
718.113	15718
718.229	14617
718.346	15340
718.462	14123
718.579	15770
718.695	17034
718.812	17136
718.928	17401
719.045	15383
719.161	15561
719.277	14095
719.394	14210
719.510	15716
719.626	15106
719.743	16845
719.859	15765
719.975	17108
720.092	24407
720.208	43261
720.324	19321
720.440	14652
720.557	14907
720.673	17335
720.789	20764
720.905	34398
721.021	18735
721.137	14303
721.253	14556
721.369	15433
721.486	14991
721.602	17387
721.718	13941
721.834	13184
721.950	12909
722.066	12945
722.181	13061
722.297	13329
722.413	12575
722.529	13334
722.645	12760
722.761	11886
722.877	13589
722.993	13005
723.108	12752
723.224	11838
723.340	13272
723.456	13029
723.571	12596
723.687	12349
723.803	12822
723.918	12070
724.034	12724
724.150	12505
724.265	12668
724.381	17449
724.497	20762
724.612	11836
724.728	11443
724.843	11110
724.959	12040
725.074	16641
725.190	18801
725.305	11639
725.421	11345
725.536	11187
725.651	12266
725.767	11621
725.882	11697
725.997	10989
726.113	11010
726.228	10597
726.343	11573
726.459	11088
726.574	10651
726.689	10865
726.804	10138
726.920	11101
727.035	10557
727.150	9982
727.265	10112
727.380	11066
727.495	9824
727.610	9600
727.725	11141
727.841	13655
727.956	25292
728.071	22152
728.186	10913
728.301	9760
728.416	10106
728.531	9313
728.645	8927
728.760	10114
728.875	10184
728.990	9608
729.105	9736
729.220	9832
729.335	11032
729.449	9140
729.564	9078
729.679	9736
729.794	9385
729.908	9815
730.023	9760
730.138	10064
730.253	9209
730.367	9347
730.482	9282
730.596	9651
730.711	10162
730.826	9536
730.940	9210
731.055	9272
731.169	9391
731.284	8452
731.398	8935
731.513	9313
731.627	9064
731.742	10064
731.856	9742
731.970	8700
732.085	9204
732.199	9050
732.313	8977
732.428	10895
732.542	19688
732.656	15469
732.771	8924
732.885	8793
732.999	9496
733.113	9190
733.227	9385
733.342	8520
733.456	8749
733.570	8560
733.684	7609
733.798	8100
733.912	8227
734.026	8408
734.140	8470
734.254	8145
734.368	11005
734.482	13044
734.596	7794
734.710	8692
734.824	8877
734.938	7557
735.052	7616
735.166	8178
735.280	8299
735.393	7347
735.507	8121
735.621	9424
735.735	12408
735.849	9710
735.962	7335
736.076	9385
736.190	8067
736.303	8323
736.417	10737
736.531	8343
736.644	8210
736.758	7036
736.872	7587
736.985	7946
737.099	7571
737.212	7633
737.326	8415
737.439	8235
737.553	7940
737.666	7253
737.780	7896
737.893	6579
738.007	7683
738.120	7399
738.233	7453
738.347	7385
738.460	7265
738.573	8399
738.687	8117
738.800	8182
738.913	7970
739.026	8384
739.140	8531
739.253	8563
739.366	8480
739.479	8284
739.592	7703
739.705	6312
739.818	7353
739.932	6992
740.045	7327
740.158	7724
740.271	8097
740.384	7123
740.497	7596
740.610	7821
740.723	8196
740.836	8520
740.949	7708
741.062	7994
741.174	8370
741.287	8007
741.400	7159
741.513	6849
741.626	7421
741.739	7251
741.851	7200
741.964	7133
742.077	7354
742.189	7328
742.302	7567
742.415	7007
742.527	7157
742.640	8003
742.753	7671
742.865	7144
742.978	7484
743.090	7428
743.203	7737
743.316	7346
743.428	7959
743.541	7750
743.653	7220
743.766	7065
743.878	7639
743.990	7971
744.103	8782
744.215	7490
744.327	7421
744.440	7694
744.552	8601
744.664	7778
744.777	6982
744.889	7981
745.001	7295
745.113	7246
745.226	7734
745.338	7461
745.450	6957
745.562	6853
745.674	7375
745.786	7216
745.898	7305
746.010	7661
746.122	7578
746.234	6836
746.347	7879
746.459	7489
746.570	6957
746.682	7925
746.794	7638
746.906	7078
747.018	7629
747.130	8293
747.242	7426
747.354	7642
747.466	8263
747.577	8364
747.689	8319
747.801	7246
747.913	7833
748.024	7001
748.136	6762
748.248	7345
748.359	7684
748.471	7754
748.583	7798
748.694	8851
748.806	10718
748.918	8443
749.029	8569
749.141	8014
749.252	7913
749.364	8091
749.475	8056
749.587	8449
749.698	6918
749.809	7211
749.921	8030
750.032	8320
750.144	7195
750.255	7943
750.366	7699
750.478	7832
750.589	8076
750.700	7316
750.811	8257
750.923	8784
751.034	9299
751.145	9979
751.256	8218
751.367	8133
751.479	8044
751.590	8824
751.701	7914
751.812	7262
751.923	7034
752.034	8726
752.145	7957
752.256	7177
752.367	9263
752.478	7026
752.589	8690
752.700	8087
752.811	8513
752.922	8173
753.032	8039
753.143	7923
753.254	7971
753.365	8758
753.476	7711
753.586	8586
753.697	8348
753.808	8614
753.919	7817
754.029	8922
754.140	8683
754.251	9440
754.361	7990
754.472	9286
754.582	9321
754.693	9011
754.804	9219
754.914	8507
755.025	9051
755.135	9348
755.246	9413
755.356	9535
755.466	10276
755.577	9856
755.687	9614
755.798	9319
755.908	9578
756.018	9771
756.129	9652
756.239	10251
756.349	10685
756.460	9432
756.570	10435
756.680	9857
756.790	10896
756.900	11229
757.011	10681
757.121	11109
757.231	10689
757.341	10694
757.451	9714
757.561	11529
757.671	11210
757.781	11434
757.891	13084
758.001	11997
758.111	11789
758.221	12253
758.331	12488
758.441	12675
758.551	13071
758.661	12979
758.771	12674
758.880	13798
758.990	13456
759.100	14104
759.210	14658
759.320	14732
759.429	14482
759.539	13997
759.649	15736
759.758	15613
759.868	15795
759.978	16076
760.087	16686
760.197	17448
760.307	17169
760.416	15883
760.526	16271
760.635	17529
760.745	18757
760.854	18746
760.964	18248
761.073	20189
761.182	20711
761.292	20781
761.401	22073
761.511	20944
761.620	22502
761.729	23196
761.839	23538
761.948	23977
762.057	25146
762.166	25503
762.276	26164
762.385	28728
762.494	28927
762.603	29247
762.712	31129
762.822	31831
762.931	34007
763.040	34930
763.149	36910
763.258	38871
763.367	40627
763.476	42236
763.585	45065
763.694	48209
763.803	50582
763.912	52155
764.021	55511
764.130	58251
764.238	62870
764.347	68687
764.456	74326
764.565	78743
764.674	87385
764.783	95564
764.891	104904
765.000	118371
765.109	132373
765.217	150524
765.326	172346
765.435	199961
765.543	234659
765.652	280964
765.761	344341
765.869	416906
765.978	518046
766.086	624670
766.195	719942
766.303	711414
766.412	490272
766.520	463257
766.629	679387
766.737	714404
766.846	629275
766.954	520279
767.062	421544
767.171	341620
767.279	278077
767.387	229088
767.496	191993
767.604	166564
767.712	146303
767.820	130786
767.928	119473
768.037	111262
768.145	104158
768.253	99789
768.361	97130
768.469	96163
768.577	97592
768.685	103310
768.793	106650
768.901	119503
769.009	136587
769.117	161258
769.225	198806
769.333	255544
769.441	342388
769.549	473675
769.657	630798
769.765	666298
769.873	461319
769.981	596027
770.088	635245
770.196	506141
770.304	384717
770.412	297229
770.519	234764
770.627	190680
770.735	159400
770.842	135073
770.950	118543
771.058	102414
771.165	91599
771.273	81777
771.380	74399
771.488	67810
771.595	63119
771.703	57467
771.810	53804
771.918	50169
772.025	47012
772.133	44004
772.240	40824
772.348	38969
772.455	38009
772.562	35840
772.670	33712
772.777	32614
772.884	30769
772.991	29481
773.099	27821
773.206	27177
773.313	26153
773.420	26140
773.528	23246
773.635	23370
773.742	23239
773.849	22069
773.956	20912
774.063	20426
774.170	19464
774.277	20572
774.384	19591
774.491	18136
774.598	17937
774.705	18239
774.812	17739
774.919	17774
775.026	17331
775.133	16857
775.239	15717
775.346	16329
775.453	15717
775.560	14756
775.667	15512
775.773	15143
775.880	15477
775.987	14157
776.093	14557
776.200	14293
776.307	13274
776.413	13669
776.520	12771
776.627	12948
776.733	12183
776.840	11980
776.946	12865
777.053	10740
777.159	12125
777.266	10439
777.372	10724
777.478	11142
777.585	11317
777.691	10838
777.798	10284
777.904	11217
778.010	11779
778.117	10920
778.223	10691
778.329	9991
778.435	9440
778.542	9844
778.648	9281
778.754	9288
778.860	9574
778.966	10048
779.072	8704
779.178	9743
779.284	9365
779.391	9189
779.497	10863
779.603	16362
779.708	21210
779.815	44781
779.920	135922
780.026	267060
780.132	78114
780.238	20690
780.344	15061
780.450	12086
780.556	10034
780.661	8850
780.767	7930
780.873	7799
780.979	8348
781.085	7620
781.190	7924
781.296	6745
781.402	6822
781.507	7159
781.613	7053
781.719	6435
781.824	6398
781.930	7533
782.035	6409
782.141	6712
782.246	6180
782.352	6396
782.457	6193
782.563	6010
782.668	6619
782.773	5784
782.879	6330
782.984	5845
783.090	6214
783.195	6517
783.300	6346
783.405	5074
783.511	5337
783.616	6257
783.721	5472
783.826	5141
783.932	5648
784.037	6139
784.142	5781
784.247	5160
784.352	5566
784.457	5716
784.562	5571
784.667	4655
784.772	4681
784.877	4744
784.982	5161
785.087	4231
785.192	6032
785.297	4876
785.402	4710
785.507	5523
785.611	4657
785.716	4556
785.821	5362
785.926	4377
786.031	5032
786.135	5114
786.240	4307
786.345	4191
786.450	4448
786.554	4924
786.659	4561
786.763	4247
786.868	5691
786.973	4779
787.077	4717
787.182	3747
787.286	4856
787.391	4724
787.495	4118
787.600	3961
787.704	4277
787.809	4963
787.913	4081
788.017	3424
788.122	3917
788.226	4068
788.330	2972
788.435	3996
788.539	4636
788.643	3471
788.747	4434
788.852	4245
788.956	3488
789.060	3397
789.164	3291
789.268	2830
789.372	3924
789.476	3874
789.580	3439
789.684	3805
789.788	3607
789.892	3057
789.996	4033
790.100	3907
790.204	3288
790.308	3613
790.412	3994
790.516	5157
790.620	4700
790.724	3389
790.828	4134
790.931	3111
791.035	3736
791.139	4231
791.242	3407
791.346	3737
791.450	3970
791.554	2744
791.657	3177
791.761	3945
791.864	4177
791.968	3497
792.072	3485
792.175	4084
792.279	2716
792.382	3866
792.486	3477
792.589	2492
792.693	3739
792.796	2339
792.899	4181
793.003	3575
793.106	2559
793.209	3003
793.313	4435
793.416	2097
793.519	3630
793.623	3797
793.726	4435
793.829	3007
793.932	3672
794.035	3117
794.138	5123
794.242	5046
794.345	6432
794.448	10771
794.551	23493
794.654	75575
794.757	172993
794.860	48162
794.963	9611
795.066	5194
795.169	4787
795.272	4386
795.375	3814
795.477	2934
795.580	3568
795.683	2502
795.786	2601
795.889	1976
795.991	3520
796.094	3725
796.197	2077
796.300	3204
796.402	2172
796.505	2734
796.608	2219
796.710	3014
796.813	2155
796.915	2907
797.018	3052
797.120	2821
797.223	2100
797.326	3609
797.428	2103
797.530	2133
797.633	2552
797.735	3177
797.838	3352
797.940	4112
798.042	1813
798.145	2624
798.247	3112
798.349	968
798.452	2277
798.554	1864
798.656	1965
798.758	3167
798.860	3131
798.962	2100
799.065	2515
799.167	1854
799.269	3382
799.371	3170
799.473	1899
799.575	1695
799.677	2942
799.779	3439
799.881	2407
799.983	3338
800.085	2887
800.187	2142
800.289	1318
800.390	2492
800.492	1890
800.594	2967
800.696	1785
800.798	1270
800.899	2355
801.001	2684
801.103	1409
801.205	2451
801.306	1506
801.408	1069
801.509	1748
801.611	1825
801.713	1887
801.814	1291
801.916	2186
802.017	1720
802.119	1136
802.220	1970
802.322	512
802.423	3697
802.525	724
802.626	1797
802.727	2112
802.829	2375
802.930	-131
803.031	3516
803.133	1468
803.234	1349
803.335	1183
803.436	1322
803.538	1304
803.639	1332
803.740	2013
803.841	1701
803.942	2100
804.043	1793
804.144	397
804.245	1437
804.346	1195
804.447	1144
804.548	940
804.649	2423
804.750	1620
804.851	763
804.952	2345
805.053	1721
805.154	436
805.255	1690
805.355	1647
805.456	1396
805.557	123
805.658	1220
805.758	2079
805.859	1985
805.960	2045
806.061	963
806.161	1420
806.262	1600
806.362	1724
806.463	1785
806.564	1504
806.664	1659
806.765	1525
806.865	2288
806.966	1196
807.066	1305
807.166	1940
807.267	1995
807.367	1415
807.468	1683
807.568	984
807.668	2084
807.769	2465
807.869	865
807.969	1803
808.069	2142
808.170	2043
808.270	2072
808.370	1823
808.470	1571
808.570	705
808.670	1781
808.770	1592
808.870	1299
808.970	1908
809.070	1234
809.170	1283
809.271	1450
809.370	1146
809.470	1647
809.570	946
809.670	1393
809.770	2071
809.870	2059
809.970	1554
810.070	1779
810.169	1987
810.269	251
810.369	2080
810.469	1269
810.568	879
810.668	894
810.768	1309
810.867	1692
810.967	1647
811.066	1194
811.166	1499
811.265	1792
811.365	948
811.464	794
811.564	1836
811.663	1992
811.763	1292
811.862	1625
811.962	1408
812.061	1387
812.160	1319
812.260	1550
812.359	1758
812.458	2301
812.557	5163
812.657	6458
812.756	3448
812.855	2240
812.954	1474
813.053	1741
813.153	1969
813.252	977
813.351	1923
813.450	1615
813.549	732
813.648	2021
813.747	716
813.846	2568
813.945	684
814.044	1629
814.143	2120
814.242	1793
814.341	1554
814.439	1772
814.538	2151
814.637	1134
814.736	925
814.835	2398
814.933	1071
815.032	655
815.131	798
815.229	1767
815.328	2471
815.427	1523
815.525	2264
815.624	1720
815.722	1031
815.821	1658
815.919	2279
816.018	2006
816.116	2577
816.215	2515
816.313	2560
816.412	2163
816.510	3155
816.609	3624
816.707	2648
816.805	2204
816.904	1665
817.002	3471
817.100	4201
817.198	4592
817.296	4462
817.395	5248
817.493	7102
817.591	7345
817.689	9939
817.787	12191
817.885	19762
817.983	33208
818.081	64531
818.179	134747
818.277	282737
818.375	296874
818.473	132508
818.571	58706
818.669	35730
818.767	28276
818.865	27425
818.963	31223
819.061	40693
819.158	64871
819.256	116079
819.354	221025
819.452	374475
819.549	321943
819.647	170772
819.745	81937
819.842	47069
819.940	31675
820.038	22067
820.135	16201
820.233	14300
820.330	11069
820.428	8727
820.525	9031
820.623	7787
820.720	5547
820.818	5804
820.915	5200
821.012	3865
821.110	2605
821.207	4043
821.304	3362
821.402	2674
821.499	3676
821.596	3274
821.693	2716
821.791	3411
821.888	2554
821.985	2668
822.082	2701
822.179	3102
822.276	1504
822.373	2737
822.470	2492
822.567	1880
822.664	1323
822.761	2034
822.858	1288
822.955	1841
823.052	1411
823.149	1262
823.246	773
823.343	1489
823.440	2259
823.536	1505
823.633	1283
823.730	988
823.827	1740
823.923	731
824.020	1822
824.117	76
824.213	490
824.310	1840
824.407	1032
824.503	1558
824.600	1064
824.696	924
824.793	1648
824.889	1296
824.986	802
825.082	932
825.179	1587
825.275	1002
825.371	616
825.468	1224
825.564	267
825.660	1310
825.757	480
825.853	1445
825.949	777
826.045	1308
826.142	260
826.238	220
826.334	1835
826.430	714
826.526	1184
826.622	644
826.718	476
826.814	1002
826.910	1350
827.006	410
827.102	370
827.198	2044
827.294	565
827.390	550
827.486	968
827.582	-621
827.678	21
827.774	1114
827.869	-272
827.965	1970
828.061	-219
828.157	690
828.252	221
828.348	391
828.444	1329
828.539	284
828.635	94
828.731	1389
828.826	760
828.922	630
829.017	984
829.113	524
829.208	1148
829.304	-206
829.399	1221
829.495	-274
829.590	598
829.685	408
829.781	1145
829.876	202
829.971	317
830.066	155
830.162	683
830.257	-82
830.352	1113
830.447	1322
830.543	115
830.638	-367
830.733	1243
830.828	850
830.923	1146
831.018	706
831.113	1075
831.208	-122
831.303	262
831.398	968
831.493	113
831.588	1220
831.683	436
831.778	555
831.873	-79
831.967	1186
832.062	313
832.157	-2
832.252	1167
832.346	1155
832.441	754
832.536	1217
832.631	2077
832.725	2328
832.820	1073
832.914	643
833.009	511
833.104	251
833.198	1749
833.293	588
833.387	974
833.482	1261
833.576	811
833.670	658
833.765	-432
833.859	94
833.954	967
834.048	186
834.142	658
834.237	-397
834.331	69
834.425	832
834.519	1054
834.613	466
834.708	246
834.802	806
834.896	-38
834.990	-158
835.084	311
835.178	112
835.272	730
835.366	-89
835.460	543
835.554	750
835.648	953
835.742	554
835.836	-117
835.930	-637
836.024	131
836.117	1014
836.211	498
836.305	474
836.399	1437
836.493	-406
836.586	169
836.680	-453
836.774	46
836.867	1394
836.961	-778
837.055	-16
837.148	345
837.242	68
837.335	-426
837.429	-16
837.522	-263
837.616	576
837.709	1678
837.803	655
837.896	327
837.989	228
838.083	1449
838.176	1647
838.269	1267
838.363	1149
838.456	-71
838.549	192
838.642	-277
838.735	2322
838.829	1622
838.922	-613
839.015	543
839.108	-238
839.201	457
839.294	430
839.387	358
839.480	-857
839.573	1163
839.666	808
839.759	274
839.852	-376
839.945	-221
840.038	-238
840.131	6
840.223	-278
840.316	1077
840.409	-440
840.502	-184
840.594	847
840.687	-464
840.780	265
840.873	410
840.965	370
841.058	-393
841.150	1478
841.243	592
841.336	1403
841.428	-492
841.521	560
841.613	-155
841.706	472
841.798	17
841.890	249
841.983	-135
842.075	140
842.167	358
842.260	701
842.352	977
842.444	1050
842.537	1562
842.629	3444
842.721	1056
842.813	215
842.905	-899
842.997	578
843.090	552
843.182	996
843.274	842
843.366	4062
843.458	8770
843.550	6856
843.642	1112
843.734	290
843.826	713
843.918	364
844.009	863
844.101	-787
844.193	-101
844.285	-478
844.377	165
844.469	478
844.560	271
844.652	-339
844.744	56
844.835	-83
844.927	-371
845.019	362
845.110	-89
845.202	329
845.293	-294
845.385	220
845.476	668
845.568	98
845.659	602
845.751	984
845.842	269
845.934	102
846.025	-87
846.116	452
846.208	517
846.299	521
846.390	-80
846.482	691
846.573	297
846.664	456
846.755	378
846.846	918
846.937	-720
847.029	240
847.120	136
847.211	-104
847.302	1002
847.393	-401
847.484	787
847.575	-526
847.666	116
847.757	358
847.847	511
847.938	460
848.029	399
848.120	-899
848.211	543
848.302	616
848.392	-708
848.483	1180
848.574	276
848.664	-30
848.755	611
848.846	475
848.936	-188
849.027	-68
849.118	-592
849.208	242
849.299	-130
849.389	533
849.480	187
849.570	794
849.661	901
849.751	887
849.841	899
849.932	20
850.022	-263
850.112	1118
850.203	451
850.293	265
850.383	13
850.474	-377
850.564	192
850.654	16
850.744	-423
850.834	-311
850.924	2
851.014	-191
851.104	-53
851.194	-80
851.284	-270
851.374	345
851.464	767
851.554	-62
851.644	374
851.734	1752
851.824	1779
851.914	3591
852.004	7156
852.094	8093
852.183	1831
852.273	574
852.363	173
852.452	-124
852.542	-103
852.632	-13
852.721	222
852.811	-589
852.901	340
852.990	-124
853.080	360
853.169	212
853.259	-389
853.348	-652
853.438	277
853.527	134
853.617	-67
853.706	1211
853.795	61
853.885	1921
853.974	3036
854.063	5378
854.152	8358
854.242	4172
854.331	812
854.420	7
854.509	321
854.598	344
854.687	346
854.777	554
854.866	-793
854.955	598
855.044	-465
855.133	-302
855.222	-497
855.311	-272
855.400	1001
855.488	-619
855.577	-1039
855.666	470
855.755	1233
855.844	1210
855.933	947
856.021	959
856.110	-151
856.199	-650
856.288	-274
856.376	-425
856.465	43
856.554	-242
856.642	-829
856.731	435
856.819	-745
856.908	-344
856.996	373
857.085	-191
857.173	-195
857.262	-627
857.350	-375
857.438	-782
857.527	-665
857.615	-493
857.703	-216
857.792	-739
857.880	103
857.968	-660
858.056	49
858.145	-789
858.233	-441
858.321	-654
858.409	1059
858.497	-716
858.585	-536
858.673	-110
858.761	-689
858.849	-1063
858.937	-504
859.025	44
859.113	415
859.201	-230
859.289	46
859.377	-371
859.465	-484
859.552	170
859.640	24
859.728	-178
859.816	-328
859.903	-426
859.991	-152
860.079	86
860.166	-129
860.254	-203
860.342	-132
860.429	-51
860.517	-880
860.604	63
860.692	-135
860.779	425
860.867	-144
860.954	-125
861.042	-430
861.129	344
861.216	208
861.304	-828
861.391	-158
861.478	-298
861.565	-195
861.653	1250
861.740	-516
861.827	-258
861.914	886
862.001	-882
862.089	-137
862.176	-659
862.263	-104
862.350	72
862.437	-87
862.524	-229
862.611	-376
862.698	215
862.785	-677
862.871	1044
862.958	-569
863.045	-320
863.132	355
863.219	-304
863.306	-492
863.392	128
863.479	-589
863.566	-336
863.652	36
863.739	-545
863.826	942
863.912	-130
863.999	-1081
864.086	-1
864.172	-964
864.259	-665
864.345	-510
864.432	-613
864.518	-582
864.604	344
864.691	-8
864.777	-54
864.863	-220
864.950	-105
865.036	-125
865.122	-221
865.209	-440
865.295	-609
865.381	-73
865.467	132
865.553	-454
865.639	-910
865.726	-304
865.812	-300
865.898	1786
865.984	1687
866.070	3952
866.156	5170
866.242	645
866.328	657
866.414	-747
866.499	-268
866.585	-767
866.671	-790
866.757	-292
866.843	-229
866.928	-1051
867.014	-971
867.100	663
867.186	-122
867.271	-606
867.357	-4
867.442	9
867.528	-37
867.614	-320
867.699	-516
867.785	238
867.870	-801
867.956	-860
868.041	-386
868.127	-276
868.212	-619
868.297	-135
868.383	-61
868.468	514
868.553	7
868.639	448
868.724	1248
868.809	2119
868.894	537
868.979	-204
869.065	-571
869.150	-1013
869.235	-437
869.320	-1041
869.405	-557
869.490	-154
869.575	-513
869.660	-1045
869.745	-623
869.830	122
869.915	-120
870.000	-431
870.085	-287
870.169	419
870.254	-269
870.339	-171
870.424	-1162
870.509	-95
870.593	-330
870.678	-358
870.763	-449
870.847	-288
870.932	-998
871.016	-336
871.101	-83
871.186	-1062
871.270	-486
871.355	-881
871.439	-518
871.523	-314
871.608	-529
871.692	-381
871.777	-383
871.861	-220
871.945	-1815
872.030	-331
872.114	-346
872.198	-1088
872.282	-809
872.367	-184
872.451	-877
872.535	-660
872.619	-1108
872.703	-478
872.787	-670
872.871	-1133
872.955	-981
873.039	-1086
873.123	-728
873.207	166
873.291	-186
873.375	-1072
873.459	-882
873.543	-1015
873.627	-717
873.711	-581
873.794	-304
873.878	-1514
873.962	-1172
874.045	-761
874.129	-1104
874.137	-1078
874.213	-817
874.245	-991
874.296	-1268
874.352	-914
874.380	-745
874.460	-667
874.464	-664
874.547	-812
874.568	-647
874.631	-163
874.676	-521
874.714	-815
874.784	-348
874.798	-260
874.881	64
874.892	-41
874.965	-680
874.999	-292
875.048	157
875.107	-851
875.131	-1232
875.215	-142
875.215	-142
875.298	-1084
875.323	-972
875.381	-619
875.430	-548
875.465	-517
875.538	-325
875.548	-290
875.631	-841
875.646	-738
875.714	-388
875.753	-508
875.798	-554
875.861	-767
875.881	-871
875.964	-851
875.968	-807
876.047	128
876.076	195
876.130	188
876.183	-451
876.213	-756
876.291	552
876.296	641
876.379	-473
876.398	-503
876.462	-608
876.506	-316
876.545	-108
876.613	-1248
876.628	-1481
876.711	-209
876.721	-212
876.794	-162
876.828	-422
876.877	-820
876.935	-457
876.960	-314
877.043	-608
877.043	-608
877.125	-463
877.150	-315
877.208	-169
877.258	-749
877.291	-1014
877.365	-377
877.374	-314
877.456	-312
877.472	-264
877.539	-60
877.579	-331
877.622	-647
877.687	-319
877.704	-213
877.787	-341
877.794	-348
877.869	-304
877.901	-305
877.952	-261
878.008	201
878.034	313
878.115	-221
878.117	-229
878.199	-644
878.222	-529
878.282	-301
878.329	-431
878.364	-412
878.437	137
878.447	167
878.529	-946
878.544	-950
878.611	-602
878.651	-406
878.694	-317
878.758	-598
878.776	-645
878.858	-742
878.865	-681
878.941	-291
878.972	-577
879.023	-751
879.078	-624
879.105	-593
879.185	-418
879.187	-415
879.269	48
879.292	-160
879.351	-807
879.399	-525
879.433	-225
879.506	-116
879.516	-117
879.598	-484
879.613	-462
879.680	-169
879.720	-54
879.762	4
879.827	-418
879.844	-555
879.926	-22
879.933	-27
880.007	-327
880.040	-765
880.089	-911
880.147	-358
880.171	-308
880.253	103
880.254	100
880.335	-130
880.360	-110
880.417	67
880.467	458
880.499	757
880.574	1226
880.580	1228
880.662	160
880.680	-53
880.744	-498
880.787	-212
880.825	-127
880.893	-408
880.907	-401
880.989	-60
881.000	-84
881.070	-419
881.106	-361
881.152	-226
881.213	-479
881.233	-633
881.315	-459
881.319	-479
881.396	-143
881.426	11
881.478	-107
881.532	-346
881.559	-468
881.639	-673
881.641	-667
881.722	-268
881.745	-176
881.803	-18
881.852	-155
881.885	-441
881.958	-416
881.966	-368
882.047	-634
882.064	-521
882.129	-28
882.171	-112
882.210	-140
882.277	525
882.291	593
882.372	166
882.383	128
882.454	-44
882.489	-124
882.535	-391
882.596	-643
882.616	-581
882.697	-456
882.702	-437
882.778	-52
882.808	37
882.859	-42
882.914	-102
882.940	-15
883.020	-136
883.021	-138
883.102	-325
883.127	-434
883.183	-649
883.233	-705
883.264	-591
883.339	-334
883.345	-299
883.426	46
883.445	137
883.507	319
883.551	255
883.587	-111
883.657	-614
883.668	-571
883.749	-135
883.763	-103
883.830	-510
883.869	-611
883.910	-240
883.975	158
883.991	9
884.072	-771
884.081	-856
884.152	-314
884.187	-34
884.233	-179
884.292	-319
884.314	-239
884.394	-38
884.398	-26
884.475	-199
884.504	-332
884.555	-136
884.610	331
884.636	275
884.716	-489
884.716	-486
884.797	11
884.821	116
884.877	-47
884.927	-371
884.958	-262
885.033	316
885.038	325
885.118	301
885.139	279
885.199	-53
885.244	-234
885.279	-124
885.350	-143
885.359	-145
885.439	151
885.456	106
885.520	-202
885.561	-197
885.600	-190
885.667	-121
885.680	-98
885.760	-224
885.773	-206
885.840	63
885.878	159
885.920	137
885.984	-130
886.000	-118
886.080	262
886.089	280
886.160	131
886.195	136
886.240	13
886.300	-339
886.320	-321
886.400	20
886.406	21
886.480	95
886.511	262
886.560	158
886.616	-203
886.640	-198
886.720	18
886.722	17
886.800	-166
886.827	-172
886.879	284
886.932	727
886.959	632
887.038	229
887.039	230
887.119	132
887.143	104
887.198	-2
887.248	-166
887.278	11
887.354	494
887.358	464
887.437	-283
887.459	-449
887.517	-34
887.564	290
887.596	320
887.669	153
887.676	116
887.755	-79
887.774	-158
887.835	-60
887.880	55
887.914	81
887.985	-118
887.994	-180
888.073	-489
888.090	-569
888.153	-587
888.195	-656
888.232	-372
888.300	369
888.311	390
888.391	285
888.405	289
888.470	-33
888.510	-322
888.549	-57
888.615	584
888.628	507
888.708	-68
888.720	-155
888.787	174
888.825	312
888.866	278
888.930	272
888.945	237
889.024	74
889.035	51
889.103	152
889.140	197
889.182	103
889.245	-28
889.261	14
889.340	207
889.349	229
889.419	154
889.454	123
889.498	310
889.559	568
889.577	560
889.656	523
889.664	521
889.735	54
889.768	-169
889.814	138
889.873	553
889.978	-145
890.083	39
890.187	561
890.292	138
890.397	379
890.501	193
890.606	-303
890.710	-213
890.815	-45
890.919	226
891.024	-502
891.128	275
891.233	-772
891.337	142
891.442	482
891.546	182
891.650	-48
891.755	451
891.859	830
891.963	-258
892.068	-732
892.172	291
892.276	-899
892.380	971
892.484	-503
892.589	-131
892.693	-627
892.797	-146
892.901	-160
893.005	-52
893.109	-1009
893.213	793
893.317	456
893.421	800
893.525	205
893.629	472
893.733	-436
893.837	54
893.941	177
894.045	333
894.148	-123
894.252	2632
894.356	2128
894.460	301
894.564	-690
894.667	137
894.771	-511
894.875	196
894.978	-19
895.082	343
895.186	386
895.289	623
895.393	-142
895.496	-389
895.600	-533
895.703	-439
895.807	-1141
895.910	-122
896.014	-939
896.117	-125
896.221	-24
896.324	241
896.427	-256
896.531	397
896.634	-512
896.737	-118
896.840	-575
896.944	51
897.047	-311
897.150	154
897.253	-667
897.356	378
897.460	-1169
897.563	-174
897.666	-568
897.769	257
897.872	-1043
897.975	-621
898.078	-597
898.181	-165
898.284	-827
898.387	316
898.490	285
898.593	-158
898.695	-944
898.798	611
898.901	-84
899.004	-178
899.107	-679
899.209	137
899.312	-896
899.415	355
899.518	-401
899.620	-137
899.723	-800
899.826	407
899.928	-207
900.031	-202
900.133	-1302
900.236	-175
900.338	-1009
900.441	360
900.543	-273
900.646	99
900.748	-387
900.851	173
900.953	-121
901.055	682
901.158	-769
901.260	-892
901.362	-911
901.465	145
901.567	-1591
901.669	230
901.771	-125
901.873	47
901.976	-1010
902.078	-170
902.180	-859
902.282	-336
902.384	-366
902.486	-400
902.588	-836
902.690	92
902.792	-465
902.894	-150
902.996	-962
903.098	-360
903.200	-737
903.302	-255
903.404	-549
903.505	-139
903.607	-474
903.709	-424
903.811	-872
903.913	-101
904.014	-669
904.116	-138
904.218	-211
904.319	253
904.421	-513
904.523	-154
904.624	-619
904.726	-437
904.827	-1003
904.929	214
905.030	-1194
905.132	214
905.233	-247
905.335	-715
905.436	-466
905.537	-359
905.639	56
905.740	-754
905.841	-546
905.943	621
906.044	-712
906.145	-125
906.247	-904
906.348	472
906.449	-477
906.550	-52
906.651	-376
906.752	-367
906.854	-237
906.955	-420
907.056	-368
907.157	-455
907.258	-828
907.359	-513
907.460	66
907.561	-975
907.662	-1205
907.762	-370
907.863	-764
907.964	-420
908.065	-768
908.166	-105
908.267	-707
908.367	-693
908.468	-456
908.569	470
908.670	-527
908.770	184
908.871	-1143
908.971	302
909.072	78
909.173	-452
909.273	-288
909.374	-428
909.474	-941
909.575	-547
909.675	-1236
909.776	-997
909.876	437
909.977	-736
910.077	-288
910.177	-1779
910.278	-937
910.378	-197
910.478	-802
910.579	-605
910.679	-1006
910.779	-403
910.879	-1113
910.980	-86
911.080	-628
911.180	-781
911.280	-903
911.380	93
911.480	-739
911.580	-1078
911.680	-474
911.780	-163
911.880	-669
911.980	-334
912.080	-751
912.180	40
912.280	-1194
912.380	46
912.480	-644
912.580	173
912.679	-1068
912.779	116
912.879	-462
912.979	-391
913.078	-585
913.178	-734
913.278	-1328
913.377	-580
913.477	-876
913.577	-621
913.676	-365
913.776	421
913.875	-606
913.975	-224
914.074	-1214
914.174	-462
914.273	-1765
914.373	247
914.472	-761
914.572	-935
914.671	-459
914.770	-437
914.870	-597
914.969	0
915.068	-1254
915.167	-783
915.267	-188
915.366	-532
915.465	-522
915.564	-493
915.663	-563
915.763	-739
915.862	-1382
915.961	-217
916.060	-940
916.159	-259
916.258	-1724
916.357	-518
916.456	-812
916.555	-1021
916.654	-984
916.752	-444
916.851	-1395
916.950	298
917.049	-545
917.148	-659
917.247	-798
917.345	-1144
917.444	-1239
917.543	-1084
917.642	-126
917.740	-287
917.839	-832
917.937	-363
918.036	-774
918.135	-244
918.233	-1518
918.332	-1195
918.430	-1472
918.529	-344
918.627	-1176
918.726	-11
918.824	-913
918.923	-164
919.021	-1103
919.119	60
919.218	-1036
919.316	-544
919.414	-971
919.512	-657
919.611	-1127
919.709	118
919.807	-1309
919.905	532
920.003	-45
920.102	-983
920.200	-616
920.298	556
920.396	-1446
920.494	-435
920.592	-557
920.690	-148
920.788	-882
920.886	-951
920.984	-1050
921.082	-1166
921.180	-511
921.277	-685
921.375	-1035
921.473	-601
921.571	-978
921.669	-317
921.766	-1410
921.864	-721
921.962	-589
922.060	-1213
922.157	-740
922.255	-752
922.352	-587
922.450	-761
922.548	-1130
922.645	-267
922.743	-980
922.840	-616
922.938	-768
923.035	90
923.133	-531
923.230	-292
923.327	-517
923.425	191
923.522	-468
923.619	-704
923.717	-310
923.814	-490
923.911	-608
924.008	-509
924.106	-1337
924.203	-497
924.300	-910
924.397	-383
924.494	67
924.591	123
924.688	-815
924.786	576
924.883	-298
924.979	-512
925.077	-1150
925.173	-90
925.270	-1070
925.367	238
925.464	-1250
925.561	-1068
925.658	-723
925.755	-569
925.852	-354
925.948	-536
926.045	-1465
926.142	-235
926.239	-1124
926.335	-1157
926.432	-554
926.529	-278
926.625	-1599
926.722	-589
926.818	-849
926.915	-735
927.011	-534
927.108	-503
927.204	-845
927.301	-22
927.397	-1307
927.494	212
927.590	-1093
927.687	-1162
927.783	-1020
927.879	-985
927.976	-963
928.072	381
928.168	-645
928.264	143
928.361	-1429
928.457	-728
928.553	-318
928.649	-306
928.745	-803
928.841	-415
928.937	-1438
929.033	-238
929.129	-866
929.225	-488
929.321	-685
929.417	-124
929.513	-1073
929.609	-491
929.705	-1276
929.801	-1169
929.897	-1805
929.993	156
930.089	-844
930.184	-957
930.280	-1139
930.376	-824
930.471	-989
930.567	-417
930.663	-74
930.758	-349
930.854	-1166
930.950	-685
931.045	-1285
931.141	-1213
931.236	-816
931.332	-1000
931.427	-668
931.523	-476
931.618	-188
931.714	-694
931.809	-1265
931.905	452
932.000	-1207
932.095	-1184
932.191	-692
932.286	-736
932.381	-536
932.476	-82
932.572	-709
932.667	-488
932.762	-2007
932.857	-16
932.952	-1118
933.047	-347
933.142	-855
933.237	-1315
933.332	-1054
933.427	263
933.522	-844
933.617	-610
933.712	-1221
933.807	-868
933.902	-1024
933.997	-442
934.092	-972
934.187	-365
934.282	-571
934.376	-589
934.471	-653
934.566	-914
934.661	-1164
934.755	-1094
934.850	-688
934.945	-531
935.039	-1043
935.134	-1010
935.228	-970
935.323	-139
935.417	-1298
935.512	-1442
935.606	-1322
935.701	-496
935.795	-867
935.890	-334
935.984	-909
936.079	-933
936.173	-1005
936.267	-855
936.362	-834
936.456	-511
936.550	-1357
936.644	-537
936.738	-1548
936.833	-313
936.927	-763
937.021	-671
937.115	-1438
937.209	-678
937.303	-960
937.397	-1144
937.491	-1269
937.585	-480
937.679	-626
937.773	-702
937.867	-1474
937.961	-584
938.055	-1024
938.149	-210
938.243	-526
938.337	-314
938.430	-1330
938.524	-930
938.618	-1501
938.712	-65
938.805	-1078
938.899	-666
938.993	-853
939.086	-575
939.180	-1154
939.274	-563
939.367	-1470
939.461	-88
939.554	-714
939.648	-306
939.741	-933
939.835	-297
939.928	-1065
940.022	96
940.115	-1471
940.208	-302
940.302	-331
940.395	-376
940.488	-1571
940.582	-262
940.675	-1308
940.768	-819
940.861	-815
940.954	-29
941.048	-1245
941.141	-531
941.234	-1451
941.327	-1724
941.420	-1162
941.513	-474
941.606	-1252
941.699	-716
941.792	-416
941.885	-345
941.978	-1362
942.071	-1253
942.164	-1439
942.257	-607
942.349	-900
942.442	-809
942.535	-2228
942.628	-703
942.721	-843
942.813	-1444
942.906	-134
942.999	-799
943.091	-1495
943.184	-840
943.277	-1521
943.369	-109
943.462	-1000
943.554	-993
943.647	-925
943.739	-688
943.832	-2215
943.924	-1803
944.017	-1127
944.109	-1429
944.201	-881
944.294	-699
944.386	-1706
944.478	-1966
944.571	-1258
944.663	-755
944.755	-685
944.847	-226
944.940	-478
945.032	-806
945.124	-1040
945.216	194
945.308	-1223
945.400	-1076
945.492	-1277
945.584	-990
945.676	-783
945.768	-528
945.860	-679
945.952	-696
946.044	-1000
946.136	-1034
946.228	-1363
946.320	-1002
946.412	-888
946.503	-231
946.595	-1136
946.687	-685
946.779	-1962
946.870	-422
946.962	-1364
947.054	-449
947.145	-777
947.237	-284
947.329	-1544
947.420	-1426
947.512	-1656
947.603	-241
947.695	-422
947.786	-1341
947.878	-1832
947.969	-587
948.061	-1175
948.152	-1153
948.243	-1550
948.335	-596
948.426	-813
948.517	-1034
948.609	-1491
948.700	-1025
948.791	-1878
948.882	-176
948.973	-1602
949.065	-669
949.156	-1068
949.247	-888
949.338	-1400
949.429	-1095
949.520	-921
949.611	-1433
949.702	-879
949.793	-973
949.884	-960
949.975	-1225
950.066	-1147
950.157	-967
950.247	-1442
950.338	-719
950.429	-1837
950.520	82
950.611	-900
950.701	-850
950.792	-1115
950.883	-845
950.973	-1496
951.064	-333
951.155	-1435
951.245	-1276
951.336	-1564
951.427	-1711
951.517	-824
951.608	-1011
951.698	-1519
951.788	-810
951.879	-790
951.969	-956
952.060	-1565
952.150	-703
952.240	-842
952.331	-1616
952.421	-1081
952.511	-1246
952.602	-1544
952.692	-1527
952.782	-1144
952.872	-1129
952.962	-1647
953.052	-850
953.143	-1069
953.233	-1148
953.323	-752
953.413	-1556
953.503	-1389
953.593	-581
953.683	-2005
953.773	-1770
953.863	-1932
953.953	-1293
954.042	-1248
954.132	-1121
954.222	-1239
954.312	-1573
954.402	-1079
954.492	-926
954.581	-1349
954.671	-1028
954.761	-1847
954.850	-647
954.940	-929
955.030	-942
955.119	-1017
955.209	-1059
955.298	-1733
955.388	-505
955.477	54
955.567	-687
955.656	-1416
955.746	-373
955.835	-1464
955.925	-92
956.014	-1701
956.103	-943
956.193	-1143
956.282	-567
956.371	-917
956.461	-809
956.550	-1083
956.639	-685
956.728	-980
956.817	-600
956.906	-1298
956.995	-147
957.085	-1817
957.174	-546
957.263	-1244
957.352	-1342
957.441	-1364
957.530	-814
957.619	-1154
957.708	-241
957.796	-1528
957.885	-828
957.974	-1151
958.063	157
958.152	-890
958.241	-1018
958.329	-1391
958.418	-846
958.507	-1773
958.596	-76
958.684	-1810
958.773	-463
958.861	-1766
958.950	-967
959.039	-524
959.127	-522
959.216	-1024
959.304	-753
959.393	-701
959.481	-734
959.570	139
959.658	-1751
959.746	-1113
959.835	-104
959.923	-815
960.011	-1133
960.100	-707
960.188	-499
960.276	-665
960.365	-976
960.453	-418
960.541	-779
960.629	-1099
960.717	-790
960.805	-1549
960.893	-727
960.981	-1800
961.069	66
961.158	-1326
961.245	39
961.333	-1540
961.421	-842
961.509	-1571
961.597	-1474
961.685	-1740
961.773	-741
961.861	-1483
961.949	-902
962.036	-2194
962.124	-640
962.212	-1443
962.299	-1281
962.387	-1612
962.475	-1264
962.562	-1960
962.650	-466
962.738	-1515
962.825	-1740
962.913	-1205
963.000	-1477
963.088	-1338
963.175	-1793
963.263	-791
963.350	-1270
963.438	-1415
963.525	-1876
963.612	-811
963.700	-570
963.787	48
963.874	272
963.962	-1644
964.049	-1317
964.136	-890
964.223	-1205
964.310	-1941
964.398	-805
964.485	-1260
964.572	-1898
964.659	-1034
964.746	-808
964.833	-1222
964.920	-1408
965.007	-1467
965.094	-1106
965.181	-2089
965.268	-578
965.355	-1251
965.441	-993
965.528	-1512
965.615	-143
965.702	-1901
965.789	-1563
965.875	-1319
965.962	-1227
966.049	-2307
966.136	-1429
966.222	-1951
966.309	-1121
966.395	-2078
966.482	-1187
966.569	-1860
966.655	-1520
966.742	-2473
966.828	-1956
966.915	-1856
967.001	-1274
967.087	-1766
967.174	-1639
967.260	-1594
967.347	-1546
967.433	-1831
967.519	-36
967.605	-1233
967.692	-1107
967.778	-2121
967.864	-986
967.950	-1847
968.036	-2214
968.123	-2423
968.209	-1544
968.295	-2420
968.381	-456
968.467	-2026
968.553	-1684
968.639	-1577
968.725	-1454
968.811	-1891
968.897	-1609
968.983	-2077
969.069	-2167
969.154	-1187
969.240	-1166
969.326	-1683
969.412	-1286
969.497	-2254
969.583	-1478
969.669	-1840
969.755	-1367
969.840	-2059
969.926	-1823
970.012	-1160
970.097	-1629
970.183	-1947
970.268	-1121
970.354	-1525
970.439	-1530
970.525	-1102
970.610	-1786
970.696	-1178
970.781	-1084
970.866	-2174
970.952	-1598
971.037	-2101
971.122	-2085
971.208	-2327
971.293	-857
971.378	-2967
971.463	-1597
971.549	-631
971.634	-689
971.719	-2150
971.804	-1133
971.889	-960
971.974	-1058
972.059	-1737
972.144	-2041
972.229	-1131
972.314	-1609
972.399	-1900
972.484	-1739
972.569	-1719
972.654	-2908
972.739	-759
972.824	-1138
972.908	-864
972.993	-1349
973.078	-1726
973.163	-1694
973.247	-2013
973.332	-2226
973.417	-353
973.501	-1602
973.586	-2580
973.671	-1060
973.755	-1194
973.840	-1028
973.924	-1311
974.009	-1911
974.093	-2330
974.178	-206
974.262	-1882
974.346	-1454
974.431	-1779
974.515	-1756
974.600	-1755
974.684	-835
974.768	-1619
974.852	-804
974.937	-2167
975.021	-1112
975.105	-1753
975.189	-1786
975.273	-902
975.358	-2377
975.442	-2663
975.526	-781
975.610	-2407
975.694	-2264
975.778	-1238
975.862	-1563
975.946	-3381
976.030	5
976.114	-2630
976.198	-1468
976.281	-1746
976.365	-484
976.449	-1808
976.533	-940
976.617	-1872
976.700	-1609
976.784	-2117
976.868	-1415
976.951	-1652
977.035	-1407
977.119	-1731
977.202	-1372
977.286	-1300
977.369	-877
977.453	-1603
977.536	-1607
977.620	-2900
977.703	-1312
977.787	-2302
977.870	-867
977.953	-1670
978.037	-2255
978.120	-1570
978.203	-1258
978.287	-1843
978.370	-1994
978.453	-1635
978.536	-1227
978.620	-754
978.703	-1195
978.786	-2156
978.869	-1474
978.952	-2667
979.035	62
979.118	-1384
979.201	-1408
979.284	-1520
979.367	-1791
979.450	-2022
979.533	-2107
979.616	-2316
979.699	-1737
979.782	-2097
979.865	-821
979.948	-1748
980.030	-1950
980.113	-1183
980.196	-2000
980.279	-1010
980.361	-1110
980.444	-1469
980.526	-1420
980.609	-1914
980.692	-1884
980.774	-2341
980.857	-2168
980.939	-1549
981.022	-1541
981.104	-2453
981.187	-1879
981.269	-1889
981.352	-2177
981.434	-2058
981.516	-2177
981.599	-591
981.681	-1011
981.763	-1892
981.846	-1759
981.928	-2217
982.010	-966
982.092	-2023
982.174	-1249
982.256	-1662
982.339	-750
982.421	-1613
982.503	-1601
982.585	-1958
982.667	-1330
982.749	-1778
982.831	-1250
982.913	-2266
982.995	-1220
983.077	-2427
983.158	-1260
983.240	-1564
983.322	-1486
983.404	-1741
983.486	-2289
983.568	-1692
983.649	-1880
983.731	-1829
983.813	-2000
983.894	-1577
983.976	-1304
984.058	-2075
984.139	-1079
984.221	-2973
984.302	-1491
984.384	-1939
984.465	-1573
984.547	-1722
984.628	-1736
984.710	-961
984.791	-1594
984.872	-1590
984.954	-1610
985.035	-1885
985.116	-1585
985.198	-2016
985.279	-953
985.360	-1833
985.441	-1263
985.522	-1143
985.604	-2274
985.685	-3418
985.766	-1309
985.847	-1002
985.928	-2004
986.009	-2572
986.090	-2052
986.171	-1669
986.252	-1798
986.333	-1706
986.414	-1291
986.495	-1673
986.576	-1022
986.656	-2075
986.737	-1767
986.818	-1756
986.899	-2037
986.980	-1735
987.060	-1232
987.141	-2189
987.222	-1545
987.302	-2003
987.383	-577
987.464	-2744
987.544	-1104
987.625	-2251
987.705	-1092
987.786	-1340
987.866	-2548
987.947	-2358
988.027	-1598
988.108	-1303
988.188	-1144
988.268	-1560
988.349	-1852
988.429	-2159
988.509	-1164
988.589	-1889
988.670	-3250
988.750	-1047
988.830	-1210
988.910	-1809
988.990	-1692
989.070	-2130
989.151	-1926
989.231	-2398
989.311	-867
989.391	-1629
989.471	-1520
989.551	-1797
989.631	-2155
989.711	-2431
989.791	-1870
989.870	-2718
989.950	-280
990.030	-1915
990.110	-1021
990.190	-2000
990.269	-2420
990.349	-2348
990.429	-1465
990.509	-1652
990.588	-1937
990.668	-956
990.747	-1837
990.827	-2075
990.907	-1483
990.986	-1593
991.066	-1499
991.145	-2074
991.225	-876
991.304	-2267
991.383	-1160
991.463	-1948
991.542	-1875
991.622	-2276
991.701	-2091
991.780	-2794
991.859	-919
991.939	-2277
992.018	-1513
992.097	-2244
992.176	-1509
992.256	-2061
992.335	-2581
992.414	-1490
992.493	-1787
992.572	-2177
992.651	-531
992.730	-2635
992.809	-1478
992.888	-2196
992.967	-2595
993.046	-975
993.125	-1708
993.203	-2367
993.282	-2266
993.361	-1947
993.440	-1253
993.519	-2714
993.597	-2293
993.676	-2375
993.755	-379
993.834	-1510
993.912	-1998
993.991	-1009
994.069	-1991
994.148	-2090
994.226	-2042
994.305	-1093
994.384	-1811
994.462	-1159
994.540	-2061
994.619	-2658
994.697	-2044
994.776	-2848
994.854	-1710
994.932	-2401
995.011	-1153
995.089	-2958
995.167	-2010
995.245	-1535
995.324	-2874
995.402	-1131
995.480	-1871
995.558	-2346
995.636	-1943
995.714	-1393
995.792	-855
995.870	-2409
995.948	-995
996.026	-2869
996.104	-2463
996.182	-1220
996.260	-2450
996.338	-2150
996.416	-1919
996.494	-2398
996.572	-850
996.649	-2092
996.727	-2535
996.805	-1235
996.883	-2245
996.960	-2165
997.038	-1414
997.116	-1344
997.193	-2592
997.271	-1883
997.348	-1980
997.426	-1985
997.504	-2011
997.581	-1751
997.658	-2128
997.736	-2429
997.813	-2690
997.891	-2372
997.968	-2123
998.046	-2502
998.123	-1277
998.200	-1505
998.277	-2192
998.355	-1228
998.432	-2511
998.509	-1918
998.586	-1073
998.663	-1603
998.741	-1793
998.818	-1762
998.895	-2359
998.972	-1992
999.049	-1556
999.126	-2198
999.203	-970
999.280	-1928
999.357	-1875
999.434	-2805
999.511	-1437
999.587	-1693
999.664	-2126
999.741	-2175
999.818	-1395
999.895	-2937
999.971	-1962
1000.048	-2214
1000.125	-920
1000.202	-3083
1000.278	-1099
1000.355	-2131
1000.431	-1677
1000.508	-2626
1000.584	-1964
1000.661	-1970
1000.738	-2450
1000.814	-2846
1000.890	-764
1000.967	-2511
1001.043	-1925
1001.120	-3454
1001.196	-1127
1001.272	-2455
1001.349	-697
1001.425	-1847
1001.501	-2110
1001.577	-2710
1001.654	-1565
1001.730	-2724
1001.806	-2127
1001.882	-2640
1001.958	-1603
1002.034	-2502
1002.110	-1682
1002.186	-2176
1002.262	-2283
1002.338	-2646
1002.414	-1412
1002.490	-1589
1002.566	-1864
1002.642	-2474
1002.718	-1265
1002.794	-1643
1002.870	-2002
1002.945	-2915
1003.021	-1539
1003.097	-2095
1003.173	-1687
1003.248	-2336
1003.324	-1942
1003.400	-1461
1003.475	-1845
1003.551	-2102
1003.626	-2083
1003.702	-3012
1003.777	-1814
1003.853	-2606
1003.928	-1821
1004.004	-2293
1004.079	-1312
1004.155	-1555
1004.230	-2358
1004.305	-1773
1004.381	-2246
1004.456	-2180
1004.531	-2118
1004.607	-2083
1004.682	-2104
1004.757	-1646
1004.832	-1912
1004.907	-3062
1004.982	-1211
1005.057	-2865
1005.133	-1741
1005.208	-1633
1005.283	-2032
1005.358	-1056
1005.433	-2048
1005.508	-2930
1005.583	-2395
1005.657	-3236
1005.732	-608
1005.807	-2231
1005.882	-1477
1005.957	-2390
1006.032	-1633
1006.106	-2559
1006.181	-2519
1006.256	-1776
1006.331	-1746
1006.405	-2921
1006.480	-1769
1006.554	-1893
1006.629	-1553
1006.704	-1932
1006.778	-1375
1006.853	-2537
1006.927	-2603
1007.002	-2420
1007.076	-2111
1007.150	-2363
1007.225	-2429
1007.299	-1865
1007.373	-2140
1007.448	-1699
1007.522	-219
1007.596	-2079
1007.671	-2158
1007.745	-2245
1007.819	-2743
1007.893	-2254
1007.967	-1111
1008.041	-2249
1008.115	-1595
1008.190	-1976
1008.264	-1592
1008.338	-2974
1008.412	-1796
1008.486	-2447
1008.560	-985
1008.633	-2826
1008.707	-952
1008.781	-1819
1008.855	-2269
1008.929	-2967
1009.003	-1987
1009.076	-1577
1009.150	-1292
1009.224	-3004
1009.298	-1367
1009.371	-2823
1009.445	-1708
1009.519	-2125
1009.592	-1992
1009.666	-2513
1009.739	-1767
1009.813	-2904
1009.886	-1707
1009.960	-3528
1010.033	-1780
1010.107	-1410
1010.180	-2119
1010.253	-2605
1010.327	-1961
1010.400	-2467
1010.473	-1795
1010.547	-1096
1010.620	-2256
1010.693	-1397
1010.766	-1779
1010.840	-2660
1010.913	-1560
1010.986	-2590
1011.059	-1590
1011.132	-1725
1011.205	-739
1011.278	-2458
1011.351	-2260
1011.424	-1831
1011.497	-2572
1011.570	-1896
1011.643	-1726
1011.716	-2502
1011.789	-1487
1011.862	-2144
1011.934	-1649
1012.007	-2775
1012.080	-1460
1012.153	-1910
1012.225	-1259
1012.298	-2737
1012.371	-2421
1012.443	-1867
1012.516	-2093
1012.588	-2276
1012.661	-1518
1012.733	-2374
1012.806	-1447
1012.879	-2593
1012.951	-2437
1013.023	-2671
1013.096	-1946
1013.168	-1871
1013.241	-719
1013.313	-2107
1013.385	-1627
1013.458	-2369
1013.530	-2305
1013.602	-2559
1013.674	-904
1013.746	-2484
1013.819	-2176
1013.891	-2124
1013.963	-1711
1014.035	-1901
1014.107	-1606
1014.179	-2146
1014.251	-2059
1014.323	-2324
1014.395	-2459
1014.467	-2052
1014.539	-1231
1014.611	-2455
1014.683	-1413
1014.754	-1839
1014.826	-2328
1014.898	-1578
1014.970	-1942
1015.042	-1173
1015.113	-886
1015.185	-1997
1015.257	-2763
1015.328	-1830
1015.400	-2285
1015.471	-2611
1015.543	-2437
1015.615	-2284
1015.686	-2344
1015.757	-1884
1015.829	-1118
1015.901	-2087
1015.972	-2003
1016.043	-2470
1016.115	-1929
1016.186	-1851
1016.257	-2111
1016.328	-2225
1016.400	-1391
1016.471	-3190
1016.542	-1693
1016.613	-3092
1016.685	-1608
1016.756	-2192
1016.827	-1426
1016.898	-2031
1016.969	-1052
1017.040	-2703
1017.111	-2751
1017.182	-1934
1017.253	-1431
1017.324	-2198
1017.395	-2518
1017.466	-1588
1017.537	-1801
1017.608	-2093
1017.678	-1738
1017.749	-2695
1017.820	-1787
1017.891	-3123
1017.961	-1398
1018.032	-2156
1018.103	-2510
1018.173	-2980
1018.244	-2666
1018.315	-2930
1018.385	-1650
1018.456	-1700
1018.526	-2322
1018.597	-1676
1018.667	-1836
1018.738	-2479
1018.808	-2492
1018.878	-2448
1018.949	-2504
1019.019	-2064
1019.089	-1385
1019.160	-2576
1019.230	-2256
1019.300	-2435
1019.371	-1552
1019.441	-1772
1019.511	-2275
1019.581	-2688
1019.651	-1331
1019.721	-2385
1019.791	-1734
1019.861	-2913
1019.931	-2400
1020.001	-2065
1020.071	-1528
1020.141	-2877
1020.211	-1988
1020.281	-2260
1020.351	-2252
1020.421	-1883
1020.491	-1039
1020.560	-3113
1020.630	-2433
1020.700	-2097
1020.770	-2364
1020.839	-2369
1020.909	-2388
1020.979	-2413
1021.048	-1980
1021.118	-2403
1021.187	-1903
1021.257	-2633
1021.326	-1616
1021.396	-2351
1021.465	-1529
1021.535	-2620
1021.604	-2471
1021.674	-2428
1021.743	-2497
1021.812	-2781
1021.882	-1609
1021.951	-2320
1022.020	-1429
1022.089	-3044
1022.159	-2422
1022.228	-1879
1022.297	-2137
1022.366	-2155
1022.435	-2039
1022.504	-1420
1022.573	-2699
1022.642	-1852
1022.711	-2390
1022.781	-2968
1022.849	-1903
1022.918	-2817
1022.987	-1862
1023.056	-2527
1023.125	-2848
1023.194	-2400
1023.263	-1687
1023.331	-1847
1023.400	-2539
1023.469	-2092
1023.538	-2120
1023.606	-2882
1023.675	-2112
1023.744	-2547
1023.812	-1409
1023.881	-1948
1023.949	-1742
1024.018	-2752
1024.086	-2980
1024.155	-2218
1024.223	-2934
1024.292	-2670
1024.360	-2167
1024.429	-3052
1024.497	-2220
1024.565	-2947
1024.634	-2029
1024.702	-2433
1024.770	-1828
1024.838	-2866
1024.907	-1843
1024.975	-2980
1025.043	-1693
1025.111	-2266
1025.179	-912
1025.247	-2488
1025.315	-2553
1025.383	-2273
1025.451	-2139
1025.519	-2214
1025.587	-2730
1025.655	-2685
1025.723	-2564
1025.791	-2685
1025.859	-1045
1025.927	-2573
1025.995	-2480
1026.062	-2709
1026.130	-1833
1026.198	-2474
1026.266	-2431
1026.333	-1592
1026.401	-1936
1026.469	-2911
1026.536	-2301
1026.604	-2864
1026.671	-2314
1026.739	-1588
1026.806	-2691
1026.874	-2250
1026.941	-2491
1027.009	-2526
1027.076	-2751
1027.144	-2385
1027.211	-2914
1027.278	-3660
1027.345	-2236
1027.413	-2306
1027.480	-2465
1027.547	-2607
1027.614	-2336
1027.682	-1909
1027.749	-1868
1027.816	-3078
1027.883	-1924
1027.950	-3253
1028.017	-2577
1028.084	-2085
1028.151	-2439
1028.218	-2780
1028.285	-2167
1028.352	-2541
1028.419	-2259
1028.486	-2352
1028.553	-1621
1028.619	-3029
1028.686	-2322
1028.753	-2624
1028.820	-2469
1028.886	-3021
1028.953	-2423
1029.020	-2228
1029.086	-2482
1029.153	-2695
1029.220	-2333
1029.286	-2435
1029.353	-2097
1029.419	-2814
1029.486	-2609
1029.552	-2458
1029.619	-2602
1029.685	-3712
1029.751	-1810
1029.818	-1849
1029.884	-2145
1029.951	-1794
1030.017	-2694
1030.083	-2121
1030.149	-1742
1030.216	-2972
1030.282	-1754
1030.348	-2570
1030.414	-2159
1030.480	-2914
1030.546	-1929
1030.612	-2159
1030.678	-2699
1030.744	-3476
1030.810	-2852
1030.876	-2554
1030.942	-3248
1031.008	-2312
1031.074	-1742
1031.140	-2692
1031.206	-2150
1031.272	-2966
1031.337	-1955
1031.403	-2353
1031.469	-2709
1031.534	-2603
1031.600	-2044
1031.666	-2687
1031.731	-2465
1031.797	-2545
1031.863	-2097
1031.928	-2429
1031.994	-2689
1032.059	-2781
1032.125	-2479
1032.190	-3298
1032.256	-2703
1032.321	-2120
1032.386	-1926
1032.452	-1571
1032.517	-2158
1032.582	-2781
1032.647	-2484
1032.713	-2719
1032.778	-1721
1032.843	-2808
1032.908	-2623
1032.974	-2607
1033.039	-2625
1033.104	-2195
1033.169	-2470
1033.234	-2406
1033.299	-1518
1033.364	-2505
1033.429	-2764
1033.494	-2767
1033.559	-2074
1033.624	-2454
1033.688	-1718
1033.753	-2460
1033.818	-2438
1033.883	-3111
1033.948	-2360
1034.013	-2770
1034.077	-2081
1034.142	-1844
1034.207	-2020
1034.271	-1907
1034.336	-1804
1034.400	-2903
1034.465	-2229
1034.530	-3343
1034.594	-1319
1034.658	-2488
1034.723	-2891
1034.787	-2336
1034.852	-1818
1034.916	-2938
1034.981	-2219
1035.045	-2227
1035.109	-2583
1035.173	-1507
1035.238	-1920
1035.302	-1974
1035.366	-1920
1035.430	-2595
1035.495	-2312
1035.559	-2551
1035.623	-2318
1035.687	-3077
1035.751	-2400
1035.815	-2200
1035.879	-2264
1035.943	-2954
1036.007	-2276
1036.071	-2054
1036.135	-2528
1036.198	-3280
1036.262	-2202
1036.326	-2756
1036.390	-1633
1036.454	-2550
1036.517	-2333
1036.581	-3045
1036.645	-1815
1036.709	-2412
1036.772	-2151
1036.836	-2194
1036.900	-2220
1036.963	-2532
1037.026	-2013
1037.090	-2744
1037.154	-1921
1037.217	-2569
1037.280	-2395
1037.344	-2551
1037.407	-1788
1037.471	-1827
1037.534	-2628
1037.597	-2809
1037.661	-1618
1037.724	-2941
1037.787	-2207
1037.850	-2115
1037.913	-1767
1037.977	-1901
1038.040	-1817
1038.103	-3044
1038.166	-1786
1038.229	-3666
1038.292	-2004
1038.355	-3028
1038.418	-2001
1038.481	-2475
1038.544	-2019
1038.607	-2451
1038.670	-2521
1038.732	-2403
1038.795	-2259
1038.858	-2649
1038.921	-2073
1038.984	-2886
1039.046	-2589
1039.109	-2634
1039.172	-1838
1039.234	-2894
1039.297	-1598
1039.360	-1963
1039.422	-2358
1039.485	-3320
1039.547	-1709
1039.610	-2458
1039.672	-2338
1039.734	-2491
1039.797	-1771
1039.859	-1204
1039.922	-1981
1039.984	-2081
1040.046	-2122
1040.109	-3303
1040.171	-2256
1040.233	-2215
1040.295	-2298
1040.358	-2910
1040.420	-2646
1040.482	-2910
1040.544	-2350
1040.606	-2056
1040.668	-2202
1040.730	-2492
1040.792	-1008
1040.854	-2377
1040.916	-2102
1040.978	-2149
1041.040	-2078
1041.102	-2713
1041.164	-1915
1041.225	-1663
1041.287	-2296
1041.349	-2089
1041.411	-2660
1041.472	-2373
1041.534	-1897
1041.596	-3090
1041.657	-1427
1041.719	-2621
1041.781	-2697
1041.842	-2599
1041.904	-2410
1041.965	-2325
1042.027	-1722
1042.088	-1659
1042.150	-1676
1042.211	-1902
1042.272	-1626
1042.334	-2810
1042.395	-1715
1042.456	-2080
1042.518	-1432
1042.579	-1528
1042.640	-2787
1042.701	-2541
1042.763	-1317
1042.824	-2462
1042.885	-2240
1042.946	-1923
1043.007	-2164
1043.068	-2989
1043.129	-2529
1043.190	-2035
1043.251	-1063
1043.312	-2433
1043.373	-1259
1043.434	-2492
1043.495	-1493
1043.556	-2707
1043.616	-1619
1043.677	-2063
1043.738	-2381
1043.799	-2193
1043.859	-1234
1043.920	-2644
1043.981	-1715
1044.041	-1890
1044.102	-1839
1044.162	-2456
1044.223	-1709
1044.284	-2019
1044.344	-2398
1044.405	-2700
1044.465	-1272
1044.525	-2866
1044.586	-2132
1044.646	-2109
1044.707	-978
1044.767	-2512
1044.827	-1874
1044.887	-1453
1044.948	-1395
1045.008	-1479
1045.068	-1214
1045.128	-2329
1045.188	-1931
1045.249	-1364
1045.309	-1904
1045.369	-2299
1045.429	-1761
1045.489	-1292
1045.549	-1515
1045.609	-2335
1045.669	-2036
1045.729	-2210
1045.789	-1771
1045.848	-1899
1045.908	-1562
1045.968	-1996
1046.028	-1416
1046.088	-1871
1046.147	-883
1046.207	-2364
1046.267	-1447
1046.326	-1690
1046.386	-1351
1046.446	-1847
1046.505	-1258
1046.565	-323
1046.624	-587
1046.684	-1421
1046.743	-967
1046.803	-1075
1046.862	-106
1046.922	0
