'Start Wavelength	183.907
'End Wavelength	1046.922
'Gate Delay	5.000
'Gate Width (ms)	1.050
'Laser Output Level	0.000
'X Position	0.000
'Y Position	0.000
'Z Position	0.000
'Grid Point Number	1.000
'Shot Number	100.000
183.907	-113.000
183.977	-631.000
184.047	-1283
184.116	-37
184.186	-224
184.256	431
184.325	-561
184.395	-495
184.465	188
184.534	-775
184.604	-1004
184.674	-476
184.743	-1176
184.813	-187
184.883	-241
184.952	85
185.022	-471
185.092	251
185.161	-225
185.231	7
185.301	-486
185.370	305
185.440	-912
185.509	-590
185.579	-117
185.649	165
185.718	-609
185.788	-239
185.857	-160
185.927	-478
185.996	-551
186.066	-241
186.136	-443
186.205	-11
186.275	-599
186.344	206
186.414	-343
186.483	-788
186.553	218
186.622	83
186.692	-380
186.761	-567
186.831	-251
186.900	-303
186.970	-789
187.039	187
187.109	-280
187.178	-380
187.248	-181
187.317	-279
187.387	-345
187.456	102
187.526	-524
187.595	-636
187.664	187
187.734	237
187.803	-782
187.873	-208
187.942	-20
188.012	180
188.081	-266
188.150	-165
188.220	-564
188.289	236
188.358	-712
188.428	-140
188.497	-788
188.567	331
188.636	-567
188.705	38
188.775	-274
188.844	-396
188.913	303
188.983	-762
189.052	-319
189.121	-568
189.191	157
189.260	694
189.329	-348
189.399	-638
189.468	49
189.537	-367
189.606	46
189.676	-236
189.745	-60
189.814	-587
189.883	-1493
189.953	-553
190.022	-320
190.091	-82
190.161	-397
190.230	23
190.299	37
190.368	-228
190.437	-761
190.507	105
190.576	-169
190.645	-628
190.714	57
190.783	-1068
190.853	-154
190.922	198
190.991	-679
191.060	-132
191.129	-838
191.198	-74
191.268	-701
191.337	-222
191.406	45
191.475	-610
191.544	-861
191.613	-544
191.682	-744
191.752	-308
191.821	-289
191.890	-434
191.959	-344
192.028	-437
192.097	-59
192.166	356
192.235	76
192.304	-302
192.373	-1186
192.442	190
192.511	-723
192.580	83
192.650	-262
192.719	-164
192.788	-407
192.857	9
192.926	-465
192.995	-310
193.064	-179
193.133	102
193.202	-634
193.271	76
193.340	-765
193.409	-5
193.478	418
193.547	-443
193.615	-163
193.684	291
193.753	89
193.822	470
193.891	-930
193.960	351
194.029	-469
194.098	-812
194.167	-958
194.236	360
194.305	-268
194.374	-286
194.443	-433
194.512	140
194.580	-640
194.649	502
194.718	-770
194.787	344
194.856	-625
194.925	468
194.994	-582
195.062	-61
195.131	-428
195.200	-432
195.269	-268
195.338	-134
195.407	-515
195.475	-123
195.544	233
195.613	-245
195.682	-449
195.751	-544
195.819	-600
195.888	-183
195.957	-183
196.026	-259
196.094	-302
196.163	-374
196.232	-590
196.301	-153
196.369	-233
196.438	517
196.507	-390
196.576	-67
196.644	-760
196.713	-229
196.782	-945
196.850	-133
196.919	163
196.988	-108
197.056	-197
197.125	81
197.194	-374
197.262	-266
197.331	-519
197.400	-551
197.468	-751
197.537	32
197.606	-731
197.674	-122
197.743	-299
197.812	212
197.880	25
197.949	-790
198.017	-647
198.086	97
198.155	-583
198.223	-150
198.292	-854
198.360	-4
198.429	-616
198.497	-356
198.566	-1184
198.635	287
198.703	-756
198.772	-390
198.840	-512
198.909	904
198.977	-509
199.046	-100
199.114	-346
199.183	116
199.251	-771
199.320	-280
199.388	-353
199.457	-380
199.525	-945
199.594	105
199.662	-1277
199.731	-476
199.799	-327
199.867	-264
199.936	-732
200.004	457
200.073	-374
200.141	-372
200.210	-592
200.278	-533
200.346	-291
200.415	223
200.483	191
200.552	-561
200.620	-968
200.688	-402
200.757	-735
200.825	-311
200.893	-1051
200.962	88
201.030	-13
201.098	-183
201.167	-831
201.235	-62
201.303	-746
201.372	-324
201.440	-320
201.508	-241
201.577	-272
201.645	-467
201.713	-481
201.781	-48
201.850	-833
201.918	94
201.986	-328
202.055	-381
202.123	-379
202.191	-1276
202.259	-670
202.327	-868
202.396	179
202.464	168
202.532	-284
202.600	733
202.669	-367
202.737	122
202.805	-1173
202.873	-236
202.941	-512
203.009	358
203.078	-522
203.146	-52
203.214	-1104
203.282	-911
203.350	-662
203.418	-200
203.487	424
203.555	-879
203.623	-885
203.691	-669
203.759	-473
203.827	-584
203.895	-473
203.963	-103
204.031	-792
204.099	-275
204.168	-951
204.236	-295
204.304	-496
204.372	-568
204.440	42
204.508	-416
204.576	50
204.644	-203
204.712	-972
204.780	72
204.848	-290
204.916	207
204.984	-327
205.052	82
205.120	-671
205.188	-576
205.256	-550
205.324	-800
205.392	-1164
205.460	855
205.528	-264
205.596	-845
205.664	-508
205.732	-618
205.799	-1013
205.867	202
205.935	149
206.003	211
206.071	-1442
206.139	98
206.207	160
206.275	-529
206.343	-111
206.411	184
206.478	-705
206.546	-39
206.614	-832
206.682	-574
206.750	-516
206.818	-10
206.885	-134
206.953	-1348
207.021	354
207.089	-88
207.157	-633
207.225	-259
207.292	-1396
207.360	-487
207.428	-479
207.496	-537
207.563	-1142
207.631	-976
207.699	-871
207.767	198
207.834	-25
207.902	-747
207.970	-1344
208.038	-401
208.105	-438
208.173	728
208.241	-443
208.309	629
208.376	-146
208.444	-353
208.512	-850
208.579	-697
208.647	-87
208.715	320
208.782	-772
208.850	-1009
208.918	-520
208.985	-716
209.053	97
209.120	-476
209.188	-494
209.256	-239
209.323	-733
209.391	-549
209.459	784
209.526	-471
209.594	-1257
209.661	221
209.729	-320
209.796	-44
209.864	96
209.932	-751
209.999	-525
210.067	-224
210.134	-266
210.202	49
210.269	-381
210.337	-225
210.404	118
210.472	125
210.539	-976
210.607	-1123
210.674	-340
210.742	495
210.809	-195
210.877	210
210.944	-7
211.012	-1001
211.079	778
211.146	-464
211.214	-69
211.281	-856
211.349	-977
211.416	434
211.484	-59
211.551	-357
211.618	-589
211.686	-435
211.753	-235
211.821	-336
211.888	-783
211.955	-151
212.023	-381
212.090	-294
212.157	-699
212.225	-346
212.292	-18
212.359	-37
212.427	524
212.494	425
212.561	-938
212.629	212
212.696	-320
212.763	-737
212.831	-633
212.898	606
212.965	-775
213.032	-327
213.100	-429
213.167	-129
213.234	-182
213.301	-64
213.369	-398
213.436	-59
213.503	-1283
213.570	514
213.638	-572
213.705	-488
213.772	-578
213.839	-333
213.906	-788
213.973	626
214.041	-213
214.108	-15
214.175	-207
214.242	-14
214.309	39
214.376	-145
214.444	-646
214.511	613
214.578	-957
214.645	207
214.712	-803
214.779	-170
214.846	-217
214.913	-74
214.980	163
215.048	-1223
215.115	-233
215.182	344
215.249	388
215.316	-590
215.383	36
215.450	59
215.517	-828
215.584	-362
215.651	-779
215.718	-284
215.785	-482
215.852	-637
215.919	170
215.986	-105
216.053	-496
216.120	-574
216.187	-382
216.254	-322
216.321	-356
216.388	-216
216.455	-673
216.522	867
216.589	-517
216.656	208
216.722	-525
216.789	462
216.856	144
216.923	62
216.990	-24
217.057	985
217.124	-74
217.191	159
217.258	368
217.324	141
217.391	170
217.458	26
217.525	-535
217.592	-331
217.659	-1033
217.725	595
217.792	-234
217.859	283
217.926	-317
217.993	-576
218.059	-131
218.126	-198
218.193	-966
218.260	116
218.327	-696
218.393	-724
218.460	-776
218.527	-758
218.594	-686
218.660	-490
218.727	-87
218.794	170
218.860	-587
218.927	-691
218.994	-584
219.061	-1092
219.127	-429
219.194	-169
219.261	-833
219.327	-389
219.394	-254
219.461	-833
219.527	96
219.594	-338
219.661	-1000
219.727	-584
219.794	454
219.860	-753
219.927	-820
219.994	183
220.060	-548
220.127	-71
220.193	-365
220.260	99
220.326	225
220.393	849
220.460	-204
220.526	678
220.593	-410
220.659	1390
220.726	-71
220.792	1085
220.859	605
220.925	1145
220.992	419
221.058	1845
221.125	447
221.191	565
221.258	-210
221.324	678
221.391	-610
221.457	0
221.524	17
221.590	-10
221.657	182
221.723	184
221.789	2
221.856	-57
221.922	-765
221.989	810
222.055	-437
222.121	-829
222.188	1317
222.254	-462
222.321	-61
222.387	-173
222.453	-880
222.520	-109
222.586	-332
222.652	299
222.719	-969
222.785	350
222.851	197
222.918	-497
222.984	-481
223.050	113
223.116	-1568
223.183	1026
223.249	-680
223.315	-576
223.382	-629
223.448	-341
223.514	-1078
223.580	-715
223.647	-611
223.713	-906
223.779	-362
223.845	-523
223.911	-526
223.978	-825
224.044	-479
224.110	-968
224.176	-364
224.242	51
224.309	-2106
224.375	-369
224.441	-133
224.507	-469
224.573	-979
224.639	-360
224.705	-953
224.772	641
224.838	-1087
224.904	-62
224.970	-984
225.036	-1035
225.102	-536
225.168	201
225.234	-151
225.300	-391
225.366	-670
225.432	434
225.499	-1008
225.565	-223
225.631	-731
225.697	-393
225.763	-268
225.829	-164
225.895	-446
225.961	-272
226.027	-198
226.093	-518
226.159	658
226.225	777
226.291	1909
226.357	2764
226.423	925
226.489	893
226.554	144
226.620	-8
226.686	482
226.752	1372
226.818	1273
226.884	2772
226.950	3557
227.016	680
227.082	1371
227.148	-36
227.214	-393
227.279	350
227.345	-583
227.411	-247
227.477	-400
227.543	601
227.609	200
227.674	244
227.740	-637
227.806	-213
227.872	-656
227.938	-15
228.003	418
228.069	-1154
228.135	-599
228.201	-687
228.267	3
228.332	-27
228.398	-503
228.464	398
228.530	-1097
228.595	38
228.661	-1569
228.727	-326
228.792	175
228.858	-617
228.924	-1702
228.990	209
229.055	-923
229.121	75
229.187	280
229.252	-434
229.318	-1002
229.384	-205
229.449	-813
229.515	-1685
229.581	-976
229.646	840
229.712	-41
229.777	-27
229.843	-1012
229.909	676
229.974	230
230.040	-726
230.105	-1043
230.171	-934
230.236	-19
230.302	53
230.368	-1236
230.433	-871
230.499	40
230.564	468
230.630	-711
230.695	124
230.761	211
230.826	-1746
230.892	-143
230.957	-796
231.023	-43
231.088	-134
231.154	-396
231.219	-212
231.284	-182
231.350	-14
231.415	-645
231.481	723
231.546	-951
231.612	-157
231.677	-741
231.742	-1233
231.808	776
231.873	-255
231.939	-2061
232.004	823
232.069	410
232.135	-1061
232.200	-579
232.265	-208
232.331	-665
232.396	-998
232.461	-973
232.527	-714
232.592	-606
232.657	26
232.723	-1014
232.788	-647
232.853	241
232.918	-920
232.984	-641
233.049	-553
233.114	-936
233.179	443
233.245	-241
233.310	-89
233.375	-692
233.440	-460
233.506	-1397
233.571	-545
233.636	-666
233.701	-47
233.766	-822
233.832	-762
233.897	-679
233.962	-1560
234.027	738
234.092	-114
234.157	-860
234.222	-76
234.288	-497
234.353	223
234.418	128
234.483	849
234.548	-902
234.613	-243
234.678	-30
234.743	-986
234.808	1125
234.873	-664
234.938	458
235.004	-68
235.069	-358
235.134	-721
235.199	-99
235.264	-343
235.329	-1016
235.394	203
235.459	984
235.524	-1372
235.589	-840
235.654	-351
235.719	-2421
235.784	338
235.849	-158
235.913	791
235.978	-117
236.043	-430
236.108	-197
236.173	-687
236.238	206
236.303	429
236.368	-428
236.433	798
236.498	-904
236.563	68
236.627	1377
236.692	4226
236.757	3615
236.822	1301
236.887	-265
236.952	1151
237.017	-781
237.081	1770
237.146	-489
237.211	2843
237.276	3931
237.341	4983
237.405	2605
237.470	715
237.535	314
237.600	879
237.664	244
237.729	-587
237.794	-133
237.859	1517
237.923	239
237.988	519
238.053	-227
238.118	-65
238.182	-49
238.247	759
238.312	-741
238.376	1155
238.441	-1880
238.506	1100
238.570	-1680
238.635	761
238.700	-33
238.764	-691
238.829	100
238.893	-709
238.958	197
239.023	-115
239.087	-735
239.152	454
239.216	-1072
239.281	-224
239.346	-168
239.410	-249
239.475	-108
239.539	1115
239.604	-518
239.668	241
239.733	-674
239.797	159
239.862	993
239.926	1196
239.991	91
240.055	910
240.120	-543
240.184	-98
240.249	-525
240.313	-791
240.378	-342
240.442	372
240.507	-170
240.571	-726
240.635	-931
240.700	72
240.764	-966
240.829	-418
240.893	-1742
240.957	114
241.022	-449
241.086	258
241.151	-987
241.215	-1410
241.279	714
241.344	-421
241.408	-142
241.472	-658
241.537	7
241.601	2
241.665	-1091
241.730	-483
241.794	570
241.858	-1006
241.922	-861
241.987	139
242.051	-407
242.115	-1505
242.179	62
242.244	-470
242.308	156
242.372	-287
242.436	-591
242.501	-47
242.565	-1279
242.629	-934
242.693	170
242.757	-1243
242.822	-508
242.886	561
242.950	132
243.014	-1169
243.078	-791
243.142	-351
243.206	-750
243.271	-18
243.335	-1158
243.399	322
243.463	129
243.527	3647
243.591	-87
243.655	172
243.719	-1105
243.783	1064
243.847	-783
243.911	386
243.975	324
244.040	-464
244.104	1317
244.168	171
244.232	-740
244.296	352
244.360	281
244.424	-90
244.488	22
244.552	200
244.615	-1609
244.679	-232
244.743	-545
244.807	-1029
244.871	-115
244.935	146
244.999	-993
245.063	-56
245.127	-314
245.191	178
245.255	-631
245.319	18
245.383	-1278
245.446	958
245.510	-953
245.574	16
245.638	626
245.702	-994
245.766	470
245.829	1137
245.893	-1072
245.957	-302
246.021	115
246.085	-927
246.149	-335
246.212	1875
246.276	503
246.340	-32
246.404	156
246.467	686
246.531	-1766
246.595	526
246.659	243
246.722	-747
246.786	142
246.850	-334
246.913	3
246.977	-785
247.041	252
247.104	-158
247.168	-54
247.232	944
247.295	1622
247.359	1023
247.423	-896
247.486	962
247.550	765
247.614	315
247.677	398
247.741	-68
247.804	-65
247.868	290
247.932	808
247.995	2767
248.059	63
248.122	-618
248.186	494
248.249	1262
248.313	3358
248.376	4308
248.440	2086
248.503	-596
248.567	1911
248.630	809
248.694	844
248.757	3000
248.821	3810
248.884	3215
248.948	1510
249.011	3290
249.075	4410
249.138	4142
249.202	1476
249.265	253
249.328	946
249.392	393
249.455	375
249.519	117
249.582	-331
249.645	1530
249.709	184
249.772	99
249.835	-304
249.899	345
249.962	477
250.025	-154
250.089	880
250.152	2444
250.215	533
250.279	14
250.342	-36
250.405	313
250.468	-585
250.532	101
250.595	564
250.658	3166
250.721	5810
250.785	2196
250.848	1634
250.911	-208
250.974	260
251.038	1194
251.101	1745
251.164	381
251.227	1170
251.290	180
251.354	994
251.417	5873
251.480	4961
251.543	3134
251.606	10407
251.669	7595
251.732	2498
251.795	3119
251.859	3591
251.922	5796
251.985	3111
252.048	1846
252.111	205
252.174	491
252.237	2332
252.300	3983
252.363	5426
252.426	9491
252.489	2519
252.552	1438
252.615	828
252.678	1588
252.741	3157
252.804	3362
252.867	8955
252.930	5007
252.993	2884
253.056	2933
253.119	426
253.182	-225
253.245	624
253.308	1063
253.371	528
253.434	850
253.497	769
253.559	2365
253.622	1012
253.685	2075
253.748	2751
253.811	794
253.874	1180
253.937	79
254.000	983
254.062	1464
254.125	1615
254.188	3247
254.251	2141
254.314	807
254.376	1166
254.439	2023
254.502	1251
254.565	1874
254.628	4329
254.690	1378
254.753	645
254.816	313
254.878	330
254.941	1702
255.004	1864
255.067	529
255.129	-48
255.192	125
255.255	-791
255.317	227
255.380	539
255.443	-811
255.505	-678
255.568	-1023
255.631	-1031
255.693	-289
255.756	-1419
255.819	863
255.881	-990
255.944	-809
256.006	-590
256.069	-84
256.132	-1283
256.194	-185
256.257	138
256.319	382
256.382	-201
256.444	330
256.507	218
256.569	-924
256.632	-582
256.694	-396
256.757	2834
256.819	8647
256.882	2413
256.944	1205
257.007	1168
257.069	396
257.132	-448
257.194	711
257.257	-313
257.319	-693
257.381	-437
257.444	2177
257.506	9430
257.569	11032
257.631	4240
257.693	1712
257.756	1242
257.818	-353
257.880	42
257.943	816
258.005	-540
258.067	-207
258.130	-552
258.192	-34
258.254	187
258.317	-140
258.379	-551
258.441	686
258.503	623
258.566	788
258.628	629
258.690	-492
258.753	20
258.815	1753
258.877	-371
258.939	62
259.001	71
259.064	-5
259.126	-832
259.188	-318
259.250	-20
259.312	447
259.375	203
259.437	-230
259.499	-306
259.561	-97
259.623	92
259.685	-203
259.747	-377
259.809	442
259.872	1683
259.934	2592
259.996	3801
260.058	1402
260.120	-1018
260.182	-647
260.244	-291
260.306	-1231
260.368	448
260.430	213
260.492	812
260.554	1800
260.616	-83
260.678	778
260.740	759
260.802	-1331
260.864	381
260.926	-747
260.988	306
261.050	-200
261.112	762
261.174	3689
261.236	534
261.298	-42
261.359	-197
261.421	966
261.483	-814
261.545	149
261.607	-1179
261.669	-86
261.731	-521
261.793	947
261.854	-925
261.916	629
261.978	-708
262.040	73
262.102	-681
262.164	-925
262.225	73
262.287	-187
262.349	323
262.411	-218
262.472	39
262.534	-820
262.596	-446
262.658	-257
262.719	-784
262.781	617
262.843	-764
262.904	-383
262.966	-679
263.028	-797
263.090	1238
263.151	4935
263.213	1541
263.275	955
263.336	-333
263.398	449
263.459	-1210
263.521	-66
263.583	808
263.644	527
263.706	-686
263.767	-460
263.829	-140
263.891	-934
263.952	-754
264.014	-559
264.075	438
264.137	2390
264.198	1011
264.260	-654
264.321	-184
264.383	636
264.444	4397
264.506	1097
264.567	86
264.629	1354
264.690	2260
264.752	1083
264.813	299
264.875	-1092
264.936	513
264.998	-888
265.059	-1148
265.120	-727
265.182	215
265.243	5069
265.305	5386
265.366	996
265.427	424
265.489	387
265.550	-1918
265.611	71
265.673	-1038
265.734	-368
265.795	225
265.857	-1088
265.918	-1346
265.979	1042
266.040	8473
266.102	7168
266.163	1607
266.224	1303
266.286	-344
266.347	-1306
266.408	-190
266.469	189
266.530	-729
266.592	-110
266.653	71
266.714	660
266.775	-719
266.836	6
266.898	-940
266.959	-90
267.020	-999
267.081	83
267.142	-1290
267.203	-665
267.264	-1976
267.326	-276
267.387	-889
267.448	-889
267.509	-199
267.570	-739
267.631	-672
267.692	-1504
267.753	-371
267.814	-1172
267.875	-261
267.936	1307
267.997	432
268.058	256
268.119	-691
268.180	-1036
268.241	-1436
268.302	162
268.363	-875
268.424	-626
268.485	64
268.546	-1077
268.607	-1175
268.668	-527
268.729	-1042
268.790	-1354
268.851	-303
268.912	319
268.972	875
269.033	236
269.094	-1446
269.155	219
269.216	-847
269.277	-715
269.338	-1128
269.398	-844
269.459	-982
269.520	-221
269.581	-58
269.642	-142
269.702	-1073
269.763	-21
269.824	-1468
269.885	-721
269.945	555
270.006	-472
270.067	-1851
270.128	-890
270.188	-366
270.249	54
270.310	-1369
270.370	-954
270.431	-1241
270.492	-1179
270.553	-881
270.613	398
270.674	2663
270.734	-526
270.795	-1171
270.856	-122
270.916	-1504
270.977	-299
271.038	-942
271.098	-262
271.159	-786
271.219	-851
271.280	-1622
271.340	-833
271.401	-1278
271.462	58
271.522	-614
271.583	-470
271.643	-1359
271.704	-1033
271.764	-653
271.825	1345
271.885	5551
271.946	5952
272.006	2082
272.066	3744
272.127	4721
272.187	810
272.248	-482
272.308	-733
272.369	2320
272.429	1313
272.489	767
272.550	692
272.610	1040
272.671	436
272.731	-435
272.791	521
272.852	-543
272.912	-193
272.972	-825
273.033	12
273.093	-899
273.153	639
273.214	-444
273.274	-34
273.334	2569
273.394	4646
273.455	469
273.515	1437
273.575	2976
273.635	1215
273.696	1090
273.756	3994
273.816	990
273.876	1027
273.936	-11
273.997	2076
274.057	-397
274.117	248
274.177	325
274.237	5551
274.297	4532
274.358	1814
274.418	2900
274.478	2415
274.538	-246
274.598	-234
274.658	646
274.718	2041
274.778	-361
274.838	-41
274.898	-374
274.958	713
275.018	3183
275.078	2665
275.138	547
275.198	-66
275.258	-1061
275.318	-109
275.378	990
275.438	1172
275.498	-585
275.558	541
275.618	2696
275.678	2658
275.738	1255
275.798	1084
275.858	-504
275.918	-761
275.978	-71
276.038	-62
276.098	-579
276.157	852
276.217	3317
276.277	1125
276.337	1114
276.397	-674
276.457	-134
276.517	-402
276.576	-828
276.636	33
276.696	-804
276.756	2000
276.815	678
276.875	-4
276.935	-218
276.995	132
277.055	-1274
277.114	-475
277.174	-666
277.234	2591
277.293	575
277.353	-667
277.413	-1462
277.472	-842
277.532	-881
277.592	-247
277.651	340
277.711	1720
277.771	-1093
277.830	3069
277.890	2756
277.950	792
278.009	4518
278.069	1189
278.128	981
278.188	2019
278.248	466
278.307	1913
278.367	976
278.426	-698
278.486	-484
278.545	-2112
278.605	-1200
278.664	-302
278.724	-913
278.783	1258
278.843	3624
278.902	468
278.962	-434
279.021	-52
279.081	-190
279.140	-442
279.199	-410
279.259	-24
279.318	49
279.378	-352
279.437	423
279.496	6156
279.556	11361
279.615	7139
279.675	1813
279.734	493
279.793	1779
279.853	4199
279.912	1168
279.971	-353
280.031	-857
280.090	987
280.149	2316
280.208	768
280.268	8274
280.327	6869
280.386	498
280.445	1367
280.505	610
280.564	639
280.623	-851
280.682	449
280.742	1531
280.801	-260
280.860	-1095
280.919	-973
280.978	-609
281.037	-1303
281.097	-858
281.156	-955
281.215	-1547
281.274	-687
281.333	2048
281.392	760
281.451	-511
281.510	-628
281.569	-1435
281.628	-238
281.688	-234
281.747	-704
281.806	-615
281.865	-656
281.924	-1094
281.983	44
282.042	-1396
282.101	-722
282.160	-334
282.219	-1107
282.278	-849
282.337	843
282.396	321
282.454	-37
282.513	-112
282.572	2696
282.631	291
282.690	-928
282.749	-1634
282.808	-1
282.867	-257
282.926	-296
282.985	-444
283.043	-1326
283.102	-767
283.161	-455
283.220	412
283.279	2526
283.338	340
283.396	-425
283.455	-182
283.514	290
283.573	859
283.631	232
283.690	-774
283.749	-265
283.808	-75
283.866	1530
283.925	-920
283.984	-211
284.043	96
284.101	-105
284.160	-667
284.219	-171
284.277	-205
284.336	-182
284.395	3751
284.453	2572
284.512	94
284.570	1614
284.629	-181
284.688	-200
284.746	-612
284.805	647
284.863	772
284.922	1095
284.981	1576
285.039	3165
285.098	6233
285.156	15087
285.215	20437
285.273	20929
285.332	15610
285.390	9160
285.449	4282
285.507	3646
285.566	1226
285.624	1116
285.683	322
285.741	54
285.799	258
285.858	-132
285.916	-471
285.975	-153
286.033	-818
286.091	-731
286.150	-572
286.208	-294
286.267	-103
286.325	-344
286.383	598
286.442	-52
286.500	-580
286.558	-129
286.616	-487
286.675	416
286.733	-95
286.791	-379
286.850	-666
286.908	203
286.966	180
287.024	59
287.083	-1050
287.141	-939
287.199	-73
287.257	120
287.315	156
287.374	-581
287.432	613
287.490	419
287.548	-1102
287.606	-931
287.664	-884
287.723	-186
287.781	644
287.839	-308
287.897	-817
287.955	-479
288.013	-150
288.071	1603
288.129	8132
288.187	23517
288.245	9179
288.303	2632
288.361	551
288.419	170
288.477	0
288.535	-615
288.593	-599
288.651	-471
288.709	-1627
288.767	-1010
288.825	-893
288.883	-817
288.941	-1201
288.999	-289
289.057	-91
289.115	-565
289.173	-1323
289.231	-156
289.289	-1206
289.346	-235
289.404	-611
289.462	-92
289.520	16
289.578	-309
289.636	-690
289.694	-610
289.751	-1216
289.809	-647
289.867	-1309
289.925	398
289.983	-486
290.040	-724
290.098	-1046
290.156	-955
290.214	-671
290.271	-1141
290.329	-590
290.387	-661
290.444	-906
290.502	-884
290.560	-1089
290.617	-725
290.675	-1085
290.733	-661
290.790	-497
290.848	-885
290.906	-906
290.963	-559
291.021	-709
291.078	-1188
291.136	-549
291.194	1367
291.251	3389
291.309	114
291.366	-1004
291.424	-380
291.481	-389
291.539	-1058
291.596	-1069
291.654	-37
291.711	-655
291.769	-73
291.826	220
291.884	-226
291.941	-737
291.999	-1129
292.056	-302
292.114	-221
292.171	-1543
292.228	-311
292.286	20
292.343	109
292.401	132
292.458	631
292.515	-1295
292.573	-136
292.630	-1005
292.687	-446
292.745	-1347
292.802	337
292.859	1591
292.917	3427
292.974	2037
293.031	675
293.089	-1103
293.146	-450
293.203	-1194
293.260	-656
293.318	-542
293.375	555
293.432	-674
293.489	162
293.546	-449
293.604	-263
293.661	1685
293.718	5966
293.775	3286
293.832	1273
293.889	298
293.947	-676
294.004	-1327
294.061	17
294.118	1051
294.175	4319
294.232	6172
294.289	1521
294.346	-80
294.403	468
294.460	-3
294.517	2
294.574	-892
294.631	-660
294.688	-956
294.745	1431
294.802	7152
294.859	9606
294.916	3035
294.973	1268
295.030	-107
295.087	-221
295.144	-72
295.201	-209
295.258	-1156
295.315	960
295.372	2197
295.429	3969
295.486	945
295.542	787
295.599	3619
295.656	7471
295.713	3696
295.770	5293
295.827	1638
295.883	496
295.940	84
295.997	1978
296.054	644
296.111	303
296.167	-474
296.224	-659
296.281	-495
296.338	-389
296.394	-478
296.451	-555
296.508	1717
296.564	3913
296.621	3446
296.678	5902
296.734	7657
296.791	4265
296.848	664
296.904	1517
296.961	4475
297.018	5583
297.074	3563
297.131	359
297.187	541
297.244	1313
297.301	4362
297.357	8438
297.414	2382
297.470	1020
297.527	430
297.583	-184
297.640	-387
297.696	-17
297.753	74
297.809	-464
297.866	-699
297.922	-182
297.979	-22
298.035	-616
298.092	20
298.148	2791
298.204	2106
298.261	398
298.317	2190
298.374	7045
298.430	3576
298.486	847
298.543	87
298.599	456
298.656	211
298.712	2509
298.768	4064
298.824	2091
298.881	-643
298.937	320
298.993	6
299.050	858
299.106	598
299.162	-597
299.218	-78
299.275	-756
299.331	-26
299.387	1324
299.443	5464
299.500	6909
299.556	2031
299.612	964
299.668	598
299.724	1840
299.780	1500
299.837	-59
299.893	704
299.949	5429
300.005	6248
300.061	5493
300.117	9402
300.173	4287
300.229	733
300.285	2486
300.341	3150
300.397	1724
300.453	262
300.510	-215
300.566	-213
300.622	373
300.678	3364
300.734	7562
300.790	5425
300.845	6181
300.901	3439
300.957	6718
301.013	5296
301.069	1352
301.125	444
301.181	318
301.237	445
301.293	-248
301.349	-651
301.405	-584
301.461	58
301.516	647
301.572	-247
301.628	1698
301.684	1260
301.740	2666
301.796	3283
301.851	3002
301.907	3645
301.963	4398
302.019	6052
302.074	15408
302.130	15453
302.186	9366
302.242	3627
302.297	974
302.353	1992
302.409	3267
302.464	2033
302.520	3203
302.576	5841
302.631	7632
302.687	5126
302.743	661
302.798	-43
302.854	507
302.910	-163
302.965	1808
303.021	1473
303.076	2475
303.132	3383
303.187	4302
303.243	1408
303.299	180
303.354	-109
303.410	463
303.465	-213
303.521	-96
303.576	292
303.632	235
303.687	1809
303.743	4880
303.798	4296
303.853	2172
303.909	631
303.964	497
304.020	1715
304.075	3328
304.130	2194
304.186	5724
304.241	6412
304.297	4165
304.352	1625
304.358	1498
304.407	468
304.449	1119
304.463	1341
304.518	256
304.539	222
304.573	151
304.629	666
304.630	662
304.684	526
304.720	2931
304.739	4150
304.794	6057
304.811	5344
304.850	3525
304.902	214
304.905	4
304.960	170
304.992	377
305.015	514
305.071	1252
305.083	1145
305.126	676
305.173	31
305.181	-46
305.236	-158
305.264	46
305.292	212
305.347	527
305.354	545
305.402	640
305.445	1089
305.457	1208
305.512	988
305.535	1211
305.567	1569
305.622	1076
305.626	1140
305.678	2455
305.716	4862
305.733	5801
305.788	6679
305.807	6202
305.843	5234
305.897	5690
305.898	5691
305.953	5806
305.988	4102
306.008	3222
306.063	1657
306.078	1589
306.118	1397
306.168	456
306.173	380
306.228	102
306.259	-15
306.283	-82
306.338	213
306.349	150
306.393	-137
306.440	219
306.448	318
306.503	1202
306.530	1157
306.558	1175
306.613	2650
306.620	2796
306.668	4233
306.711	6677
306.723	6959
306.778	5191
306.801	4150
306.833	3116
306.888	1096
306.892	1086
306.943	1194
306.982	937
306.997	846
307.052	555
307.072	504
307.107	601
307.162	871
307.163	873
307.217	1374
307.253	1460
307.272	1336
307.327	1238
307.343	1254
307.381	1443
307.434	1191
307.436	1232
307.491	3050
307.524	4704
307.546	5320
307.600	6130
307.614	5636
307.655	3253
307.704	1357
307.710	1352
307.765	2035
307.795	2722
307.819	3034
307.874	3532
307.885	3520
307.929	3477
307.975	3310
307.984	3420
308.038	5280
308.065	6582
308.093	10893
308.148	23236
308.156	25540
308.202	36989
308.246	44176
308.257	43297
308.312	28077
308.336	21667
308.366	16848
308.421	10492
308.426	9930
308.475	6537
308.517	4238
308.530	3784
308.585	3552
308.607	3097
308.639	2805
308.694	3315
308.697	3314
308.748	3948
308.787	4876
308.803	4813
308.857	4178
308.877	3913
308.912	4066
308.967	4051
308.967	4061
309.021	6099
309.058	7292
309.076	9210
309.130	16902
309.148	19852
309.185	30535
309.238	48173
309.239	48340
309.293	52311
309.328	50840
309.348	45851
309.402	27383
309.418	22654
309.457	16437
309.508	9768
309.511	9570
309.566	7501
309.598	6288
309.620	6015
309.674	6603
309.688	6630
309.729	6672
309.778	6560
309.783	6474
309.837	5255
309.868	4714
309.892	5827
309.946	8805
309.959	9797
310.001	13378
310.049	16272
310.055	15751
310.109	10003
310.139	6541
310.163	5069
310.218	2830
310.229	2371
310.272	1932
310.319	1782
310.326	1758
310.381	1306
310.409	1186
310.435	1232
310.489	1218
310.499	1241
310.543	1108
310.589	963
310.598	1071
310.652	1795
310.679	1939
310.706	1557
310.760	1135
310.769	1030
310.814	1025
310.859	1125
310.868	1137
310.923	1159
310.948	1131
310.977	1214
311.031	1480
311.038	1510
311.085	1290
311.128	936
311.139	996
311.193	1361
311.218	1513
311.247	1581
311.301	1723
311.308	1731
311.356	1693
311.398	1659
311.410	1708
311.464	1906
311.488	1926
311.518	1590
311.572	1132
311.578	1075
311.626	2023
311.668	2775
311.680	2697
311.734	2321
311.758	2151
311.788	1960
311.842	1624
311.847	1583
311.896	2442
311.937	3215
311.950	3225
312.004	3214
312.027	3205
312.058	2744
312.112	1903
312.117	1817
312.165	2066
312.207	2276
312.297	2748
312.386	2758
312.476	2138
312.566	4422
312.656	2666
312.745	1652
312.835	1318
312.925	1931
313.015	2089
313.104	1701
313.194	2478
313.284	2517
313.374	3166
313.463	2592
313.553	1543
313.643	1162
313.732	1255
313.822	1599
313.912	2724
314.001	2028
314.091	2488
314.180	3280
314.270	2840
314.360	2340
314.449	3101
314.539	1531
314.628	2225
314.718	1737
314.808	2091
314.897	1922
314.987	1446
315.076	1448
315.166	2250
315.255	2387
315.345	2446
315.434	2143
315.524	2299
315.613	2039
315.703	3154
315.792	2583
315.881	3783
315.971	1724
316.060	3926
316.150	3133
316.239	4087
316.328	1501
316.418	1788
316.507	1606
316.597	2882
316.686	1811
316.775	1817
316.865	3324
316.954	2034
317.043	2736
317.133	2035
317.222	1418
317.311	1913
317.400	118
317.490	2995
317.579	1536
317.668	1796
317.757	1617
317.847	3189
317.936	5421
318.025	6012
318.114	2643
318.203	3144
318.293	4762
318.382	10766
318.471	6894
318.560	9806
318.649	15260
318.738	3972
318.828	2471
318.917	2700
319.006	3052
319.095	5592
319.184	19333
319.273	11928
319.362	7184
319.451	3152
319.540	2020
319.629	4467
319.718	7597
319.807	4586
319.896	6522
319.985	23026
320.074	9977
320.163	2474
320.252	2109
320.341	4234
320.430	3561
320.519	4605
320.608	2383
320.697	2403
320.786	2038
320.875	2939
320.964	2649
321.053	5164
321.142	7186
321.230	8359
321.319	5381
321.408	14418
321.497	5861
321.586	5916
321.675	4540
321.764	6095
321.852	3970
321.941	8016
322.030	5886
322.119	4897
322.207	13010
322.296	6564
322.385	4456
322.474	6047
322.562	15394
322.651	8655
322.740	5390
322.829	8265
322.917	4763
323.006	5129
323.095	3820
323.183	3331
323.272	4130
323.361	6031
323.449	11863
323.538	4852
323.626	9661
323.715	6237
323.804	2859
323.892	7649
323.981	6600
324.069	3018
324.158	4027
324.246	5323
324.335	3554
324.424	5486
324.512	2285
324.601	3974
324.689	5794
324.778	11184
324.866	5119
324.954	2004
325.043	1670
325.131	2655
325.220	3506
325.308	3854
325.397	3373
325.485	3559
325.574	1325
325.662	1875
325.750	1120
325.839	2461
325.927	1054
326.015	1928
326.104	1311
326.192	2790
326.280	1891
326.369	1498
326.457	2171
326.545	5147
326.634	1667
326.722	1050
326.810	1106
326.898	2491
326.987	2253
327.075	3525
327.163	3475
327.251	1683
327.340	5317
327.428	8926
327.516	1374
327.604	2285
327.692	1076
327.781	1613
327.869	1964
327.957	1865
328.045	2253
328.133	2555
328.221	930
328.309	2000
328.397	770
328.485	2205
328.574	2660
328.662	8412
328.750	4158
328.838	1871
328.926	1362
329.014	1546
329.102	1723
329.190	6271
329.278	3777
329.366	1046
329.454	1264
329.542	1321
329.630	939
329.718	1682
329.806	1756
329.893	2024
329.981	1049
330.069	2210
330.157	6878
330.245	20752
330.333	10456
330.421	2880
330.509	3133
330.597	10313
330.684	7040
330.772	3616
330.860	2931
330.948	5887
331.036	2063
331.123	1426
331.211	872
331.299	2004
331.387	3758
331.475	8937
331.562	2430
331.650	1579
331.738	1594
331.825	2206
331.913	462
332.001	915
332.089	1439
332.176	3238
332.264	3761
332.352	4105
332.439	1596
332.527	2164
332.614	1083
332.702	1688
332.790	285
332.877	2612
332.965	3954
333.052	1706
333.140	1670
333.228	3220
333.315	407
333.403	1386
333.490	2317
333.578	2218
333.665	3336
333.753	3067
333.840	1124
333.928	2016
334.015	2680
334.103	6099
334.190	19527
334.278	6819
334.365	2067
334.452	2866
334.540	1259
334.627	1931
334.715	2176
334.802	3136
334.889	12181
334.977	13982
335.064	2963
335.151	2251
335.239	1978
335.326	3721
335.413	10182
335.501	16920
335.588	2835
335.675	2043
335.762	2187
335.850	5757
335.937	3726
336.024	5836
336.111	19810
336.199	11304
336.286	2477
336.373	2212
336.460	597
336.547	2007
336.635	2393
336.722	1882
336.809	1217
336.896	2775
336.983	7124
337.070	19173
337.157	22461
337.245	9649
337.332	6226
337.419	1587
337.506	1117
337.593	2050
337.680	5920
337.767	21569
337.854	5158
337.941	6528
338.028	4734
338.115	2235
338.202	2886
338.289	3385
338.376	8124
338.463	4217
338.550	10534
338.637	12932
338.724	2069
338.811	3233
338.898	971
338.984	2101
339.071	1573
339.158	2354
339.245	5550
339.332	3477
339.419	1715
339.506	3071
339.593	672
339.679	1577
339.766	845
339.853	1915
339.940	3936
340.027	1916
340.113	2017
340.200	2976
340.287	676
340.374	2124
340.460	3742
340.547	1411
340.634	3005
340.720	9920
340.807	5108
340.894	1703
340.980	1155
341.067	1334
341.154	2180
341.240	2867
341.327	5192
341.414	3278
341.500	3068
341.587	1811
341.674	1189
341.760	3804
341.847	4128
341.933	2114
342.020	433
342.106	1521
342.193	1537
342.279	3150
342.366	2565
342.452	3676
342.539	1538
342.625	5005
342.712	10266
342.798	5187
342.885	1372
342.971	1385
343.058	844
343.144	599
343.230	897
343.317	1777
343.403	252
343.490	1110
343.576	108
343.662	1887
343.749	1316
343.835	2216
343.921	3144
344.008	16194
344.094	34594
344.180	8898
344.267	3483
344.353	8662
344.439	9721
344.525	5859
344.612	6595
344.698	6036
344.784	3058
344.870	1914
344.957	774
345.043	2354
345.129	1385
345.215	4662
345.301	2618
345.387	2284
345.474	992
345.560	776
345.646	385
345.732	1537
345.818	1374
345.904	1967
345.990	829
346.076	1215
346.162	2482
346.249	1691
346.335	1072
346.421	2501
346.507	3976
346.593	13546
346.679	2970
346.765	1768
346.851	791
346.937	1057
347.023	1170
347.108	1895
347.194	1481
347.280	1446
347.366	995
347.452	4733
347.538	14626
347.624	13750
347.710	10243
347.796	1999
347.882	1197
347.967	1522
348.053	2018
348.139	1849
348.225	790
348.311	828
348.397	930
348.482	1441
348.568	2218
348.654	1191
348.740	1184
348.825	846
348.911	3125
348.997	7585
349.083	14983
349.168	2761
349.254	2147
349.340	2565
349.425	1379
349.511	1894
349.597	1561
349.682	3482
349.768	10582
349.854	5094
349.939	1812
350.025	733
350.110	1971
350.196	1869
350.282	654
350.367	1408
350.453	1425
350.538	1890
350.624	1518
350.709	2905
350.795	431
350.880	996
350.966	1870
351.051	2541
351.137	1395
351.222	1293
351.308	3127
351.393	11102
351.479	3083
351.564	1984
351.649	1165
351.735	656
351.820	821
351.906	1502
351.991	606
352.076	6602
352.162	10614
352.247	2956
352.332	1637
352.418	3989
352.503	4707
352.588	15987
352.673	12404
352.759	2875
352.844	1730
352.929	2593
353.014	2070
353.100	1852
353.185	3113
353.270	3880
353.355	4293
353.441	2174
353.526	796
353.611	3898
353.696	3814
353.781	3898
353.866	595
353.952	1980
354.037	2921
354.122	8419
354.207	7642
354.292	3096
354.377	1342
354.462	1577
354.547	674
354.632	2253
354.717	2986
354.802	3008
354.887	1908
354.972	2183
355.057	821
355.142	1009
355.227	2144
355.312	2516
355.397	4891
355.482	12830
355.567	5975
355.652	5087
355.737	4342
355.822	11529
355.907	9950
355.991	3263
356.076	1369
356.161	1934
356.246	856
356.331	1460
356.416	2447
356.501	17306
356.585	18744
356.670	3841
356.755	4042
356.840	3694
356.924	13048
357.009	42084
357.094	18906
357.179	4386
357.263	3387
357.348	4245
357.433	3464
357.517	3187
357.602	2367
357.687	1801
357.771	3420
357.856	9374
357.941	6671
358.025	11153
358.110	43314
358.195	24314
358.279	4068
358.364	3371
358.448	9715
358.533	25821
358.617	19169
358.702	18823
358.787	7142
358.871	4815
358.956	4605
359.040	2257
359.125	394
359.209	1692
359.294	4017
359.378	8119
359.462	3047
359.547	2302
359.631	1502
359.716	1160
359.800	1561
359.885	3588
359.969	1303
360.053	1996
360.138	1028
360.222	2318
360.306	3426
360.391	4232
360.475	5223
360.559	12789
360.644	10170
360.728	6819
360.812	9039
360.896	26456
360.981	13422
361.065	8838
361.149	3051
361.233	2204
361.318	1178
361.402	1922
361.486	1562
361.570	1004
361.654	1852
361.739	4221
361.823	17200
361.907	28188
361.991	6679
362.075	3560
362.159	6841
362.243	6283
362.327	5356
362.411	7742
362.495	4167
362.580	1949
362.664	1879
362.748	1405
362.832	1962
362.916	3378
363.000	12156
363.084	26219
363.168	32009
363.252	9352
363.336	3677
363.420	5795
363.503	14793
363.587	21354
363.671	4135
363.755	2661
363.839	5041
363.923	2245
364.007	4652
364.091	5447
364.175	4977
364.258	27826
364.342	21289
364.426	25904
364.510	12524
364.594	8047
364.677	7078
364.761	22634
364.845	17330
364.929	8294
365.013	6348
365.096	5209
365.180	4749
365.264	6375
365.347	25454
365.431	12566
365.515	3097
365.598	1915
365.682	2232
365.766	3233
365.849	5784
365.933	2671
366.017	2591
366.100	3087
366.184	901
366.267	2062
366.351	1163
366.435	1171
366.518	161
366.602	1635
366.685	1112
366.769	1437
366.852	3281
366.936	6120
367.019	2492
367.103	2268
367.186	6450
367.270	1690
367.353	-159
367.436	2678
367.520	1419
367.603	2043
367.687	1554
367.770	4952
367.853	2649
367.937	6808
368.020	12141
368.104	2880
368.187	3273
368.270	6653
368.353	5816
368.437	4429
368.520	5726
368.603	5423
368.687	8369
368.770	18387
368.853	5168
368.936	5890
369.020	6467
369.103	2249
369.186	500
369.269	1583
369.352	2850
369.436	4617
369.519	2797
369.602	1122
369.685	2155
369.768	1431
369.851	1446
369.934	722
370.018	1130
370.101	2923
370.184	3951
370.267	2985
370.350	4926
370.433	6832
370.516	12973
370.599	14686
370.682	3226
370.765	12322
370.848	13375
370.931	19868
371.014	9815
371.097	1795
371.180	2250
371.263	1966
371.346	-785
371.429	1263
371.511	901
371.594	2057
371.677	4545
371.760	7124
371.843	4502
371.926	18184
372.009	39572
372.091	17034
372.174	8320
372.257	18330
372.340	7837
372.423	6781
372.505	9773
372.588	3350
372.671	7338
372.754	19623
372.836	10324
372.919	7859
373.002	18489
373.085	5924
373.167	4463
373.250	10014
373.332	19180
373.415	25631
373.498	49905
373.580	22068
373.663	23404
373.746	33596
373.828	9329
373.911	4831
373.993	3889
374.076	15147
374.159	14582
374.241	5978
374.324	17898
374.406	13298
374.489	14662
374.571	40667
374.654	17433
374.736	9038
374.819	24075
374.901	34993
374.983	36531
375.066	8346
375.148	2603
375.231	11397
375.313	25756
375.395	11007
375.478	1504
375.560	1450
375.643	1832
375.725	7188
375.807	28434
375.890	22129
375.972	5854
376.054	5152
376.136	4256
376.219	2777
376.301	8037
376.383	24446
376.465	10226
376.548	6209
376.630	7755
376.712	21733
376.794	9582
376.877	1724
376.959	-191
377.041	1479
377.123	3757
377.205	6673
377.287	592
377.369	1363
377.452	1512
377.534	1059
377.616	823
377.698	662
377.780	239
377.862	1733
377.944	1508
378.026	538
378.108	944
378.190	645
378.272	930
378.354	485
378.436	-96
378.518	2082
378.600	8904
378.682	8172
378.764	12717
378.846	11258
378.928	3088
379.010	5833
379.091	3676
379.173	2643
379.255	570
379.337	2024
379.419	4873
379.501	19689
379.583	7201
379.664	1939
379.746	3673
379.828	16894
379.910	18488
379.991	16954
380.073	2433
380.155	1784
380.237	1068
380.318	1207
380.400	664
380.482	2589
380.564	3856
380.645	4591
380.727	3961
380.809	3869
380.890	1499
380.972	1562
381.053	852
381.135	2737
381.217	3957
381.298	15214
381.380	7064
381.461	6065
381.543	20115
381.624	26704
381.706	4948
381.787	3652
381.869	3888
381.951	10515
382.032	36019
382.113	27969
382.195	5257
382.276	4998
382.358	7440
382.439	20492
382.521	23387
382.602	34184
382.684	16019
382.765	27492
382.846	24758
382.928	25785
383.009	13126
383.090	9425
383.172	32238
383.253	51939
383.334	22254
383.416	29657
383.497	15980
383.578	5700
383.659	8723
383.741	27928
383.822	73918
383.903	40904
383.984	18519
384.066	39616
384.147	24054
384.228	5886
384.309	3680
384.390	3453
384.471	2360
384.553	2898
384.634	3313
384.715	4017
384.796	2165
384.877	2718
384.958	11422
385.039	16356
385.120	6568
385.201	4482
385.282	3020
385.363	4861
385.444	2307
385.525	6195
385.606	16825
385.687	14222
385.768	4900
385.849	5245
385.930	21113
386.011	35088
386.092	11365
386.173	3720
386.254	2551
386.335	3609
386.416	3801
386.496	9902
386.577	14846
386.658	5510
386.739	2982
386.820	4520
386.901	2719
386.981	3427
387.062	2283
387.143	3480
387.224	12298
387.304	14208
387.385	5125
387.466	2538
387.547	5072
387.627	2597
387.708	4914
387.789	23603
387.869	26369
387.950	8568
388.031	2500
388.111	929
388.192	6502
388.273	10386
388.353	5816
388.434	2144
388.514	4287
388.595	19533
388.676	26464
388.756	14310
388.837	13866
388.917	8336
388.998	128
389.078	2548
389.159	384
389.239	195
389.320	2801
389.400	939
389.480	4993
389.561	12800
389.641	7085
389.722	3119
389.802	3664
389.883	6249
389.963	14859
390.043	9545
390.124	2596
390.204	5495
390.284	15804
390.365	10440
390.445	10505
390.525	17588
390.605	14842
390.686	7885
390.766	3337
390.846	2211
390.927	-169
391.007	360
391.087	1766
391.167	1896
391.247	417
391.328	2018
391.408	3455
391.488	3763
391.568	-461
391.648	1509
391.728	3245
391.808	2866
391.888	1766
391.969	7533
392.049	10646
392.129	6639
392.209	5869
392.289	15287
392.369	8147
392.449	9507
392.529	4766
392.609	3272
392.689	3779
392.769	13546
392.849	10996
392.929	9988
393.009	21878
393.089	13009
393.169	8590
393.248	22201
393.328	91690
393.408	104753
393.488	28983
393.568	8800
393.648	4290
393.728	3313
393.807	795
393.887	3374
393.967	2617
394.047	3564
394.127	3341
394.206	8509
394.286	25408
394.366	89268
394.446	102441
394.525	35153
394.605	9771
394.685	7074
394.764	13657
394.844	20924
394.924	14457
395.003	4164
395.083	2664
395.163	2816
395.242	2037
395.322	3155
395.402	128
395.481	3349
395.561	6296
395.640	22903
395.720	18459
395.799	21870
395.879	20178
395.958	13797
396.038	39237
396.117	113752
396.197	129117
396.276	59214
396.356	21146
396.435	13884
396.515	8745
396.594	7110
396.673	9372
396.753	26218
396.832	89511
396.912	76676
396.991	19884
397.070	5660
397.150	2283
397.229	3391
397.308	3480
397.388	8082
397.467	4107
397.546	2141
397.625	-1552
397.705	3453
397.784	1794
397.863	885
397.942	849
398.022	1054
398.101	4677
398.180	19846
398.259	11218
398.338	3913
398.417	1347
398.497	1444
398.576	1540
398.655	-555
398.734	1057
398.813	1518
398.892	4748
398.971	19140
399.050	10087
399.129	546
399.208	427
399.287	1446
399.366	-499
399.445	813
399.524	164
399.603	-4
399.682	1703
399.761	4747
399.840	19647
399.919	17478
399.998	1991
400.077	-671
400.156	-1256
400.235	1825
400.313	-402
400.392	415
400.471	7012
400.550	13505
400.629	2374
400.708	1258
400.786	-118
400.865	5117
400.944	6250
401.023	4206
401.102	286
401.180	841
401.259	439
401.338	520
401.416	1217
401.495	370
401.574	792
401.652	482
401.731	1373
401.810	1149
401.888	-277
401.967	-165
402.046	-492
402.124	1668
402.203	532
402.281	2038
402.360	1608
402.438	8017
402.517	4032
402.596	2154
402.674	513
402.753	765
402.831	472
402.910	1302
402.988	3466
403.066	14775
403.145	8993
403.223	5456
403.302	13989
403.380	11660
403.459	11634
403.537	4334
403.615	1080
403.694	71
403.772	700
403.850	50
403.929	-444
404.007	305
404.085	2379
404.164	2760
404.242	1357
404.320	8767
404.398	25775
404.477	25188
404.555	30991
404.633	31056
404.711	21402
404.789	13280
404.868	2924
404.946	821
405.024	59
405.102	288
405.180	-619
405.258	-734
405.336	455
405.415	-160
405.493	2309
405.571	1981
405.649	-864
405.727	-188
405.805	2374
405.883	913
405.961	1083
406.039	1039
406.117	-808
406.195	1230
406.273	4909
406.351	25346
406.429	16103
406.507	2608
406.585	-329
406.663	206
406.740	1350
406.818	-143
406.896	239
406.974	1808
407.052	134
407.130	13756
407.208	21032
407.285	5405
407.363	-557
407.441	90
407.519	-224
407.596	412
407.674	2544
407.752	10270
407.830	10892
407.907	4360
407.985	353
408.063	1107
408.141	-490
408.218	2268
408.296	1270
408.373	524
408.451	317
408.529	381
408.606	-398
408.684	-813
408.762	-584
408.839	-248
408.917	-835
408.994	440
409.072	-784
409.149	-379
409.227	796
409.304	1158
409.382	873
409.459	1413
409.537	1303
409.614	1783
409.692	844
409.769	778
409.846	1251
409.924	3226
410.001	634
410.079	1633
410.156	2410
410.233	1876
410.311	-151
410.388	481
410.465	726
410.543	-219
410.620	1187
410.697	1209
410.775	197
410.852	-987
410.929	865
411.006	1753
411.083	45
411.161	2144
411.238	3528
411.315	1593
411.392	-956
411.469	974
411.547	1789
411.624	-1061
411.701	-117
411.778	299
411.855	2133
411.932	449
412.009	-415
412.086	674
412.163	61
412.240	883
412.317	1087
412.394	1294
412.471	291
412.548	-73
412.625	-977
412.702	911
412.779	2219
412.856	2790
412.933	-422
413.010	361
413.087	839
413.164	6715
413.241	11437
413.318	1936
413.395	582
413.471	1953
413.548	435
413.625	787
413.702	-407
413.779	1026
413.855	27
413.932	-501
414.009	-1356
414.086	336
414.162	-895
414.239	2089
414.316	7598
414.393	17069
414.469	5013
414.546	504
414.623	-638
414.699	211
414.776	134
414.853	-298
414.929	-101
415.006	-50
415.082	30
415.159	-169
415.236	-74
415.312	296
415.389	1407
415.465	994
415.542	227
415.618	-689
415.695	1243
415.771	-178
415.848	-297
415.924	182
416.000	365
416.077	681
416.153	-1371
416.230	-949
416.306	-196
416.383	-1211
416.459	-269
416.535	-813
416.612	-411
416.688	-451
416.764	-741
416.841	-1063
416.917	-287
416.993	37
417.069	291
417.146	243
417.222	2048
417.298	1033
417.374	-436
417.451	1012
417.527	129
417.603	224
417.679	-456
417.755	767
417.831	-660
417.908	511
417.984	-764
418.060	-325
418.136	1461
418.212	1930
418.288	117
418.364	187
418.440	-1131
418.516	879
418.592	827
418.668	2915
418.744	3953
418.820	4081
418.896	652
418.972	-633
419.048	-282
419.124	2561
419.200	661
419.276	273
419.352	-901
419.428	839
419.504	-197
419.579	362
419.655	-58
419.731	-54
419.807	2493
419.883	4719
419.959	3195
420.034	913
420.110	1292
420.186	9549
420.262	8457
420.337	961
420.413	513
420.489	-29
420.565	642
420.640	-281
420.716	202
420.792	-1086
420.867	1075
420.943	-324
421.019	743
421.094	695
421.170	991
421.245	-270
421.321	70
421.397	294
421.472	1660
421.548	5150
421.623	4930
421.699	1907
421.774	910
421.850	619
421.925	2595
422.001	3072
422.076	2195
422.152	2755
422.227	4842
422.302	6811
422.378	9390
422.453	17513
422.529	40355
422.604	90455
422.679	111816
422.755	94803
422.830	48720
422.905	21762
422.981	11336
423.056	7618
423.131	5155
423.207	3713
423.282	2479
423.357	4980
423.432	3155
423.508	2840
423.583	5117
423.658	4579
423.733	1271
423.808	2543
423.883	1979
423.959	1587
424.034	856
424.109	416
424.184	743
424.259	600
424.334	174
424.409	369
424.484	52
424.559	85
424.634	-546
424.709	477
424.784	392
424.859	346
424.934	128
425.009	6632
425.084	12791
425.159	3468
425.234	390
425.309	-409
425.384	2200
425.459	3565
425.534	785
425.609	105
425.683	-220
425.758	-282
425.833	-177
425.908	899
425.983	2327
426.058	11993
426.132	5057
426.207	432
426.282	1994
426.357	894
426.431	-562
426.506	331
426.581	158
426.655	769
426.730	-180
426.805	-345
426.879	115
426.954	-475
427.029	943
427.103	9910
427.178	22603
427.253	10114
427.327	480
427.402	1436
427.476	5287
427.551	2616
427.625	-264
427.700	929
427.774	-1249
427.849	310
427.923	-584
427.998	-476
428.072	-705
428.147	2528
428.221	7113
428.296	24804
428.370	12626
428.444	1156
428.519	1109
428.593	4370
428.667	3829
428.742	5818
428.816	3919
428.890	15788
428.965	27207
429.039	8110
429.113	5014
429.188	2429
429.262	-657
429.336	1331
429.410	6020
429.485	3195
429.559	3530
429.633	3620
429.707	-188
429.781	2111
429.855	17794
429.930	29514
430.004	14163
430.078	21952
430.152	19190
430.226	29389
430.300	30678
430.374	4046
430.448	1026
430.522	6740
430.596	18590
430.670	12344
430.744	23777
430.818	36183
430.892	6766
430.966	568
431.040	-672
431.114	-759
431.188	-650
431.262	-291
431.336	-614
431.410	1680
431.484	6453
431.557	4797
431.631	-23
431.705	351
431.779	3293
431.853	20155
431.927	14215
432.000	1261
432.074	230
432.148	725
432.222	-3
432.295	233
432.369	-526
432.443	230
432.516	8031
432.590	22882
432.664	7688
432.737	642
432.811	-1149
432.885	-342
432.958	466
433.032	-941
433.106	-791
433.179	-276
433.253	-712
433.326	-269
433.400	-709
433.473	-43
433.547	-1361
433.620	53
433.694	264
433.767	1583
433.841	-701
433.914	-422
433.988	-548
434.061	-470
434.134	-991
434.208	-609
434.281	-961
434.355	-904
434.428	-542
434.501	-189
434.575	-1067
434.648	-245
434.721	-1750
434.795	-483
434.868	-1262
434.941	-553
435.014	-1182
435.088	-534
435.161	-565
435.234	509
435.307	646
435.381	537
435.454	-749
435.527	37
435.600	-270
435.673	336
435.746	-140
435.819	-30
435.892	-950
435.966	-1064
436.039	-1142
436.112	285
436.185	-964
436.258	-1050
436.331	-922
436.404	-729
436.477	-1388
436.550	-200
436.623	-224
436.696	-653
436.769	-383
436.842	-286
436.915	-903
436.987	-239
437.060	-327
437.133	-302
437.206	-876
437.279	636
437.352	-724
437.425	-747
437.498	505
437.570	2557
437.643	1417
437.716	-398
437.789	-577
437.861	695
437.934	3414
438.007	1108
438.080	-573
438.152	59
438.225	402
438.298	10176
438.370	29714
438.443	12577
438.516	3349
438.588	73
438.661	-1148
438.734	28
438.806	-844
438.879	322
438.951	93
439.024	1222
439.096	-1096
439.169	-570
439.241	-1437
439.314	-170
439.386	-759
439.459	371
439.531	1003
439.604	82
439.676	-271
439.749	-532
439.821	-1459
439.893	-438
439.966	-882
440.038	816
440.110	-540
440.183	122
440.255	-460
440.327	466
440.400	4390
440.472	19969
440.544	11470
440.617	1811
440.689	1621
440.761	1504
440.833	2962
440.905	1793
440.978	-460
441.050	-651
441.122	-1238
441.194	224
441.266	-1255
441.338	-582
441.411	272
441.483	6314
441.555	9937
441.627	1088
441.699	149
441.771	409
441.843	-651
441.915	131
441.987	-931
442.059	-432
442.131	303
442.203	1150
442.275	525
442.347	1439
442.419	1384
442.491	8999
442.563	26227
442.635	11144
442.706	6232
442.778	5421
442.850	203
442.922	-369
442.994	-649
443.066	1480
443.137	6
443.209	77
443.281	906
443.353	2313
443.425	11426
443.496	44469
443.568	42457
443.640	14720
443.711	1995
443.783	1256
443.855	562
443.926	819
443.998	41
444.070	1191
444.141	117
444.213	1053
444.285	1202
444.356	-185
444.428	-110
444.499	274
444.571	-617
444.642	286
444.714	-664
444.785	907
444.857	397
444.928	3226
445.000	938
445.071	2762
445.143	2173
445.214	1855
445.285	3069
445.357	10232
445.428	28671
445.500	65005
445.571	39404
445.642	20378
445.714	6815
445.785	6999
445.856	942
445.928	1319
445.999	722
446.070	679
446.141	1479
446.213	1357
446.284	-499
446.355	319
446.426	-1138
446.497	81
446.569	904
446.640	1664
446.711	244
446.782	-546
446.853	-300
446.924	398
446.995	-697
447.066	-147
447.138	607
447.209	422
447.280	-783
447.351	-128
447.422	-655
447.493	-419
447.564	-296
447.635	-142
447.706	-821
447.777	-612
447.847	-495
447.918	-559
447.989	-746
448.060	1031
448.131	1852
448.202	1611
448.273	598
448.344	-37
448.414	61
448.485	-903
448.556	-272
448.627	-1208
448.698	184
448.768	-600
448.839	-923
448.910	980
448.981	578
449.051	-369
449.122	-197
449.193	-1092
449.263	-469
449.334	-267
449.405	62
449.475	1531
449.546	59
449.616	1077
449.687	312
449.758	480
449.828	-340
449.899	-430
449.969	-557
450.040	-1122
450.110	-234
450.181	-352
450.251	-1152
450.322	1
450.392	-224
450.463	85
450.533	-633
450.604	-141
450.674	-776
450.744	-477
450.815	-727
450.885	541
450.955	83
451.026	-219
451.096	-529
451.166	38
451.237	796
451.307	4522
451.377	1318
451.447	-1085
451.518	-1010
451.588	-537
451.658	83
451.728	480
451.799	4191
451.869	5080
451.939	427
452.009	314
452.079	-385
452.149	140
452.219	-226
452.289	5145
452.360	2049
452.430	1182
452.500	-579
452.570	-419
452.640	973
452.710	3988
452.780	5494
452.850	3244
452.920	2807
452.990	514
453.060	-19
453.129	370
453.199	871
453.269	4849
453.339	9466
453.409	14120
453.479	16256
453.549	24890
453.619	27842
453.688	8390
453.758	453
453.828	61
453.898	-456
453.968	103
454.037	-99
454.087	-96
454.107	-116
454.168	-613
454.177	-711
454.247	-437
454.249	-420
454.316	-678
454.330	-387
454.386	650
454.411	1425
454.456	2320
454.492	3515
454.525	4530
454.574	1915
454.595	784
454.655	386
454.665	343
454.734	1035
454.736	1093
454.804	1164
454.817	1982
454.873	4276
454.898	4626
454.943	4952
454.979	2592
455.013	686
455.060	765
455.082	990
455.141	1469
455.152	1485
455.221	5489
455.222	5640
455.291	9225
455.303	9077
455.360	7804
455.384	10221
455.430	12749
455.465	9638
455.499	6898
455.546	6491
455.569	6071
455.627	3378
455.638	2972
455.707	574
455.708	599
455.777	1014
455.789	945
455.846	655
455.869	877
455.916	1247
455.950	928
455.985	488
456.031	376
456.054	299
456.112	703
456.124	761
456.193	167
456.193	140
456.262	775
456.274	928
456.332	1554
456.355	1417
456.401	942
456.436	904
456.470	798
456.516	768
456.540	838
456.597	1011
456.609	1010
456.678	1549
456.678	1529
456.747	858
456.759	746
456.817	474
456.840	687
456.886	906
456.920	635
456.955	393
457.001	1095
457.024	1418
457.082	1187
457.093	1118
457.162	1809
457.163	1829
457.232	1507
457.243	1529
457.301	1381
457.324	1161
457.370	655
457.405	1305
457.439	2147
457.485	1896
457.508	1715
457.566	1962
457.577	2012
457.646	3337
457.647	3359
457.715	4391
457.727	4756
457.784	7557
457.808	8927
457.853	9883
457.889	10825
457.922	9817
457.969	7603
457.991	8313
458.050	10520
458.060	11123
458.129	17769
458.130	17979
458.198	13735
458.211	12376
458.267	6918
458.292	4853
458.336	4206
458.372	3889
458.405	5453
458.453	8734
458.474	11299
458.533	18987
458.543	19605
458.611	26872
458.614	27139
458.680	14382
458.694	11019
458.749	6072
458.775	4732
458.818	3984
458.855	3704
458.887	3554
458.936	3245
458.955	3119
459.016	2617
459.024	2646
459.093	4031
459.097	4055
459.162	3418
459.177	3423
459.230	4140
459.257	4357
459.299	4416
459.338	4890
459.368	5033
459.418	5020
459.437	4683
459.499	3610
459.505	3618
459.574	3678
459.579	3722
459.643	3788
459.659	3526
459.711	3154
459.740	3501
459.780	3739
459.820	3652
459.849	3636
459.900	4177
459.917	4417
459.981	4488
459.986	4433
460.054	4310
460.061	4338
460.123	4947
460.141	5071
460.191	6124
460.222	6786
460.260	7210
460.302	7838
460.328	7440
460.382	6182
460.397	6134
460.462	6353
460.465	6519
460.534	10649
460.543	11220
460.602	29925
460.623	36680
460.671	56935
460.703	73243
460.739	62615
460.783	45366
460.808	35373
460.864	8432
460.876	7293
460.944	4803
460.945	4782
461.013	5471
461.024	5379
461.081	4580
461.104	4582
461.150	4675
461.184	4618
461.218	4573
461.264	4465
461.286	4430
461.345	4376
461.355	4400
461.423	5005
461.425	5006
461.491	4855
461.505	4963
461.559	7652
461.585	8689
461.628	13085
461.665	17551
461.696	18466
461.745	20024
461.764	17065
461.825	6131
461.832	6054
461.901	5097
461.905	5124
461.969	5000
461.985	4816
462.037	4903
462.065	5050
462.105	5447
462.145	5792
462.173	7503
462.225	10839
462.241	11758
462.305	15654
462.310	15231
462.378	8607
462.385	7716
462.446	5593
462.465	5269
462.514	5359
462.545	5321
462.582	5682
462.625	6084
462.650	5884
462.705	5208
462.718	5219
462.785	5672
462.786	5706
462.854	7490
462.865	7733
462.922	8772
462.945	9330
462.990	7380
463.025	5627
463.058	5692
463.104	5707
463.126	5464
463.184	5104
463.194	5268
463.262	5840
463.264	5886
463.330	6196
463.344	6103
463.398	6135
463.424	6302
463.466	6457
463.504	6520
463.533	6500
463.583	6595
463.601	6652
463.663	6253
463.669	6373
463.737	8063
463.743	8215
463.805	12032
463.823	13213
463.873	19025
463.903	22393
463.940	22752
463.982	23403
464.008	19141
464.062	9250
464.076	8685
464.142	5920
464.144	5935
464.211	6767
464.221	6887
464.279	8327
464.301	8789
464.347	9488
464.381	10062
464.414	9558
464.461	8867
464.482	9307
464.540	10550
464.550	10278
464.617	7868
464.620	7778
464.685	9457
464.699	9831
464.753	12335
464.779	13569
464.820	14645
464.859	15590
464.888	14688
464.938	13087
464.956	13315
465.018	13813
465.023	13659
465.091	11560
465.098	11325
465.158	11654
465.177	11754
465.226	11864
465.257	11791
465.293	12024
465.336	12335
465.361	12852
465.416	13912
465.428	14645
465.495	18642
465.496	18731
465.563	27446
465.575	28958
465.631	34441
465.654	36781
465.698	24384
465.734	13739
465.765	13034
465.813	11970
465.833	11689
465.893	10986
465.900	10918
465.968	10063
465.972	9991
466.035	10531
466.052	10608
466.102	11249
466.131	11653
466.170	11132
466.210	10468
466.237	10908
466.290	11807
466.304	11717
466.369	11039
466.372	11092
466.439	12069
466.449	12184
466.506	13062
466.528	13390
466.573	17060
466.607	19691
466.641	27499
466.687	38306
466.708	41373
466.766	49712
466.775	46088
466.842	17920
466.845	16549
466.909	14349
466.925	13809
466.977	13432
467.004	13201
467.044	14388
467.083	15512
467.111	17202
467.163	20287
467.178	20975
467.242	23644
467.245	23547
467.312	20486
467.321	20037
467.379	20859
467.400	21092
467.446	22866
467.480	24065
467.559	20286
467.638	16903
467.717	17102
467.796	17814
467.875	18826
467.955	18293
468.034	24770
468.113	46535
468.192	65094
468.271	22541
468.350	18346
468.429	18602
468.508	18240
468.588	17079
468.667	15745
468.746	16585
468.825	16543
468.904	14964
468.983	17238
469.062	22629
469.141	25654
469.220	15674
469.299	16354
469.378	17250
469.456	21975
469.535	19056
469.614	18079
469.693	17553
469.772	20834
469.851	24539
469.930	19947
470.009	16139
470.088	16141
470.166	15238
470.245	17321
470.324	16579
470.403	16557
470.482	15133
470.560	14834
470.639	16063
470.718	18471
470.797	15496
470.875	17756
470.954	19706
471.033	22015
471.111	13942
471.190	13833
471.269	12294
471.347	14693
471.426	15756
471.505	17626
471.583	19342
471.662	17914
471.740	15025
471.819	15772
471.898	14165
471.976	14850
472.055	14114
472.133	17081
472.212	19670
472.290	18981
472.369	14738
472.447	13808
472.526	13538
472.604	15685
472.683	14291
472.761	15303
472.839	14064
472.918	14633
472.996	13015
473.075	16183
473.153	14735
473.231	14176
473.310	14809
473.388	14872
473.466	14421
473.545	15798
473.623	18663
473.701	18585
473.780	15366
473.858	13626
473.936	16322
474.014	14911
474.093	15061
474.171	20102
474.249	22543
474.327	17291
474.405	12875
474.484	13249
474.562	12619
474.640	12590
474.718	11994
474.796	13559
474.874	12394
474.952	13361
475.030	11366
475.108	12045
475.187	12025
475.265	14543
475.343	17205
475.421	19094
475.499	13206
475.577	14917
475.655	15677
475.733	24365
475.811	36691
475.889	33886
475.966	24280
476.044	14596
476.122	14879
476.200	16880
476.278	14738
476.356	12775
476.434	13649
476.512	14158
476.590	16942
476.667	15731
476.745	11775
476.823	14113
476.901	12262
476.979	13301
477.056	12850
477.134	13279
477.212	13507
477.290	12882
477.367	11047
477.445	12345
477.523	11396
477.601	12665
477.678	11693
477.756	14491
477.834	14215
477.911	11734
477.989	12194
478.066	11960
478.144	12951
478.222	14812
478.299	18311
478.377	18316
478.454	11623
478.532	12169
478.609	12053
478.687	13870
478.764	10869
478.842	12137
478.919	12106
478.997	12118
479.074	10106
479.152	12196
479.229	14224
479.307	11660
479.384	10574
479.461	10633
479.539	10632
479.616	12177
479.694	10781
479.771	12393
479.848	11785
479.926	14420
480.003	15435
480.080	10727
480.157	9979
480.235	9858
480.312	10313
480.389	11673
480.467	15400
480.544	17982
480.621	13192
480.698	12875
480.775	12747
480.853	13752
480.930	11526
481.007	12528
481.084	14070
481.161	18987
481.238	14236
481.315	11685
481.392	11102
481.470	11453
481.547	10980
481.624	11203
481.701	10792
481.778	12358
481.855	12633
481.932	17207
482.009	24230
482.086	17984
482.163	11776
482.240	14911
482.317	20267
482.393	17341
482.470	11527
482.547	11578
482.624	10643
482.701	11595
482.778	11184
482.855	11141
482.932	10380
483.009	10761
483.085	11789
483.162	15487
483.239	14595
483.316	10461
483.393	10137
483.469	10916
483.546	11818
483.623	12603
483.699	10024
483.776	11725
483.853	12857
483.930	17831
484.006	35557
484.083	57971
484.160	41948
484.236	65655
484.313	50848
484.389	38498
484.466	35014
484.543	33892
484.619	32947
484.696	34045
484.772	33980
484.849	34611
484.925	30474
485.002	30894
485.078	31892
485.155	32269
485.231	29687
485.308	28878
485.384	30160
485.461	33021
485.537	41900
485.614	47197
485.690	28912
485.766	26650
485.843	28527
485.919	33262
485.995	32907
486.072	26578
486.148	25457
486.224	25406
486.301	25595
486.377	28545
486.453	28546
486.530	29378
486.606	37469
486.682	42124
486.758	41919
486.835	44423
486.911	37305
486.987	51048
487.063	51295
487.139	60150
487.215	47816
487.292	32413
487.368	29291
487.444	30964
487.520	36294
487.596	38054
487.672	44573
487.748	86579
487.824	125249
487.900	56839
487.976	32145
488.052	29884
488.128	34344
488.204	27875
488.280	25248
488.356	29466
488.432	43551
488.508	59936
488.584	28035
488.660	23849
488.736	22908
488.812	25121
488.888	29412
488.964	34974
489.039	53759
489.115	75916
489.191	48737
489.267	25637
489.343	23705
489.418	21547
489.494	21237
489.570	20024
489.646	22618
489.722	22397
489.797	22047
489.873	27844
489.949	45754
490.024	41480
490.100	20842
490.176	20514
490.251	22709
490.327	25588
490.403	18682
490.478	19550
490.554	17631
490.629	18258
490.705	16668
490.781	19322
490.856	17725
490.932	20844
491.007	19585
491.083	19462
491.158	16956
491.234	21143
491.309	35273
491.385	36656
491.460	18177
491.536	19304
491.611	17345
491.686	18455
491.762	22104
491.837	35436
491.913	52725
491.988	67464
492.063	84254
492.139	30137
492.214	21189
492.289	15476
492.365	14386
492.440	19533
492.515	16881
492.590	17814
492.666	13319
492.741	17701
492.816	22978
492.891	16554
492.967	15527
493.042	14798
493.117	15146
493.192	16061
493.267	22207
493.342	57652
493.418	74720
493.493	20273
493.568	11476
493.643	14062
493.718	15428
493.793	20086
493.868	21915
493.943	16644
494.018	14997
494.093	13482
494.168	13261
494.243	12188
494.318	12272
494.393	12582
494.468	11830
494.543	12189
494.618	12934
494.693	12298
494.768	12740
494.842	12508
494.917	11517
494.992	13994
495.067	11469
495.142	11028
495.217	12912
495.292	12096
495.366	13319
495.441	16778
495.516	20647
495.591	25832
495.665	61255
495.740	135785
495.815	58671
495.890	18405
495.964	13338
496.039	18027
496.114	16536
496.188	19621
496.263	18602
496.338	15056
496.412	16023
496.487	18336
496.561	16467
496.636	19052
496.710	15687
496.785	16685
496.860	18186
496.934	15409
497.009	14803
497.083	15358
497.158	16573
497.232	17079
497.307	18261
497.381	17244
497.455	17691
497.530	21336
497.604	16851
497.679	17238
497.753	22955
497.827	28697
497.902	24579
497.976	28820
498.050	57418
498.125	203778
498.199	202207
498.273	34331
498.348	24017
498.422	21578
498.496	21788
498.570	20790
498.645	16090
498.719	17154
498.793	19404
498.867	28402
498.941	35683
499.016	87561
499.090	230910
499.164	82731
499.238	16199
499.312	14625
499.386	18185
499.460	17782
499.534	13843
499.609	19581
499.683	27285
499.757	24485
499.831	43437
499.905	159399
499.979	147151
500.053	29357
500.127	26723
500.201	20289
500.275	15472
500.349	16210
500.422	17592
500.496	22392
500.570	39713
500.644	93641
500.718	172314
500.792	42712
500.866	16706
500.940	20543
501.013	17450
501.087	18359
501.161	29458
501.235	35420
501.309	61457
501.382	162766
501.456	138166
501.530	34896
501.603	58824
501.677	26144
501.751	12686
501.825	16366
501.898	26869
501.972	70297
502.046	44503
502.119	16626
502.193	33291
502.266	75851
502.340	38082
502.413	35207
502.487	65891
502.561	37715
502.634	15598
502.708	12839
502.781	11247
502.855	11694
502.928	9768
503.002	10378
503.075	9288
503.149	11549
503.222	11246
503.295	12700
503.369	15320
503.442	19106
503.516	48459
503.589	120913
503.662	78907
503.736	28773
503.809	59108
503.882	50760
503.956	76654
504.029	71974
504.102	51132
504.175	64115
504.249	28031
504.322	18604
504.395	16116
504.468	12734
504.542	12133
504.615	9999
504.688	9062
504.761	9443
504.834	12204
504.907	13598
504.980	20183
505.053	13728
505.127	15849
505.200	18965
505.273	15467
505.346	10666
505.419	8495
505.492	10885
505.565	8653
505.638	9256
505.711	9416
505.784	8533
505.857	8071
505.930	10312
506.003	8135
506.076	10967
506.149	11295
506.221	13047
506.294	14230
506.367	28702
506.440	94381
506.513	50348
506.586	14692
506.659	10284
506.731	8685
506.804	10898
506.877	12817
506.950	10869
507.022	9394
507.095	10708
507.168	13219
507.241	9991
507.313	8271
507.386	8798
507.459	10745
507.531	9134
507.604	7382
507.677	9354
507.749	7513
507.822	12174
507.894	20867
507.967	29343
508.040	17052
508.112	15814
508.185	14754
508.257	13013
508.330	19961
508.402	15458
508.475	14045
508.547	14638
508.620	13672
508.692	18933
508.765	14566
508.837	12505
508.909	11003
508.982	12325
509.054	12272
509.127	10929
509.199	11038
509.271	11727
509.344	10181
509.416	11452
509.488	11241
509.560	11990
509.633	11620
509.705	13915
509.777	13529
509.849	16623
509.922	13181
509.994	12726
510.066	13040
510.138	14443
510.210	27206
510.283	24712
510.355	18734
510.427	17589
510.499	15744
510.571	16879
510.643	15687
510.715	22262
510.787	19073
510.859	16473
510.931	16504
511.003	23776
511.076	23124
511.148	14519
511.219	14920
511.291	21294
511.363	22153
511.435	15213
511.507	13110
511.579	13777
511.651	14167
511.723	12792
511.795	12378
511.867	13866
511.939	14147
512.010	20893
512.082	18490
512.154	13267
512.226	13080
512.298	20130
512.369	28800
512.441	22316
512.513	18890
512.585	15523
512.656	16717
512.728	18233
512.800	14908
512.871	15162
512.943	13918
513.015	12845
513.086	14530
513.158	14524
513.230	14006
513.301	16940
513.373	18047
513.444	14147
513.516	12327
513.588	13913
513.659	13804
513.731	15066
513.802	12371
513.874	22736
513.945	32809
514.016	16986
514.088	12606
514.159	14435
514.231	18385
514.302	25011
514.374	19921
514.445	16879
514.516	27353
514.588	21931
514.659	16784
514.730	25478
514.802	19909
514.873	14176
514.944	15899
515.016	16013
515.087	16827
515.158	20592
515.229	26533
515.301	14273
515.372	16496
515.443	12248
515.514	13191
515.585	11903
515.656	12656
515.728	12752
515.799	12333
515.870	13849
515.941	13196
516.012	13416
516.083	17638
516.154	18672
516.225	19343
516.296	18611
516.367	16210
516.438	17082
516.509	19553
516.580	24436
516.651	51911
516.722	156309
516.793	83282
516.864	28684
516.935	25504
517.006	27367
517.077	31262
517.148	61295
517.219	127090
517.289	195617
517.360	110600
517.431	46745
517.502	19140
517.573	18041
517.643	17109
517.714	19436
517.785	19603
517.856	17727
517.926	20526
517.997	21285
518.068	22298
518.138	27804
518.209	32721
518.280	82834
518.350	277136
518.421	112665
518.492	25859
518.562	21191
518.633	22522
518.703	23815
518.774	37187
518.845	70247
518.915	65745
518.986	30667
519.056	24119
519.127	34799
519.197	47304
519.268	103482
519.338	69098
519.408	24630
519.479	25932
519.549	19274
519.620	16377
519.690	13382
519.760	13554
519.831	13834
519.901	13574
519.971	13970
520.042	14945
520.112	14761
520.182	15685
520.253	18554
520.323	13894
520.393	17507
520.463	24808
520.534	15522
520.604	29214
520.674	19006
520.744	17051
520.814	30761
520.885	30535
520.955	36080
521.025	117348
521.095	48774
521.165	15573
521.235	14180
521.305	12496
521.375	13245
521.445	13356
521.515	14724
521.585	17583
521.655	16423
521.725	14583
521.795	14775
521.865	10869
521.935	18700
522.005	15480
522.075	11010
522.145	12805
522.215	13234
522.285	17611
522.355	20275
522.424	32651
522.494	29893
522.564	19283
522.634	28775
522.704	81677
522.774	33304
522.843	13306
522.913	13048
522.983	14112
523.053	12564
523.122	12786
523.192	14737
523.262	36907
523.331	37364
523.401	13290
523.471	10267
523.540	11993
523.610	9201
523.680	10481
523.749	11738
523.819	13269
523.888	13698
523.958	10527
524.027	10752
524.097	12848
524.166	11630
524.236	10294
524.305	12847
524.375	10193
524.444	10643
524.514	12910
524.583	11864
524.653	13856
524.722	14673
524.791	10559
524.861	13252
524.930	9803
524.999	11142
525.069	14467
525.138	12273
525.207	14594
525.277	13079
525.346	11252
525.415	11055
525.484	11653
525.554	12515
525.623	12884
525.692	14035
525.761	13498
525.830	13935
525.900	16045
525.969	21145
526.038	30007
526.107	53075
526.176	142067
526.245	115333
526.314	43893
526.383	79514
526.452	100184
526.522	161525
526.591	161893
526.660	52160
526.729	31262
526.797	35308
526.867	59997
526.935	229933
527.004	361904
527.073	192865
527.142	27587
527.211	16592
527.280	15227
527.349	14261
527.418	10422
527.487	12261
527.555	9514
527.624	10494
527.693	8628
527.762	11162
527.831	9422
527.899	9947
527.968	10251
528.037	8844
528.106	10095
528.174	16364
528.243	13789
528.312	17953
528.380	20615
528.449	10859
528.518	10876
528.586	7618
528.655	9130
528.723	9270
528.792	9184
528.861	8668
528.929	8456
528.998	10848
529.066	11345
529.135	14894
529.203	13365
529.272	15674
529.340	20840
529.409	19871
529.477	16515
529.545	18564
529.614	21580
529.682	23445
529.751	25967
529.819	27056
529.887	27519
529.956	24064
530.024	23049
530.092	21071
530.161	22797
530.229	26550
530.297	23788
530.365	23154
530.434	24724
530.502	24964
530.570	22101
530.638	19522
530.707	19917
530.775	21217
530.843	19598
530.911	21488
530.979	21089
531.047	23454
531.115	23175
531.183	21722
531.252	19405
531.320	20652
531.388	19976
531.456	22279
531.524	21197
531.592	23772
531.660	27225
531.728	23621
531.796	22685
531.864	22695
531.932	23448
532.000	23044
532.067	25751
532.135	26000
532.203	27955
532.271	29504
532.339	34458
532.407	49043
532.475	37194
532.542	29760
532.610	32039
532.678	36013
532.746	77701
532.814	175959
532.881	60602
532.949	30070
533.017	25973
533.084	23340
533.152	23538
533.220	23528
533.287	25497
533.355	25518
533.423	24355
533.490	24335
533.558	24452
533.625	24516
533.693	24151
533.761	24525
533.828	24252
533.896	23508
533.963	32202
534.031	36410
534.098	42378
534.166	29183
534.233	23767
534.300	25282
534.368	24199
534.435	22207
534.503	22106
534.570	23374
534.637	22792
534.705	24999
534.772	25167
534.840	29830
534.907	73149
534.974	89246
535.041	25826
535.109	20689
535.176	17786
535.243	19355
535.310	18942
535.378	18861
535.445	17539
535.512	17072
535.579	17064
535.646	16323
535.714	17061
535.781	20082
535.848	19820
535.915	22362
535.982	22620
536.049	21789
536.116	20579
536.183	17633
536.250	17793
536.317	17684
536.384	18026
536.451	18903
536.518	19214
536.585	17968
536.652	20218
536.719	22471
536.786	18229
536.853	17959
536.920	21416
536.987	26424
537.053	27835
537.120	88892
537.187	80921
537.254	18000
537.321	14801
537.388	15867
537.454	12994
537.521	14031
537.588	13047
537.654	16155
537.721	16222
537.788	17535
537.855	14029
537.921	14700
537.988	15156
538.055	15586
538.121	12863
538.188	13777
538.254	16429
538.321	22097
538.388	17495
538.454	14271
538.521	14090
538.587	13362
538.654	13127
538.720	13207
538.787	13629
538.853	13396
538.920	14900
538.986	15628
539.053	13332
539.119	14403
539.185	12831
539.252	15180
539.318	18058
539.385	18932
539.451	17201
539.517	18883
539.583	19453
539.650	31479
539.716	74611
539.782	25184
539.849	13088
539.915	15270
539.981	13573
540.047	14539
540.114	14918
540.180	15923
540.246	13649
540.312	17171
540.378	20833
540.444	24593
540.510	29652
540.576	79003
540.643	30093
540.709	13882
540.775	13435
540.841	13795
540.907	16123
540.973	21159
541.039	18217
541.105	18074
541.171	14072
541.237	13737
541.303	14581
541.369	16277
541.435	14981
541.500	20123
541.566	14466
541.632	13346
541.698	12338
541.764	14223
541.830	12950
541.896	11790
541.961	13999
542.027	12646
542.093	12730
542.159	14018
542.224	13746
542.290	17820
542.356	20339
542.421	22356
542.487	16282
542.553	14401
542.618	15563
542.684	14648
542.750	14437
542.815	17255
542.881	22066
542.947	68818
543.012	52883
543.078	14943
543.143	13517
543.209	14625
543.274	14644
543.340	17018
543.405	29344
543.471	45754
543.536	15850
543.602	14081
543.667	11342
543.732	14426
543.798	11711
543.863	14212
543.928	12028
543.994	11998
544.059	12653
544.124	13136
544.190	12978
544.255	15046
544.320	13566
544.386	14535
544.451	16402
544.516	18869
544.581	18177
544.646	42876
544.712	68851
544.777	21233
544.842	15059
544.907	17650
544.972	16046
545.037	15905
545.102	16876
545.168	15696
545.233	16532
545.298	18192
545.363	18822
545.428	19823
545.493	29387
545.558	57144
545.623	28470
545.688	16769
545.753	15848
545.818	15657
545.883	17178
545.947	16831
546.012	17860
546.077	18034
546.142	16628
546.207	17034
546.272	18765
546.337	18571
546.401	17979
546.466	18600
546.531	16866
546.596	19958
546.661	19735
546.725	20172
546.790	17334
546.855	18987
546.919	18041
546.984	20626
547.049	21013
547.113	23492
547.178	22636
547.243	26081
547.307	27407
547.372	30527
547.436	30603
547.501	29216
547.565	30333
547.630	31656
547.695	29157
547.759	31391
547.823	29949
547.888	29429
547.952	29085
548.017	30667
548.081	34403
548.146	34942
548.210	33290
548.274	32492
548.339	30881
548.403	29924
548.468	28822
548.532	29059
548.596	29998
548.660	28926
548.725	31265
548.789	34159
548.853	34866
548.917	32013
548.982	33684
549.046	33841
549.110	28407
549.174	28844
549.238	29183
549.303	31364
549.367	34648
549.431	32454
549.495	31204
549.559	31379
549.623	34245
549.687	39333
549.751	44783
549.815	43878
549.879	42956
549.943	40042
550.007	44362
550.071	43720
550.135	46070
550.199	41179
550.263	40004
550.327	40008
550.391	43221
550.455	43569
550.519	43996
550.582	46326
550.646	55466
550.710	58093
550.774	49328
550.838	50315
550.901	51790
550.965	55099
551.029	56875
551.093	61333
551.156	66248
551.220	81491
551.284	86715
551.347	66243
551.411	78670
551.475	80372
551.538	58050
551.602	54125
551.666	51892
551.729	50218
551.793	50454
551.856	51399
551.920	51738
551.983	50727
552.047	49763
552.110	50741
552.174	50040
552.237	51053
552.301	49871
552.364	48095
552.428	47612
552.491	49131
552.554	50137
552.618	49420
552.681	50720
552.745	50221
552.808	52211
552.871	53549
552.934	51773
552.998	50853
553.061	50552
553.124	52154
553.187	52109
553.251	54271
553.314	57660
553.377	58653
553.440	69038
553.503	122891
553.567	179995
553.630	72016
553.693	59330
553.756	60677
553.819	58605
553.882	58950
553.945	58622
554.008	59348
554.071	57777
554.134	59696
554.197	58373
554.260	58301
554.323	60064
554.386	59928
554.449	59849
554.512	59321
554.575	56496
554.638	56855
554.701	57298
554.764	58836
554.827	56677
554.889	54657
554.952	52676
555.015	52540
555.078	51217
555.141	53164
555.203	50441
555.266	50888
555.329	51651
555.391	49393
555.454	50377
555.517	46954
555.580	45001
555.642	44468
555.705	43510
555.768	42945
555.830	42594
555.893	41537
555.955	39912
556.018	39520
556.080	39513
556.143	40158
556.206	38994
556.268	38645
556.330	38928
556.393	38191
556.455	35960
556.518	38026
556.580	39837
556.643	34199
556.705	33299
556.767	33554
556.830	33835
556.892	34585
556.955	35182
557.017	33801
557.079	30790
557.142	30582
557.204	30528
557.266	37273
557.328	34295
557.391	29132
557.453	26670
557.515	26740
557.577	27762
557.639	28084
557.701	26582
557.764	25785
557.826	26341
557.888	27078
557.950	26980
558.012	27947
558.074	32195
558.136	52095
558.198	105282
558.260	47304
558.322	27120
558.384	28770
558.446	30025
558.508	33340
558.570	37199
558.632	47017
558.694	58523
558.756	69774
558.818	163655
558.880	371845
558.942	133844
559.003	110390
559.065	60392
559.127	32383
559.189	31891
559.251	36272
559.312	45333
559.374	87650
559.436	253741
559.498	133331
559.559	35865
559.621	33163
559.683	37297
559.744	53130
559.806	130317
559.868	187478
559.929	49185
559.991	35222
560.052	44625
560.114	100489
560.176	67730
560.237	62372
560.299	91764
560.360	31489
560.422	22501
560.483	20901
560.545	19807
560.606	19554
560.667	19602
560.729	18507
560.790	18929
560.852	18504
560.913	18673
560.974	18562
561.036	18678
561.097	19133
561.158	18254
561.220	19113
561.281	18197
561.342	18733
561.403	20503
561.465	22076
561.526	30842
561.587	39355
561.648	20875
561.709	18849
561.771	18505
561.832	18493
561.893	18554
561.954	19073
562.015	18965
562.076	18048
562.137	19149
562.198	18686
562.259	18308
562.320	18677
562.381	19814
562.442	21460
562.503	20020
562.564	18991
562.625	17866
562.686	19595
562.747	18882
562.808	19583
562.869	18395
562.930	22034
562.991	21243
563.051	19881
563.112	17672
563.173	18512
563.234	17967
563.294	17444
563.355	18338
563.416	18198
563.477	17370
563.537	17853
563.598	18114
563.659	18524
563.720	17646
563.780	18934
563.841	18281
563.901	18361
563.962	18576
564.023	17395
564.083	18295
564.144	17439
564.204	17904
564.265	17120
564.325	18510
564.386	24520
564.446	23986
564.507	17717
564.567	16840
564.628	18062
564.688	18122
564.749	18873
564.809	18574
564.869	21055
564.930	17580
564.990	17298
565.050	17239
565.111	18202
565.171	15761
565.231	17873
565.292	18314
565.352	16908
565.412	17480
565.472	18695
565.532	17841
565.593	17339
565.653	16595
565.713	17314
565.773	17566
565.833	18877
565.893	20388
565.953	17674
566.013	17393
566.074	18503
566.134	18908
566.194	23887
566.254	24799
566.314	21666
566.374	17484
566.434	17806
566.494	17469
566.554	18272
566.614	18592
566.673	18887
566.733	18019
566.793	18963
566.853	19133
566.913	18215
566.973	19734
567.033	20303
567.092	19571
567.152	19358
567.212	19090
567.272	19270
567.331	18880
567.391	19051
567.451	19870
567.511	21340
567.570	22260
567.630	18670
567.690	17841
567.749	18689
567.809	18477
567.868	20110
567.928	18984
567.988	21264
568.047	21037
568.107	21535
568.166	24780
568.226	28070
568.285	33959
568.345	31436
568.404	29056
568.464	26866
568.523	25247
568.582	25719
568.642	26422
568.701	29759
568.761	35834
568.820	46694
568.879	48515
568.939	42296
568.998	33521
569.057	28507
569.116	25135
569.176	22547
569.235	20297
569.294	21047
569.353	19019
569.413	19977
569.472	18080
569.531	17871
569.590	17906
569.649	18224
569.708	16216
569.767	17763
569.827	19181
569.886	18083
569.945	16744
570.004	17792
570.063	16845
570.122	17280
570.181	18376
570.240	18372
570.299	18031
570.358	18888
570.417	17093
570.475	16476
570.534	16098
570.593	16160
570.652	17056
570.711	17224
570.770	16347
570.829	16604
570.887	16079
570.946	16776
571.005	16079
571.064	16777
571.122	16129
571.181	16695
571.240	15725
571.299	15823
571.357	15126
571.416	17192
571.475	16356
571.533	17285
571.592	16709
571.650	16216
571.709	15039
571.768	15579
571.826	16012
571.885	16175
571.943	14854
572.002	15638
572.060	15741
572.119	15488
572.177	14603
572.236	15435
572.294	14465
572.352	15594
572.411	15269
572.469	15896
572.528	15178
572.586	16102
572.644	15285
572.703	17793
572.761	15407
572.819	15731
572.877	15437
572.936	14672
572.994	14744
573.052	14544
573.110	13988
573.169	14318
573.227	13693
573.285	14092
573.343	12934
573.401	15314
573.459	13449
573.517	13688
573.576	14015
573.634	14125
573.692	14708
573.750	14333
573.808	13360
573.866	14281
573.924	15621
573.982	15689
574.040	13613
574.098	14178
574.155	13792
574.213	13939
574.271	13447
574.329	14681
574.387	13280
574.445	13088
574.503	12285
574.560	12572
574.618	12832
574.676	13041
574.734	13307
574.792	12690
574.849	12253
574.907	12284
574.965	11868
575.022	12988
575.080	11731
575.138	12783
575.195	13042
575.253	12913
575.311	12046
575.368	12735
575.426	11653
575.483	12014
575.541	11653
575.598	11663
575.656	11627
575.713	12373
575.771	11708
575.828	13312
575.886	11440
575.943	13162
576.001	12573
576.058	12882
576.115	11852
576.173	13141
576.230	13632
576.287	14455
576.345	13395
576.402	13197
576.459	12434
576.517	13094
576.574	13943
576.631	13273
576.688	11860
576.746	12536
576.803	12678
576.860	11826
576.917	11967
576.974	12282
577.031	12563
577.089	12985
577.146	12651
577.203	13124
577.260	12205
577.317	13242
577.374	12900
577.431	12762
577.488	12382
577.545	12875
577.602	13056
577.659	13075
577.716	13663
577.773	14615
577.830	12986
577.886	12337
577.943	12644
578.000	12911
578.057	13139
578.114	14056
578.171	15603
578.227	19858
578.284	18779
578.341	16044
578.398	13669
578.454	14583
578.511	13796
578.568	15509
578.625	12766
578.681	13191
578.738	11616
578.794	13141
578.851	13744
578.908	14903
578.964	14540
579.021	16045
579.077	14281
579.134	14212
579.190	12635
579.247	12983
579.303	12946
579.360	13484
579.416	12712
579.473	13633
579.529	12787
579.586	13609
579.642	12543
579.698	13542
579.755	12960
579.811	14036
579.867	14005
579.924	13925
579.980	14483
580.036	17179
580.093	19757
580.149	25883
580.205	28125
580.261	22791
580.317	18604
580.374	16412
580.430	16136
580.486	16788
580.542	13506
580.598	14461
580.619	14739
580.654	15239
580.692	14168
580.710	13665
580.765	14362
580.767	14400
580.823	15519
580.838	15364
580.879	15019
580.911	14818
580.935	14694
580.984	13553
580.991	13415
581.047	15728
581.057	15690
581.103	15604
581.130	15896
581.159	16239
581.203	16821
581.215	16988
581.270	17593
581.276	17435
581.326	15997
581.349	15672
581.382	15284
581.422	15547
581.438	15661
581.494	15205
581.494	15191
581.550	14833
581.567	14920
581.606	15134
581.640	14877
581.661	14726
581.713	15652
581.717	15738
581.773	14596
581.786	14836
581.829	15726
581.859	15599
581.885	15478
581.932	15810
581.940	15882
581.996	16174
582.004	16182
582.052	16259
582.077	16025
582.107	15766
582.150	15951
582.163	16029
582.219	16149
582.223	16215
582.274	17062
582.296	16837
582.330	16476
582.368	17012
582.386	17329
582.441	17488
582.441	17492
582.497	16380
582.514	16461
582.552	16952
582.587	17590
582.608	17859
582.659	17479
582.663	17457
582.719	17453
582.732	17313
582.774	16979
582.805	17312
582.830	17641
582.877	17918
582.885	17944
582.941	18773
582.950	18813
582.996	19145
583.023	20126
583.052	21301
583.095	22206
583.107	22455
583.162	24370
583.168	24368
583.218	24034
583.240	23520
583.273	22561
583.313	20299
583.328	19531
583.384	19755
583.385	19704
583.439	17859
583.458	17422
583.494	16910
583.531	16074
583.549	15627
583.603	16909
583.605	16949
583.660	16869
583.676	16959
583.715	17240
583.748	17512
583.770	17673
583.820	16417
583.825	16294
583.881	16078
583.893	16205
583.936	16536
583.965	16118
583.991	15721
584.038	15877
584.046	15968
584.101	16579
584.110	16615
584.156	16436
584.183	16733
584.211	17203
584.255	17154
584.266	17128
584.321	16976
584.328	17006
584.376	17144
584.400	17412
584.431	17901
584.472	17600
584.486	17377
584.541	16903
584.545	16959
584.596	17970
584.617	17986
584.651	18293
584.689	18791
584.706	18885
584.761	19148
584.762	19140
584.816	17742
584.834	18096
584.871	19121
584.906	19166
584.926	19030
584.978	18505
584.980	18487
585.035	19916
585.051	19817
585.090	19724
585.123	20305
585.145	20577
585.195	20199
585.200	20205
585.254	21617
585.267	21957
585.309	23070
585.340	23695
585.364	23957
585.412	24358
585.419	24400
585.473	25964
585.484	26125
585.528	27882
585.556	31143
585.583	35739
585.628	46004
585.637	49651
585.692	85910
585.700	92975
585.747	123768
585.772	107974
585.801	75702
585.845	38759
585.856	33134
585.910	26337
585.917	25673
585.965	23629
585.989	23086
586.019	22622
586.061	22406
586.074	22514
586.128	22823
586.133	22866
586.183	22815
586.205	22823
586.237	22813
586.277	22484
586.292	22396
586.346	21685
586.349	21735
586.401	22809
586.421	22723
586.455	22413
586.493	22880
586.509	23582
586.564	25739
586.565	25865
586.618	33052
586.637	33740
586.672	30867
586.709	26276
586.727	24899
586.781	25056
586.781	25058
586.835	24198
586.853	24036
586.889	23867
586.925	23779
586.944	23665
586.996	23926
586.998	23955
587.052	24153
587.068	24563
587.106	25538
587.140	25619
587.161	25436
587.212	25623
587.215	25669
587.269	26719
587.284	26950
587.323	27079
587.356	27516
587.377	28042
587.427	28611
587.431	28651
587.485	29497
587.499	29622
587.539	30128
587.571	30867
587.593	31463
587.643	32732
587.648	32837
587.702	33138
587.715	33497
587.755	34862
587.786	35811
587.810	36485
587.858	37423
587.864	37624
587.917	40558
587.930	41051
587.971	43013
588.001	44769
588.025	46171
588.073	48680
588.079	49133
588.133	53733
588.145	54785
588.187	58707
588.217	61690
588.241	65019
588.288	71976
588.295	73006
588.348	82546
588.360	84660
588.402	93851
588.431	100788
588.456	107920
588.503	122844
588.510	125576
588.564	149336
588.575	154925
588.617	183065
588.646	204125
588.671	231068
588.718	288524
588.725	301759
588.778	412221
588.789	437467
588.832	558767
588.861	640928
588.886	671721
588.932	687314
588.939	680530
588.993	588949
589.004	587208
589.047	668768
589.075	691643
589.100	629207
589.147	482434
589.154	465768
589.207	351620
589.218	331000
589.261	299908
589.290	284161
589.314	291370
589.361	312661
589.368	322361
589.421	412236
589.433	433785
589.475	544910
589.504	620128
589.528	632391
589.576	610321
589.582	607989
589.635	614948
589.647	607635
589.689	481513
589.718	384340
589.742	323337
589.790	215306
589.795	208995
589.849	158427
589.861	147748
589.902	128950
589.932	114950
589.955	106288
590.004	89348
590.009	88326
590.062	77573
590.075	75133
590.115	69187
590.146	64431
590.168	62332
590.218	58085
590.222	57884
590.275	55073
590.289	54220
590.328	51490
590.360	49355
590.381	48405
590.431	46446
590.435	46398
590.488	44566
590.503	44223
590.541	42935
590.574	41523
590.594	40912
590.645	39649
590.647	39627
590.700	38094
590.716	37711
590.753	37393
590.787	37053
590.806	36758
590.859	35648
590.859	35657
590.912	34978
590.930	34811
590.965	34843
591.001	34749
591.018	34695
591.071	34278
591.072	34249
591.124	33782
591.143	33549
591.177	33434
591.214	33273
591.230	33413
591.283	34086
591.285	34076
591.336	33322
591.356	33124
591.389	32719
591.427	32035
591.442	31879
591.495	31403
591.498	31334
591.547	30516
591.569	30237
591.600	29783
591.640	28956
591.653	29225
591.706	30550
591.711	30657
591.759	30909
591.782	31009
591.811	31250
591.853	31673
591.864	31623
591.917	31115
591.924	31001
591.969	30590
591.995	30462
592.022	30267
592.066	29809
592.075	30065
592.127	31530
592.137	31800
592.180	33007
592.208	33719
592.233	32486
592.279	30015
592.285	30028
592.338	30071
592.350	30061
592.390	29147
592.421	28436
592.443	28640
592.491	29047
592.495	29078
592.548	29323
592.562	29377
592.600	29304
592.633	29217
592.653	28999
592.704	28245
592.705	28426
592.775	29480
592.846	28495
592.916	28900
592.987	28442
593.058	28800
593.128	28028
593.199	28641
593.270	27239
593.341	28379
593.411	27433
593.482	27882
593.553	29632
593.623	28394
593.694	28631
593.764	29354
593.835	28205
593.906	28387
593.976	28103
594.047	28526
594.117	30260
594.188	31008
594.258	28229
594.329	28269
594.399	28689
594.470	28695
594.540	28818
594.611	29210
594.681	28686
594.751	28750
594.822	29355
594.892	29604
594.963	30842
595.033	31230
595.103	30403
595.174	32424
595.244	35461
595.314	38881
595.384	31813
595.455	31163
595.525	31687
595.595	32224
595.665	32697
595.736	31648
595.806	34041
595.876	32716
595.946	32343
596.016	32175
596.087	33571
596.157	32260
596.227	34469
596.297	35081
596.367	36383
596.437	37299
596.507	40186
596.577	41998
596.647	38455
596.717	36917
596.787	37233
596.857	37407
596.927	38497
596.997	38695
597.067	39798
597.137	43398
597.207	43442
597.277	41922
597.347	39897
597.417	40358
597.487	40407
597.557	41425
597.626	40755
597.696	41610
597.766	42642
597.836	44457
597.906	40203
597.975	39325
598.045	38961
598.115	40400
598.185	41274
598.254	45142
598.324	45781
598.394	45495
598.464	45902
598.533	44287
598.603	44325
598.672	44688
598.742	46087
598.812	46131
598.881	45445
598.951	46339
599.020	45567
599.090	46319
599.159	48151
599.229	47110
599.299	47535
599.368	49105
599.437	48667
599.507	47138
599.576	48120
599.646	49522
599.715	51233
599.785	47912
599.854	48255
599.924	49460
599.993	49116
600.062	49187
600.132	50002
600.201	51379
600.270	56046
600.340	58045
600.409	57361
600.478	58211
600.547	58466
600.617	58189
600.686	55244
600.755	53946
600.824	54100
600.894	54199
600.963	56265
601.032	55468
601.101	55305
601.170	56364
601.239	57027
601.308	59459
601.378	60127
601.447	59862
601.516	61270
601.585	62393
601.654	64312
601.723	65036
601.792	67049
601.861	70326
601.930	75038
601.999	75738
602.068	73433
602.137	73947
602.206	73889
602.275	74585
602.343	75049
602.412	75806
602.481	75927
602.550	75273
602.619	76098
602.688	76714
602.756	77663
602.825	77481
602.894	79767
602.963	77812
603.032	79321
603.100	80323
603.169	77730
603.238	80783
603.307	76966
603.375	77245
603.444	82460
603.513	75452
603.581	77153
603.650	82304
603.719	68487
603.787	64953
603.856	66040
603.924	66242
603.993	68364
604.061	69099
604.130	71628
604.198	73516
604.267	73724
604.335	74346
604.404	74717
604.472	76868
604.541	75382
604.609	79337
604.678	81106
604.746	82371
604.815	86951
604.883	81832
604.951	79447
605.020	82245
605.088	76514
605.156	71077
605.225	71649
605.293	70927
605.361	72500
605.429	70514
605.498	72835
605.566	70836
605.634	74104
605.702	73961
605.771	73733
605.839	77019
605.907	71181
605.975	74837
606.043	70450
606.111	68971
606.180	77700
606.248	72154
606.316	72676
606.384	74267
606.452	60746
606.520	49843
606.588	47970
606.656	47509
606.724	47366
606.792	44860
606.860	42507
606.928	40262
606.996	39664
607.064	38023
607.132	39972
607.200	40759
607.267	41761
607.335	41226
607.403	43746
607.471	42071
607.539	40413
607.607	41147
607.674	38075
607.742	38931
607.810	36727
607.878	38158
607.946	38336
608.013	39668
608.081	40273
608.149	39798
608.216	39643
608.284	41095
608.352	40318
608.419	40525
608.487	44276
608.555	39415
608.622	39940
608.690	40562
608.757	43338
608.825	44971
608.893	43025
608.960	43249
609.028	43465
609.095	43398
609.163	41226
609.230	38165
609.298	36002
609.365	36470
609.432	39411
609.500	41038
609.567	45215
609.635	50439
609.702	53433
609.769	52217
609.837	44154
609.904	40129
609.971	40991
610.039	46680
610.106	58437
610.173	102295
610.241	223105
610.308	206742
610.375	110377
610.442	53572
610.509	43972
610.577	41792
610.644	41059
610.711	41903
610.778	42522
610.845	43111
610.912	45664
610.980	48549
611.047	54625
611.114	49539
611.181	43539
611.248	42725
611.315	47103
611.382	46183
611.449	47830
611.516	49401
611.583	46976
611.650	47855
611.717	49163
611.784	50256
611.851	51872
611.918	56058
611.984	61518
612.051	86006
612.118	157751
612.185	356752
612.252	255032
612.319	79143
612.386	62003
612.452	56744
612.519	54832
612.586	57712
612.653	54974
612.719	54765
612.786	53652
612.853	50223
612.919	50243
612.986	51391
613.053	47963
613.120	47638
613.186	47008
613.253	48211
613.319	46953
613.386	46608
613.453	47384
613.519	50065
613.586	49881
613.652	55085
613.719	51140
613.785	50655
613.852	49553
613.918	48239
613.985	50477
614.051	53082
614.118	63362
614.184	61386
614.250	49060
614.317	49388
614.383	47182
614.449	49292
614.516	48964
614.582	50912
614.648	49367
614.715	48445
614.781	49175
614.847	50489
614.914	49259
614.980	47921
615.046	47689
615.112	48648
615.179	49557
615.245	49655
615.311	50724
615.377	55312
615.443	56296
615.509	52398
615.575	52513
615.642	51710
615.708	53548
615.774	57449
615.840	59878
615.906	64643
615.972	77014
616.038	111783
616.104	202797
616.170	425134
616.236	392913
616.302	118575
616.368	84804
616.434	67499
616.500	64542
616.565	65990
616.631	74008
616.697	68323
616.763	67878
616.829	86184
616.895	130915
616.961	132147
617.026	74911
617.092	58417
617.158	57072
617.224	54791
617.289	53852
617.355	53378
617.421	52655
617.487	53014
617.552	51642
617.618	49133
617.684	50494
617.749	52575
617.815	50460
617.880	49041
617.946	50277
618.012	50513
618.077	52177
618.143	50908
618.208	50804
618.274	54113
618.339	54152
618.405	48082
618.470	49099
618.536	48935
618.601	50915
618.667	49413
618.732	47681
618.798	48925
618.863	47898
618.928	46377
618.994	49386
619.059	48603
619.124	52842
619.190	49330
619.255	47769
619.320	48204
619.386	46484
619.451	46388
619.516	47342
619.581	48404
619.647	49719
619.712	49479
619.777	48336
619.842	48827
619.907	50602
619.972	49532
620.038	49299
620.103	47675
620.168	47092
620.233	48821
620.298	49853
620.363	48039
620.428	50259
620.493	49418
620.558	50679
620.623	49779
620.688	51124
620.753	50255
620.818	50794
620.883	51554
620.948	51874
621.013	51845
621.078	50907
621.143	49938
621.207	52432
621.272	51281
621.337	52787
621.402	53161
621.467	55588
621.532	55370
621.596	54452
621.661	53959
621.726	51938
621.791	53024
621.855	53358
621.920	53968
621.985	53844
622.049	54645
622.114	54150
622.179	54377
622.243	55879
622.308	55679
622.373	57653
622.437	56746
622.502	53947
622.566	53293
622.631	52979
622.695	55715
622.760	56171
622.824	55084
622.889	54887
622.953	55810
623.018	61985
623.082	60686
623.147	55004
623.211	54971
623.276	55495
623.340	52955
623.404	53376
623.469	53320
623.533	53718
623.597	52170
623.662	52542
623.726	50900
623.790	49116
623.854	48420
623.919	50172
623.983	50207
624.047	49879
624.111	50761
624.176	48818
624.240	52298
624.304	54334
624.368	49078
624.432	50685
624.496	50328
624.560	50946
624.625	50719
624.689	50711
624.753	50578
624.817	49247
624.881	48162
624.945	47391
625.009	45975
625.073	47778
625.137	46933
625.201	49438
625.265	50397
625.329	47476
625.393	47042
625.456	45359
625.520	47128
625.584	47061
625.648	48610
625.712	53983
625.776	74755
625.839	77227
625.903	49895
625.967	41308
626.031	50659
626.095	58355
626.158	43795
626.222	36464
626.286	36060
626.349	35747
626.413	34923
626.477	34762
626.540	34141
626.604	33627
626.668	33160
626.731	33173
626.795	33651
626.858	32792
626.922	30911
626.986	31767
627.049	30310
627.113	32493
627.176	30659
627.240	30645
627.303	29431
627.366	30259
627.430	29807
627.493	30208
627.557	29078
627.620	29949
627.684	28702
627.747	28250
627.810	26674
627.874	26766
627.937	24411
628.000	27668
628.064	25867
628.127	24052
628.190	24707
628.253	24054
628.317	23519
628.380	23294
628.443	22471
628.506	23248
628.569	22633
628.632	21681
628.696	21815
628.759	21740
628.822	20115
628.885	19747
628.948	21044
629.011	20446
629.074	19995
629.137	19254
629.200	19972
629.263	20654
629.326	17962
629.389	19992
629.452	19364
629.515	19903
629.578	18874
629.641	19607
629.704	18924
629.767	20053
629.830	19314
629.892	17059
629.955	17340
630.018	18712
630.081	17662
630.144	19605
630.207	17707
630.269	19226
630.332	17785
630.395	17853
630.458	15871
630.520	15310
630.583	17517
630.646	16735
630.708	15405
630.771	15580
630.834	16621
630.896	15765
630.959	16485
631.021	15051
631.084	15286
631.146	16419
631.209	16774
631.272	15333
631.334	15784
631.397	15060
631.459	15228
631.522	15593
631.584	16472
631.646	15504
631.709	15489
631.771	17922
631.834	15658
631.896	15691
631.958	14791
632.021	15724
632.083	14202
632.145	15825
632.208	14601
632.270	15388
632.332	14106
632.395	13216
632.457	14920
632.519	13772
632.581	15214
632.643	13319
632.706	15024
632.768	13570
632.830	13936
632.892	14093
632.954	13919
633.016	15240
633.078	12803
633.141	14168
633.203	13743
633.265	13608
633.327	14044
633.389	13724
633.451	14730
633.513	15932
633.575	14738
633.637	13988
633.698	14118
633.760	15149
633.822	14119
633.884	13594
633.946	14261
634.008	13943
634.070	15081
634.132	16892
634.193	14962
634.255	14119
634.317	13786
634.379	15430
634.441	13569
634.502	13589
634.564	13678
634.626	13447
634.687	11897
634.749	13427
634.811	13163
634.873	12802
634.934	12945
634.996	13940
635.057	12565
635.119	12623
635.181	13124
635.242	12764
635.304	11533
635.365	13988
635.427	12250
635.488	13315
635.550	12086
635.611	12332
635.673	10975
635.734	15004
635.796	13385
635.857	14827
635.918	13065
635.980	15946
636.041	13489
636.102	13801
636.164	14467
636.225	15281
636.286	12607
636.348	13411
636.409	12806
636.470	11844
636.531	12729
636.593	12619
636.654	13727
636.715	12168
636.776	12641
636.838	11244
636.899	12987
636.960	13286
637.021	12317
637.082	10924
637.143	11714
637.204	11110
637.265	10904
637.326	12325
637.387	12099
637.448	11024
637.509	12244
637.570	11768
637.631	11849
637.692	10736
637.753	11672
637.814	12115
637.875	11217
637.936	13237
637.997	11402
638.058	11563
638.119	12835
638.179	11325
638.240	11354
638.301	11825
638.362	11010
638.423	11307
638.483	12393
638.544	10299
638.605	11597
638.666	10453
638.726	10844
638.787	12764
638.848	10862
638.908	12515
638.969	11636
639.030	11596
639.090	9913
639.151	11344
639.211	11806
639.272	12777
639.332	15042
639.393	12770
639.453	9935
639.514	11255
639.574	10618
639.635	10442
639.695	11874
639.756	10893
639.816	11307
639.877	11157
639.937	13933
639.997	15370
640.058	11040
640.118	9585
640.178	11022
640.239	10829
640.299	10925
640.359	9844
640.420	10583
640.480	11376
640.540	10865
640.600	11434
640.661	11041
640.721	10226
640.781	13909
640.841	11275
640.901	11307
640.961	11425
641.021	10806
641.082	10177
641.142	12152
641.202	11293
641.262	8851
641.322	10703
641.382	8884
641.442	10598
641.502	10003
641.562	10753
641.622	10079
641.682	9934
641.742	9919
641.802	10875
641.861	10744
641.921	9263
641.981	10238
642.041	10243
642.101	11346
642.161	9396
642.221	9640
642.280	9128
642.340	9636
642.400	8718
642.460	10012
642.519	9859
642.579	9851
642.639	11209
642.698	8054
642.758	11199
642.818	9107
642.877	9645
642.937	10060
642.997	10755
643.056	11825
643.116	8206
643.175	10775
643.235	9426
643.294	8792
643.354	10045
643.414	11068
643.473	12788
643.532	12714
643.592	13544
643.651	19775
643.711	27880
643.770	50233
643.830	111139
643.889	228484
643.948	63611
644.008	16542
644.067	11240
644.126	10819
644.186	10435
644.245	10068
644.304	9086
644.363	10017
644.423	8248
644.482	8401
644.541	10389
644.600	7771
644.659	10406
644.719	10419
644.778	14032
644.837	18684
644.896	32600
644.955	69680
645.014	27672
645.073	12396
645.132	9846
645.191	9355
645.250	8664
645.309	10350
645.368	9322
645.427	11469
645.486	11835
645.545	18559
645.604	10341
645.663	9169
645.722	8690
645.781	9390
645.840	10228
645.898	10020
645.957	13579
646.016	15551
646.075	26507
646.134	46677
646.192	115301
646.251	172093
646.310	30908
646.369	12437
646.427	11058
646.486	8670
646.545	9152
646.603	8617
646.662	8573
646.721	8254
646.779	7659
646.838	7524
646.896	8792
646.955	9375
647.014	13571
647.072	19230
647.131	44909
647.189	24459
647.248	8339
647.306	7898
647.365	7711
647.423	5573
647.481	8498
647.540	5687
647.598	6967
647.657	6951
647.715	7639
647.773	6543
647.832	7375
647.890	5606
647.948	6297
648.007	7735
648.065	5718
648.123	6052
648.181	8600
648.240	8871
648.298	8211
648.356	6639
648.414	7254
648.472	7233
648.531	7339
648.589	6740
648.647	5966
648.705	6833
648.763	7356
648.821	6709
648.879	6982
648.937	6390
648.995	6906
649.053	6861
649.111	10904
649.169	13680
649.227	21606
649.285	39319
649.343	108858
649.401	55962
649.459	18323
649.516	12624
649.574	8393
649.632	14128
649.690	16151
649.748	12709
649.806	13848
649.863	24775
649.921	34009
649.979	22353
650.037	7752
650.094	4322
650.152	6825
650.210	4133
650.268	6149
650.325	6360
650.383	5950
650.440	4655
650.498	5631
650.556	5546
650.613	5044
650.671	4577
650.728	5276
650.786	6059
650.843	5443
650.901	3976
650.958	5509
651.016	4845
651.073	4742
651.131	4575
651.188	3900
651.246	5888
651.303	4477
651.360	5618
651.418	4120
651.475	4714
651.532	3799
651.590	4758
651.647	4111
651.704	4361
651.762	4647
651.819	4321
651.876	4277
651.933	4815
651.990	4974
652.048	2876
652.105	4702
652.162	4585
652.219	3440
652.276	4505
652.333	4970
652.390	3755
652.448	3911
652.505	3993
652.562	4798
652.619	5005
652.676	8078
652.733	8596
652.790	5067
652.847	3601
652.904	4605
652.961	3371
653.017	4223
653.074	4819
653.131	4790
653.188	3611
653.245	3601
653.302	4096
653.359	3863
653.415	4112
653.472	3588
653.529	4154
653.586	3995
653.642	2860
653.699	3734
653.756	3220
653.813	3271
653.869	4211
653.926	2781
653.983	3867
654.039	3618
654.096	3142
654.152	4515
654.209	2903
654.266	4216
654.322	3605
654.379	4867
654.435	4773
654.492	3868
654.548	4457
654.605	6068
654.661	4850
654.717	3820
654.774	4102
654.830	3388
654.887	2707
654.943	3988
655.000	3976
655.056	3831
655.112	4238
655.168	3437
655.225	4173
655.281	4635
655.337	4204
655.394	5900
655.450	5470
655.506	4330
655.562	5497
655.618	5524
655.675	2766
655.731	3741
655.787	2599
655.843	3713
655.899	2327
655.955	3823
656.011	3365
656.067	2115
656.123	3464
656.179	3102
656.235	4742
656.291	3088
656.347	4309
656.403	4101
656.459	3559
656.515	4083
656.571	4490
656.627	3417
656.683	3710
656.739	3758
656.795	3752
656.850	3976
656.906	3713
656.962	3858
657.018	2960
657.074	3913
657.129	3585
657.185	6278
657.241	7475
657.297	5388
657.352	3686
657.408	4027
657.464	5006
657.519	3702
657.575	2644
657.630	3639
657.686	3838
657.742	2962
657.797	2888
657.853	3168
657.908	5246
657.964	2248
658.019	3820
658.075	3796
658.130	3508
658.186	1864
658.241	3925
658.297	2894
658.352	3062
658.407	4548
658.463	3863
658.518	4543
658.573	4261
658.629	2720
658.684	3151
658.739	4336
658.795	3176
658.850	3343
658.905	3099
658.960	3262
659.016	3078
659.071	3196
659.126	3707
659.181	3222
659.236	6009
659.291	5972
659.346	3867
659.401	5192
659.457	6014
659.512	6888
659.567	5851
659.622	3309
659.677	3728
659.732	3073
659.787	3258
659.842	3439
659.897	4223
659.952	3927
660.007	2487
660.061	3760
660.116	2754
660.171	2618
660.226	3662
660.281	4047
660.336	2606
660.391	4562
660.445	3226
660.500	4109
660.555	3518
660.610	3503
660.664	4087
660.719	2909
660.774	3486
660.828	3293
660.883	2781
660.938	4230
660.992	3086
661.047	3061
661.101	2409
661.156	3229
661.211	3193
661.265	3189
661.320	3432
661.374	3707
661.429	2237
661.483	3741
661.538	1745
661.592	3434
661.647	3304
661.701	3847
661.755	3881
661.810	3943
661.864	3045
661.919	2617
661.973	3754
662.027	4020
662.081	2445
662.136	2698
662.190	2986
662.244	4006
662.299	3748
662.353	4237
662.407	3297
662.461	2976
662.515	3442
662.569	2870
662.624	4135
662.678	2575
662.732	3013
662.786	3609
662.840	3318
662.894	3480
662.948	2862
663.002	2741
663.056	2851
663.110	2616
663.164	2798
663.218	3475
663.272	3225
663.326	2888
663.380	3411
663.434	3443
663.488	2575
663.542	3141
663.595	3500
663.649	2930
663.703	3880
663.757	3401
663.811	3204
663.864	2569
663.918	2842
663.972	2884
664.026	2796
664.079	3661
664.133	2960
664.187	2775
664.240	2526
664.294	3360
664.348	3768
664.401	3488
664.455	3640
664.508	2818
664.562	3783
664.615	3672
664.669	2544
664.722	3416
664.776	2920
664.829	2945
664.883	3214
664.936	3307
664.990	3079
665.043	3335
665.097	3236
665.150	4278
665.203	2324
665.257	3433
665.310	3925
665.363	3027
665.417	3102
665.470	3660
665.523	3752
665.576	3734
665.630	3087
665.683	3420
665.736	2710
665.789	3434
665.842	3005
665.895	3009
665.949	2991
666.002	2885
666.055	2737
666.108	4285
666.161	3235
666.214	4161
666.267	3092
666.320	3237
666.373	3090
666.426	3423
666.479	3344
666.532	3457
666.585	4202
666.638	3897
666.691	3336
666.744	4300
666.796	2382
666.849	2768
666.902	3867
666.955	3195
667.008	2546
667.060	2787
667.113	2070
667.166	3408
667.219	3749
667.271	2876
667.324	3225
667.377	3096
667.430	2698
667.482	4062
667.535	3770
667.587	3967
667.640	4096
667.693	3115
667.745	4766
667.798	4881
667.850	3050
667.903	3526
667.955	2504
668.008	3362
668.060	4212
668.113	3885
668.165	3763
668.218	3616
668.270	3260
668.322	3642
668.375	3235
668.427	3122
668.479	3214
668.532	3401
668.584	3633
668.636	3053
668.689	3469
668.741	2855
668.793	3145
668.845	3125
668.898	2736
668.950	3607
669.002	2726
669.054	3068
669.106	3522
669.158	3828
669.211	3977
669.263	3467
669.315	4808
669.367	4472
669.419	3954
669.471	4099
669.523	3956
669.575	4456
669.627	3517
669.679	4526
669.731	3648
669.783	4219
669.835	3935
669.886	4532
669.938	4029
669.990	3876
670.042	3712
670.094	4630
670.146	4450
670.197	4940
670.249	6240
670.301	7632
670.353	9602
670.404	13111
670.456	17457
670.508	26485
670.560	42706
670.611	66859
670.663	115755
670.715	226814
670.766	287647
670.818	158076
670.869	46985
670.921	22564
670.972	15884
671.024	11082
671.075	8779
671.127	7201
671.178	6253
671.230	5393
671.281	5395
671.333	5104
671.384	4133
671.436	4418
671.487	4963
671.538	5715
671.590	6242
671.641	9403
671.692	11724
671.744	18730
671.795	16363
671.846	8300
671.897	5521
671.949	4885
672.000	4658
672.051	4539
672.102	4501
672.153	3629
672.204	2952
672.256	3585
672.307	4216
672.358	4054
672.409	3885
672.460	3415
672.511	3321
672.562	3055
672.613	3518
672.664	3670
672.715	3341
672.766	3868
672.817	2250
672.868	3572
672.919	2701
672.970	2916
673.021	2838
673.071	2638
673.122	2953
673.173	3378
673.224	3245
673.275	2727
673.326	2770
673.376	2482
673.427	2684
673.478	2628
673.528	2949
673.579	3133
673.630	2660
673.680	3190
673.731	2480
673.782	2337
673.832	2803
673.883	3826
673.934	2515
673.984	2269
674.035	2676
674.085	3100
674.136	2377
674.186	2137
674.237	3328
674.287	4374
674.338	3242
674.388	2490
674.438	2393
674.489	2559
674.539	1918
674.589	2714
674.640	3226
674.690	2869
674.740	3247
674.791	3461
674.841	3012
674.891	3111
674.942	2988
674.992	2626
675.042	1845
675.092	3300
675.142	1791
675.193	1849
675.243	2417
675.293	3141
675.343	3127
675.393	3051
675.443	2490
675.493	2618
675.543	2884
675.593	2819
675.643	3137
675.693	3023
675.743	2482
675.793	2369
675.843	2560
675.893	3121
675.943	2620
675.993	2214
676.043	2012
676.093	2586
676.142	1813
676.192	3044
676.242	1088
676.292	2094
676.341	2668
676.391	1952
676.441	1857
676.491	1862
676.540	1624
676.590	2501
676.640	2154
676.689	2941
676.739	1762
676.789	2019
676.838	1850
676.888	2652
676.937	2006
676.987	1577
677.037	1614
677.086	2216
677.136	2092
677.185	2690
677.235	2032
677.284	2436
677.333	1237
677.383	1877
677.432	1499
677.482	2370
677.531	2106
677.580	1734
677.630	2389
677.679	2108
677.728	2559
677.778	1919
677.827	2372
677.876	2625
677.925	2172
677.975	1798
678.024	2240
678.073	3089
678.122	2359
678.171	2392
678.220	2334
678.269	2470
678.319	2859
678.368	1990
678.417	1790
678.466	2305
678.515	2974
678.564	2845
678.613	1864
678.662	2745
678.711	1614
678.760	2258
678.809	2566
678.857	1516
678.906	2221
678.955	2900
679.004	2808
679.053	2648
679.102	1998
679.151	2257
679.199	2174
679.248	1876
679.297	1744
679.346	1837
679.394	1698
679.443	1802
679.492	2163
679.540	2054
679.589	1909
679.638	1707
679.686	1964
679.735	2179
679.784	2058
679.832	2122
679.881	1964
679.929	1698
679.978	1468
680.026	2124
680.075	1803
680.123	1937
680.172	1483
680.220	2009
680.268	1909
680.317	1294
680.365	1560
680.414	1209
680.462	2491
680.510	2252
680.559	1071
680.607	1522
680.655	2338
680.703	2392
680.752	1171
680.800	1730
680.848	1608
680.896	2166
680.945	1448
680.993	1800
681.041	1523
681.089	1724
681.137	1844
681.185	1625
681.233	1662
681.258	1515
681.281	1361
681.329	1723
681.377	1732
681.380	1792
681.425	2626
681.473	2488
681.502	2195
681.521	1956
681.569	1878
681.617	1877
681.624	1949
681.665	2307
681.713	1876
681.745	2297
681.761	2475
681.809	2082
681.857	2570
681.867	2498
681.904	2184
681.952	2598
681.989	2058
682.000	1885
682.048	2361
682.096	2104
682.111	2282
682.143	2584
682.191	2294
682.233	2649
682.239	2687
682.286	2670
682.334	2749
682.354	2281
682.382	1601
682.430	2891
682.476	2282
682.477	2257
682.525	2582
682.572	1981
682.598	2104
682.620	2191
682.667	2593
682.715	2640
682.720	2676
682.763	2842
682.810	2460
682.841	2580
682.857	2631
682.905	2516
682.952	3073
682.963	2902
683.000	2243
683.047	2530
683.085	2866
683.095	2931
683.142	2767
683.190	2628
683.206	2759
683.237	3000
683.284	2672
683.328	2518
683.332	2490
683.379	2710
683.426	3284
683.449	3160
683.473	3041
683.521	2688
683.568	3504
683.571	3500
683.615	3215
683.662	2929
683.693	2781
683.709	2689
683.757	3203
683.804	2683
683.814	2786
683.851	3102
683.898	3032
683.936	3312
683.945	3376
683.992	3037
684.039	3495
684.057	3496
684.086	3434
684.133	3470
684.179	3022
684.180	2997
684.227	3818
684.274	3146
684.300	3309
684.321	3435
684.368	3175
684.415	3967
684.422	3862
684.462	3217
684.509	3177
684.543	3092
684.556	3027
684.603	4143
684.649	2932
684.665	3105
684.696	3520
684.743	3459
684.786	3549
684.790	3544
684.837	3856
684.883	4267
684.908	4228
684.930	4150
684.977	4207
685.023	3702
685.029	3736
685.070	3894
685.117	4175
685.150	3994
685.164	3961
685.210	4127
685.257	5185
685.272	5036
685.303	4533
685.350	4037
685.393	4124
685.396	4137
685.443	4490
685.490	4336
685.514	4306
685.536	4276
685.583	4862
685.629	4752
685.636	4694
685.675	4278
685.722	4367
685.757	4345
685.768	4315
685.815	4084
685.861	5169
685.878	4950
685.908	4612
685.954	4613
686.000	5077
686.000	5082
686.047	4627
686.093	5519
686.121	5270
686.139	5029
686.185	4605
686.232	4876
686.242	4814
686.278	4698
686.324	5237
686.363	5107
686.370	5058
686.416	5058
686.463	5572
686.484	5358
686.509	5183
686.555	5163
686.601	4894
686.606	4975
686.647	5535
686.693	4864
686.727	4746
686.739	4718
686.785	4622
686.831	4484
686.848	4696
686.877	5093
686.923	4773
686.969	4793
686.969	4792
687.015	4743
687.061	5047
687.090	5234
687.107	5355
687.153	5137
687.199	5347
687.211	5237
687.245	4815
687.291	5695
687.332	5181
687.336	5158
687.382	5636
687.428	5429
687.453	5482
687.474	5395
687.520	5643
687.565	5497
687.574	5433
687.611	5437
687.657	6209
687.695	6349
687.702	6359
687.748	6242
687.794	7381
687.816	6964
687.839	6269
687.885	5418
687.931	5683
687.937	5598
687.976	5597
688.022	5257
688.058	5929
688.067	6055
688.113	5642
688.158	5603
688.179	5418
688.204	5298
688.249	5492
688.295	5647
688.300	5680
688.340	5978
688.386	6332
688.421	5974
688.431	5833
688.477	5775
688.522	5960
688.542	5894
688.567	5961
688.613	6433
688.658	6418
688.663	6398
688.703	6027
688.749	5669
688.784	5932
688.794	6045
688.839	6129
688.884	6398
688.905	6294
688.930	6211
688.975	6071
689.020	6467
689.026	6446
689.065	6168
689.110	6150
689.146	6009
689.155	6002
689.201	6382
689.246	5785
689.267	6032
689.291	6317
689.336	6075
689.381	5837
689.388	5860
689.426	6112
689.471	6104
689.509	6338
689.516	6373
689.561	6304
689.606	5895
689.630	6186
689.651	6406
689.696	6127
689.741	6183
689.750	6209
689.785	6522
689.830	6353
689.871	6409
689.875	6398
689.920	6246
689.965	6461
689.992	6145
690.010	6051
690.054	6708
690.099	6839
690.112	6815
690.144	6689
690.189	6560
690.233	6270
690.233	6277
690.278	6511
690.323	6832
690.354	6601
690.367	6568
690.412	6773
690.457	6837
690.474	6961
690.501	7036
690.546	6481
690.590	6581
690.595	6562
690.635	6838
690.680	7068
690.716	7470
690.724	7598
690.769	8231
690.813	8847
690.836	9041
690.857	9713
690.902	11306
690.946	13393
690.957	13934
690.991	18582
691.035	25426
691.077	32374
691.080	32422
691.124	28466
691.168	24512
691.198	22722
691.213	21081
691.257	16179
691.301	11363
691.318	9735
691.346	9445
691.390	8359
691.434	7611
691.439	7493
691.478	7172
691.522	7489
691.559	7419
691.567	7482
691.611	7721
691.655	7408
691.680	7791
691.699	8008
691.743	7754
691.787	7709
691.800	7828
691.831	8202
691.875	7843
691.919	8019
691.921	8016
691.964	8268
692.008	8043
692.041	8134
692.052	8134
692.096	7645
692.139	7712
692.162	7416
692.183	7232
692.227	7129
692.271	7220
692.282	7150
692.315	7133
692.359	7629
692.402	7279
692.403	7290
692.447	7622
692.490	7368
692.523	7549
692.534	7675
692.578	7763
692.622	7880
692.643	7994
692.666	8112
692.709	8314
692.753	8361
692.763	8348
692.797	8066
692.840	7835
692.884	7599
692.884	7617
692.928	7940
692.971	8463
693.004	8729
693.015	8695
693.059	8392
693.102	8144
693.124	7988
693.146	8081
693.189	8185
693.233	8649
693.245	8701
693.276	8936
693.320	9319
693.363	9413
693.365	9411
693.407	9863
693.450	9949
693.485	10121
693.493	10360
693.537	11705
693.580	12849
693.605	13718
693.624	15673
693.667	20097
693.710	24726
693.725	26518
693.753	34825
693.797	48580
693.840	62779
693.845	63906
693.883	57477
693.926	49737
693.966	43350
693.970	42320
694.013	31873
694.056	21524
694.086	14301
694.099	13839
694.142	12299
694.185	11107
694.206	10391
694.229	10161
694.272	9739
694.315	9475
694.326	9316
694.358	9207
694.401	9373
694.444	9475
694.446	9451
694.487	9289
694.530	9039
694.566	9107
694.573	9118
694.616	8523
694.659	8251
694.686	8211
694.702	8329
694.745	7974
694.787	8201
694.806	8210
694.830	8262
694.873	8240
694.916	8194
694.926	8204
694.959	8281
695.002	8210
695.044	7943
695.046	7931
695.087	8267
695.130	8329
695.166	8366
695.172	8422
695.215	8705
695.258	8869
695.286	8821
695.301	8763
695.343	8853
695.386	8923
695.406	8895
695.428	8831
695.471	8718
695.514	8515
695.526	8468
695.556	8597
695.599	8861
695.641	8820
695.646	8809
695.684	8824
695.726	8810
695.766	8683
695.769	8681
695.811	8447
695.854	8212
695.886	8045
695.896	8095
695.938	8006
695.981	8075
696.005	8054
696.023	8178
696.065	8509
696.108	8789
696.125	8888
696.150	8837
696.192	8743
696.235	8435
696.245	8413
696.277	8832
696.319	9128
696.361	9577
696.365	9590
696.404	9716
696.446	9761
696.485	9775
696.488	9798
696.530	9729
696.572	9626
696.604	9634
696.614	9666
696.656	9549
696.698	9757
696.724	9627
696.740	9489
696.783	9107
696.825	8914
696.844	8748
696.867	8776
696.909	8923
696.951	8851
696.964	8835
696.992	8990
697.034	9114
697.076	9343
697.083	9339
697.118	9249
697.160	9241
697.202	9157
697.203	9131
697.244	9253
697.286	9292
697.323	9257
697.327	9259
697.369	9166
697.411	8956
697.442	8785
697.453	8770
697.494	8601
697.536	8613
697.562	8455
697.578	8525
697.620	8743
697.661	8956
697.682	9052
697.703	9148
697.744	9230
697.786	9393
697.801	9379
697.828	9420
697.869	9531
697.911	9607
697.921	9609
697.952	9580
697.994	9454
698.035	9417
698.040	9380
698.077	9378
698.118	9321
698.160	9298
698.160	9272
698.201	9337
698.243	9414
698.279	9407
698.284	9445
698.325	9593
698.367	9734
698.399	9809
698.408	9823
698.449	9776
698.491	9735
698.518	9653
698.532	9699
698.573	9798
698.614	9879
698.638	9892
698.656	9925
698.697	9975
698.738	9995
698.757	9986
698.779	10019
698.820	10016
698.862	10020
698.877	9998
698.903	10146
698.944	10331
698.985	10516
698.996	10542
699.026	10524
699.067	10454
699.116	10345
699.235	10835
699.354	10644
699.474	9492
699.593	10306
699.713	10596
699.832	9874
699.951	10246
700.070	10430
700.190	9350
700.309	9221
700.428	9111
700.547	9278
700.667	9721
700.786	9708
700.905	9817
701.024	9221
701.143	10279
701.262	9204
701.381	8727
701.500	9468
701.619	10390
701.738	9406
701.857	9270
701.976	10197
702.095	8381
702.214	8882
702.333	9558
702.452	8773
702.571	9872
702.690	9245
702.809	9242
702.928	8098
703.047	8709
703.165	8913
703.284	8368
703.403	8658
703.522	8567
703.640	8941
703.759	9507
703.878	9406
703.997	8304
704.115	8564
704.234	8238
704.353	7638
704.471	8026
704.590	7814
704.708	7849
704.827	7635
704.946	8325
705.064	8339
705.183	8598
705.301	8594
705.420	11881
705.538	11665
705.656	9546
705.775	10526
705.893	15496
706.012	18744
706.130	10734
706.249	10654
706.367	10605
706.485	9656
706.604	10063
706.722	10164
706.840	10348
706.958	12273
707.077	10976
707.195	8459
707.313	10019
707.431	8650
707.549	9311
707.668	8367
707.786	9599
707.904	8932
708.022	8342
708.140	9124
708.258	9360
708.376	8734
708.494	8799
708.612	9435
708.730	11928
708.848	11873
708.966	10973
709.084	10921
709.202	9975
709.320	10916
709.438	10408
709.556	10353
709.674	9914
709.791	10870
709.909	9712
710.027	9667
710.145	10128
710.263	10355
710.380	8997
710.498	9906
710.616	9405
710.733	9318
710.851	9886
710.969	9329
711.086	9497
711.204	9574
711.322	8912
711.439	9727
711.557	9570
711.674	9022
711.792	9204
711.909	9824
712.027	10137
712.144	9285
712.262	9204
712.379	9471
712.497	12327
712.614	13500
712.732	10970
712.849	11006
712.966	10650
713.084	11247
713.201	11304
713.318	11264
713.436	11304
713.553	11109
713.670	10509
713.787	11959
713.905	10871
714.022	10783
714.139	10386
714.256	11191
714.373	12353
714.490	14425
714.608	24239
714.725	81252
714.842	91808
714.959	14135
715.076	10812
715.193	9583
715.310	9849
715.427	9314
715.544	9114
715.661	9854
715.778	10166
715.895	9469
716.011	10131
716.128	9006
716.245	9793
716.362	9796
716.479	9070
716.596	9133
716.713	9281
716.829	8827
716.946	9352
717.063	9198
717.180	8356
717.296	9360
717.413	9015
717.530	9027
717.646	8586
717.763	8450
717.880	8102
717.996	8661
718.113	8087
718.229	8034
718.346	7630
718.462	8852
718.579	8823
718.695	9691
718.812	9844
718.928	8864
719.045	7924
719.161	7401
719.277	7945
719.394	8076
719.510	7635
719.626	8468
719.743	9607
719.859	9437
719.975	12465
720.092	27146
720.208	57784
720.324	12964
720.440	7951
720.557	9068
720.673	9317
720.789	10427
720.905	15719
721.021	10062
721.137	7931
721.253	8114
721.369	7588
721.486	7688
721.602	8665
721.718	7338
721.834	6639
721.950	7695
722.066	7682
722.181	6754
722.297	7325
722.413	7441
722.529	6443
722.645	7408
722.761	6647
722.877	6560
722.993	6937
723.108	7535
723.224	6309
723.340	6977
723.456	6913
723.571	7054
723.687	6560
723.803	6610
723.918	6852
724.034	6496
724.150	6477
724.265	7021
724.381	8911
724.497	9471
724.612	5926
724.728	5882
724.843	6482
724.959	6456
725.074	9089
725.190	9102
725.305	6124
725.421	5672
725.536	5681
725.651	6743
725.767	6787
725.882	6533
725.997	5640
726.113	6472
726.228	6559
726.343	6148
726.459	5806
726.574	6063
726.689	5369
726.804	6646
726.920	6931
727.035	5519
727.150	6989
727.265	6394
727.380	5739
727.495	5263
727.610	5379
727.725	6155
727.841	6834
727.956	10086
728.071	9383
728.186	5488
728.301	5491
728.416	5299
728.531	5711
728.645	5444
728.760	6108
728.875	4899
728.990	5740
729.105	5397
729.220	5301
729.335	5757
729.449	5554
729.564	5133
729.679	5507
729.794	5392
729.908	5552
730.023	5493
730.138	5075
730.253	4981
730.367	5511
730.482	5598
730.596	5314
730.711	5311
730.826	6175
730.940	5763
731.055	5437
731.169	4938
731.284	4595
731.398	4947
731.513	6276
731.627	5482
731.742	5940
731.856	4364
731.970	5379
732.085	5025
732.199	6666
732.313	6679
732.428	12201
732.542	30313
732.656	20187
732.771	7228
732.885	5762
732.999	5228
733.113	6821
733.227	5629
733.342	5621
733.456	5990
733.570	5250
733.684	4420
733.798	4872
733.912	5023
734.026	5098
734.140	5302
734.254	4587
734.368	5673
734.482	6719
734.596	5796
734.710	5346
734.824	4879
734.938	4934
735.052	4478
735.166	5632
735.280	5072
735.393	4791
735.507	5570
735.621	5593
735.735	6120
735.849	4531
735.962	4982
736.076	4727
736.190	4382
736.303	5850
736.417	6160
736.531	5726
736.644	4875
736.758	3948
736.872	4040
736.985	4399
737.099	5288
737.212	4213
737.326	4847
737.439	4704
737.553	5283
737.666	4901
737.780	3867
737.893	4397
738.007	4723
738.120	4119
738.233	5194
738.347	4395
738.460	4848
738.573	4471
738.687	3822
738.800	4790
738.913	5188
739.026	4664
739.140	4832
739.253	4638
739.366	5353
739.479	4262
739.592	3823
739.705	4601
739.818	3903
739.932	4332
740.045	5007
740.158	3922
740.271	4290
740.384	4826
740.497	3847
740.610	5018
740.723	4024
740.836	4328
740.949	4484
741.062	4333
741.174	4952
741.287	4226
741.400	3382
741.513	4452
741.626	4565
741.739	3564
741.851	3914
741.964	4110
742.077	3798
742.189	4362
742.302	4386
742.415	4085
742.527	3805
742.640	3715
742.753	4347
742.865	3905
742.978	3372
743.090	3988
743.203	4445
743.316	4421
743.428	4143
743.541	4387
743.653	4191
743.766	4272
743.878	4446
743.990	3528
744.103	4826
744.215	3922
744.327	3821
744.440	4989
744.552	4343
744.664	4084
744.777	3945
744.889	3841
745.001	4998
745.113	3383
745.226	4141
745.338	4366
745.450	4074
745.562	4405
745.674	3299
745.786	4197
745.898	3806
746.010	3724
746.122	4121
746.234	3701
746.347	4228
746.459	4559
746.570	3471
746.682	5102
746.794	3916
746.906	3129
747.018	4212
747.130	3709
747.242	4153
747.354	3798
747.466	4129
747.577	3686
747.689	4147
747.801	3686
747.913	3952
748.024	3450
748.136	4004
748.248	3869
748.359	3404
748.471	4671
748.583	3175
748.694	3797
748.806	4513
748.918	4120
749.029	4083
749.141	4010
749.252	4388
749.364	3974
749.475	4837
749.587	3943
749.698	3399
749.809	3998
749.921	3773
750.032	3747
750.144	3962
750.255	3387
750.366	3905
750.478	3537
750.589	3335
750.700	3487
750.811	4339
750.923	4897
751.034	4789
751.145	4569
751.256	3645
751.367	3539
751.479	3713
751.590	3291
751.701	3975
751.812	3487
751.923	3312
752.034	4031
752.145	3152
752.256	3971
752.367	3377
752.478	3540
752.589	3685
752.700	4548
752.811	3413
752.922	3471
753.032	3267
753.143	4134
753.254	3859
753.365	4338
753.476	4257
753.586	4518
753.697	4585
753.808	4230
753.919	4167
754.029	4014
754.140	4245
754.251	4646
754.361	3868
754.472	4080
754.582	3842
754.693	4275
754.804	4101
754.914	3728
755.025	3583
755.135	3999
755.246	4104
755.356	3748
755.466	3636
755.577	4277
755.687	3643
755.798	3629
755.908	4228
756.018	4171
756.129	4176
756.239	4385
756.349	4446
756.460	4475
756.570	4122
756.680	3659
756.790	4107
756.900	4043
757.011	3611
757.121	4099
757.231	4410
757.341	4590
757.451	4261
757.561	3378
757.671	3957
757.781	3797
757.891	5274
758.001	4287
758.111	4316
758.221	4359
758.331	4812
758.441	5400
758.551	4034
758.661	5131
758.771	4678
758.880	5065
758.990	4460
759.100	4723
759.210	5289
759.320	5397
759.429	5153
759.539	4890
759.649	5288
759.758	4723
759.868	5329
759.978	4944
760.087	5678
760.197	5598
760.307	5797
760.416	5742
760.526	5056
760.635	5491
760.745	5028
760.854	6678
760.964	6404
761.073	5881
761.182	5707
761.292	6553
761.401	6928
761.511	6479
761.620	7011
761.729	6243
761.839	6811
761.948	7691
762.057	7500
762.166	8076
762.276	6436
762.385	8350
762.494	7320
762.603	7157
762.712	8630
762.822	8756
762.931	9203
763.040	8616
763.149	9767
763.258	9168
763.367	9632
763.476	10539
763.585	10466
763.694	11697
763.803	11960
763.912	12572
764.021	13019
764.130	14053
764.238	15025
764.347	15216
764.456	15782
764.565	17579
764.674	19080
764.783	21144
764.891	22469
765.000	26891
765.109	28549
765.217	32412
765.326	39349
765.435	45814
765.543	55336
765.652	68569
765.761	88901
765.869	120092
765.978	167707
766.086	240107
766.195	342370
766.303	430952
766.412	339373
766.520	353785
766.629	414164
766.737	314607
766.846	215632
766.954	152368
767.062	113761
767.171	88006
767.279	69579
767.387	55649
767.496	47386
767.604	40251
767.712	35839
767.820	31859
767.928	28873
768.037	27148
768.145	26906
768.253	25468
768.361	23735
768.469	23594
768.577	24181
768.685	26143
768.793	27217
768.901	29337
769.009	34437
769.117	40662
769.225	51954
769.333	71442
769.441	106873
769.549	169272
769.657	281554
769.765	383870
769.873	325305
769.981	360304
770.088	258989
770.196	156081
770.304	104483
770.412	75355
770.519	57588
770.627	44987
770.735	37336
770.842	32902
770.950	28524
771.058	24920
771.165	22394
771.273	19378
771.380	18203
771.488	17803
771.595	14770
771.703	13853
771.810	13860
771.918	13368
772.025	11505
772.133	10981
772.240	10668
772.348	10434
772.455	10816
772.562	9208
772.670	9390
772.777	9580
772.884	9218
772.991	8986
773.099	8468
773.206	7394
773.313	8142
773.420	7482
773.528	7427
773.635	6870
773.742	7462
773.849	6607
773.956	6263
774.063	6682
774.170	6072
774.277	6424
774.384	6749
774.491	5541
774.598	6293
774.705	5579
774.812	6000
774.919	5898
775.026	5535
775.133	5704
775.239	5763
775.346	5360
775.453	5219
775.560	4422
775.667	5653
775.773	4756
775.880	5260
775.987	5396
776.093	4403
776.200	4448
776.307	4160
776.413	5044
776.520	4234
776.627	4417
776.733	4272
776.840	3421
776.946	4260
777.053	4316
777.159	4400
777.266	3115
777.372	4221
777.478	3326
777.585	4424
777.691	4687
777.798	4298
777.904	4853
778.010	5020
778.117	4137
778.223	3871
778.329	3829
778.435	4076
778.542	3728
778.648	3683
778.754	3291
778.860	3753
778.966	3923
779.072	3459
779.178	3883
779.284	3838
779.391	4388
779.497	4202
779.603	7863
779.708	9350
779.815	21546
779.920	72392
780.026	112074
780.132	20283
780.238	5973
780.344	4188
780.450	5001
780.556	3649
780.661	3213
780.767	3758
780.873	2611
780.979	3481
781.085	2929
781.190	3398
781.296	3218
781.402	2853
781.507	3034
781.613	3522
781.719	2527
781.824	3714
781.930	3667
782.035	3473
782.141	2712
782.246	3094
782.352	2698
782.457	3178
782.563	2851
782.668	2823
782.773	2610
782.879	2925
782.984	3159
783.090	2416
783.195	3808
783.300	3451
783.405	2311
783.511	2246
783.616	2597
783.721	2103
783.826	2418
783.932	3233
784.037	2956
784.142	2227
784.247	2739
784.352	2831
784.457	2620
784.562	2478
784.667	3047
784.772	2435
784.877	2373
784.982	2074
785.087	2512
785.192	2921
785.297	2730
785.402	1147
785.507	2203
785.611	2795
785.716	2253
785.821	2609
785.926	2232
786.031	2017
786.135	2206
786.240	2659
786.345	1653
786.450	1724
786.554	2242
786.659	2258
786.763	1377
786.868	2270
786.973	2302
787.077	1114
787.182	1945
787.286	2204
787.391	2381
787.495	1941
787.600	1808
787.704	1544
787.809	2406
787.913	1672
788.017	2598
788.122	2019
788.226	2311
788.330	1601
788.435	2555
788.539	1828
788.643	2106
788.747	1493
788.852	1657
788.956	1674
789.060	2955
789.164	2853
789.268	1446
789.372	2328
789.476	1717
789.580	2025
789.684	1877
789.788	2015
789.892	1198
789.996	2094
790.100	1685
790.204	1653
790.308	1772
790.412	1408
790.516	2539
790.620	1198
790.724	2182
790.828	1310
790.931	1569
791.035	2441
791.139	2213
791.242	1513
791.346	2030
791.450	1599
791.554	2624
791.657	700
791.761	2354
791.864	2316
791.968	1737
792.072	2769
792.175	2121
792.279	1908
792.382	1030
792.486	1726
792.589	1718
792.693	2084
792.796	1174
792.899	2063
793.003	2712
793.106	848
793.209	1349
793.313	2426
793.416	325
793.519	1733
793.623	1817
793.726	1623
793.829	2143
793.932	2519
794.035	1429
794.138	2389
794.242	2195
794.345	3134
794.448	5397
794.551	11478
794.654	42143
794.757	73754
794.860	13168
794.963	3685
795.066	1808
795.169	2018
795.272	804
795.375	1887
795.477	1258
795.580	2163
795.683	469
795.786	1979
795.889	551
795.991	1735
796.094	1032
796.197	749
796.300	2508
796.402	829
796.505	2064
796.608	942
796.710	1742
796.813	1176
796.915	1473
797.018	2112
797.120	1128
797.223	1247
797.326	2290
797.428	407
797.530	1313
797.633	1278
797.735	2430
797.838	1154
797.940	1202
798.042	1238
798.145	298
798.247	2349
798.349	469
798.452	1453
798.554	745
798.656	524
798.758	2525
798.860	225
798.962	1849
799.065	515
799.167	1067
799.269	1399
799.371	1478
799.473	995
799.575	836
799.677	1444
799.779	1786
799.881	189
799.983	1463
800.085	778
800.187	1126
800.289	683
800.390	736
800.492	780
800.594	1815
800.696	1076
800.798	1426
800.899	4
801.001	610
801.103	877
801.205	409
801.306	1201
801.408	-44
801.509	717
801.611	1553
801.713	895
801.814	575
801.916	957
802.017	845
802.119	538
802.220	1289
802.322	-1057
802.423	2539
802.525	81
802.626	506
802.727	1701
802.829	1446
802.930	-707
803.031	2008
803.133	386
803.234	1334
803.335	750
803.436	853
803.538	-2
803.639	339
803.740	1045
803.841	634
803.942	610
804.043	2258
804.144	493
804.245	794
804.346	804
804.447	328
804.548	703
804.649	1191
804.750	307
804.851	1359
804.952	665
805.053	279
805.154	-216
805.255	1745
805.355	491
805.456	473
805.557	-195
805.658	347
805.758	1147
805.859	643
805.960	1687
806.061	2
806.161	-126
806.262	1187
806.362	528
806.463	156
806.564	631
806.664	167
806.765	842
806.865	713
806.966	494
807.066	320
807.166	1575
807.267	1452
807.367	954
807.468	1472
807.568	51
807.668	1759
807.769	1495
807.869	290
807.969	849
808.069	1388
808.170	873
808.270	157
808.370	444
808.470	932
808.570	-391
808.670	548
808.770	1165
808.870	197
808.970	1067
809.070	1662
809.170	418
809.271	1230
809.370	659
809.470	1200
809.570	173
809.670	681
809.770	108
809.870	1253
809.970	1130
810.070	919
810.169	1291
810.269	-273
810.369	1176
810.469	1142
810.568	1115
810.668	185
810.768	901
810.867	742
810.967	-190
811.066	354
811.166	1012
811.265	933
811.365	570
811.464	763
811.564	1490
811.663	504
811.763	-590
811.862	1050
811.962	1511
812.061	1174
812.160	106
812.260	917
812.359	387
812.458	887
812.557	2880
812.657	3707
812.756	2083
812.855	193
812.954	416
813.053	1393
813.153	1678
813.252	-87
813.351	1
813.450	639
813.549	621
813.648	321
813.747	-558
813.846	852
813.945	-382
814.044	-54
814.143	358
814.242	1436
814.341	577
814.439	670
814.538	978
814.637	303
814.736	-64
814.835	98
814.933	85
815.032	431
815.131	702
815.229	966
815.328	928
815.427	521
815.525	1697
815.624	691
815.722	305
815.821	1192
815.919	550
816.018	-269
816.116	1066
816.215	896
816.313	221
816.412	884
816.510	874
816.609	2212
816.707	793
816.805	470
816.904	237
817.002	1170
817.100	597
817.198	1439
817.296	125
817.395	1573
817.493	616
817.591	781
817.689	1568
817.787	1621
817.885	2017
817.983	4675
818.081	8576
818.179	20252
818.277	53751
818.375	46824
818.473	10169
818.571	3824
818.669	2557
818.767	2153
818.865	2736
818.963	2888
819.061	4382
819.158	7067
819.256	17742
819.354	41138
819.452	91044
819.549	55704
819.647	14102
819.745	4632
819.842	3840
819.940	2575
820.038	1771
820.135	1741
820.233	1716
820.330	1229
820.428	527
820.525	1280
820.623	576
820.720	-75
820.818	906
820.915	996
821.012	501
821.110	285
821.207	1384
821.304	-1
821.402	-181
821.499	1232
821.596	1072
821.693	154
821.791	971
821.888	862
821.985	571
822.082	1137
822.179	826
822.276	223
822.373	308
822.470	60
822.567	27
822.664	188
822.761	1392
822.858	190
822.955	-185
823.052	388
823.149	87
823.246	537
823.343	679
823.440	1164
823.536	413
823.633	474
823.730	514
823.827	151
823.923	1042
824.020	1484
824.117	142
824.213	86
824.310	1189
824.407	-182
824.503	460
824.600	584
824.696	-55
824.793	1896
824.889	129
824.986	939
825.082	828
825.179	762
825.275	26
825.371	148
825.468	156
825.564	105
825.660	753
825.757	125
825.853	681
825.949	144
826.045	601
826.142	-130
826.238	652
826.334	696
826.430	-458
826.526	1146
826.622	5
826.718	-227
826.814	-232
826.910	712
827.006	-182
827.102	376
827.198	751
827.294	327
827.390	788
827.486	1048
827.582	-153
827.678	-175
827.774	610
827.869	-179
827.965	1249
828.061	41
828.157	-71
828.252	307
828.348	109
828.444	861
828.539	-679
828.635	-146
828.731	922
828.826	-899
828.922	387
829.017	117
829.113	460
829.208	-712
829.304	116
829.399	751
829.495	1
829.590	1677
829.685	493
829.781	249
829.876	89
829.971	-522
830.066	259
830.162	-431
830.257	-207
830.352	476
830.447	515
830.543	512
830.638	-1527
830.733	841
830.828	-292
830.923	606
831.018	194
831.113	161
831.208	-858
831.303	279
831.398	362
831.493	-353
831.588	866
831.683	-761
831.778	817
831.873	-214
831.967	941
832.062	-475
832.157	-533
832.252	532
832.346	-324
832.441	551
832.536	429
832.631	1257
832.725	686
832.820	330
832.914	-479
833.009	323
833.104	262
833.198	1117
833.293	-393
833.387	349
833.482	-146
833.576	-445
833.670	466
833.765	-1019
833.859	-227
833.954	118
834.048	-101
834.142	778
834.237	206
834.331	-57
834.425	282
834.519	78
834.613	1270
834.708	-961
834.802	482
834.896	233
834.990	-295
835.084	251
835.178	579
835.272	-28
835.366	109
835.460	587
835.554	16
835.648	696
835.742	-76
835.836	537
835.930	-1171
836.024	188
836.117	555
836.211	-233
836.305	607
836.399	408
836.493	-1073
836.586	1454
836.680	-528
836.774	403
836.867	1649
836.961	-131
837.055	-425
837.148	-249
837.242	909
837.335	391
837.429	-9
837.522	-200
837.616	93
837.709	1205
837.803	330
837.896	-59
837.989	-36
838.083	454
838.176	515
838.269	520
838.363	698
838.456	-171
838.549	243
838.642	695
838.735	1759
838.829	1102
838.922	-370
839.015	387
839.108	-739
839.201	648
839.294	461
839.387	142
839.480	49
839.573	495
839.666	487
839.759	-666
839.852	-609
839.945	478
840.038	188
840.131	-60
840.223	-365
840.316	354
840.409	-395
840.502	-310
840.594	1016
840.687	-419
840.780	5
840.873	-167
840.965	-182
841.058	226
841.150	176
841.243	-14
841.336	461
841.428	-255
841.521	-744
841.613	-1366
841.706	-300
841.798	675
841.890	-377
841.983	19
842.075	-543
842.167	291
842.260	352
842.352	280
842.444	998
842.537	343
842.629	1341
842.721	676
842.813	166
842.905	-1015
842.997	-16
843.090	401
843.182	-342
843.274	-100
843.366	1732
843.458	3307
843.550	3081
843.642	-37
843.734	104
843.826	-749
843.918	368
844.009	651
844.101	-615
844.193	-32
844.285	-364
844.377	463
844.469	-292
844.560	-231
844.652	380
844.744	114
844.835	-420
844.927	252
845.019	81
845.110	-381
845.202	-630
845.293	-10
845.385	-882
845.476	267
845.568	446
845.659	-241
845.751	516
845.842	-386
845.934	-634
846.025	-783
846.116	-317
846.208	332
846.299	180
846.390	-262
846.482	-485
846.573	-465
846.664	-38
846.755	-44
846.846	1002
846.937	-884
847.029	-342
847.120	-295
847.211	183
847.302	1345
847.393	-268
847.484	237
847.575	-395
847.666	-111
847.757	-136
847.847	-52
847.938	812
848.029	-587
848.120	62
848.211	-516
848.302	-152
848.392	-921
848.483	-14
848.574	-871
848.664	-381
848.755	451
848.846	-308
848.936	-366
849.027	19
849.118	-345
849.208	-972
849.299	-459
849.389	538
849.480	710
849.570	385
849.661	723
849.751	1966
849.841	289
849.932	-272
850.022	-801
850.112	-351
850.203	-722
850.293	-888
850.383	-115
850.474	-877
850.564	-747
850.654	-529
850.744	629
850.834	400
850.924	-139
851.014	147
851.104	-553
851.194	-665
851.284	-16
851.374	258
851.464	-220
851.554	-943
851.644	655
851.734	7
851.824	1562
851.914	2538
852.004	6281
852.094	4463
852.183	988
852.273	746
852.363	-832
852.452	-400
852.542	-233
852.632	-1035
852.721	508
852.811	-188
852.901	-476
852.990	-615
853.080	-123
853.169	191
853.259	-853
853.348	-648
853.438	-699
853.527	-26
853.617	-265
853.706	-154
853.795	737
853.885	2988
853.974	5252
854.063	9608
854.152	15602
854.242	5424
854.331	263
854.420	79
854.509	-751
854.598	-270
854.687	-24
854.777	-416
854.866	-887
854.955	220
855.044	-617
855.133	-606
855.222	106
855.311	-368
855.400	-98
855.488	-410
855.577	-1421
855.666	326
855.755	363
855.844	-204
855.933	198
856.021	-256
856.110	194
856.199	-1051
856.288	-419
856.376	-732
856.465	-277
856.554	-380
856.642	-347
856.731	-564
856.819	-581
856.908	-639
856.996	-451
857.085	-804
857.173	-168
857.262	180
857.350	-138
857.438	183
857.527	-241
857.615	-685
857.703	75
857.792	36
857.880	-708
857.968	-836
858.056	-38
858.145	-564
858.233	-917
858.321	-457
858.409	316
858.497	-78
858.585	-1109
858.673	402
858.761	-617
858.849	-79
858.937	-565
859.025	-512
859.113	-35
859.201	-608
859.289	104
859.377	-1178
859.465	-327
859.552	-354
859.640	-392
859.728	272
859.816	229
859.903	-364
859.991	-520
860.079	-761
860.166	307
860.254	-524
860.342	-202
860.429	-292
860.517	-586
860.604	-535
860.692	39
860.779	-1073
860.867	-163
860.954	-80
861.042	-320
861.129	-1018
861.216	-174
861.304	-918
861.391	-453
861.478	-679
861.565	92
861.653	652
861.740	-969
861.827	-917
861.914	28
862.001	-279
862.089	-71
862.176	-525
862.263	-603
862.350	-290
862.437	-492
862.524	-488
862.611	443
862.698	-156
862.785	-526
862.871	-418
862.958	-899
863.045	60
863.132	92
863.219	-775
863.306	-1489
863.392	540
863.479	-728
863.566	-204
863.652	342
863.739	-882
863.826	-50
863.912	-303
863.999	-1026
864.086	-420
864.172	-702
864.259	-748
864.345	-727
864.432	-610
864.518	-503
864.604	-405
864.691	-260
864.777	-604
864.863	27
864.950	199
865.036	-578
865.122	-685
865.209	463
865.295	199
865.381	-383
865.467	550
865.553	746
865.639	-723
865.726	568
865.812	1192
865.898	2390
865.984	2787
866.070	6759
866.156	8985
866.242	2001
866.328	79
866.414	15
866.499	999
866.585	60
866.671	-736
866.757	-632
866.843	72
866.928	-838
867.014	167
867.100	848
867.186	264
867.271	170
867.357	1072
867.442	-69
867.528	301
867.614	-656
867.699	-909
867.785	-231
867.870	-260
867.956	-441
868.041	316
868.127	-222
868.212	-35
868.297	-190
868.383	-167
868.468	-261
868.553	350
868.639	1245
868.724	957
868.809	1106
868.894	822
868.979	-40
869.065	77
869.150	-731
869.235	-381
869.320	-19
869.405	-238
869.490	-108
869.575	-453
869.660	460
869.745	317
869.830	-674
869.915	-120
870.000	-278
870.085	-445
870.169	338
870.254	-252
870.339	56
870.424	-1149
870.509	2
870.593	-347
870.678	324
870.763	-754
870.847	63
870.932	-1318
871.016	-441
871.101	-462
871.186	-624
871.270	-80
871.355	-359
871.439	-479
871.523	-426
871.608	-24
871.692	-409
871.777	-407
871.861	-559
871.945	14
872.030	270
872.114	-181
872.198	-1083
872.282	-148
872.367	-282
872.451	-1048
872.535	-1051
872.619	581
872.703	-380
872.787	-197
872.871	-373
872.955	-418
873.039	-900
873.123	-718
873.207	287
873.291	-266
873.375	-554
873.459	-130
873.543	-614
873.627	-858
873.711	-339
873.794	470
873.878	-975
873.962	-633
874.045	-191
874.129	-1329
874.137	-1224
874.213	-174
874.245	-278
874.296	-439
874.352	-140
874.380	0
874.460	-592
874.464	-616
874.547	-335
874.568	-353
874.631	-424
874.676	-276
874.714	-148
874.784	-623
874.798	-717
874.881	341
874.892	189
874.965	-844
874.999	-430
875.048	132
875.107	-380
875.131	-593
875.215	-515
875.215	-515
875.298	-622
875.323	-669
875.381	-697
875.430	-73
875.465	325
875.538	-50
875.548	-95
875.631	-453
875.646	-378
875.714	-65
875.753	-481
875.798	-919
875.861	-451
875.881	-335
875.964	-92
875.968	-69
876.047	489
876.076	329
876.130	-43
876.183	-379
876.213	-552
876.291	531
876.296	602
876.379	-452
876.398	-353
876.462	177
876.506	371
876.545	365
876.613	298
876.628	342
876.711	-556
876.721	-418
876.794	433
876.828	135
876.877	-228
876.935	331
876.960	545
877.043	63
877.043	62
877.125	52
877.150	144
877.208	270
877.258	420
877.291	609
877.365	36
877.374	-49
877.456	545
877.472	374
877.539	-149
877.579	198
877.622	400
877.687	36
877.704	-17
877.787	768
877.794	712
877.869	38
877.901	208
877.952	441
878.008	525
878.034	611
878.115	107
878.117	102
878.199	393
878.222	456
878.282	227
878.329	268
878.364	544
878.437	720
878.447	708
878.529	280
878.544	289
878.611	341
878.651	315
878.694	348
878.758	645
878.776	764
878.858	1223
878.865	1202
878.941	399
878.972	102
879.023	31
879.078	477
879.105	608
879.185	797
879.187	806
879.269	383
879.292	573
879.351	735
879.399	318
879.433	192
879.506	294
879.516	319
879.598	328
879.613	327
879.680	240
879.720	540
879.762	880
879.827	633
879.844	539
879.926	612
879.933	615
880.007	757
880.040	546
880.089	218
880.147	593
880.171	790
880.253	610
880.254	607
880.335	915
880.360	1083
880.417	1478
880.467	1430
880.499	1443
880.574	1959
880.580	1972
880.662	1355
880.680	1286
880.744	1215
880.787	1228
880.825	1180
880.893	898
880.907	871
880.989	749
881.000	748
881.070	817
881.106	505
881.152	271
881.213	1162
881.233	1245
881.315	510
881.319	457
881.396	765
881.426	954
881.478	715
881.532	807
881.559	1020
881.639	1040
881.641	1041
881.722	812
881.745	840
881.803	1062
881.852	1222
881.885	1169
881.958	1287
881.966	1356
882.047	1485
882.064	1543
882.129	1531
882.171	1452
882.210	1578
882.277	2220
882.291	2217
882.372	1450
882.383	1403
882.454	1452
882.489	1190
882.535	937
882.596	983
882.616	1043
882.697	1117
882.702	1129
882.778	1355
882.808	1338
882.859	1258
882.914	1171
882.940	1139
883.020	1135
883.021	1142
883.102	1176
883.127	1175
883.183	1137
883.233	1206
883.264	1300
883.339	1451
883.345	1430
883.426	842
883.445	783
883.507	1348
883.551	1488
883.587	1382
883.657	1483
883.668	1550
883.749	1457
883.763	1550
883.830	1635
883.869	1539
883.910	1585
883.975	1632
883.991	1631
884.072	1630
884.081	1620
884.152	1781
884.187	1793
884.233	1674
884.292	1562
884.314	1642
884.394	1863
884.398	1858
884.475	986
884.504	758
884.555	1226
884.610	1551
884.636	1372
884.716	1011
884.716	1025
884.797	1741
884.821	2089
884.877	1777
884.927	1281
884.958	1439
885.033	1815
885.038	1819
885.118	1683
885.139	1685
885.199	1763
885.244	1796
885.279	1856
885.350	1783
885.359	1824
885.439	2032
885.456	2139
885.520	1996
885.561	1797
885.600	1988
885.667	2528
885.680	2476
885.760	1630
885.773	1482
885.840	1577
885.878	1828
885.920	2065
885.984	2094
886.000	2101
886.080	2315
886.089	2321
886.160	1926
886.195	1701
886.240	1964
886.300	2366
886.320	2300
886.400	1960
886.406	1928
886.480	2317
886.511	2471
886.560	2548
886.616	2417
886.640	2349
886.720	2442
886.722	2429
886.800	1794
886.827	1528
886.879	1804
886.932	2151
886.959	2236
887.038	2345
887.039	2350
887.119	1853
887.143	1731
887.198	1846
887.248	1881
887.278	1986
887.354	2244
887.358	2242
887.437	1980
887.459	1883
887.517	2366
887.564	2845
887.596	2538
887.669	1602
887.676	1648
887.755	2245
887.774	2366
887.835	2496
887.880	2710
887.914	2829
887.985	2686
887.994	2646
888.073	2398
888.090	2330
888.153	2900
888.195	3274
888.232	3204
888.300	3055
888.311	2965
888.391	2120
888.405	1983
888.470	2306
888.510	2428
888.549	2695
888.615	3212
888.628	3144
888.708	2615
888.720	2521
888.787	2449
888.825	2359
888.866	2157
888.930	1868
888.945	2018
889.024	2788
889.035	2878
889.103	2669
889.140	2525
889.182	2718
889.245	3034
889.261	2978
889.340	2622
889.349	2574
889.419	2827
889.454	2939
889.498	2653
889.559	2243
889.577	2486
889.656	3522
889.664	3614
889.735	3290
889.768	3120
889.814	3249
889.873	3395
889.978	2642
890.083	3438
890.187	2760
890.292	2412
890.397	3235
890.501	3267
890.606	2399
890.710	3426
890.815	2621
890.919	3110
891.024	2684
891.128	2575
891.233	2346
891.337	3310
891.442	2425
891.546	2916
891.650	3163
891.755	3225
891.859	3463
891.963	2969
892.068	2759
892.172	2570
892.276	1900
892.380	3430
892.484	2268
892.589	3088
892.693	2380
892.797	2235
892.901	2400
893.005	2703
893.109	2283
893.213	2829
893.317	2349
893.421	3254
893.525	1689
893.629	3130
893.733	2583
893.837	2728
893.941	2862
894.045	4572
894.148	5378
894.252	12020
894.356	7285
894.460	2431
894.564	2026
894.667	2473
894.771	2375
894.875	2626
894.978	2049
895.082	2193
895.186	1627
895.289	2985
895.393	2395
895.496	2385
895.600	2609
895.703	2691
895.807	2075
895.910	2775
896.014	2576
896.117	3337
896.221	2249
896.324	2807
896.427	2077
896.531	2430
896.634	1880
896.737	3221
896.840	2091
896.944	2448
897.047	1767
897.150	2600
897.253	1579
897.356	2840
897.460	2890
897.563	2838
897.666	2469
897.769	1848
897.872	1969
897.975	2466
898.078	2729
898.181	2316
898.284	2224
898.387	2988
898.490	2681
898.593	2469
898.695	1733
898.798	2859
898.901	2986
899.004	2840
899.107	1708
899.209	3386
899.312	1921
899.415	2559
899.518	2426
899.620	2025
899.723	1535
899.826	3327
899.928	2498
900.031	2584
900.133	2258
900.236	2231
900.338	2620
900.441	2515
900.543	1531
900.646	2763
900.748	2804
900.851	2681
900.953	2466
901.055	1990
901.158	1384
901.260	1989
901.362	1978
901.465	1996
901.567	2296
901.669	2447
901.771	1467
901.873	2598
901.976	2191
902.078	2483
902.180	2364
902.282	2323
902.384	1944
902.486	3015
902.588	1469
902.690	1903
902.792	2523
902.894	2735
902.996	1608
903.098	2892
903.200	2068
903.302	2342
903.404	1892
903.505	1815
903.607	2153
903.709	1910
903.811	2360
903.913	2411
904.014	1998
904.116	2090
904.218	1721
904.319	2018
904.421	3153
904.523	2828
904.624	2392
904.726	2197
904.827	1563
904.929	2553
905.030	2077
905.132	2820
905.233	2776
905.335	1755
905.436	2116
905.537	2706
905.639	1949
905.740	2961
905.841	2434
905.943	2152
906.044	1662
906.145	2340
906.247	2561
906.348	2234
906.449	2121
906.550	2590
906.651	2730
906.752	2841
906.854	1537
906.955	2756
907.056	2088
907.157	2513
907.258	2275
907.359	2167
907.460	1658
907.561	2496
907.662	2779
907.762	2982
907.863	1637
907.964	3151
908.065	2357
908.166	2231
908.267	2280
908.367	1884
908.468	2054
908.569	2638
908.670	1888
908.770	2859
908.871	1599
908.971	2760
909.072	3136
909.173	2284
909.273	2596
909.374	2670
909.474	1416
909.575	2545
909.675	1942
909.776	2713
909.876	2425
909.977	2060
910.077	2028
910.177	2714
910.278	1870
910.378	2210
910.478	2692
910.579	2877
910.679	2046
910.779	2748
910.879	2107
910.980	2751
911.080	1914
911.180	2604
911.280	1858
911.380	2823
911.480	2463
911.580	3036
911.680	2225
911.780	3007
911.880	2709
911.980	1723
912.080	3117
912.180	2996
912.280	2172
912.380	2897
912.480	2525
912.580	2988
912.679	2195
912.779	2249
912.879	3343
912.979	2430
913.078	1831
913.178	3223
913.278	2083
913.377	2427
913.477	2286
913.577	1983
913.676	2566
913.776	2884
913.875	1865
913.975	2570
914.074	2676
914.174	2480
914.273	1497
914.373	3671
914.472	2938
914.572	2442
914.671	1836
914.770	2952
914.870	2647
914.969	2330
915.068	1856
915.167	2629
915.267	1057
915.366	2114
915.465	1912
915.564	2818
915.663	2736
915.763	2386
915.862	2306
915.961	2646
916.060	1251
916.159	2422
916.258	2159
916.357	3367
916.456	1574
916.555	2403
916.654	1703
916.752	2355
916.851	2298
916.950	2276
917.049	2240
917.148	1974
917.247	2769
917.345	2476
917.444	2218
917.543	3154
917.642	2022
917.740	2871
917.839	2447
917.937	3542
918.036	2717
918.135	2702
918.233	1824
918.332	2082
918.430	1442
918.529	2080
918.627	2297
918.726	2694
918.824	1975
918.923	3235
919.021	2184
919.119	2899
919.218	2600
919.316	2450
919.414	1948
919.512	2476
919.611	2465
919.709	2779
919.807	2305
919.905	3349
920.003	2874
920.102	2766
920.200	2103
920.298	2967
920.396	1881
920.494	3031
920.592	1855
920.690	2412
920.788	2078
920.886	3174
920.984	2046
921.082	2522
921.180	2239
921.277	3410
921.375	2388
921.473	2570
921.571	2234
921.669	3040
921.766	2930
921.864	3401
921.962	2448
922.060	3232
922.157	2442
922.255	2895
922.352	3109
922.450	3455
922.548	2534
922.645	2566
922.743	3499
922.840	3305
922.938	3184
923.035	4407
923.133	2985
923.230	4408
923.327	4484
923.425	4874
923.522	4253
923.619	4015
923.717	2937
923.814	4006
923.911	3397
924.008	4197
924.106	3637
924.203	4362
924.300	3012
924.397	3649
924.494	3210
924.591	4183
924.688	2830
924.786	4137
924.883	3229
924.979	4143
925.077	3945
925.173	4088
925.270	3169
925.367	3710
925.464	3144
925.561	4005
925.658	3348
925.755	3181
925.852	3562
925.948	4013
926.045	3487
926.142	3134
926.239	3138
926.335	3277
926.432	3108
926.529	3630
926.625	4581
926.722	3935
926.818	3362
926.915	2933
927.011	3177
927.108	3553
927.204	3591
927.301	3669
927.397	3669
927.494	4007
927.590	2723
927.687	2868
927.783	3633
927.879	2911
927.976	2244
928.072	3175
928.168	2817
928.264	3492
928.361	2556
928.457	3686
928.553	3475
928.649	3362
928.745	3435
928.841	2825
928.937	2805
929.033	3536
929.129	2815
929.225	3439
929.321	3427
929.417	2734
929.513	3217
929.609	4278
929.705	2869
929.801	3755
929.897	2725
929.993	3478
930.089	3177
930.184	3168
930.280	2843
930.376	4142
930.471	2132
930.567	2855
930.663	2772
930.758	3108
930.854	2654
930.950	3270
931.045	2612
931.141	3579
931.236	3237
931.332	3244
931.427	2150
931.523	4497
931.618	3631
931.714	3341
931.809	2074
931.905	3358
932.000	3244
932.095	2153
932.191	2501
932.286	2307
932.381	2624
932.476	3391
932.572	2963
932.667	3014
932.762	2735
932.857	3466
932.952	2492
933.047	2850
933.142	2515
933.237	3305
933.332	2530
933.427	3932
933.522	3422
933.617	3106
933.712	2280
933.807	3405
933.902	2938
933.997	3713
934.092	3070
934.187	3419
934.282	3032
934.376	3039
934.471	2690
934.566	3008
934.661	2529
934.755	3532
934.850	2691
934.945	3261
935.039	1893
935.134	3345
935.228	2884
935.323	2937
935.417	1465
935.512	3047
935.606	1988
935.701	2594
935.795	2263
935.890	3083
935.984	3041
936.079	3315
936.173	2330
936.267	2543
936.362	1662
936.456	2915
936.550	2954
936.644	2778
936.738	2473
936.833	2820
936.927	2842
937.021	2944
937.115	2210
937.209	2290
937.303	2884
937.397	3008
937.491	2311
937.585	2811
937.679	1908
937.773	3075
937.867	1755
937.961	2783
938.055	2768
938.149	3894
938.243	2544
938.337	2592
938.430	2456
938.524	3255
938.618	2136
938.712	3470
938.805	3103
938.899	2974
938.993	2715
939.086	2791
939.180	2387
939.274	2436
939.367	1635
939.461	3562
939.554	2244
939.648	2647
939.741	1839
939.835	2764
939.928	2467
940.022	3039
940.115	2042
940.208	2725
940.302	2552
940.395	2642
940.488	2029
940.582	2377
940.675	2435
940.768	2524
940.861	2255
940.954	3138
941.048	1756
941.141	2674
941.234	2452
941.327	1745
941.420	2427
941.513	2725
941.606	2769
941.699	3750
941.792	2662
941.885	2452
941.978	3149
942.071	2154
942.164	2489
942.257	3010
942.349	2286
942.442	2466
942.535	1997
942.628	2189
942.721	2742
942.813	2795
942.906	2355
942.999	2553
943.091	2061
943.184	2391
943.277	2145
943.369	3017
943.462	1636
943.554	3111
943.647	1807
943.739	2167
943.832	1948
943.924	1743
944.017	2200
944.109	1842
944.201	2158
944.294	2599
944.386	3113
944.478	2575
944.571	1658
944.663	2671
944.755	2091
944.847	2106
944.940	2543
945.032	1269
945.124	1503
945.216	2304
945.308	1951
945.400	2732
945.492	2142
945.584	2140
945.676	2501
945.768	2091
945.860	2198
945.952	3088
946.044	2834
946.136	1392
946.228	1996
946.320	2011
946.412	1746
946.503	2417
946.595	2994
946.687	1852
946.779	509
946.870	1524
946.962	1381
947.054	2518
947.145	2120
947.237	1645
947.329	1489
947.420	2025
947.512	1105
947.603	1697
947.695	1894
947.786	1373
947.878	1555
947.969	2617
948.061	1662
948.152	2836
948.243	1751
948.335	1737
948.426	1667
948.517	2265
948.609	1292
948.700	2146
948.791	2435
948.882	1768
948.973	1582
949.065	1207
949.156	1531
949.247	1682
949.338	1438
949.429	2749
949.520	1471
949.611	1264
949.702	1874
949.793	1908
949.884	1245
949.975	2105
950.066	1564
950.157	1479
950.247	1189
950.338	2061
950.429	2058
950.520	2416
950.611	1992
950.701	1039
950.792	1813
950.883	2374
950.973	1647
951.064	2360
951.155	1382
951.245	2396
951.336	658
951.427	2250
951.517	2568
951.608	1850
951.698	852
951.788	1817
951.879	698
951.969	2055
952.060	1761
952.150	1238
952.240	1963
952.331	633
952.421	1892
952.511	1553
952.602	1430
952.692	1777
952.782	1618
952.872	2098
952.962	1353
953.052	1591
953.143	633
953.233	2221
953.323	2241
953.413	1436
953.503	341
953.593	2218
953.683	1729
953.773	1237
953.863	1441
953.953	775
954.042	669
954.132	1422
954.222	1311
954.312	1636
954.402	1185
954.492	1450
954.581	1736
954.671	2409
954.761	594
954.850	2074
954.940	909
955.030	1207
955.119	1094
955.209	1628
955.298	489
955.388	1709
955.477	1613
955.567	1439
955.656	950
955.746	2410
955.835	666
955.925	1428
956.014	1677
956.103	1659
956.193	1327
956.282	1441
956.371	1226
956.461	1831
956.550	465
956.639	1564
956.728	1637
956.817	1616
956.906	461
956.995	2099
957.085	1409
957.174	1721
957.263	1147
957.352	1601
957.441	1342
957.530	1490
957.619	1544
957.708	1883
957.796	920
957.885	1828
957.974	1360
958.063	1719
958.152	608
958.241	762
958.329	1510
958.418	2516
958.507	857
958.596	2726
958.684	801
958.773	2481
958.861	858
958.950	2458
959.039	2596
959.127	2532
959.216	2289
959.304	1656
959.393	1546
959.481	2683
959.570	1744
959.658	1905
959.746	1445
959.835	3022
959.923	2316
960.011	1531
960.100	1611
960.188	1728
960.276	1358
960.365	1756
960.453	1848
960.541	1476
960.629	562
960.717	2064
960.805	921
960.893	1961
960.981	1236
961.069	2420
961.158	1514
961.245	1800
961.333	1333
961.421	1748
961.509	1415
961.597	2039
961.685	1133
961.773	1778
961.861	352
961.949	1064
962.036	124
962.124	1874
962.212	1230
962.299	1271
962.387	883
962.475	998
962.562	395
962.650	1910
962.738	920
962.825	1075
962.913	785
963.000	145
963.088	1602
963.175	1584
963.263	574
963.350	1402
963.438	508
963.525	1200
963.612	1454
963.700	1879
963.787	5576
963.874	2679
963.962	1235
964.049	1290
964.136	789
964.223	985
964.310	354
964.398	946
964.485	589
964.572	1773
964.659	1793
964.746	1416
964.833	344
964.920	1553
965.007	992
965.094	1633
965.181	330
965.268	578
965.355	359
965.441	942
965.528	951
965.615	2101
965.702	365
965.789	1299
965.875	1079
965.962	1316
966.049	257
966.136	1622
966.222	829
966.309	1107
966.395	383
966.482	1579
966.569	754
966.655	1251
966.742	666
966.828	1746
966.915	679
967.001	875
967.087	826
967.174	520
967.260	1297
967.347	2062
967.433	1456
967.519	3720
967.605	1812
967.692	706
967.778	1231
967.864	1977
967.950	493
968.036	987
968.123	410
968.209	530
968.295	1288
968.381	1892
968.467	958
968.553	-174
968.639	1688
968.725	1254
968.811	1521
968.897	1191
968.983	417
969.069	909
969.154	565
969.240	1116
969.326	327
969.412	791
969.497	343
969.583	76
969.669	1370
969.755	957
969.840	858
969.926	1224
970.012	796
970.097	1855
970.183	172
970.268	1458
970.354	1423
970.439	2060
970.525	2711
970.610	710
970.696	1218
970.781	783
970.866	-1014
970.952	1186
971.037	677
971.122	453
971.208	549
971.293	1866
971.378	368
971.463	1537
971.549	968
971.634	940
971.719	625
971.804	1336
971.889	924
971.974	637
972.059	1629
972.144	956
972.229	525
972.314	396
972.399	998
972.484	1171
972.569	293
972.654	812
972.739	1881
972.824	1416
972.908	271
972.993	857
973.078	252
973.163	1115
973.247	1222
973.332	-280
973.417	1619
973.501	654
973.586	1073
973.671	886
973.755	1309
973.840	1012
973.924	1280
974.009	932
974.093	-55
974.178	1983
974.262	1357
974.346	1428
974.431	808
974.515	340
974.600	781
974.684	1139
974.768	-160
974.852	1972
974.937	95
975.021	2030
975.105	454
975.189	1326
975.273	963
975.358	772
975.442	-886
975.526	1209
975.610	-8
975.694	977
975.778	609
975.862	563
975.946	-1050
976.030	2113
976.114	-826
976.198	111
976.281	992
976.365	1215
976.449	-608
976.533	683
976.617	-165
976.700	1229
976.784	-467
976.868	760
976.951	943
977.035	401
977.119	708
977.202	778
977.286	593
977.369	662
977.453	709
977.536	953
977.620	715
977.703	657
977.787	-560
977.870	884
977.953	1014
978.037	317
978.120	790
978.203	231
978.287	1412
978.370	1095
978.453	-255
978.536	7
978.620	1513
978.703	911
978.786	231
978.869	-188
978.952	-1
979.035	1849
979.118	613
979.201	252
979.284	384
979.367	834
979.450	1042
979.533	228
979.616	418
979.699	213
979.782	834
979.865	619
979.948	-51
980.030	-325
980.113	482
980.196	123
980.279	805
980.361	291
980.444	55
980.526	1006
980.609	-189
980.692	511
980.774	103
980.857	-222
980.939	768
981.022	93
981.104	-48
981.187	765
981.269	97
981.352	182
981.434	299
981.516	465
981.599	1083
981.681	229
981.763	53
981.846	1359
981.928	-1048
982.010	1134
982.092	-195
982.174	1457
982.256	-401
982.339	465
982.421	101
982.503	1254
982.585	66
982.667	423
982.749	322
982.831	666
982.913	-553
982.995	1445
983.077	19
983.158	1948
983.240	-89
983.322	320
983.404	196
983.486	94
983.568	-181
983.649	212
983.731	614
983.813	561
983.894	559
983.976	-149
984.058	588
984.139	1598
984.221	-1001
984.302	1669
984.384	58
984.465	360
984.547	179
984.628	684
984.710	-241
984.791	125
984.872	256
984.954	45
985.035	-31
985.116	87
985.198	-489
985.279	1763
985.360	-58
985.441	520
985.522	713
985.604	364
985.685	-1370
985.766	1393
985.847	1112
985.928	-225
986.009	-235
986.090	83
986.171	-159
986.252	619
986.333	249
986.414	434
986.495	-88
986.576	-972
986.656	-285
986.737	1150
986.818	181
986.899	-211
986.980	-527
987.060	904
987.141	290
987.222	1131
987.302	247
987.383	114
987.464	447
987.544	740
987.625	-445
987.705	699
987.786	411
987.866	979
987.947	-885
988.027	-84
988.108	-1121
988.188	635
988.268	-126
988.349	1037
988.429	-64
988.509	1368
988.589	374
988.670	-1168
988.750	1084
988.830	269
988.910	-286
988.990	442
989.070	-782
989.151	538
989.231	-1499
989.311	207
989.391	-38
989.471	48
989.551	-1084
989.631	-276
989.711	657
989.791	-223
989.870	-669
989.950	1270
990.030	-731
990.110	30
990.190	-600
990.269	984
990.349	-374
990.429	-50
990.509	-455
990.588	-647
990.668	-191
990.747	-382
990.827	-752
990.907	218
990.986	-166
991.066	69
991.145	-1143
991.225	323
991.304	-632
991.383	-286
991.463	-194
991.542	507
991.622	-202
991.701	-103
991.780	-265
991.859	421
991.939	35
992.018	273
992.097	-915
992.176	30
992.256	-736
992.335	117
992.414	514
992.493	-461
992.572	-382
992.651	519
992.730	-573
992.809	257
992.888	-1106
992.967	-151
993.046	-830
993.125	-455
993.203	-376
993.282	-53
993.361	-987
993.440	379
993.519	-1083
993.597	-67
993.676	-989
993.755	814
993.834	-329
993.912	-713
993.991	36
994.069	-834
994.148	-1375
994.226	-237
994.305	-666
994.384	-481
994.462	117
994.540	-417
994.619	-906
994.697	88
994.776	-1178
994.854	205
994.932	-1024
995.011	-325
995.089	-1291
995.167	111
995.245	-179
995.324	-116
995.402	309
995.480	-221
995.558	491
995.636	-1144
995.714	-673
995.792	333
995.870	-333
995.948	-749
996.026	-403
996.104	-448
996.182	-203
996.260	-737
996.338	14
996.416	-445
996.494	-960
996.572	183
996.649	-1061
996.727	-325
996.805	-339
996.883	-827
996.960	-405
997.038	-89
997.116	-937
997.193	-628
997.271	-746
997.348	-587
997.426	-1501
997.504	-1016
997.581	-274
997.658	-14
997.736	-1965
997.813	-981
997.891	233
997.968	-1524
998.046	-253
998.123	-970
998.200	-1156
998.277	-1095
998.355	-387
998.432	-1825
998.509	-667
998.586	-80
998.663	-1085
998.741	342
998.818	-2025
998.895	-749
998.972	-578
999.049	230
999.126	-1138
999.203	88
999.280	-1430
999.357	-729
999.434	-1146
999.511	33
999.587	-632
999.664	13
999.741	-905
999.818	7
999.895	-1785
999.971	-620
1000.048	-608
1000.125	307
1000.202	-831
1000.278	-1327
1000.355	-821
1000.431	-493
1000.508	-996
1000.584	-30
1000.661	-1141
1000.738	-623
1000.814	-1088
1000.890	-566
1000.967	-757
1001.043	-229
1001.120	-2009
1001.196	-1069
1001.272	-1172
1001.349	-679
1001.425	-1123
1001.501	-111
1001.577	-1767
1001.654	-809
1001.730	-1060
1001.806	-670
1001.882	-1414
1001.958	-271
1002.034	-1241
1002.110	-884
1002.186	-1510
1002.262	-811
1002.338	-1559
1002.414	-231
1002.490	-349
1002.566	-923
1002.642	-1527
1002.718	159
1002.794	-770
1002.870	-1052
1002.945	-1582
1003.021	-600
1003.097	-771
1003.173	221
1003.248	-1973
1003.324	-838
1003.400	-588
1003.475	-1219
1003.551	-1578
1003.626	-889
1003.702	-938
1003.777	-734
1003.853	-1822
1003.928	-1102
1004.004	-1492
1004.079	-749
1004.155	-1035
1004.230	-840
1004.305	-375
1004.381	-1606
1004.456	-1102
1004.531	-467
1004.607	-1400
1004.682	-656
1004.757	-938
1004.832	-905
1004.907	-1304
1004.982	-995
1005.057	-1434
1005.133	-514
1005.208	-895
1005.283	-1557
1005.358	-1068
1005.433	-1100
1005.508	-644
1005.583	-1532
1005.657	-1611
1005.732	267
1005.807	-1466
1005.882	-1468
1005.957	-1877
1006.032	-481
1006.106	-1185
1006.181	-820
1006.256	-1001
1006.331	-1454
1006.405	-1090
1006.480	201
1006.554	-641
1006.629	-655
1006.704	-1784
1006.778	-1176
1006.853	-517
1006.927	-1161
1007.002	-1225
1007.076	-389
1007.150	-1760
1007.225	-544
1007.299	-1246
1007.373	-1707
1007.448	-1229
1007.522	621
1007.596	-1127
1007.671	-1191
1007.745	-718
1007.819	-1419
1007.893	-1649
1007.967	-579
1008.041	-2025
1008.115	-400
1008.190	-1306
1008.264	-1413
1008.338	-1890
1008.412	-1071
1008.486	-1281
1008.560	-289
1008.633	-2326
1008.707	-672
1008.781	-1694
1008.855	-1725
1008.929	-1518
1009.003	-1481
1009.076	-1952
1009.150	-1247
1009.224	-1115
1009.298	-628
1009.371	-1448
1009.445	-806
1009.519	-1621
1009.592	-1633
1009.666	-1939
1009.739	-499
1009.813	-2422
1009.886	-1014
1009.960	-1977
1010.033	-877
1010.107	-1961
1010.180	-1931
1010.253	-1146
1010.327	-2491
1010.400	-1678
1010.473	-661
1010.547	-579
1010.620	-1487
1010.693	-1098
1010.766	-1129
1010.840	-1021
1010.913	-1006
1010.986	-2398
1011.059	-1409
1011.132	-1954
1011.205	-1125
1011.278	-1404
1011.351	-1072
1011.424	-1482
1011.497	-1263
1011.570	-1877
1011.643	-1361
1011.716	-1714
1011.789	-1026
1011.862	-734
1011.934	-674
1012.007	-2296
1012.080	-547
1012.153	-1207
1012.225	-747
1012.298	-2414
1012.371	-1638
1012.443	-2013
1012.516	-1932
1012.588	-1328
1012.661	-1384
1012.733	-1993
1012.806	-91
1012.879	-2028
1012.951	-902
1013.023	-2410
1013.096	-337
1013.168	-1860
1013.241	-135
1013.313	-1608
1013.385	-1293
1013.458	-1554
1013.530	-552
1013.602	-1787
1013.674	-663
1013.746	-2164
1013.819	-1015
1013.891	-1468
1013.963	-709
1014.035	-2501
1014.107	-1228
1014.179	-1717
1014.251	-1439
1014.323	-1512
1014.395	-1175
1014.467	-2047
1014.539	-2427
1014.611	-2084
1014.683	-1233
1014.754	-2199
1014.826	-1443
1014.898	-2006
1014.970	-1157
1015.042	-1156
1015.113	-970
1015.185	-1887
1015.257	-2461
1015.328	-1461
1015.400	-1622
1015.471	-1454
1015.543	-1807
1015.615	-1947
1015.686	-2064
1015.757	-2213
1015.829	-1040
1015.901	-1763
1015.972	-1956
1016.043	-2087
1016.115	-1597
1016.186	-1438
1016.257	-1926
1016.328	-1673
1016.400	-427
1016.471	-2082
1016.542	-1758
1016.613	-1672
1016.685	-1872
1016.756	-1101
1016.827	-1737
1016.898	-2374
1016.969	-595
1017.040	-660
1017.111	-1656
1017.182	-1676
1017.253	-760
1017.324	-1691
1017.395	-1605
1017.466	-1374
1017.537	-1071
1017.608	-1754
1017.678	-1608
1017.749	-1677
1017.820	-1333
1017.891	-2025
1017.961	-1663
1018.032	-2153
1018.103	-775
1018.173	-1910
1018.244	-2132
1018.315	-2590
1018.385	-1493
1018.456	-1625
1018.526	-1812
1018.597	-1930
1018.667	-1464
1018.738	-1984
1018.808	-1094
1018.878	-2282
1018.949	-1569
1019.019	-1743
1019.089	-1052
1019.160	-1764
1019.230	-1958
1019.300	-1661
1019.371	-1983
1019.441	-1320
1019.511	-1556
1019.581	-1953
1019.651	-1632
1019.721	-2018
1019.791	-1449
1019.861	-2492
1019.931	-1265
1020.001	-1608
1020.071	-1298
1020.141	-1104
1020.211	-1411
1020.281	-2417
1020.351	-1522
1020.421	-1655
1020.491	-977
1020.560	-2584
1020.630	-1338
1020.700	-1732
1020.770	-1803
1020.839	-1710
1020.909	-827
1020.979	-2039
1021.048	-1791
1021.118	-1943
1021.187	-1850
1021.257	-1589
1021.326	-1598
1021.396	-2057
1021.465	-1765
1021.535	-1256
1021.604	-2430
1021.674	-1924
1021.743	-871
1021.812	-1254
1021.882	-1914
1021.951	-2565
1022.020	-1756
1022.089	-1683
1022.159	-1813
1022.228	-2022
1022.297	-1403
1022.366	-3221
1022.435	-2587
1022.504	-2045
1022.573	-1815
1022.642	-1397
1022.711	-2093
1022.781	-1295
1022.849	-1483
1022.918	-2822
1022.987	-1054
1023.056	-2321
1023.125	-1331
1023.194	-2058
1023.263	-2291
1023.331	-2053
1023.400	-1590
1023.469	-2577
1023.538	-1242
1023.606	-2776
1023.675	-1336
1023.744	-1743
1023.812	-1470
1023.881	-1615
1023.949	-1877
1024.018	-2113
1024.086	-1338
1024.155	-1821
1024.223	-1934
1024.292	-1915
1024.360	-1692
1024.429	-2402
1024.497	-1605
1024.565	-2041
1024.634	-2583
1024.702	-1433
1024.770	-1968
1024.838	-2573
1024.907	-1280
1024.975	-2197
1025.043	-1009
1025.111	-2565
1025.179	-1027
1025.247	-1846
1025.315	-2382
1025.383	-2432
1025.451	-1264
1025.519	-2000
1025.587	-2049
1025.655	-2295
1025.723	-2007
1025.791	-1900
1025.859	-1403
1025.927	-1721
1025.995	-1938
1026.062	-1842
1026.130	-803
1026.198	-2373
1026.266	-2317
1026.333	-2003
1026.401	-1665
1026.469	-2416
1026.536	-1286
1026.604	-1998
1026.671	-1992
1026.739	-1744
1026.806	-1697
1026.874	-2214
1026.941	-2258
1027.009	-2075
1027.076	-1203
1027.144	-1874
1027.211	-2863
1027.278	-2718
1027.345	-1554
1027.413	-2667
1027.480	-2314
1027.547	-2164
1027.614	-2118
1027.682	-2268
1027.749	-1849
1027.816	-2037
1027.883	-1722
1027.950	-2020
1028.017	-1995
1028.084	-2206
1028.151	-2336
1028.218	-1977
1028.285	-1517
1028.352	-2055
1028.419	-2192
1028.486	-1551
1028.553	-1663
1028.619	-2627
1028.686	-1534
1028.753	-2018
1028.820	-1334
1028.886	-2265
1028.953	-1702
1029.020	-2573
1029.086	-2219
1029.153	-2075
1029.220	-2339
1029.286	-2598
1029.353	-1328
1029.419	-2122
1029.486	-1632
1029.552	-1969
1029.619	-2398
1029.685	-1585
1029.751	-2181
1029.818	-1522
1029.884	-2089
1029.951	-2875
1030.017	-1880
1030.083	-2254
1030.149	-1039
1030.216	-2124
1030.282	-1377
1030.348	-1982
1030.414	-2180
1030.480	-2682
1030.546	-1716
1030.612	-2456
1030.678	-2274
1030.744	-2602
1030.810	-1417
1030.876	-2510
1030.942	-1520
1031.008	-2558
1031.074	-2632
1031.140	-2142
1031.206	-1170
1031.272	-2487
1031.337	-1778
1031.403	-2609
1031.469	-2390
1031.534	-2222
1031.600	-1734
1031.666	-2635
1031.731	-1403
1031.797	-2378
1031.863	-2292
1031.928	-2080
1031.994	-1570
1032.059	-2977
1032.125	-2278
1032.190	-2075
1032.256	-2099
1032.321	-2241
1032.386	-2448
1032.452	-1600
1032.517	-1896
1032.582	-2687
1032.647	-1854
1032.713	-2138
1032.778	-1914
1032.843	-1888
1032.908	-1797
1032.974	-1743
1033.039	-2015
1033.104	-1776
1033.169	-2103
1033.234	-1295
1033.299	-1095
1033.364	-2314
1033.429	-1370
1033.494	-1590
1033.559	-2562
1033.624	-2182
1033.688	-624
1033.753	-2366
1033.818	-2123
1033.883	-2670
1033.948	-1785
1034.013	-2508
1034.077	-1282
1034.142	-2349
1034.207	-1017
1034.271	-1587
1034.336	-881
1034.400	-2342
1034.465	-1825
1034.530	-1836
1034.594	-1914
1034.658	-2403
1034.723	-1643
1034.787	-1986
1034.852	-1949
1034.916	-3386
1034.981	-2020
1035.045	-1593
1035.109	-1794
1035.173	-1219
1035.238	-1873
1035.302	-2107
1035.366	-1643
1035.430	-2972
1035.495	-1856
1035.559	-1949
1035.623	-1657
1035.687	-2294
1035.751	-1662
1035.815	-2336
1035.879	-1668
1035.943	-1888
1036.007	-2104
1036.071	-1713
1036.135	-2137
1036.198	-2309
1036.262	-1838
1036.326	-1522
1036.390	-2598
1036.454	-1617
1036.517	-1896
1036.581	-2596
1036.645	-2782
1036.709	-2112
1036.772	-1912
1036.836	-2432
1036.900	-1911
1036.963	-2449
1037.026	-1929
1037.090	-2021
1037.154	-1997
1037.217	-2050
1037.280	-1456
1037.344	-2427
1037.407	-2112
1037.471	-2348
1037.534	-1961
1037.597	-1854
1037.661	-1491
1037.724	-1872
1037.787	-2323
1037.850	-1860
1037.913	-1882
1037.977	-1683
1038.040	-2191
1038.103	-2237
1038.166	-1842
1038.229	-2031
1038.292	-1335
1038.355	-2512
1038.418	-2275
1038.481	-2065
1038.544	-1980
1038.607	-1892
1038.670	-1663
1038.732	-2993
1038.795	-2400
1038.858	-2865
1038.921	-1700
1038.984	-2091
1039.046	-2161
1039.109	-2010
1039.172	-2029
1039.234	-2096
1039.297	-2006
1039.360	-2029
1039.422	-1691
1039.485	-1992
1039.547	-2391
1039.610	-2775
1039.672	-1572
1039.734	-2309
1039.797	-1816
1039.859	-987
1039.922	-1540
1039.984	-2156
1040.046	-2068
1040.109	-1710
1040.171	-1990
1040.233	-2499
1040.295	-1697
1040.358	-2572
1040.420	-1480
1040.482	-2525
1040.544	-1496
1040.606	-1858
1040.668	-1790
1040.730	-2119
1040.792	-2229
1040.854	-2233
1040.916	-1494
1040.978	-1981
1041.040	-1504
1041.102	-2407
1041.164	-1753
1041.225	-2052
1041.287	-1963
1041.349	-2445
1041.411	-2023
1041.472	-1903
1041.534	-1898
1041.596	-2642
1041.657	-2141
1041.719	-2183
1041.781	-1917
1041.842	-3029
1041.904	-1852
1041.965	-2015
1042.027	-1665
1042.088	-1586
1042.150	-1003
1042.211	-2014
1042.272	-1347
1042.334	-2049
1042.395	-1713
1042.456	-2686
1042.518	-1976
1042.579	-1525
1042.640	-1452
1042.701	-2397
1042.763	-1101
1042.824	-1847
1042.885	-2429
1042.946	-1996
1043.007	-2164
1043.068	-2054
1043.129	-1871
1043.190	-3229
1043.251	-955
1043.312	-2277
1043.373	-1662
1043.434	-1707
1043.495	-2012
1043.556	-2470
1043.616	-1385
1043.677	-1685
1043.738	-1137
1043.799	-1526
1043.859	-1813
1043.920	-2071
1043.981	-1848
1044.041	-2164
1044.102	-1788
1044.162	-2106
1044.223	-2456
1044.284	-2030
1044.344	-1261
1044.405	-2358
1044.465	-1795
1044.525	-2398
1044.586	-1629
1044.646	-1911
1044.707	-1769
1044.767	-2045
1044.827	-1299
1044.887	-1957
1044.948	-98
1045.008	-2072
1045.068	-1581
1045.128	-1928
1045.188	-1244
1045.249	-1281
1045.309	-1336
1045.369	-1766
1045.429	-1641
1045.489	-2475
1045.549	-1682
1045.609	-1985
1045.669	-1433
1045.729	-1741
1045.789	-2079
1045.848	-1838
1045.908	-1181
1045.968	-2443
1046.028	-919
1046.088	-1757
1046.147	-1450
1046.207	-2675
1046.267	-1113
1046.326	-1446
1046.386	-1276
1046.446	-951
1046.505	-678
1046.565	-1055
1046.624	-522
1046.684	-1359
1046.743	-984
1046.803	-664
1046.862	-970
1046.922	0
