'Start Wavelength	183.907
'End Wavelength	1046.922
'Gate Delay	5.000
'Gate Width (ms)	1.050
'Laser Output Level	0.000
'X Position	0.000
'Y Position	0.000
'Z Position	0.000
'Grid Point Number	1.000
'Shot Number	100.000
183.907	412.000
183.977	91.000
184.047	879
184.116	439
184.186	436
184.256	-234
184.325	-374
184.395	-142
184.465	178
184.534	-7
184.604	51
184.674	202
184.743	-467
184.813	-23
184.883	700
184.952	48
185.022	337
185.092	-809
185.161	150
185.231	330
185.301	960
185.370	-385
185.440	557
185.509	-370
185.579	-135
185.649	-170
185.718	-79
185.788	-348
185.857	671
185.927	-347
185.996	286
186.066	694
186.136	535
186.205	-421
186.275	194
186.344	-285
186.414	286
186.483	-464
186.553	700
186.622	-128
186.692	196
186.761	342
186.831	465
186.900	74
186.970	37
187.039	507
187.109	620
187.178	-430
187.248	643
187.317	362
187.387	5
187.456	415
187.526	776
187.595	586
187.664	380
187.734	-380
187.803	8
187.873	287
187.942	995
188.012	261
188.081	-197
188.150	-1
188.220	530
188.289	555
188.358	459
188.428	225
188.497	767
188.567	-41
188.636	-92
188.705	34
188.775	728
188.844	931
188.913	-21
188.983	-7
189.052	166
189.121	-38
189.191	793
189.260	705
189.329	1264
189.399	622
189.468	139
189.537	492
189.606	150
189.676	333
189.745	315
189.814	145
189.883	660
189.953	308
190.022	1436
190.091	2107
190.161	3099
190.230	1082
190.299	473
190.368	112
190.437	53
190.507	294
190.576	175
190.645	-246
190.714	128
190.783	22
190.853	800
190.922	584
190.991	102
191.060	409
191.129	636
191.198	849
191.268	253
191.337	288
191.406	1119
191.475	16
191.544	987
191.613	492
191.682	319
191.752	573
191.821	140
191.890	374
191.959	405
192.028	172
192.097	665
192.166	284
192.235	442
192.304	116
192.373	388
192.442	779
192.511	906
192.580	-76
192.650	-90
192.719	212
192.788	564
192.857	607
192.926	216
192.995	500
193.064	1019
193.133	768
193.202	1263
193.271	1495
193.340	1444
193.409	1246
193.478	1610
193.547	2103
193.615	2447
193.684	2138
193.753	1564
193.822	1132
193.891	652
193.960	320
194.029	-576
194.098	681
194.167	1233
194.236	749
194.305	860
194.374	486
194.443	98
194.512	729
194.580	110
194.649	1029
194.718	827
194.787	19
194.856	166
194.925	1312
194.994	357
195.062	902
195.131	1105
195.200	571
195.269	1029
195.338	420
195.407	644
195.475	893
195.544	1168
195.613	864
195.682	1575
195.751	442
195.819	419
195.888	730
195.957	1405
196.026	1336
196.094	1362
196.163	946
196.232	840
196.301	722
196.369	1299
196.438	384
196.507	1546
196.576	671
196.644	231
196.713	791
196.782	721
196.850	760
196.919	763
196.988	-205
197.056	428
197.125	289
197.194	906
197.262	607
197.331	1535
197.400	400
197.468	695
197.537	390
197.606	1410
197.674	1594
197.743	2942
197.812	543
197.880	3231
197.949	1955
198.017	2630
198.086	1135
198.155	1615
198.223	534
198.292	2806
198.360	984
198.429	1446
198.497	789
198.566	1734
198.635	2877
198.703	1445
198.772	308
198.840	3708
198.909	3177
198.977	1274
199.046	1144
199.114	1136
199.183	1376
199.251	-222
199.320	430
199.388	29
199.457	204
199.525	595
199.594	885
199.662	310
199.731	757
199.799	1153
199.867	146
199.936	466
200.004	642
200.073	1202
200.141	40
200.210	406
200.278	613
200.346	1055
200.415	1201
200.483	1156
200.552	1605
200.620	847
200.688	621
200.757	510
200.825	1361
200.893	1093
200.962	813
201.030	993
201.098	403
201.167	1724
201.235	593
201.303	832
201.372	635
201.440	461
201.508	968
201.577	1224
201.645	923
201.713	1798
201.781	510
201.850	731
201.918	872
201.986	621
202.055	639
202.123	766
202.191	940
202.259	1415
202.327	731
202.396	944
202.464	916
202.532	1016
202.600	1777
202.669	1333
202.737	639
202.805	635
202.873	886
202.941	962
203.009	1119
203.078	1185
203.146	899
203.214	1662
203.282	709
203.350	1532
203.418	685
203.487	1205
203.555	1101
203.623	906
203.691	754
203.759	378
203.827	194
203.895	602
203.963	1052
204.031	755
204.099	988
204.168	501
204.236	1368
204.304	1542
204.372	1018
204.440	1577
204.508	981
204.576	1011
204.644	1176
204.712	871
204.780	1467
204.848	1373
204.916	890
204.984	1106
205.052	848
205.120	893
205.188	1120
205.256	621
205.324	907
205.392	794
205.460	1111
205.528	1021
205.596	1565
205.664	581
205.732	1000
205.799	3710
205.867	5166
205.935	2247
206.003	1694
206.071	1439
206.139	1168
206.207	1566
206.275	869
206.343	1757
206.411	1510
206.478	1575
206.546	1216
206.614	1205
206.682	2209
206.750	1471
206.818	1747
206.885	2048
206.953	425
207.021	1988
207.089	1190
207.157	1608
207.225	1204
207.292	1087
207.360	1400
207.428	1709
207.496	1969
207.563	1049
207.631	754
207.699	1234
207.767	559
207.834	745
207.902	1405
207.970	1220
208.038	1356
208.105	2191
208.173	1739
208.241	1995
208.309	3031
208.376	1495
208.444	2799
208.512	2131
208.579	163
208.647	2089
208.715	1641
208.782	1671
208.850	1689
208.918	1573
208.985	2311
209.053	975
209.120	722
209.188	1991
209.256	1383
209.323	1593
209.391	1598
209.459	1903
209.526	1200
209.594	1010
209.661	1844
209.729	1861
209.796	2349
209.864	2664
209.932	1147
209.999	2508
210.067	1773
210.134	1818
210.202	1613
210.269	2424
210.337	1969
210.404	1886
210.472	1713
210.539	1646
210.607	1014
210.674	2378
210.742	1555
210.809	1771
210.877	1684
210.944	2202
211.012	998
211.079	3274
211.146	2170
211.214	2571
211.281	1996
211.349	2334
211.416	2225
211.484	2315
211.551	2190
211.618	2015
211.686	2038
211.753	1245
211.821	2168
211.888	2135
211.955	2188
212.023	1517
212.090	1579
212.157	2129
212.225	2786
212.292	5271
212.359	8831
212.427	16441
212.494	7502
212.561	4092
212.629	3213
212.696	3411
212.763	2443
212.831	3300
212.898	2531
212.965	2281
213.032	2493
213.100	1332
213.167	1978
213.234	3041
213.301	1462
213.369	2355
213.436	2544
213.503	2023
213.570	2113
213.638	2233
213.705	2042
213.772	2234
213.839	2465
213.906	2027
213.973	2468
214.041	2307
214.108	2403
214.175	1431
214.242	2372
214.309	2249
214.376	1945
214.444	2734
214.511	2232
214.578	2517
214.645	2826
214.712	3078
214.779	3021
214.846	2463
214.913	2994
214.980	3219
215.048	3595
215.115	3399
215.182	2860
215.249	2275
215.316	2285
215.383	2965
215.450	2311
215.517	2336
215.584	2125
215.651	2119
215.718	2194
215.785	2828
215.852	2141
215.919	2450
215.986	2532
216.053	1798
216.120	1605
216.187	2560
216.254	2145
216.321	2267
216.388	1747
216.455	3032
216.522	2591
216.589	2715
216.656	3906
216.722	4514
216.789	3815
216.856	4409
216.923	3617
216.990	3857
217.057	2779
217.124	3890
217.191	3977
217.258	4485
217.324	4717
217.391	5366
217.458	4309
217.525	3433
217.592	2512
217.659	2708
217.725	3660
217.792	4102
217.859	3384
217.926	3199
217.993	1955
218.059	2576
218.126	1983
218.193	2207
218.260	2363
218.327	1571
218.393	1882
218.460	2580
218.527	1773
218.594	2145
218.660	3441
218.727	3964
218.794	2062
218.860	2259
218.927	1781
218.994	1318
219.061	1729
219.127	2283
219.194	3264
219.261	2074
219.327	1263
219.394	1783
219.461	1060
219.527	2218
219.594	2311
219.661	2664
219.727	1104
219.794	2508
219.860	1212
219.927	2505
219.994	3101
220.060	4793
220.127	3044
220.193	3423
220.260	2798
220.326	5094
220.393	7640
220.460	9836
220.526	5183
220.593	3752
220.659	5003
220.726	4891
220.792	10181
220.859	8863
220.925	12179
220.992	15931
221.058	14185
221.125	12782
221.191	9635
221.258	4581
221.324	3005
221.391	2799
221.457	2664
221.524	2973
221.590	4972
221.657	13554
221.723	7892
221.789	7648
221.856	6596
221.922	4182
221.989	3380
222.055	2932
222.121	2438
222.188	3852
222.254	3340
222.321	2264
222.387	2061
222.453	2042
222.520	2523
222.586	2031
222.652	2625
222.719	1462
222.785	2124
222.851	1646
222.918	1616
222.984	1584
223.050	1520
223.116	1612
223.183	1614
223.249	1078
223.315	1309
223.382	1674
223.448	867
223.514	1338
223.580	1775
223.647	1134
223.713	1573
223.779	2136
223.845	1878
223.911	2380
223.978	1306
224.044	1298
224.110	2044
224.176	2921
224.242	1898
224.309	1721
224.375	2289
224.441	1800
224.507	1057
224.573	1424
224.639	1859
224.705	1014
224.772	2056
224.838	1948
224.904	1616
224.970	1679
225.036	1168
225.102	1737
225.168	1794
225.234	1849
225.300	1039
225.366	2047
225.432	1203
225.499	2248
225.565	1793
225.631	2599
225.697	2649
225.763	2659
225.829	2859
225.895	3018
225.961	4435
226.027	4157
226.093	3176
226.159	5049
226.225	6713
226.291	17279
226.357	22237
226.423	10889
226.489	5757
226.554	3825
226.620	4146
226.686	5409
226.752	7341
226.818	13851
226.884	30879
226.950	24359
227.016	10247
227.082	7348
227.148	4990
227.214	4182
227.279	3705
227.345	3777
227.411	2689
227.477	3322
227.543	5741
227.609	5408
227.674	3491
227.740	2849
227.806	2653
227.872	1948
227.938	1765
228.003	3816
228.069	2032
228.135	2956
228.201	3199
228.267	1915
228.332	1841
228.398	2442
228.464	2797
228.530	1429
228.595	1962
228.661	1899
228.727	3056
228.792	2245
228.858	1544
228.924	2379
228.990	3449
229.055	1713
229.121	2854
229.187	2242
229.252	2278
229.318	2233
229.384	2355
229.449	1499
229.515	1289
229.581	1101
229.646	2198
229.712	1665
229.777	3574
229.843	4199
229.909	4261
229.974	4176
230.040	4259
230.105	3340
230.171	3304
230.236	5751
230.302	7786
230.368	5461
230.433	3859
230.499	2823
230.564	3620
230.630	2445
230.695	2792
230.761	3715
230.826	1452
230.892	3859
230.957	1819
231.023	2218
231.088	2546
231.154	3060
231.219	2578
231.284	3041
231.350	3033
231.415	2400
231.481	1683
231.546	2421
231.612	2089
231.677	2104
231.742	1139
231.808	3171
231.873	2269
231.939	1521
232.004	3444
232.069	3118
232.135	2198
232.200	1633
232.265	2360
232.331	2545
232.396	1293
232.461	1824
232.527	1686
232.592	1193
232.657	1873
232.723	2997
232.788	1804
232.853	2214
232.918	1821
232.984	1594
233.049	1944
233.114	1753
233.179	2301
233.245	2878
233.310	2370
233.375	1728
233.440	2136
233.506	2077
233.571	2072
233.636	1169
233.701	1623
233.766	2589
233.832	2515
233.897	1408
233.962	926
234.027	2042
234.092	2564
234.157	1477
234.222	2430
234.288	2445
234.353	4737
234.418	4274
234.483	3577
234.548	3804
234.613	2660
234.678	3056
234.743	3488
234.808	6585
234.873	4123
234.938	3935
235.004	2741
235.069	3271
235.134	1935
235.199	3397
235.264	2735
235.329	2493
235.394	2746
235.459	4021
235.524	2735
235.589	2977
235.654	2923
235.719	1465
235.784	1873
235.849	2228
235.913	3013
235.978	3323
236.043	2855
236.108	2801
236.173	2443
236.238	3345
236.303	2720
236.368	2493
236.433	4151
236.498	3320
236.563	5667
236.627	11810
236.692	38141
236.757	27248
236.822	10076
236.887	7628
236.952	6805
237.017	5487
237.081	6395
237.146	7500
237.211	16635
237.276	39141
237.341	53607
237.405	22086
237.470	9354
237.535	7012
237.600	6161
237.664	4118
237.729	4788
237.794	5406
237.859	10023
237.923	5858
237.988	3927
238.053	4287
238.118	3856
238.182	8061
238.247	6501
238.312	3051
238.376	3034
238.441	1385
238.506	3682
238.570	1771
238.635	3113
238.700	1902
238.764	1786
238.829	4365
238.893	4506
238.958	4373
239.023	3132
239.087	2102
239.152	2885
239.216	2737
239.281	2968
239.346	2062
239.410	1990
239.475	3264
239.539	7701
239.604	4378
239.668	3327
239.733	2837
239.797	4926
239.862	9684
239.926	6554
239.991	3975
240.055	1829
240.120	2344
240.184	2680
240.249	2068
240.313	1107
240.378	1813
240.442	4232
240.507	5696
240.571	1897
240.635	3213
240.700	2499
240.764	1219
240.829	1970
240.893	832
240.957	1572
241.022	4632
241.086	4770
241.151	2388
241.215	1201
241.279	2851
241.344	2558
241.408	3591
241.472	3226
241.537	4422
241.601	3776
241.665	3165
241.730	2884
241.794	4607
241.858	3199
241.922	3391
241.987	4057
242.051	3109
242.115	3258
242.179	3948
242.244	3260
242.308	3907
242.372	2926
242.436	4212
242.501	2437
242.565	2824
242.629	2732
242.693	3507
242.757	2385
242.822	3064
242.886	2728
242.950	3776
243.014	2936
243.078	2871
243.142	3135
243.206	2855
243.271	3027
243.335	3575
243.399	6889
243.463	27086
243.527	53092
243.591	16635
243.655	7086
243.719	4711
243.783	4599
243.847	9456
243.911	10049
243.975	6238
244.040	3779
244.104	3870
244.168	3016
244.232	3806
244.296	6766
244.360	8461
244.424	2955
244.488	3071
244.552	2442
244.615	2251
244.679	2121
244.743	3094
244.807	1935
244.871	3173
244.935	2706
244.999	1482
245.063	2025
245.127	3541
245.191	7077
245.255	5606
245.319	3957
245.383	2157
245.446	2922
245.510	1513
245.574	2543
245.638	2883
245.702	2167
245.766	5953
245.829	3454
245.893	2091
245.957	2628
246.021	2916
246.085	2833
246.149	3458
246.212	7817
246.276	9760
246.340	3829
246.404	3515
246.467	4323
246.531	3833
246.595	4404
246.659	3821
246.722	1633
246.786	4010
246.850	4433
246.913	4410
246.977	2047
247.041	2751
247.104	2435
247.168	3650
247.232	6948
247.295	14168
247.359	6810
247.423	3598
247.486	4999
247.550	4370
247.614	2284
247.677	3453
247.741	2854
247.804	2392
247.868	2342
247.932	5926
247.995	11978
248.059	4022
248.122	1657
248.186	3812
248.249	5523
248.313	22313
248.376	19322
248.440	12676
248.503	4924
248.567	5803
248.630	5390
248.694	7507
248.757	11381
248.821	22374
248.884	12862
248.948	13372
249.011	17599
249.075	27386
249.138	20765
249.202	8730
249.265	5808
249.328	7146
249.392	4723
249.455	5184
249.519	4714
249.582	5824
249.645	7706
249.709	5770
249.772	4783
249.835	5215
249.899	4888
249.962	5009
250.025	4875
250.089	11919
250.152	11795
250.215	6282
250.279	4936
250.342	6363
250.405	6022
250.468	5866
250.532	7502
250.595	14675
250.658	60069
250.721	78827
250.785	26022
250.848	15134
250.911	8945
250.974	9419
251.038	10699
251.101	16484
251.164	8932
251.227	9523
251.290	10789
251.354	21628
251.417	79357
251.480	68711
251.543	59177
251.606	130873
251.669	90896
251.732	37464
251.795	31021
251.859	37150
251.922	83814
251.985	42677
252.048	17370
252.111	12013
252.174	10026
252.237	15987
252.300	29943
252.363	47677
252.426	95120
252.489	37649
252.552	16468
252.615	11678
252.678	12144
252.741	25616
252.804	49133
252.867	101666
252.930	47044
252.993	22314
253.056	13242
253.119	9335
253.182	9961
253.245	20552
253.308	11947
253.371	7250
253.434	6033
253.497	7545
253.559	13750
253.622	8393
253.685	8115
253.748	7505
253.811	3706
253.874	5944
253.937	3712
254.000	4770
254.062	7854
254.125	12460
254.188	10608
254.251	7776
254.314	3775
254.376	7011
254.439	6961
254.502	6095
254.565	8192
254.628	13326
254.690	6455
254.753	3523
254.816	2110
254.878	3644
254.941	9251
255.004	7626
255.067	3211
255.129	2755
255.192	2980
255.255	2321
255.317	2918
255.380	1810
255.443	2047
255.505	2048
255.568	1097
255.631	1772
255.693	2850
255.756	795
255.819	2042
255.881	2134
255.944	1640
256.006	1601
256.069	897
256.132	1083
256.194	2799
256.257	4175
256.319	3673
256.382	2600
256.444	3912
256.507	3402
256.569	3867
256.632	3950
256.694	5430
256.757	22380
256.819	56831
256.882	19986
256.944	8048
257.007	5377
257.069	5153
257.132	4582
257.194	4525
257.257	4074
257.319	3472
257.381	4485
257.444	14984
257.506	71629
257.569	60963
257.631	20348
257.693	11543
257.756	6787
257.818	5172
257.880	4023
257.943	3904
258.005	2830
258.067	2337
258.130	2935
258.192	3148
258.254	5014
258.317	3787
258.379	3632
258.441	8002
258.503	7364
258.566	7133
258.628	7865
258.690	2905
258.753	4378
258.815	4783
258.877	3881
258.939	3783
259.001	3966
259.064	2867
259.126	3508
259.188	3395
259.250	3684
259.312	4206
259.375	7592
259.437	4143
259.499	3751
259.561	2457
259.623	2725
259.685	2763
259.747	2906
259.809	8069
259.872	10911
259.934	19906
259.996	16299
260.058	5208
260.120	3785
260.182	2771
260.244	3130
260.306	2428
260.368	2923
260.430	2525
260.492	6285
260.554	7594
260.616	5293
260.678	10047
260.740	10747
260.802	3102
260.864	3497
260.926	2046
260.988	3808
261.050	3063
261.112	7611
261.174	15311
261.236	8704
261.298	3069
261.359	5392
261.421	6824
261.483	2565
261.545	2601
261.607	1414
261.669	2764
261.731	3200
261.793	6576
261.854	2661
261.916	2982
261.978	2794
262.040	2781
262.102	1813
262.164	3534
262.225	1554
262.287	1810
262.349	4462
262.411	3417
262.472	2541
262.534	3168
262.596	5263
262.658	2011
262.719	1509
262.781	3119
262.843	5122
262.904	3574
262.966	3146
263.028	5158
263.090	30247
263.151	68157
263.213	18729
263.275	8267
263.336	4400
263.398	3733
263.459	2257
263.521	3307
263.583	6007
263.644	2774
263.706	2082
263.767	1054
263.829	2025
263.891	1003
263.952	446
264.014	727
264.075	3555
264.137	7747
264.198	2571
264.260	1062
264.321	2383
264.383	4573
264.444	11535
264.506	3120
264.567	2771
264.629	6525
264.690	9539
264.752	3489
264.813	2794
264.875	1656
264.936	2974
264.998	2168
265.059	1491
265.120	2590
265.182	4631
265.243	32716
265.305	25182
265.366	5133
265.427	3756
265.489	3420
265.550	1190
265.611	2486
265.673	2002
265.734	1617
265.795	1747
265.857	1420
265.918	2556
265.979	8471
266.040	54319
266.102	32659
266.163	9465
266.224	4646
266.286	3469
266.347	1275
266.408	1719
266.469	1925
266.530	1047
266.592	1178
266.653	3466
266.714	4089
266.775	2098
266.836	2097
266.898	1323
266.959	3279
267.020	2182
267.081	2830
267.142	1823
267.203	1829
267.264	1209
267.326	3079
267.387	1913
267.448	906
267.509	2446
267.570	1844
267.631	1642
267.692	1147
267.753	1493
267.814	757
267.875	3240
267.936	7006
267.997	4533
268.058	4009
268.119	2130
268.180	1826
268.241	1252
268.302	1498
268.363	913
268.424	1272
268.485	1918
268.546	420
268.607	1089
268.668	1915
268.729	930
268.790	1232
268.851	1425
268.912	4406
268.972	4762
269.033	2562
269.094	927
269.155	1332
269.216	1297
269.277	1454
269.338	1370
269.398	1360
269.459	1174
269.520	2696
269.581	2119
269.642	4079
269.702	2459
269.763	1811
269.824	1608
269.885	2458
269.945	2857
270.006	1636
270.067	1406
270.128	612
270.188	1116
270.249	1043
270.310	684
270.370	2380
270.431	737
270.492	865
270.553	2563
270.613	3074
270.674	6336
270.734	2156
270.795	2090
270.856	2099
270.916	1401
270.977	1888
271.038	1489
271.098	1725
271.159	2811
271.219	1852
271.280	1292
271.340	1323
271.401	682
271.462	2700
271.522	1448
271.583	1520
271.643	1704
271.704	1267
271.764	1692
271.825	4950
271.885	19359
271.946	22310
272.006	6011
272.066	13080
272.127	18830
272.187	5480
272.248	3393
272.308	4431
272.369	15926
272.429	6683
272.489	4765
272.550	4324
272.610	5147
272.671	2749
272.731	2896
272.791	3217
272.852	1435
272.912	2401
272.972	1628
273.033	1750
273.093	1360
273.153	2121
273.214	1472
273.274	1851
273.334	12025
273.394	19106
273.455	5586
273.515	7562
273.575	15129
273.635	5548
273.696	9232
273.756	18249
273.816	6278
273.876	3589
273.936	5956
273.997	8235
274.057	1842
274.117	2075
274.177	4474
274.237	24938
274.297	15575
274.358	8416
274.418	15827
274.478	7868
274.538	2588
274.598	1990
274.658	7244
274.718	7267
274.778	3541
274.838	1956
274.898	3627
274.958	11715
275.018	18590
275.078	10263
275.138	3444
275.198	1612
275.258	1569
275.318	1734
275.378	2851
275.438	3568
275.498	3337
275.558	6455
275.618	15030
275.678	10543
275.738	6149
275.798	3548
275.858	2592
275.918	1266
275.978	1706
276.038	1584
276.098	2141
276.157	2999
276.217	9070
276.277	3557
276.337	2258
276.397	1215
276.457	1841
276.517	1051
276.576	1528
276.636	977
276.696	1753
276.756	6654
276.815	2817
276.875	1313
276.935	1828
276.995	1575
277.055	1490
277.114	901
277.174	2563
277.234	8220
277.293	2780
277.353	901
277.413	2097
277.472	1638
277.532	756
277.592	1647
277.651	7273
277.711	11144
277.771	4052
277.830	16770
277.890	9651
277.950	10683
278.009	31652
278.069	9407
278.128	10260
278.188	11443
278.248	6214
278.307	15055
278.367	7225
278.426	2686
278.486	2292
278.545	1403
278.605	1821
278.664	1403
278.724	2271
278.783	8875
278.843	20037
278.902	4617
278.962	2609
279.021	2229
279.081	2725
279.140	2428
279.199	2789
279.259	3182
279.318	3062
279.378	5101
279.437	8141
279.496	33854
279.556	87177
279.615	50184
279.675	12528
279.734	7905
279.793	12681
279.853	25079
279.912	7935
279.971	3330
280.031	3472
280.090	11511
280.149	18298
280.208	10793
280.268	61310
280.327	46659
280.386	9664
280.445	9116
280.505	7040
280.564	3948
280.623	3362
280.682	5359
280.742	6555
280.801	2859
280.860	2226
280.919	1434
280.978	1124
281.037	1421
281.097	1019
281.156	988
281.215	1372
281.274	2492
281.333	14203
281.392	7621
281.451	1808
281.510	1502
281.569	1741
281.628	550
281.688	1069
281.747	1561
281.806	541
281.865	497
281.924	196
281.983	1586
282.042	781
282.101	262
282.160	1215
282.219	674
282.278	893
282.337	4554
282.396	2535
282.454	1619
282.513	2337
282.572	8164
282.631	3327
282.690	1212
282.749	1284
282.808	1564
282.867	1510
282.926	1065
282.985	553
283.043	161
283.102	927
283.161	789
283.220	4671
283.279	8982
283.338	2442
283.396	1005
283.455	989
283.514	1254
283.573	2097
283.631	1930
283.690	1363
283.749	1303
283.808	3561
283.866	3440
283.925	718
283.984	1346
284.043	2488
284.101	1436
284.160	990
284.219	2548
284.277	1733
284.336	3074
284.395	12026
284.453	8079
284.512	2842
284.570	4058
284.629	1943
284.688	2701
284.746	2109
284.805	2649
284.863	3660
284.922	4748
284.981	5335
285.039	7797
285.098	17569
285.156	52004
285.215	144879
285.273	122390
285.332	49564
285.390	23101
285.449	14862
285.507	10709
285.566	7301
285.624	5369
285.683	4182
285.741	2571
285.799	2842
285.858	2431
285.916	2256
285.975	1590
286.033	1137
286.091	1463
286.150	639
286.208	420
286.267	2070
286.325	2098
286.383	2409
286.442	1974
286.500	668
286.558	1226
286.616	844
286.675	2237
286.733	1312
286.791	680
286.850	1668
286.908	2106
286.966	3809
287.024	1151
287.083	1311
287.141	870
287.199	2315
287.257	2137
287.315	1854
287.374	1284
287.432	5389
287.490	2462
287.548	2081
287.606	1344
287.664	2867
287.723	2739
287.781	4250
287.839	3374
287.897	3468
287.955	5822
288.013	11102
288.071	30803
288.129	126775
288.187	258059
288.245	110609
288.303	37666
288.361	21761
288.419	15914
288.477	10344
288.535	7809
288.593	5064
288.651	4638
288.709	2336
288.767	2251
288.825	1697
288.883	2366
288.941	575
288.999	1171
289.057	1028
289.115	1266
289.173	1187
289.231	1195
289.289	1078
289.346	218
289.404	1089
289.462	1830
289.520	2004
289.578	582
289.636	300
289.694	912
289.751	1226
289.809	1641
289.867	734
289.925	1547
289.983	1731
290.040	740
290.098	865
290.156	1379
290.214	878
290.271	123
290.329	860
290.387	482
290.444	590
290.502	-56
290.560	336
290.617	292
290.675	118
290.733	-475
290.790	646
290.848	468
290.906	300
290.963	321
291.021	700
291.078	102
291.136	740
291.194	5440
291.251	10282
291.309	1835
291.366	1250
291.424	299
291.481	844
291.539	697
291.596	527
291.654	-427
291.711	-9
291.769	15
291.826	1088
291.884	329
291.941	-484
291.999	12
292.056	-816
292.114	557
292.171	223
292.228	282
292.286	1088
292.343	1423
292.401	945
292.458	451
292.515	270
292.573	1078
292.630	1022
292.687	420
292.745	957
292.802	1350
292.859	6782
292.917	9608
292.974	4160
293.031	549
293.089	1007
293.146	211
293.203	193
293.260	391
293.318	1281
293.375	2062
293.432	725
293.489	171
293.546	299
293.604	1297
293.661	8591
293.718	20844
293.775	7767
293.832	2220
293.889	2001
293.947	1761
294.004	1055
294.061	1067
294.118	4676
294.175	10232
294.232	13668
294.289	2682
294.346	1703
294.403	2592
294.460	1664
294.517	1345
294.574	1062
294.631	338
294.688	1628
294.745	5897
294.802	26649
294.859	22667
294.916	6854
294.973	2994
295.030	2166
295.087	1754
295.144	1421
295.201	1403
295.258	705
295.315	1845
295.372	9181
295.429	16538
295.486	4827
295.542	2663
295.599	11987
295.656	17581
295.713	12114
295.770	14457
295.827	4704
295.883	2803
295.940	2115
295.997	3200
296.054	1861
296.111	776
296.167	1539
296.224	632
296.281	473
296.338	267
296.394	1285
296.451	906
296.508	6743
296.564	10917
296.621	7996
296.678	19622
296.734	23498
296.791	6669
296.848	3169
296.904	3499
296.961	8463
297.018	17507
297.074	11603
297.131	3210
297.187	2494
297.244	4953
297.301	23688
297.357	34970
297.414	9015
297.470	3652
297.527	2697
297.583	1525
297.640	1559
297.696	892
297.753	810
297.809	459
297.866	-200
297.922	150
297.979	395
298.035	524
298.092	2257
298.148	9534
298.204	6976
298.261	3003
298.317	9120
298.374	22918
298.430	11385
298.486	3801
298.543	2220
298.599	2553
298.656	3636
298.712	9313
298.768	35125
298.824	22233
298.881	6393
298.937	3350
298.993	2675
299.050	1989
299.106	2678
299.162	1217
299.218	1566
299.275	1617
299.331	2061
299.387	4672
299.443	22176
299.500	19335
299.556	6770
299.612	3207
299.668	3012
299.724	4822
299.780	5294
299.837	2271
299.893	4055
299.949	15790
300.005	15978
300.061	16074
300.117	29026
300.173	10690
300.229	4074
300.285	5063
300.341	4902
300.397	1983
300.453	871
300.510	612
300.566	1796
300.622	2993
300.678	12399
300.734	17687
300.790	16416
300.845	19882
300.901	10783
300.957	14111
301.013	9081
301.069	2842
301.125	2089
301.181	1579
301.237	1317
301.293	166
301.349	740
301.405	247
301.461	432
301.516	228
301.572	58
301.628	1420
301.684	1452
301.740	5363
301.796	7359
301.851	3843
301.907	7755
301.963	8190
302.019	21113
302.074	58532
302.130	48986
302.186	17612
302.242	6845
302.297	5274
302.353	4730
302.409	9809
302.464	7349
302.520	6558
302.576	19587
302.631	19451
302.687	8002
302.743	2921
302.798	2175
302.854	1443
302.910	1766
302.965	1856
303.021	3473
303.076	3072
303.132	4266
303.187	5178
303.243	2740
303.299	1408
303.354	830
303.410	1328
303.465	1233
303.521	-327
303.576	776
303.632	2105
303.687	5687
303.743	19161
303.798	13020
303.853	4371
303.909	1594
303.964	1405
304.020	3090
304.075	2884
304.130	3673
304.186	6398
304.241	6816
304.297	5775
304.352	2276
304.358	2181
304.407	1404
304.449	1346
304.463	1329
304.518	1120
304.539	1037
304.573	896
304.629	1569
304.630	1617
304.684	3899
304.720	10796
304.739	14326
304.794	20259
304.811	16936
304.850	8485
304.902	3340
304.905	3037
304.960	2670
304.992	2977
305.015	3163
305.071	2100
305.083	2013
305.126	1764
305.173	634
305.181	449
305.236	850
305.264	965
305.292	1078
305.347	1432
305.354	1413
305.402	1345
305.445	2550
305.457	2903
305.512	2452
305.535	2704
305.567	2960
305.622	3491
305.626	3650
305.678	8140
305.716	17143
305.733	20311
305.788	20999
305.807	18455
305.843	14041
305.897	20256
305.898	20323
305.953	18537
305.988	12018
306.008	8339
306.063	4338
306.078	3623
306.118	2577
306.168	1557
306.173	1484
306.228	2023
306.259	1395
306.283	877
306.338	1440
306.349	1512
306.393	2141
306.440	2975
306.448	3035
306.503	2108
306.530	2644
306.558	4285
306.613	8660
306.620	9251
306.668	13220
306.711	18348
306.723	18798
306.778	13232
306.801	10176
306.833	6445
306.888	3340
306.892	3137
306.943	2445
306.982	2337
306.997	2217
307.052	1978
307.072	1980
307.107	2585
307.162	3776
307.163	3796
307.217	6577
307.253	7408
307.272	7485
307.327	8111
307.343	7614
307.381	5678
307.434	4362
307.436	4574
307.491	11691
307.524	17212
307.546	18640
307.600	16781
307.614	15536
307.655	9891
307.704	5075
307.710	5019
307.765	6278
307.795	7643
307.819	10241
307.874	17718
307.885	18209
307.929	14224
307.975	11174
307.984	11775
308.038	17526
308.065	22711
308.093	40853
308.148	89006
308.156	100095
308.202	178297
308.246	223450
308.257	212422
308.312	105169
308.336	65886
308.366	47848
308.421	26728
308.426	24900
308.475	16403
308.517	11480
308.530	10967
308.585	9202
308.607	8869
308.639	8645
308.694	8344
308.697	8396
308.748	15526
308.787	22477
308.803	22543
308.857	17907
308.877	16023
308.912	13991
308.967	12908
308.967	12873
309.021	17192
309.058	21539
309.076	27940
309.130	51152
309.148	61087
309.185	125106
309.238	236355
309.239	237756
309.293	280028
309.328	271757
309.348	227514
309.402	101184
309.418	68968
309.457	47022
309.508	26274
309.511	25829
309.566	19765
309.598	17277
309.620	18391
309.674	21474
309.688	22373
309.729	21007
309.778	17540
309.783	17118
309.837	12496
309.868	10517
309.892	12410
309.946	17627
309.959	19152
310.001	28260
310.049	37247
310.055	35921
310.109	21099
310.139	12975
310.163	10376
310.218	6057
310.229	5241
310.272	4559
310.319	3965
310.326	3940
310.381	3778
310.409	3595
310.435	3337
310.489	2935
310.499	2873
310.543	3698
310.589	4329
310.598	4303
310.652	4474
310.679	4347
310.706	4146
310.760	3816
310.769	3750
310.814	3140
310.859	2698
310.868	2772
310.923	2917
310.948	2968
310.977	3237
311.031	3973
311.038	4033
311.085	3906
311.128	3797
311.139	3696
311.193	3177
311.218	2861
311.247	2919
311.301	3083
311.308	3093
311.356	3292
311.398	3453
311.410	3545
311.464	3857
311.488	4006
311.518	3588
311.572	2779
311.578	2675
311.626	3870
311.668	4964
311.680	5075
311.734	5411
311.758	5545
311.788	5675
311.842	5891
311.847	5893
311.896	7105
311.937	8104
311.950	8200
312.004	8505
312.027	8594
312.058	7234
312.112	4755
312.117	4492
312.165	4618
312.207	4698
312.297	6138
312.386	6058
312.476	4145
312.566	7432
312.656	4358
312.745	3975
312.835	4014
312.925	5517
313.015	4434
313.104	5171
313.194	3732
313.284	3994
313.374	3760
313.463	5022
313.553	3742
313.643	4060
313.732	3293
313.822	3885
313.912	4299
314.001	5002
314.091	5803
314.180	8404
314.270	6048
314.360	6971
314.449	6223
314.539	4717
314.628	3824
314.718	4949
314.808	6084
314.897	5160
314.987	4147
315.076	5812
315.166	6343
315.255	6633
315.345	6051
315.434	6279
315.524	5554
315.613	6611
315.703	7057
315.792	11016
315.881	36211
315.971	16782
316.060	10192
316.150	14604
316.239	16200
316.328	8249
316.418	4183
316.507	4258
316.597	4591
316.686	5757
316.775	6103
316.865	18303
316.954	5894
317.043	3773
317.133	4269
317.222	3573
317.311	3419
317.400	2475
317.490	5207
317.579	5189
317.668	4604
317.757	8393
317.847	16222
317.936	62222
318.025	26412
318.114	14022
318.203	8988
318.293	7076
318.382	8225
318.471	10883
318.560	14522
318.649	51267
318.738	12703
318.828	5849
318.917	6977
319.006	8483
319.095	19648
319.184	57074
319.273	33616
319.362	13207
319.451	4122
319.540	4271
319.629	7045
319.718	14349
319.807	8505
319.896	16679
319.985	71839
320.074	29507
320.163	6644
320.252	10081
320.341	9841
320.430	9700
320.519	7592
320.608	6077
320.697	5154
320.786	5728
320.875	5524
320.964	8209
321.053	9813
321.142	12852
321.230	15025
321.319	12264
321.408	26892
321.497	15840
321.586	12080
321.675	15306
321.764	16236
321.852	9875
321.941	14094
322.030	11491
322.119	11331
322.207	25631
322.296	26510
322.385	15093
322.474	13279
322.562	30697
322.651	22912
322.740	12897
322.829	18717
322.917	21466
323.006	12911
323.095	9341
323.183	7800
323.272	11040
323.361	16990
323.449	61894
323.538	24526
323.626	40487
323.715	33592
323.804	11370
323.892	36860
323.981	24552
324.069	8134
324.158	21310
324.246	25331
324.335	7247
324.424	9650
324.512	5512
324.601	5961
324.689	9879
324.778	19552
324.866	16121
324.954	5204
325.043	4559
325.131	8408
325.220	17224
325.308	20075
325.397	13647
325.485	9414
325.574	3590
325.662	3548
325.750	3595
325.839	4127
325.927	3987
326.015	4054
326.104	5937
326.192	11325
326.280	4122
326.369	3662
326.457	4762
326.545	7754
326.634	4892
326.722	2374
326.810	3275
326.898	3031
326.987	4494
327.075	6435
327.163	8839
327.251	5228
327.340	6490
327.428	11076
327.516	3896
327.604	3663
327.692	4182
327.781	4669
327.869	7612
327.957	4897
328.045	4567
328.133	2452
328.221	4291
328.309	3285
328.397	3458
328.485	4152
328.574	5813
328.662	15804
328.750	11698
328.838	5751
328.926	4329
329.014	3246
329.102	4713
329.190	12298
329.278	9854
329.366	3397
329.454	3293
329.542	2889
329.630	3873
329.718	3917
329.806	4064
329.893	4517
329.981	6821
330.069	9640
330.157	36301
330.245	139900
330.333	86047
330.421	12735
330.509	6313
330.597	17478
330.684	14491
330.772	6274
330.860	9462
330.948	14170
331.036	6695
331.123	2901
331.211	3737
331.299	4426
331.387	9516
331.475	20211
331.562	6585
331.650	2972
331.738	4164
331.825	6422
331.913	3619
332.001	2688
332.089	3957
332.176	9069
332.264	19288
332.352	18488
332.439	6354
332.527	3469
332.614	3107
332.702	5399
332.790	3905
332.877	7153
332.965	20328
333.052	6025
333.140	4698
333.228	9667
333.315	4582
333.403	3692
333.490	11172
333.578	10398
333.665	9802
333.753	6911
333.840	3790
333.928	4902
334.015	12550
334.103	20730
334.190	76039
334.278	25299
334.365	11206
334.452	9515
334.540	6092
334.627	5941
334.715	10041
334.802	14564
334.889	69314
334.977	94992
335.064	19444
335.151	7507
335.239	7182
335.326	8602
335.413	33250
335.501	60834
335.588	9391
335.675	4875
335.762	6841
335.850	15334
335.937	10678
336.024	21502
336.111	90348
336.199	55973
336.286	15077
336.373	6218
336.460	5324
336.547	4609
336.635	5147
336.722	5328
336.809	4826
336.896	4995
336.983	17913
337.070	51205
337.157	86263
337.245	50316
337.332	42282
337.419	6064
337.506	5250
337.593	4189
337.680	14144
337.767	58499
337.854	16300
337.941	15741
338.028	17293
338.115	7761
338.202	7624
338.289	11646
338.376	47918
338.463	18512
338.550	27362
338.637	40758
338.724	8662
338.811	15742
338.898	4560
338.984	2787
339.071	3975
339.158	4067
339.245	9222
339.332	6741
339.419	9589
339.506	12363
339.593	3031
339.679	3073
339.766	2350
339.853	3913
339.940	7439
340.027	3077
340.113	2988
340.200	4339
340.287	3366
340.374	3478
340.460	6565
340.547	2528
340.634	4391
340.720	16306
340.807	13249
340.894	1921
340.980	3166
341.067	1993
341.154	3048
341.240	3292
341.327	9073
341.414	3243
341.500	2307
341.587	3336
341.674	3530
341.760	4798
341.847	7063
341.933	2937
342.020	2356
342.106	1960
342.193	2770
342.279	4994
342.366	3591
342.452	5956
342.539	3564
342.625	6573
342.712	19694
342.798	8390
342.885	4177
342.971	2558
343.058	1550
343.144	2002
343.230	2605
343.317	1213
343.403	2160
343.490	1597
343.576	2318
343.662	1747
343.749	2694
343.835	3249
343.921	6871
344.008	40585
344.094	133292
344.180	32334
344.267	8040
344.353	26802
344.439	37289
344.525	11022
344.612	4619
344.698	3502
344.784	3281
344.870	1846
344.957	2567
345.043	4259
345.129	2746
345.215	5093
345.301	3339
345.387	1322
345.474	1362
345.560	2181
345.646	2930
345.732	2923
345.818	2695
345.904	2289
345.990	3040
346.076	3161
346.162	6838
346.249	2786
346.335	2864
346.421	2848
346.507	9836
346.593	47913
346.679	14370
346.765	3643
346.851	3278
346.937	3396
347.023	2893
347.108	2484
347.194	2653
347.280	1810
347.366	3474
347.452	11744
347.538	57791
347.624	39461
347.710	33533
347.796	6107
347.882	3268
347.967	3000
348.053	4900
348.139	3508
348.225	2238
348.311	1700
348.397	2537
348.482	3125
348.568	4265
348.654	2345
348.740	6298
348.825	6604
348.911	5369
348.997	19790
349.083	58586
349.168	10349
349.254	2769
349.340	2399
349.425	1502
349.511	3159
349.597	3688
349.682	6168
349.768	26348
349.854	15517
349.939	3552
350.025	1772
350.110	2421
350.196	1112
350.282	1446
350.367	2037
350.453	4418
350.538	5030
350.624	2718
350.709	3539
350.795	1753
350.880	2076
350.966	2983
351.051	3460
351.137	4672
351.222	2207
351.308	5586
351.393	21044
351.479	6016
351.564	1692
351.649	3284
351.735	1779
351.820	1781
351.906	1098
351.991	3485
352.076	11298
352.162	22901
352.247	3944
352.332	3179
352.418	3122
352.503	4564
352.588	26179
352.673	26144
352.759	5136
352.844	2721
352.929	1999
353.014	4359
353.100	2248
353.185	5715
353.270	6416
353.355	7554
353.441	1942
353.526	3533
353.611	4877
353.696	6490
353.781	4822
353.866	2805
353.952	2085
354.037	4822
354.122	12005
354.207	10714
354.292	4699
354.377	2093
354.462	2372
354.547	3631
354.632	2660
354.717	5129
354.802	6627
354.887	4238
354.972	1577
355.057	2611
355.142	1813
355.227	2699
355.312	3953
355.397	7818
355.482	19315
355.567	12019
355.652	6203
355.737	7641
355.822	27175
355.907	29625
355.991	5252
356.076	2604
356.161	2401
356.246	2849
356.331	2358
356.416	6365
356.501	48905
356.585	70392
356.670	8970
356.755	5321
356.840	5866
356.924	26449
357.009	135409
357.094	61111
357.179	7526
357.263	5706
357.348	5584
357.433	6193
357.517	4881
357.602	4977
357.687	2806
357.771	5107
357.856	4943
357.941	6206
358.025	20262
358.110	128816
358.195	75422
358.279	9369
358.364	5300
358.448	13777
358.533	49265
358.617	38985
358.702	38512
358.787	15910
358.871	6230
358.956	5922
359.040	2995
359.125	2688
359.209	2239
359.294	3746
359.378	3725
359.462	4700
359.547	4253
359.631	4299
359.716	1484
359.800	3161
359.885	4947
359.969	2926
360.053	2738
360.138	2692
360.222	2828
360.306	5936
360.391	5064
360.475	5484
360.559	12073
360.644	16358
360.728	14541
360.812	23145
360.896	92285
360.981	37367
361.065	18343
361.149	5806
361.233	4211
361.318	3380
361.402	4359
361.486	4495
361.570	2440
361.654	4429
361.739	8344
361.823	44771
361.907	100333
361.991	17856
362.075	6602
362.159	13227
362.243	11538
362.327	16279
362.411	28603
362.495	13949
362.580	6113
362.664	4703
362.748	4225
362.832	7401
362.916	10838
363.000	37112
363.084	100318
363.168	132094
363.252	31581
363.336	9483
363.420	9862
363.503	45357
363.587	75137
363.671	11786
363.755	6312
363.839	9877
363.923	5529
364.007	7743
364.091	11420
364.175	17536
364.258	88746
364.342	81550
364.426	108324
364.510	67895
364.594	20744
364.677	16761
364.761	72781
364.845	67874
364.929	14039
365.013	11253
365.096	7575
365.180	11518
365.264	15706
365.347	88059
365.431	44980
365.515	10363
365.598	3697
365.682	3759
365.766	7125
365.849	12256
365.933	4771
366.017	6668
366.100	7107
366.184	2481
366.267	3746
366.351	3140
366.435	2246
366.518	2302
366.602	1592
366.685	2041
366.769	2566
366.852	6029
366.936	10851
367.019	5894
367.103	4709
367.186	14187
367.270	3998
367.353	1934
367.436	2890
367.520	1950
367.603	2642
367.687	4214
367.770	7416
367.853	6176
367.937	16647
368.020	41091
368.104	8926
368.187	6538
368.270	9159
368.353	7857
368.437	9060
368.520	31756
368.603	18964
368.687	17104
368.770	46714
368.853	11825
368.936	8312
369.020	11253
369.103	3530
369.186	2570
369.269	3035
369.352	5221
369.436	8192
369.519	4827
369.602	1684
369.685	3513
369.768	2747
369.851	3092
369.934	1266
370.018	2390
370.101	5596
370.184	7196
370.267	4368
370.350	5080
370.433	9981
370.516	33781
370.599	61764
370.682	17200
370.765	17760
370.848	23446
370.931	55825
371.014	27617
371.097	4624
371.180	3726
371.263	2918
371.346	1187
371.429	3147
371.511	3054
371.594	3700
371.677	8929
371.760	13467
371.843	7450
371.926	33306
372.009	118083
372.091	39852
372.174	17807
372.257	60117
372.340	27892
372.423	14150
372.505	21218
372.588	8079
372.671	11631
372.754	50045
372.836	31786
372.919	18798
373.002	53174
373.085	16369
373.167	7718
373.250	16173
373.332	52385
373.415	60511
373.498	157819
373.580	62161
373.663	65723
373.746	122593
373.828	25079
373.911	9032
373.993	9148
374.076	42256
374.159	53193
374.241	13369
374.324	39362
374.406	31305
374.489	32514
374.571	134897
374.654	64522
374.736	18831
374.819	77324
374.901	104359
374.983	130459
375.066	23663
375.148	8339
375.231	30363
375.313	81109
375.395	31252
375.478	7583
375.560	3576
375.643	5345
375.725	15093
375.807	94256
375.890	87913
375.972	32680
376.054	13879
376.136	27937
376.219	13356
376.301	19330
376.383	84801
376.465	38192
376.548	12035
376.630	15760
376.712	64371
376.794	38523
376.877	4769
376.959	2601
377.041	2674
377.123	9027
377.205	13063
377.287	2669
377.369	1979
377.452	3372
377.534	2416
377.616	2371
377.698	2124
377.780	1666
377.862	1761
377.944	2985
378.026	1134
378.108	1716
378.190	1472
378.272	2613
378.354	1637
378.436	1818
378.518	3753
378.600	17221
378.682	13313
378.764	25165
378.846	25797
378.928	6535
379.010	7996
379.091	5310
379.173	2996
379.255	1878
379.337	2609
379.419	9309
379.501	40646
379.583	20667
379.664	3606
379.746	6916
379.828	22946
379.910	36128
379.991	37135
380.073	6708
380.155	4399
380.237	3101
380.318	1898
380.400	2435
380.482	4069
380.564	8575
380.645	7576
380.727	8557
380.809	4477
380.890	3326
380.972	2219
381.053	2911
381.135	3339
381.217	6428
381.298	26274
381.380	15085
381.461	9017
381.543	54337
381.624	89435
381.706	16929
381.787	6359
381.869	6791
381.951	19073
382.032	112211
382.113	84816
382.195	13123
382.276	8486
382.358	15178
382.439	59661
382.521	64515
382.602	117402
382.684	48511
382.765	66898
382.846	69703
382.928	67469
383.009	43184
383.090	23047
383.172	85907
383.253	170569
383.334	65666
383.416	89304
383.497	54759
383.578	13312
383.659	20771
383.741	69094
383.822	244987
383.903	147623
383.984	46911
384.066	97749
384.147	67963
384.228	13698
384.309	8640
384.390	6732
384.471	5149
384.553	5471
384.634	7364
384.715	7068
384.796	4461
384.877	5026
384.958	21083
385.039	33335
385.120	11852
385.201	5527
385.282	6965
385.363	8156
385.444	6136
385.525	7775
385.606	41722
385.687	52174
385.768	11176
385.849	10170
385.930	40899
386.011	105681
386.092	31668
386.173	6223
386.254	4490
386.335	5559
386.416	4427
386.496	12433
386.577	29321
386.658	13544
386.739	6758
386.820	7694
386.901	7447
386.981	6184
387.062	4367
387.143	5272
387.224	25844
387.304	31328
387.385	12171
387.466	7402
387.547	10486
387.627	7184
387.708	9862
387.789	45135
387.869	76569
387.950	24020
388.031	4658
388.111	3427
388.192	11833
388.273	18975
388.353	12017
388.434	5245
388.514	8806
388.595	51911
388.676	80920
388.756	32252
388.837	22682
388.917	16727
388.998	3867
389.078	4653
389.159	3540
389.239	2092
389.320	5187
389.400	3347
389.480	10479
389.561	33273
389.641	20762
389.722	4714
389.802	7830
389.883	11892
389.963	41114
390.043	30819
390.124	9577
390.204	8136
390.284	27096
390.365	23258
390.445	30996
390.525	110844
390.605	115792
390.686	25893
390.766	8868
390.846	4475
390.927	3686
391.007	2877
391.087	5473
391.167	5499
391.247	4628
391.328	6556
391.408	11658
391.488	10511
391.568	3732
391.648	4800
391.728	7189
391.808	6457
391.888	7078
391.969	14868
392.049	31560
392.129	16137
392.209	14059
392.289	40258
392.369	26981
392.449	22827
392.529	16579
392.609	10949
392.689	14066
392.769	38699
392.849	42867
392.929	26721
393.009	66264
393.089	62157
393.169	55512
393.248	149009
393.328	573343
393.408	760460
393.488	253217
393.568	69077
393.648	35347
393.728	21097
393.807	16034
393.887	14599
393.967	12686
394.047	13670
394.127	14773
394.206	22338
394.286	64904
394.366	347526
394.446	490170
394.525	124764
394.605	29133
394.685	17647
394.764	29580
394.844	54740
394.924	48138
395.003	14523
395.083	10057
395.163	8064
395.242	8335
395.322	8586
395.402	6736
395.481	9822
395.561	18242
395.640	58692
395.720	54208
395.799	68398
395.879	65043
395.958	35580
396.038	99153
396.117	462021
396.197	638927
396.276	204284
396.356	58082
396.435	37957
396.515	27763
396.594	26753
396.673	46598
396.753	150603
396.832	555276
396.912	495144
396.991	123057
397.070	34345
397.150	18889
397.229	13897
397.308	18491
397.388	36992
397.467	20229
397.546	8306
397.625	4324
397.705	7118
397.784	7374
397.863	4820
397.942	4648
398.022	4309
398.101	13594
398.180	54994
398.259	35690
398.338	8351
398.417	4232
398.497	3284
398.576	4480
398.655	2560
398.734	3745
398.813	4041
398.892	11846
398.971	58154
399.050	36843
399.129	3359
399.208	3025
399.287	2641
399.366	923
399.445	2313
399.524	2827
399.603	2104
399.682	3649
399.761	10423
399.840	56735
399.919	59510
399.998	8458
400.077	1213
400.156	731
400.235	3942
400.313	2156
400.392	1800
400.471	10918
400.550	23459
400.629	7483
400.708	2753
400.786	2563
400.865	10113
400.944	13988
401.023	6362
401.102	1987
401.180	1350
401.259	2435
401.338	2837
401.416	3239
401.495	1814
401.574	4014
401.652	1651
401.731	3594
401.810	2958
401.888	1544
401.967	748
402.046	2388
402.124	2429
402.203	4253
402.281	2527
402.360	4336
402.438	13439
402.517	12693
402.596	3426
402.674	3634
402.753	1691
402.831	1919
402.910	2162
402.988	9062
403.066	43556
403.145	32350
403.223	10623
403.302	35960
403.380	29192
403.459	26629
403.537	11934
403.615	4082
403.694	408
403.772	2129
403.850	1299
403.929	1710
404.007	1461
404.085	4166
404.164	4518
404.242	2603
404.320	3752
404.398	14102
404.477	18590
404.555	72496
404.633	86364
404.711	18866
404.789	7485
404.868	3111
404.946	1533
405.024	721
405.102	622
405.180	1023
405.258	174
405.336	2347
405.415	681
405.493	4714
405.571	4479
405.649	993
405.727	22
405.805	3832
405.883	3556
405.961	3327
406.039	4308
406.117	1539
406.195	2281
406.273	9543
406.351	60598
406.429	48187
406.507	7337
406.585	3040
406.663	2145
406.740	2889
406.818	1587
406.896	1403
406.974	2111
407.052	2184
407.130	29152
407.208	57229
407.285	12082
407.363	1667
407.441	1676
407.519	2018
407.596	3189
407.674	13966
407.752	89920
407.830	94948
407.907	18168
407.985	4748
408.063	2967
408.141	1559
408.218	3920
408.296	3933
408.373	2828
408.451	2699
408.529	833
408.606	1681
408.684	1012
408.762	1182
408.839	661
408.917	565
408.994	1088
409.072	860
409.149	737
409.227	3503
409.304	4522
409.382	5127
409.459	5152
409.537	8624
409.614	7424
409.692	5779
409.769	3983
409.846	7916
409.924	10698
410.001	6185
410.079	4389
410.156	4524
410.233	3446
410.311	4204
410.388	1231
410.465	2270
410.543	1240
410.620	2542
410.697	1384
410.775	2456
410.852	614
410.929	2432
411.006	3110
411.083	1383
411.161	1981
411.238	3269
411.315	2887
411.392	1256
411.469	2131
411.547	1319
411.624	-209
411.701	1237
411.778	1189
411.855	3761
411.932	2339
412.009	752
412.086	405
412.163	1451
412.240	1862
412.317	3306
412.394	2008
412.471	1187
412.548	-52
412.625	399
412.702	1426
412.779	4102
412.856	2753
412.933	642
413.010	974
413.087	1576
413.164	7488
413.241	16735
413.318	3525
413.395	2519
413.471	2266
413.548	1769
413.625	792
413.702	764
413.779	1882
413.855	839
413.932	-350
414.009	-108
414.086	461
414.162	820
414.239	1438
414.316	9406
414.393	27067
414.469	11879
414.546	844
414.623	983
414.699	580
414.776	524
414.853	568
414.929	772
415.006	1187
415.082	1280
415.159	1409
415.236	1205
415.312	1071
415.389	1393
415.465	2083
415.542	2212
415.618	-476
415.695	1789
415.771	262
415.848	969
415.924	1122
416.000	1350
416.077	1355
416.153	-266
416.230	-508
416.306	323
416.383	837
416.459	1999
416.535	-61
416.612	499
416.688	331
416.764	1143
416.841	25
416.917	1117
416.993	-59
417.069	1377
417.146	1234
417.222	4566
417.298	2235
417.374	713
417.451	1240
417.527	620
417.603	1159
417.679	1707
417.755	1348
417.831	-485
417.908	176
417.984	523
418.060	-437
418.136	2182
418.212	3894
418.288	2239
418.364	590
418.440	325
418.516	1670
418.592	3785
418.668	4998
418.744	6693
418.820	5213
418.896	1532
418.972	458
419.048	966
419.124	3502
419.200	2216
419.276	560
419.352	102
419.428	738
419.504	193
419.579	1499
419.655	1436
419.731	264
419.807	3217
419.883	7153
419.959	6761
420.034	2270
420.110	2626
420.186	13177
420.262	16114
420.337	3071
420.413	2378
420.489	1946
420.565	2067
420.640	661
420.716	2356
420.792	364
420.867	1969
420.943	524
421.019	2893
421.094	1936
421.170	2740
421.245	1283
421.321	3227
421.397	3005
421.472	13055
421.548	58303
421.623	44024
421.699	7413
421.774	5000
421.850	3860
421.925	5653
422.001	6827
422.076	7290
422.152	7412
422.227	11261
422.302	15657
422.378	21711
422.453	39281
422.529	93043
422.604	277288
422.679	507974
422.755	395121
422.830	149597
422.905	56500
422.981	29960
423.056	19319
423.131	14333
423.207	9226
423.282	8334
423.357	9282
423.432	7302
423.508	6132
423.583	10043
423.658	9137
423.733	4809
423.808	4149
423.883	5055
423.959	3195
424.034	5398
424.109	4400
424.184	2185
424.259	1669
424.334	2610
424.409	808
424.484	1328
424.559	1806
424.634	1472
424.709	1852
424.784	2732
424.859	994
424.934	2012
425.009	7907
425.084	18435
425.159	8088
425.234	2624
425.309	-367
425.384	1552
425.459	334
425.534	809
425.609	858
425.683	760
425.758	655
425.833	1389
425.908	1533
425.983	3735
426.058	16593
426.132	9946
426.207	1670
426.282	3923
426.357	4150
426.431	1683
426.506	980
426.581	1095
426.655	1201
426.730	1086
426.805	150
426.879	1190
426.954	1296
427.029	2471
427.103	12992
427.178	51551
427.253	29742
427.327	4141
427.402	2274
427.476	6002
427.551	1891
427.625	2125
427.700	1820
427.774	976
427.849	2141
427.923	287
427.998	724
428.072	1856
428.147	4929
428.221	19180
428.296	90840
428.370	66869
428.444	7455
428.519	5506
428.593	10770
428.667	10552
428.742	10916
428.816	12428
428.890	45353
428.965	101616
429.039	30087
429.113	15505
429.188	5702
429.262	2284
429.336	2144
429.410	8340
429.485	6244
429.559	9122
429.633	8648
429.707	2722
429.781	5778
429.855	48931
429.930	98854
430.004	41381
430.078	52195
430.152	55367
430.226	109085
430.300	150782
430.374	26212
430.448	5477
430.522	11909
430.596	50245
430.670	36693
430.744	71229
430.818	135206
430.892	30690
430.966	3791
431.040	2879
431.114	294
431.188	341
431.262	1280
431.336	1237
431.410	4014
431.484	11996
431.557	9406
431.631	2320
431.705	1600
431.779	10982
431.853	77714
431.927	74508
432.000	8837
432.074	1841
432.148	1351
432.222	2986
432.295	1066
432.369	729
432.443	1509
432.516	14268
432.590	54906
432.664	26674
432.737	2928
432.811	601
432.885	-251
432.958	966
433.032	-633
433.106	305
433.179	-633
433.253	-369
433.326	-406
433.400	469
433.473	-354
433.547	-367
433.620	-597
433.694	1010
433.767	1591
433.841	534
433.914	-1
433.988	155
434.061	-579
434.134	-31
434.208	-859
434.281	-488
434.355	-1294
434.428	402
434.501	-929
434.575	-233
434.648	-360
434.721	-233
434.795	-483
434.868	387
434.941	-509
435.014	53
435.088	-455
435.161	802
435.234	646
435.307	1629
435.381	1374
435.454	2054
435.527	3333
435.600	4219
435.673	3005
435.746	1873
435.819	688
435.892	1016
435.966	577
436.039	78
436.112	595
436.185	650
436.258	-188
436.331	-231
436.404	-180
436.477	-496
436.550	-368
436.623	183
436.696	-796
436.769	288
436.842	55
436.915	555
436.987	748
437.060	417
437.133	-514
437.206	-516
437.279	-249
437.352	75
437.425	-441
437.498	362
437.570	1204
437.643	2449
437.716	-513
437.789	-152
437.861	-506
437.934	1265
438.007	-380
438.080	-363
438.152	371
438.225	2696
438.298	18846
438.370	85493
438.443	41776
438.516	4686
438.588	644
438.661	-531
438.734	623
438.806	587
438.879	1006
438.951	144
439.024	-161
439.096	182
439.169	-251
439.241	-33
439.314	-689
439.386	1327
439.459	1437
439.531	2385
439.604	56
439.676	906
439.749	-50
439.821	-469
439.893	-571
439.966	-875
440.038	-612
440.110	239
440.183	129
440.255	-288
440.327	711
440.400	7220
440.472	40799
440.544	38348
440.617	3302
440.689	1069
440.761	23
440.833	1393
440.905	1041
440.978	337
441.050	-1248
441.122	563
441.194	73
441.266	-216
441.338	-471
441.411	612
441.483	7677
441.555	18646
441.627	4721
441.699	1939
441.771	2352
441.843	1007
441.915	216
441.987	394
442.059	341
442.131	570
442.203	2280
442.275	2521
442.347	3299
442.419	4398
442.491	27068
442.563	102813
442.635	49275
442.706	13873
442.778	11266
442.850	2745
442.922	1282
442.994	1702
443.066	2687
443.137	2804
443.209	1949
443.281	3287
443.353	8376
443.425	34433
443.496	162927
443.568	190587
443.640	72722
443.711	12409
443.783	3572
443.855	3097
443.926	1241
443.998	1445
444.070	2163
444.141	2053
444.213	1147
444.285	2694
444.356	1835
444.428	2031
444.499	289
444.571	-253
444.642	454
444.714	1413
444.785	1803
444.857	2631
444.928	8600
445.000	5991
445.071	5288
445.143	7800
445.214	4455
445.285	6759
445.357	24083
445.428	84062
445.500	263314
445.571	176614
445.642	93692
445.714	29167
445.785	19482
445.856	5644
445.928	3438
445.999	1545
446.070	463
446.141	1037
446.213	3055
446.284	1599
446.355	1724
446.426	1050
446.497	713
446.569	2003
446.640	2891
446.711	2097
446.782	336
446.853	1566
446.924	1377
446.995	578
447.066	105
447.138	3452
447.209	1624
447.280	-88
447.351	-1296
447.422	-223
447.493	997
447.564	1166
447.635	1255
447.706	-116
447.777	-600
447.847	-75
447.918	-965
447.989	656
448.060	900
448.131	4880
448.202	3777
448.273	2487
448.344	319
448.414	978
448.485	-412
448.556	-29
448.627	-361
448.698	164
448.768	-716
448.839	364
448.910	1242
448.981	2430
449.051	57
449.122	125
449.193	-666
449.263	-242
449.334	-484
449.405	421
449.475	2533
449.546	1879
449.616	2205
449.687	2868
449.758	695
449.828	-168
449.899	-401
449.969	438
450.040	-551
450.110	1199
450.181	1127
450.251	93
450.322	-71
450.392	372
450.463	-158
450.533	367
450.604	357
450.674	-140
450.744	-74
450.815	936
450.885	-47
450.955	88
451.026	-487
451.096	354
451.166	62
451.237	2466
451.307	9850
451.377	3692
451.447	13
451.518	-280
451.588	-247
451.658	339
451.728	743
451.799	8583
451.869	12210
451.939	1776
452.009	-135
452.079	439
452.149	359
452.219	1437
452.289	10577
452.360	9362
452.430	1285
452.500	223
452.570	1411
452.640	3020
452.710	10142
452.780	18272
452.850	7278
452.920	5869
452.990	1883
453.060	827
453.129	789
453.199	2391
453.269	7983
453.339	26982
453.409	46029
453.479	36412
453.549	59476
453.619	67932
453.688	27097
453.758	3683
453.828	808
453.898	168
453.968	526
454.037	631
454.087	594
454.107	576
454.168	-37
454.177	-133
454.247	-91
454.249	-76
454.316	144
454.330	189
454.386	343
454.411	1916
454.456	4495
454.492	7032
454.525	9329
454.574	4719
454.595	2715
454.655	43
454.665	-398
454.734	217
454.736	252
454.804	1368
454.817	2744
454.873	8320
454.898	9211
454.943	10796
454.979	7241
455.013	4048
455.060	1855
455.082	921
455.141	715
455.152	625
455.221	4527
455.222	4639
455.291	13275
455.303	11932
455.360	5480
455.384	7085
455.430	9591
455.465	8558
455.499	7553
455.546	7946
455.569	8196
455.627	5941
455.638	5531
455.707	904
455.708	905
455.777	408
455.789	377
455.846	24
455.869	-118
455.916	-283
455.950	252
455.985	699
456.031	181
456.054	-44
456.112	434
456.124	498
456.193	-511
456.193	-519
456.262	170
456.274	223
456.332	285
456.355	559
456.401	1026
456.436	484
456.470	-85
456.516	-187
456.540	-187
456.597	-239
456.609	-307
456.678	116
456.678	112
456.747	-266
456.759	-317
456.817	-463
456.840	-567
456.886	-857
456.920	-344
456.955	89
457.001	-507
457.024	-743
457.082	-29
457.093	116
457.162	831
457.163	839
457.232	1514
457.243	1426
457.301	709
457.324	240
457.370	-353
457.405	-72
457.439	79
457.485	81
457.508	124
457.566	329
457.577	360
457.646	977
457.647	983
457.715	1295
457.727	1590
457.784	3477
457.808	5189
457.853	7930
457.889	11330
457.922	13255
457.969	7720
457.991	6404
458.050	6494
458.060	6448
458.129	12078
458.130	12329
458.198	20761
458.211	18718
458.267	9243
458.292	6024
458.336	2299
458.372	2180
458.405	2738
458.453	4181
458.474	5401
458.533	10519
458.543	11058
458.611	25655
458.614	25816
458.680	22015
458.694	18111
458.749	6650
458.775	4306
458.818	1278
458.855	1176
458.887	1139
458.936	744
458.955	568
459.016	333
459.024	354
459.093	715
459.097	743
459.162	831
459.177	886
459.230	910
459.257	750
459.299	967
459.338	1163
459.368	860
459.418	678
459.437	766
459.499	1015
459.505	1032
459.574	726
459.579	721
459.643	780
459.659	834
459.711	504
459.740	256
459.780	253
459.820	555
459.849	677
459.900	664
459.917	763
459.981	1323
459.986	1315
460.054	713
460.061	724
460.123	1476
460.141	1484
460.191	1089
460.222	1033
460.260	1308
460.302	1781
460.328	1825
460.382	2017
460.397	2156
460.462	2023
460.465	2081
460.534	4444
460.543	4694
460.602	17726
460.623	23006
460.671	37521
460.703	55413
460.739	60171
460.783	61543
460.808	56873
460.864	13108
460.876	7900
460.944	1953
460.945	1891
461.013	1094
461.024	1092
461.081	1151
461.104	1208
461.150	1094
461.184	976
461.218	1112
461.264	1051
461.286	853
461.345	639
461.355	687
461.423	1085
461.425	1086
461.491	912
461.505	993
461.559	1963
461.585	2269
461.628	3377
461.665	4667
461.696	5592
461.745	9554
461.764	9556
461.825	3960
461.832	3742
461.901	2375
461.905	2361
461.969	1090
461.985	857
462.037	1483
462.065	1889
462.105	1615
462.145	1423
462.173	2030
462.225	2864
462.241	2988
462.305	4514
462.310	4493
462.378	4355
462.385	4040
462.446	1340
462.465	699
462.514	481
462.545	979
462.582	1142
462.625	698
462.650	667
462.705	934
462.718	981
462.785	1331
462.786	1342
462.854	2126
462.865	2166
462.922	2418
462.945	2902
462.990	2829
463.025	1990
463.058	1509
463.104	946
463.126	872
463.184	1045
463.194	1086
463.262	1222
463.264	1240
463.330	1514
463.344	1509
463.398	1921
463.424	2047
463.466	1422
463.504	1101
463.533	1217
463.583	1203
463.601	1402
463.663	2145
463.669	2086
463.737	1379
463.743	1299
463.805	3160
463.823	3767
463.873	5068
463.903	6084
463.940	7394
463.982	9231
464.008	7940
464.062	3843
464.076	3649
464.142	1659
464.144	1617
464.211	1514
464.221	1492
464.279	1627
464.301	1702
464.347	1578
464.381	1516
464.414	1892
464.461	2341
464.482	2382
464.540	2386
464.550	2310
464.617	1996
464.620	1970
464.685	1901
464.699	1930
464.753	3040
464.779	3607
464.820	4273
464.859	4976
464.888	4868
464.938	4520
464.956	4690
465.018	5292
465.023	5207
465.091	3831
465.098	3700
465.158	3350
465.177	3161
465.226	3249
465.257	3493
465.293	3493
465.336	3317
465.361	3278
465.416	3294
465.428	3478
465.495	4475
465.496	4500
465.563	7382
465.575	7931
465.631	10269
465.654	11430
465.698	8813
465.734	5870
465.765	4819
465.813	3419
465.833	3447
465.893	3761
465.900	3758
465.968	3879
465.972	3867
466.035	3837
466.052	3864
466.102	3790
466.131	3723
466.170	3704
466.210	3681
466.237	3627
466.290	3437
466.304	3636
466.369	4583
466.372	4587
466.439	4440
466.449	4434
466.506	4973
466.528	5139
466.573	5836
466.607	6346
466.641	8892
466.687	12455
466.708	13469
466.766	16367
466.775	15472
466.842	8556
466.845	8208
466.909	6705
466.925	6414
466.977	6301
467.004	6263
467.044	6046
467.083	5789
467.111	6576
467.163	8053
467.178	8163
467.242	8560
467.245	8516
467.312	7355
467.321	7191
467.379	6135
467.400	5738
467.446	6362
467.480	6800
467.559	6689
467.638	4839
467.717	5394
467.796	5520
467.875	5705
467.955	6029
468.034	6966
468.113	14327
468.192	19470
468.271	8381
468.350	5084
468.429	6378
468.508	7240
468.588	5383
468.667	4728
468.746	4128
468.825	4590
468.904	4707
468.983	3950
469.062	6193
469.141	7534
469.220	4254
469.299	3553
469.378	5219
469.456	5619
469.535	5580
469.614	4729
469.693	4788
469.772	6099
469.851	6369
469.930	5576
470.009	4846
470.088	5056
470.166	5603
470.245	4556
470.324	5526
470.403	3827
470.482	4741
470.560	4810
470.639	4046
470.718	4717
470.797	3992
470.875	5522
470.954	4571
471.033	6467
471.111	3578
471.190	4128
471.269	3922
471.347	2809
471.426	3960
471.505	4082
471.583	5863
471.662	5927
471.740	4970
471.819	4388
471.898	3658
471.976	3987
472.055	4445
472.133	5261
472.212	6020
472.290	5877
472.369	4574
472.447	4071
472.526	4153
472.604	3497
472.683	4657
472.761	3810
472.839	3403
472.918	4130
472.996	4002
473.075	4324
473.153	4221
473.231	3191
473.310	3481
473.388	4548
473.466	3687
473.545	3830
473.623	5310
473.701	4234
473.780	4772
473.858	3478
473.936	5100
474.014	3365
474.093	3826
474.171	6868
474.249	7751
474.327	5264
474.405	3717
474.484	3822
474.562	3211
474.640	2498
474.718	3149
474.796	3988
474.874	3644
474.952	3076
475.030	3098
475.108	3862
475.187	4809
475.265	5052
475.343	5259
475.421	5356
475.499	4057
475.577	3363
475.655	4551
475.733	6912
475.811	12141
475.889	11241
475.966	8909
476.044	3631
476.122	3460
476.200	4624
476.278	4094
476.356	2630
476.434	3908
476.512	3598
476.590	4261
476.667	4460
476.745	3161
476.823	3141
476.901	3964
476.979	3917
477.056	3518
477.134	3330
477.212	3602
477.290	3433
477.367	3250
477.445	2994
477.523	2705
477.601	2639
477.678	2536
477.756	3969
477.834	3952
477.911	2758
477.989	3456
478.066	2411
478.144	2475
478.222	2939
478.299	4486
478.377	5853
478.454	3412
478.532	2619
478.609	2773
478.687	2139
478.764	2362
478.842	2997
478.919	3340
478.997	3106
479.074	2087
479.152	3283
479.229	4413
479.307	2898
479.384	2427
479.461	3091
479.539	2720
479.616	2647
479.694	1692
479.771	3274
479.848	3454
479.926	1956
480.003	5048
480.080	2699
480.157	2646
480.235	2224
480.312	2693
480.389	2286
480.467	4252
480.544	5013
480.621	3466
480.698	2939
480.775	2935
480.853	3310
480.930	3034
481.007	3436
481.084	4029
481.161	6875
481.238	6025
481.315	2737
481.392	3318
481.470	2099
481.547	2414
481.624	2057
481.701	2625
481.778	2830
481.855	2839
481.932	3479
482.009	6873
482.086	5669
482.163	2981
482.240	3727
482.317	6043
482.393	4652
482.470	3433
482.547	2087
482.624	3050
482.701	2480
482.778	2122
482.855	1604
482.932	2286
483.009	2187
483.085	3112
483.162	5149
483.239	5846
483.316	2094
483.393	2439
483.469	2765
483.546	2049
483.623	3461
483.699	2890
483.776	2335
483.853	2915
483.930	4445
484.006	9989
484.083	18720
484.160	15613
484.236	23953
484.313	20259
484.389	13528
484.466	12194
484.543	10391
484.619	11095
484.696	12744
484.772	12171
484.849	11750
484.925	10402
485.002	9753
485.078	10137
485.155	9644
485.231	10142
485.308	9541
485.384	10178
485.461	10331
485.537	14007
485.614	18024
485.690	10701
485.766	8568
485.843	9379
485.919	9577
485.995	9956
486.072	8662
486.148	8494
486.224	8709
486.301	8026
486.377	8289
486.453	8687
486.530	9520
486.606	13373
486.682	15193
486.758	15176
486.835	16395
486.911	12578
486.987	17731
487.063	18345
487.139	17674
487.215	16077
487.292	12425
487.368	9963
487.444	10464
487.520	11918
487.596	14431
487.672	19083
487.748	42066
487.824	70674
487.900	32984
487.976	12623
488.052	10204
488.128	9609
488.204	8601
488.280	7977
488.356	9163
488.432	14263
488.508	22475
488.584	11992
488.660	6754
488.736	7279
488.812	7079
488.888	10383
488.964	9919
489.039	13414
489.115	21500
489.191	16626
489.267	8167
489.343	7886
489.418	6569
489.494	6402
489.570	6260
489.646	7758
489.722	6883
489.797	7012
489.873	8129
489.949	15456
490.024	17637
490.100	6767
490.176	6275
490.251	6902
490.327	7738
490.403	5743
490.478	5018
490.554	5244
490.629	5619
490.705	5328
490.781	5502
490.856	5416
490.932	6474
491.007	6039
491.083	5252
491.158	6282
491.234	6347
491.309	11462
491.385	14340
491.460	6121
491.536	5806
491.611	5852
491.686	4540
491.762	6607
491.837	8730
491.913	13752
491.988	17342
492.063	24153
492.139	10971
492.214	8191
492.289	4653
492.365	4017
492.440	5067
492.515	5642
492.590	5055
492.666	3912
492.741	4821
492.816	7967
492.891	5885
492.967	4583
493.042	3585
493.117	3727
493.192	4753
493.267	6291
493.342	15242
493.418	25714
493.493	6265
493.568	3653
493.643	3454
493.718	4862
493.793	5468
493.868	6068
493.943	4623
494.018	4811
494.093	3451
494.168	3802
494.243	2871
494.318	3758
494.393	1954
494.468	2947
494.543	3008
494.618	3245
494.693	3337
494.768	3661
494.842	3801
494.917	2609
494.992	3128
495.067	3090
495.142	1841
495.217	3664
495.292	2993
495.366	3748
495.441	3080
495.516	5275
495.591	5242
495.665	13376
495.740	31442
495.815	20960
495.890	5159
495.964	2912
496.039	5143
496.114	4277
496.188	7409
496.263	8800
496.338	3207
496.412	3818
496.487	5479
496.561	4463
496.636	5616
496.710	4546
496.785	5571
496.860	6407
496.934	4910
497.009	4926
497.083	4293
497.158	4735
497.232	5455
497.307	7171
497.381	6100
497.455	7631
497.530	9312
497.604	8417
497.679	7614
497.753	12319
497.827	17988
497.902	17442
497.976	17899
498.050	27970
498.125	94076
498.199	145375
498.273	32869
498.348	21832
498.422	16987
498.496	14316
498.570	11391
498.645	9230
498.719	8079
498.793	10154
498.867	10536
498.941	15655
499.016	34440
499.090	107901
499.164	70706
499.238	6930
499.312	5644
499.386	5956
499.460	6282
499.534	5047
499.609	5135
499.683	8395
499.757	8597
499.831	14267
499.905	61912
499.979	93189
500.053	14753
500.127	10590
500.201	6546
500.275	4786
500.349	4000
500.422	4804
500.496	5607
500.570	10881
500.644	31797
500.718	78592
500.792	31956
500.866	4915
500.940	5902
501.013	5375
501.087	4115
501.161	6040
501.235	8148
501.309	19164
501.382	56511
501.456	78241
501.530	13492
501.603	19465
501.677	12665
501.751	2489
501.825	5052
501.898	6270
501.972	22625
502.046	24101
502.119	3882
502.193	8844
502.266	24984
502.340	20072
502.413	9888
502.487	24899
502.561	16901
502.634	6586
502.708	3131
502.781	2635
502.855	2706
502.928	2358
503.002	1988
503.075	2140
503.149	1773
503.222	2869
503.295	2943
503.369	4928
503.442	4616
503.516	14428
503.589	45641
503.662	41554
503.736	11083
503.809	19862
503.882	22496
503.956	22623
504.029	33789
504.102	22852
504.175	39762
504.249	17775
504.322	4635
504.395	5563
504.468	2767
504.542	2588
504.615	1364
504.688	2823
504.761	1346
504.834	3582
504.907	2910
504.980	3864
505.053	2950
505.127	1814
505.200	4600
505.273	3491
505.346	2032
505.419	1884
505.492	1723
505.565	2301
505.638	1772
505.711	1607
505.784	994
505.857	851
505.930	2352
506.003	676
506.076	2687
506.149	1998
506.221	2350
506.294	2623
506.367	6193
506.440	31401
506.513	29284
506.586	4891
506.659	2289
506.731	2515
506.804	2285
506.877	2698
506.950	2103
507.022	2379
507.095	1103
507.168	3624
507.241	2813
507.313	535
507.386	324
507.459	3150
507.531	1440
507.604	1175
507.677	1371
507.749	675
507.822	1733
507.894	4025
507.967	9870
508.040	5820
508.112	4560
508.185	4053
508.257	2973
508.330	5330
508.402	2921
508.475	3634
508.547	3265
508.620	4025
508.692	5098
508.765	4426
508.837	1925
508.909	2767
508.982	2031
509.054	3476
509.127	2848
509.199	2524
509.271	2036
509.344	2932
509.416	1949
509.488	3039
509.560	2392
509.633	2562
509.705	3392
509.777	2744
509.849	3454
509.922	2747
509.994	2581
510.066	2856
510.138	2300
510.210	9323
510.283	9195
510.355	7034
510.427	5873
510.499	4290
510.571	4382
510.643	4576
510.715	5472
510.787	4432
510.859	5007
510.931	4641
511.003	5396
511.076	6158
511.148	3579
511.219	3410
511.291	6392
511.363	7187
511.435	4299
511.507	2474
511.579	4222
511.651	4227
511.723	3930
511.795	3657
511.867	3612
511.939	4735
512.010	7169
512.082	7926
512.154	2637
512.226	4016
512.298	5791
512.369	10149
512.441	7766
512.513	6572
512.585	4709
512.656	5764
512.728	4577
512.800	4551
512.871	3633
512.943	5299
513.015	3658
513.086	4579
513.158	4030
513.230	4207
513.301	4371
513.373	6658
513.444	4120
513.516	4862
513.588	4379
513.659	4059
513.731	3715
513.802	3438
513.874	6246
513.945	9095
514.016	5695
514.088	3002
514.159	3897
514.231	4873
514.302	7830
514.374	7873
514.445	5000
514.516	9337
514.588	8164
514.659	5875
514.730	7416
514.802	8072
514.873	5947
514.944	9153
515.016	5116
515.087	5758
515.158	6342
515.229	10534
515.301	8014
515.372	12962
515.443	7316
515.514	5397
515.585	3966
515.656	4495
515.728	3901
515.799	3407
515.870	4467
515.941	3351
516.012	3198
516.083	6432
516.154	5876
516.225	6656
516.296	5906
516.367	5401
516.438	4885
516.509	6076
516.580	7303
516.651	16968
516.722	54464
516.793	44955
516.864	8889
516.935	8379
517.006	9129
517.077	10066
517.148	18105
517.219	55932
517.289	125525
517.360	52304
517.431	26569
517.502	6369
517.573	5002
517.643	4016
517.714	5430
517.785	6101
517.856	5183
517.926	7576
517.997	8008
518.068	7879
518.138	10801
518.209	13014
518.280	36511
518.350	162827
518.421	107252
518.492	12994
518.562	7705
518.633	8124
518.703	7499
518.774	15788
518.845	40506
518.915	57688
518.986	17616
519.056	9155
519.127	10187
519.197	15246
519.268	33776
519.338	40416
519.408	7744
519.479	7215
519.549	5308
519.620	5225
519.690	4000
519.760	4275
519.831	3757
519.901	3423
519.971	2931
520.042	3536
520.112	3897
520.182	5437
520.253	5002
520.323	3454
520.393	2907
520.463	5224
520.534	1853
520.604	6646
520.674	4376
520.744	4009
520.814	4662
520.885	6128
520.955	10031
521.025	44924
521.095	35117
521.165	5016
521.235	3794
521.305	2578
521.375	3329
521.445	3732
521.515	3227
521.585	4756
521.655	2967
521.725	3827
521.795	3937
521.865	1782
521.935	5025
522.005	4687
522.075	3370
522.145	3636
522.215	2625
522.285	6163
522.355	6771
522.424	11655
522.494	11811
522.564	5941
522.634	5910
522.704	17632
522.774	10755
522.843	3818
522.913	2254
522.983	3105
523.053	3118
523.122	2964
523.192	3468
523.262	7645
523.331	10458
523.401	4798
523.471	1485
523.540	2097
523.610	1223
523.680	1886
523.749	1851
523.819	3222
523.888	4136
523.958	2017
524.027	1791
524.097	1897
524.166	1950
524.236	1522
524.305	3239
524.375	1281
524.444	443
524.514	3387
524.583	2437
524.653	2767
524.722	3274
524.791	1664
524.861	2705
524.930	1477
524.999	1609
525.069	3798
525.138	2662
525.207	4044
525.277	3899
525.346	2494
525.415	2421
525.484	2267
525.554	2538
525.623	3008
525.692	4900
525.761	4566
525.830	3945
525.900	5804
525.969	8318
526.038	14645
526.107	24667
526.176	89959
526.245	103104
526.314	29926
526.383	38049
526.452	75392
526.522	93298
526.591	150320
526.660	28882
526.729	12440
526.797	13930
526.867	20347
526.935	75166
527.004	213617
527.073	208239
527.142	20256
527.211	6316
527.280	4565
527.349	3124
527.418	2237
527.487	2893
527.555	1237
527.624	1562
527.693	316
527.762	1738
527.831	926
527.899	2143
527.968	1471
528.037	433
528.106	2686
528.174	2923
528.243	3469
528.312	4735
528.380	6170
528.449	1667
528.518	3176
528.586	-713
528.655	2033
528.723	1202
528.792	1429
528.861	869
528.929	118
528.998	2049
529.066	1228
529.135	1788
529.203	1072
529.272	226
529.340	3171
529.409	2530
529.477	1672
529.545	1760
529.614	4800
529.682	1873
529.751	4417
529.819	4156
529.887	3332
529.956	3199
530.024	2916
530.092	1502
530.161	3039
530.229	2593
530.297	3777
530.365	3157
530.434	3015
530.502	2065
530.570	2750
530.638	739
530.707	2884
530.775	3581
530.843	932
530.911	1479
530.979	3277
531.047	2292
531.115	3625
531.183	2040
531.252	2652
531.320	1509
531.388	1844
531.456	2081
531.524	1779
531.592	3217
531.660	4353
531.728	2414
531.796	1992
531.864	2489
531.932	3293
532.000	2407
532.067	3060
532.135	3293
532.203	3728
532.271	2310
532.339	4856
532.407	7708
532.475	7761
532.542	4955
532.610	5041
532.678	3610
532.746	13367
532.814	41977
532.881	18595
532.949	3938
533.017	3275
533.084	2988
533.152	3069
533.220	2712
533.287	2844
533.355	3767
533.423	3006
533.490	2412
533.558	2416
533.625	3187
533.693	3466
533.761	3391
533.828	4232
533.896	1979
533.963	5176
534.031	5800
534.098	7022
534.166	4870
534.233	3583
534.300	4069
534.368	3414
534.435	3426
534.503	3707
534.570	3768
534.637	3378
534.705	5146
534.772	6871
534.840	6891
534.907	34309
534.974	76943
535.041	13334
535.109	5032
535.176	3131
535.243	3658
535.310	3026
535.378	1936
535.445	2936
535.512	2841
535.579	3264
535.646	1207
535.714	3350
535.781	4292
535.848	4363
535.915	3736
535.982	3787
536.049	2553
536.116	3839
536.183	2486
536.250	2372
536.317	2786
536.384	2826
536.451	4253
536.518	4260
536.585	2018
536.652	5199
536.719	5047
536.786	3485
536.853	2870
536.920	4811
536.987	5816
537.053	5729
537.120	16950
537.187	25266
537.254	3363
537.321	2247
537.388	4235
537.454	1998
537.521	2163
537.588	1944
537.654	3204
537.721	3984
537.788	5154
537.855	2423
537.921	3232
537.988	2755
538.055	3345
538.121	1845
538.188	2860
538.254	3394
538.321	5630
538.388	4789
538.454	3316
538.521	2696
538.587	3186
538.654	1535
538.720	2557
538.787	3096
538.853	2404
538.920	3418
538.986	3829
539.053	2598
539.119	2071
539.185	3036
539.252	3545
539.318	3952
539.385	5025
539.451	3548
539.517	4745
539.583	4316
539.650	5154
539.716	16692
539.782	8120
539.849	3264
539.915	3693
539.981	2545
540.047	2470
540.114	3166
540.180	3860
540.246	2441
540.312	3400
540.378	4942
540.444	7716
540.510	6325
540.576	16512
540.643	9130
540.709	2950
540.775	2688
540.841	3174
540.907	4016
540.973	6516
541.039	4982
541.105	5769
541.171	3720
541.237	3105
541.303	4159
541.369	5154
541.435	4828
541.500	5635
541.566	4154
541.632	3264
541.698	2934
541.764	2807
541.830	2733
541.896	1698
541.961	2776
542.027	3079
542.093	4139
542.159	3404
542.224	3389
542.290	5785
542.356	5253
542.421	7457
542.487	4861
542.553	3270
542.618	4563
542.684	3664
542.750	2991
542.815	4003
542.881	4360
542.947	14015
543.012	16633
543.078	3325
543.143	3626
543.209	3326
543.274	2756
543.340	3715
543.405	6184
543.471	11231
543.536	5244
543.602	3845
543.667	3085
543.732	4317
543.798	2154
543.863	3843
543.928	2593
543.994	2540
544.059	3835
544.124	3132
544.190	3210
544.255	4565
544.320	4255
544.386	3485
544.451	4979
544.516	4556
544.581	4786
544.646	7446
544.712	19644
544.777	6544
544.842	5581
544.907	4962
544.972	4610
545.037	3890
545.102	5863
545.168	4278
545.233	5232
545.298	5313
545.363	5783
545.428	7017
545.493	8295
545.558	13178
545.623	10311
545.688	5509
545.753	5076
545.818	4272
545.883	5079
545.947	4574
546.012	6390
546.077	6222
546.142	6281
546.207	5851
546.272	6488
546.337	6869
546.401	6925
546.466	6876
546.531	5194
546.596	6635
546.661	7541
546.725	7501
546.790	7220
546.855	8138
546.919	7245
546.984	9320
547.049	10427
547.113	11479
547.178	11799
547.243	13294
547.307	15729
547.372	17319
547.436	18771
547.501	17180
547.565	19184
547.630	18998
547.695	18129
547.759	17779
547.823	18633
547.888	17247
547.952	18032
548.017	18911
548.081	21904
548.146	22562
548.210	21190
548.274	18856
548.339	20271
548.403	19837
548.468	16954
548.532	17069
548.596	18270
548.660	16956
548.725	18589
548.789	20725
548.853	22868
548.917	20090
548.982	19138
549.046	21450
549.110	16438
549.174	15528
549.238	16906
549.303	19459
549.367	21572
549.431	19105
549.495	18646
549.559	17933
549.623	19134
549.687	23693
549.751	23000
549.815	26584
549.879	28519
549.943	25341
550.007	27898
550.071	28655
550.135	25561
550.199	23204
550.263	22901
550.327	22944
550.391	23972
550.455	26449
550.519	26449
550.582	27305
550.646	30893
550.710	32958
550.774	31181
550.838	29440
550.901	31544
550.965	33488
551.029	34602
551.093	37950
551.156	42752
551.220	50411
551.284	64479
551.347	47910
551.411	42847
551.475	49313
551.538	35741
551.602	32517
551.666	29139
551.729	27584
551.793	27475
551.856	25551
551.920	25740
551.983	25422
552.047	24259
552.110	24232
552.174	25805
552.237	27402
552.301	25065
552.364	23694
552.428	21993
552.491	22807
552.554	24095
552.618	22672
552.681	23602
552.745	22767
552.808	24973
552.871	27663
552.934	25738
552.998	24109
553.061	24437
553.124	23146
553.187	22143
553.251	22087
553.314	23255
553.377	22684
553.440	25577
553.503	31271
553.567	43110
553.630	27426
553.693	24640
553.756	23822
553.819	22632
553.882	22075
553.945	21820
554.008	22758
554.071	21446
554.134	23307
554.197	21428
554.260	20418
554.323	21974
554.386	20421
554.449	21725
554.512	23035
554.575	21245
554.638	19915
554.701	19958
554.764	20260
554.827	19825
554.889	18305
554.952	17367
555.015	16234
555.078	17852
555.141	18583
555.203	17519
555.266	17986
555.329	19411
555.391	16669
555.454	17342
555.517	16754
555.580	16047
555.642	14325
555.705	14186
555.768	14418
555.830	14548
555.893	13656
555.955	13099
556.018	13621
556.080	13078
556.143	13422
556.206	13429
556.268	13930
556.330	13404
556.393	12558
556.455	12474
556.518	13235
556.580	14676
556.643	11623
556.705	11487
556.767	10309
556.830	11749
556.892	10948
556.955	12147
557.017	11226
557.079	10819
557.142	9822
557.204	9802
557.266	12829
557.328	11968
557.391	9010
557.453	8609
557.515	8798
557.577	8479
557.639	9139
557.701	9349
557.764	8064
557.826	10025
557.888	10878
557.950	11725
558.012	11798
558.074	14649
558.136	26598
558.198	83787
558.260	49794
558.322	13109
558.384	12688
558.446	14492
558.508	16298
558.570	20073
558.632	25913
558.694	36471
558.756	48341
558.818	116051
558.880	407457
558.942	203932
559.003	87885
559.065	66226
559.127	20596
559.189	18417
559.251	21182
559.312	28390
559.374	57842
559.436	230014
559.498	195880
559.559	26106
559.621	19866
559.683	21124
559.744	30886
559.806	85995
559.868	211212
559.929	58214
559.991	19856
560.052	25204
560.114	74741
560.176	73861
560.237	36689
560.299	86992
560.360	29417
560.422	8434
560.483	7321
560.545	5589
560.606	5335
560.667	5959
560.729	4992
560.790	6207
560.852	5483
560.913	5381
560.974	4625
561.036	5271
561.097	5479
561.158	5374
561.220	5019
561.281	4697
561.342	4236
561.403	6133
561.465	5254
561.526	9396
561.587	14114
561.648	5878
561.709	4781
561.771	4966
561.832	4392
561.893	5165
561.954	4178
562.015	5147
562.076	4418
562.137	4375
562.198	3469
562.259	4220
562.320	3943
562.381	4261
562.442	5299
562.503	3970
562.564	5057
562.625	3599
562.686	4413
562.747	3767
562.808	4390
562.869	3525
562.930	5236
562.991	4667
563.051	5090
563.112	4625
563.173	5369
563.234	3993
563.294	3743
563.355	3850
563.416	4206
563.477	4166
563.537	3521
563.598	5515
563.659	4371
563.720	4829
563.780	4486
563.841	4506
563.901	4423
563.962	3899
564.023	3640
564.083	4453
564.144	3400
564.204	4779
564.265	4388
564.325	5386
564.386	8562
564.446	10542
564.507	4783
564.567	3738
564.628	4273
564.688	3482
564.749	3404
564.809	4400
564.869	5728
564.930	3556
564.990	4010
565.050	3613
565.111	3546
565.171	3752
565.231	4489
565.292	4406
565.352	3117
565.412	4201
565.472	3446
565.532	4360
565.593	3758
565.653	4317
565.713	4044
565.773	4435
565.833	4250
565.893	5855
565.953	4604
566.013	4184
566.074	4259
566.134	6678
566.194	8057
566.254	9551
566.314	6235
566.374	4950
566.434	5337
566.494	5317
566.554	5379
566.614	5345
566.673	6138
566.733	6131
566.793	7299
566.853	7192
566.913	6260
566.973	7234
567.033	6923
567.092	6714
567.152	6236
567.212	7386
567.272	7194
567.331	7929
567.391	8111
567.451	8531
567.511	10588
567.570	12159
567.630	8938
567.690	8434
567.749	7857
567.809	8899
567.868	10416
567.928	10963
567.988	13286
568.047	15597
568.107	20513
568.166	28447
568.226	46012
568.285	75788
568.345	65566
568.404	47253
568.464	37455
568.523	33732
568.582	33207
568.642	37222
568.701	45918
568.761	69544
568.820	122508
568.879	135107
568.939	89596
568.998	61027
569.057	42847
569.116	32260
569.176	24971
569.235	19895
569.294	16630
569.353	14328
569.413	12981
569.472	10796
569.531	9114
569.590	8588
569.649	8174
569.708	6186
569.767	7362
569.827	6837
569.886	6487
569.945	6468
570.004	6235
570.063	6148
570.122	4681
570.181	6364
570.240	5285
570.299	5686
570.358	5269
570.417	4091
570.475	4917
570.534	5367
570.593	4871
570.652	4566
570.711	3293
570.770	4001
570.829	5243
570.887	4428
570.946	5539
571.005	3917
571.064	4695
571.122	4822
571.181	4382
571.240	4911
571.299	3363
571.357	3842
571.416	4076
571.475	4804
571.533	5358
571.592	4470
571.650	3850
571.709	4537
571.768	3556
571.826	4335
571.885	2859
571.943	4222
572.002	3583
572.060	3765
572.119	3706
572.177	4334
572.236	2855
572.294	2753
572.352	3850
572.411	3802
572.469	2646
572.528	2907
572.586	2970
572.644	3073
572.703	2752
572.761	2948
572.819	2387
572.877	3185
572.936	2763
572.994	2766
573.052	3461
573.110	2942
573.169	3257
573.227	2825
573.285	2775
573.343	3401
573.401	3285
573.459	2998
573.517	3113
573.576	3074
573.634	3751
573.692	3512
573.750	2914
573.808	2946
573.866	3241
573.924	3876
573.982	4592
574.040	3623
574.098	2901
574.155	2994
574.213	3096
574.271	3386
574.329	2799
574.387	2304
574.445	2700
574.503	2591
574.560	3188
574.618	2413
574.676	2239
574.734	2094
574.792	2891
574.849	2400
574.907	2798
574.965	2218
575.022	2209
575.080	1782
575.138	2642
575.195	2551
575.253	2829
575.311	2521
575.368	3494
575.426	1487
575.483	2836
575.541	2792
575.598	2190
575.656	2217
575.713	2199
575.771	2259
575.828	2373
575.886	2690
575.943	3355
576.001	2827
576.058	2535
576.115	3602
576.173	3357
576.230	4464
576.287	4042
576.345	3169
576.402	3301
576.459	3001
576.517	2216
576.574	3994
576.631	2662
576.688	2737
576.746	2854
576.803	2271
576.860	3314
576.917	3066
576.974	2726
577.031	2586
577.089	3167
577.146	2026
577.203	3303
577.260	3217
577.317	3156
577.374	3800
577.431	3725
577.488	3392
577.545	1865
577.602	2633
577.659	2760
577.716	2962
577.773	3244
577.830	2956
577.886	2888
577.943	2576
578.000	3341
578.057	2534
578.114	3620
578.171	3387
578.227	2806
578.284	3559
578.341	3508
578.398	3909
578.454	3570
578.511	3333
578.568	3907
578.625	3448
578.681	2905
578.738	2797
578.794	2476
578.851	2685
578.908	3041
578.964	2632
579.021	2928
579.077	2457
579.134	2355
579.190	2521
579.247	2776
579.303	2253
579.360	2607
579.416	3353
579.473	2445
579.529	2486
579.586	3868
579.642	2482
579.698	2320
579.755	3570
579.811	2669
579.867	3111
579.924	2365
579.980	3819
580.036	3493
580.093	3751
580.149	4229
580.205	5417
580.261	3734
580.317	3341
580.374	3576
580.430	4266
580.486	4472
580.542	3317
580.598	3161
580.619	3160
580.654	3155
580.692	3080
580.710	3041
580.765	3443
580.767	3454
580.823	3175
580.838	3255
580.879	3467
580.911	3544
580.935	3597
580.984	3376
580.991	3347
581.047	2961
581.057	3080
581.103	3608
581.130	3715
581.159	3787
581.203	3882
581.215	3922
581.270	4546
581.276	4482
581.326	3795
581.349	3988
581.382	4271
581.422	4014
581.438	3900
581.494	3554
581.494	3561
581.550	4115
581.567	4036
581.606	3804
581.640	3949
581.661	4055
581.713	4473
581.717	4499
581.773	4363
581.786	4202
581.829	3723
581.859	3615
581.885	3511
581.932	4068
581.940	4166
581.996	4466
582.004	4465
582.052	4347
582.077	4140
582.107	3978
582.150	4612
582.163	4766
582.219	5378
582.223	5312
582.274	4652
582.296	4529
582.330	4197
582.368	4643
582.386	4941
582.441	5121
582.441	5118
582.497	4568
582.514	4601
582.552	4942
582.587	5478
582.608	5747
582.659	5582
582.663	5553
582.719	5814
582.732	5685
582.774	5375
582.805	5344
582.830	5307
582.877	5995
582.885	6114
582.941	5341
582.950	5492
582.996	6294
583.023	6224
583.052	6197
583.095	6595
583.107	6711
583.162	7327
583.168	7406
583.218	7649
583.240	7070
583.273	6312
583.313	6261
583.328	6291
583.384	7075
583.385	7043
583.439	5832
583.458	5986
583.494	6495
583.531	6170
583.549	6036
583.603	6550
583.605	6558
583.660	6083
583.676	6255
583.715	6782
583.748	6792
583.770	6823
583.820	7372
583.825	7428
583.881	7159
583.893	7229
583.936	7354
583.965	7090
583.991	6954
584.038	7508
584.046	7600
584.101	7706
584.110	7743
584.156	7890
584.183	7660
584.211	7360
584.255	7477
584.266	7647
584.321	8402
584.328	8428
584.376	8108
584.400	8242
584.431	8546
584.472	8453
584.486	8468
584.541	8658
584.545	8677
584.596	8947
584.617	9076
584.651	9413
584.689	9610
584.706	9683
584.761	9820
584.762	9814
584.816	10067
584.834	10061
584.871	10268
584.906	10705
584.926	10864
584.978	11031
584.980	11052
585.035	11730
585.051	11819
585.090	12363
585.123	13074
585.145	13533
585.195	13833
585.200	13919
585.254	16040
585.267	16316
585.309	17362
585.340	18528
585.364	19357
585.412	21122
585.419	21434
585.473	24212
585.484	24738
585.528	28825
585.556	32569
585.583	42048
585.628	62890
585.637	73388
585.692	149924
585.700	165883
585.747	237295
585.772	233944
585.801	164621
585.845	60145
585.856	48726
585.910	25885
585.917	23540
585.965	20619
585.989	19431
586.019	18785
586.061	18335
586.074	18412
586.128	18811
586.133	18751
586.183	18129
586.205	18297
586.237	18709
586.277	18662
586.292	18860
586.346	19563
586.349	19566
586.401	19371
586.421	19568
586.455	20266
586.493	20637
586.509	21658
586.564	24477
586.565	24571
586.618	32298
586.637	33977
586.672	32334
586.709	28324
586.727	27080
586.781	26657
586.781	26701
586.835	25402
586.853	24951
586.889	24823
586.925	24591
586.944	24725
586.996	25343
586.998	25425
587.052	26569
587.068	26851
587.106	27237
587.140	27919
587.161	28567
587.212	29517
587.215	29636
587.269	30849
587.284	31193
587.323	32198
587.356	32993
587.377	33634
587.427	35087
587.431	35272
587.485	36805
587.499	37183
587.539	39164
587.571	40432
587.593	41444
587.643	43910
587.648	44273
587.702	47183
587.715	47864
587.755	50915
587.786	53280
587.810	54975
587.858	58040
587.864	58760
587.917	64654
587.930	66003
587.971	71391
588.001	75482
588.025	79676
588.073	87308
588.079	88629
588.133	99277
588.145	101805
588.187	113612
588.217	121826
588.241	130449
588.288	146895
588.295	149990
588.348	176168
588.360	181488
588.402	205635
588.431	223565
588.456	243546
588.503	282101
588.510	289556
588.564	350401
588.575	363206
588.617	433095
588.646	483825
588.671	552853
588.718	692328
588.725	729643
588.778	1027398
588.789	1091908
588.832	1507086
588.861	1800866
588.886	2018191
588.932	2399325
588.939	2393070
588.993	2155817
589.004	2120622
589.047	2204215
589.075	2204428
589.100	1928087
589.147	1356160
589.154	1305573
589.207	935836
589.218	863947
589.261	773307
589.290	719235
589.314	737423
589.361	781458
589.368	812006
589.421	1072507
589.433	1131777
589.475	1559022
589.504	1868888
589.528	2020256
589.576	2230738
589.582	2219108
589.635	2033232
589.647	1974452
589.689	1464432
589.718	1091800
589.742	896694
589.790	537125
589.795	520845
589.849	374885
589.861	341954
589.902	288538
589.932	249699
589.955	229436
590.004	186319
590.009	184060
590.062	157401
590.075	150406
590.115	137447
590.146	127486
590.168	122179
590.218	109357
590.222	108856
590.275	99220
590.289	96480
590.328	91770
590.360	87471
590.381	84828
590.431	77893
590.435	77866
590.488	74091
590.503	72807
590.541	70116
590.574	67522
590.594	66359
590.645	62874
590.647	62940
590.700	59650
590.716	58512
590.753	57100
590.787	55497
590.806	55161
590.859	53748
590.859	53889
590.912	52256
590.930	51449
590.965	50296
591.001	49060
591.018	48814
591.071	47512
591.072	47343
591.124	46460
591.143	45947
591.177	45823
591.214	45376
591.230	45272
591.283	44442
591.285	44254
591.336	43907
591.356	43653
591.389	43421
591.427	42609
591.442	42294
591.495	40784
591.498	40526
591.547	39800
591.569	39300
591.600	39211
591.640	38659
591.653	38798
591.706	38879
591.711	38768
591.759	40312
591.782	40780
591.811	41080
591.853	41228
591.864	41103
591.917	39682
591.924	39323
591.969	38738
591.995	38234
592.022	38161
592.066	37593
592.075	37921
592.127	39163
592.137	39252
592.180	40910
592.208	41691
592.233	40337
592.279	37347
592.285	37533
592.338	37943
592.350	37906
592.390	37820
592.421	37476
592.443	37369
592.491	36691
592.495	36829
592.548	36836
592.562	36699
592.600	36662
592.633	36379
592.653	36611
592.704	36661
592.705	36862
592.775	36269
592.846	36380
592.916	35450
592.987	36363
593.058	37457
593.128	35821
593.199	34849
593.270	36026
593.341	35705
593.411	35339
593.482	35832
593.553	35828
593.623	36467
593.694	36624
593.764	39079
593.835	37237
593.906	37770
593.976	36537
594.047	37674
594.117	41990
594.188	42110
594.258	38709
594.329	39033
594.399	38515
594.470	39851
594.540	40396
594.611	40325
594.681	39065
594.751	40260
594.822	41793
594.892	43526
594.963	43716
595.033	42504
595.103	43861
595.174	45392
595.244	51392
595.314	57497
595.384	47428
595.455	47314
595.525	47944
595.595	50105
595.665	50112
595.736	49325
595.806	48631
595.876	49621
595.946	48813
596.016	50922
596.087	52735
596.157	52828
596.227	52348
596.297	54444
596.367	56824
596.437	61517
596.507	64518
596.577	69889
596.647	62583
596.717	63496
596.787	64322
596.857	65412
596.927	64236
596.997	65398
597.067	65039
597.137	67635
597.207	67898
597.277	68137
597.347	66260
597.417	62645
597.487	64682
597.557	65447
597.626	66110
597.696	68533
597.766	70728
597.836	71861
597.906	64784
597.975	59227
598.045	59362
598.115	63159
598.185	65164
598.254	73108
598.324	77377
598.394	80443
598.464	79314
598.533	77384
598.603	73455
598.672	70915
598.742	72774
598.812	72898
598.881	74331
598.951	73123
599.020	74289
599.090	77415
599.159	77749
599.229	77485
599.299	74181
599.368	74823
599.437	75557
599.507	70863
599.576	68089
599.646	68511
599.715	66645
599.785	67806
599.854	67168
599.924	68433
599.993	66584
600.062	66481
600.132	68522
600.201	71459
600.270	81312
600.340	85513
600.409	84338
600.478	83953
600.547	84555
600.617	82130
600.686	67584
600.755	63492
600.824	61748
600.894	60660
600.963	59406
601.032	59600
601.101	59084
601.170	56726
601.239	55818
601.308	58195
601.378	57613
601.447	58484
601.516	57276
601.585	59161
601.654	61811
601.723	61451
601.792	61399
601.861	63869
601.930	66881
601.999	70209
602.068	68090
602.137	69478
602.206	70925
602.275	69793
602.343	70852
602.412	72708
602.481	70824
602.550	71590
602.619	73218
602.688	74562
602.756	74966
602.825	72977
602.894	75885
602.963	76518
603.032	77637
603.100	77596
603.169	75463
603.238	78843
603.307	78878
603.375	77558
603.444	80262
603.513	79012
603.581	80321
603.650	84001
603.719	77106
603.787	74793
603.856	77450
603.924	80389
603.993	81251
604.061	84924
604.130	87628
604.198	90364
604.267	91790
604.335	92369
604.404	91647
604.472	94874
604.541	95458
604.609	98133
604.678	99935
604.746	98814
604.815	104062
604.883	104625
604.951	102707
605.020	104026
605.088	104593
605.156	102547
605.225	103196
605.293	104056
605.361	103829
605.429	103691
605.498	106734
605.566	108464
605.634	112423
605.702	116005
605.771	119022
605.839	120189
605.907	116151
605.975	114380
606.043	111003
606.111	110494
606.180	112165
606.248	110238
606.316	107687
606.384	111068
606.452	108169
606.520	103190
606.588	104218
606.656	103756
606.724	102804
606.792	97079
606.860	87392
606.928	79631
606.996	75678
607.064	74121
607.132	77490
607.200	80679
607.267	84480
607.335	84154
607.403	87554
607.471	86352
607.539	81076
607.607	83607
607.674	72517
607.742	71723
607.810	72083
607.878	71279
607.946	72105
608.013	75669
608.081	78668
608.149	78293
608.216	81258
608.284	84655
608.352	83794
608.419	84487
608.487	86273
608.555	82263
608.622	80957
608.690	86799
608.757	94343
608.825	97814
608.893	96041
608.960	91032
609.028	86332
609.095	91151
609.163	86497
609.230	77535
609.298	69894
609.365	73386
609.432	78010
609.500	84188
609.567	97083
609.635	112616
609.702	120745
609.769	116615
609.837	94155
609.904	78357
609.971	78598
610.039	89133
610.106	114590
610.173	216680
610.241	517012
610.308	391871
610.375	134204
610.442	89363
610.509	79920
610.577	79420
610.644	80607
610.711	82025
610.778	83939
610.845	86741
610.912	92713
610.980	97514
611.047	98535
611.114	96188
611.181	91929
611.248	91430
611.315	97337
611.382	97922
611.449	103249
611.516	104158
611.583	102923
611.650	103662
611.717	105771
611.784	107817
611.851	111386
611.918	122555
611.984	141239
612.051	201244
612.118	405460
612.185	1029225
612.252	854159
612.319	194590
612.386	143194
612.452	129033
612.519	121784
612.586	122211
612.653	120779
612.719	122005
612.786	119521
612.853	109689
612.919	106015
612.986	108437
613.053	101015
613.120	97761
613.186	91945
613.253	92348
613.319	92198
613.386	92692
613.453	94138
613.519	95452
613.586	95081
613.652	100196
613.719	96171
613.785	97390
613.852	95163
613.918	94130
613.985	95800
614.051	100709
614.118	103896
614.184	102017
614.250	93368
614.317	96506
614.383	93716
614.449	96022
614.516	96260
614.582	96498
614.648	94842
614.715	94023
614.781	92135
614.847	92717
614.914	92716
614.980	89214
615.046	88393
615.112	92364
615.179	93077
615.245	97613
615.311	101305
615.377	121643
615.443	131460
615.509	106662
615.575	100836
615.642	100711
615.708	102141
615.774	109148
615.840	117907
615.906	133254
615.972	173122
616.038	288070
616.104	548588
616.170	1215095
616.236	1328391
616.302	299547
616.368	188267
616.434	139297
616.500	120230
616.565	131380
616.631	166079
616.697	140802
616.763	135841
616.829	191966
616.895	355727
616.961	383437
617.026	162869
617.092	106533
617.158	97943
617.224	97560
617.289	89734
617.355	85313
617.421	84200
617.487	85159
617.552	79906
617.618	78237
617.684	77451
617.749	78951
617.815	75934
617.880	73568
617.946	72479
618.012	73509
618.077	75650
618.143	73676
618.208	72125
618.274	79307
618.339	82661
618.405	68036
618.470	64395
618.536	66632
618.601	66514
618.667	63135
618.732	57431
618.798	57172
618.863	56488
618.928	56831
618.994	57541
619.059	58129
619.124	62130
619.190	59767
619.255	56211
619.320	56401
619.386	55840
619.451	54719
619.516	53780
619.581	54419
619.647	56124
619.712	56067
619.777	52863
619.842	53661
619.907	53882
619.972	56325
620.038	55882
620.103	54152
620.168	52471
620.233	54572
620.298	54419
620.363	54278
620.428	56125
620.493	57433
620.558	58115
620.623	58508
620.688	58588
620.753	58567
620.818	59419
620.883	59362
620.948	60377
621.013	59369
621.078	57803
621.143	58183
621.207	61870
621.272	58677
621.337	58267
621.402	58184
621.467	60825
621.532	61946
621.596	59342
621.661	55994
621.726	54851
621.791	55199
621.855	55283
621.920	56338
621.985	57407
622.049	60921
622.114	59723
622.179	59588
622.243	61919
622.308	62640
622.373	64840
622.437	62990
622.502	59199
622.566	59422
622.631	58787
622.695	60928
622.760	60496
622.824	60142
622.889	58838
622.953	60391
623.018	66372
623.082	69467
623.147	63557
623.211	61439
623.276	61301
623.340	58927
623.404	56884
623.469	56676
623.533	57901
623.597	57137
623.662	56228
623.726	52751
623.790	49100
623.854	48607
623.919	49187
623.983	48520
624.047	50841
624.111	50867
624.176	52260
624.240	51191
624.304	52928
624.368	52147
624.432	50530
624.496	53041
624.560	55446
624.625	58711
624.689	55650
624.753	57486
624.817	55719
624.881	53469
624.945	49652
625.009	46677
625.073	48556
625.137	49360
625.201	53381
625.265	54941
625.329	49776
625.393	51088
625.456	51266
625.520	52668
625.584	54872
625.648	59180
625.712	66103
625.776	94109
625.839	104695
625.903	66389
625.967	45027
626.031	55443
626.095	76393
626.158	57100
626.222	41828
626.286	36341
626.349	35348
626.413	33726
626.477	33457
626.540	32882
626.604	33154
626.668	32483
626.731	31540
626.795	33209
626.858	32873
626.922	32904
626.986	31378
627.049	31576
627.113	32967
627.176	33131
627.240	31999
627.303	31762
627.366	30294
627.430	32484
627.493	31586
627.557	32107
627.620	32581
627.684	32856
627.747	33310
627.810	30426
627.874	28702
627.937	26784
628.000	29646
628.064	28584
628.127	24752
628.190	23953
628.253	24244
628.317	23116
628.380	21947
628.443	21401
628.506	22243
628.569	22129
628.632	19977
628.696	20673
628.759	19725
628.822	19191
628.885	17964
628.948	20133
629.011	18155
629.074	18160
629.137	18735
629.200	17459
629.263	19240
629.326	17584
629.389	17490
629.452	17894
629.515	17770
629.578	17805
629.641	18370
629.704	19198
629.767	18782
629.830	17495
629.892	17049
629.955	16298
630.018	18148
630.081	17340
630.144	18956
630.207	16728
630.269	19837
630.332	17396
630.395	17196
630.458	16012
630.520	15802
630.583	17200
630.646	15026
630.708	16773
630.771	16233
630.834	17534
630.896	16098
630.959	16841
631.021	15530
631.084	16010
631.146	16747
631.209	17851
631.272	16537
631.334	16302
631.397	16331
631.459	15553
631.522	16408
631.584	17096
631.646	19041
631.709	18826
631.771	21198
631.834	19963
631.896	18232
631.958	15868
632.021	16238
632.083	15273
632.145	16357
632.208	15464
632.270	14925
632.332	15598
632.395	14684
632.457	16084
632.519	14866
632.581	15939
632.643	14819
632.706	15107
632.768	13544
632.830	14962
632.892	15118
632.954	15631
633.016	15410
633.078	14622
633.141	15042
633.203	15136
633.265	15234
633.327	15108
633.389	14835
633.451	15685
633.513	16273
633.575	16944
633.637	16292
633.698	16083
633.760	15772
633.822	16185
633.884	16466
633.946	15643
634.008	16883
634.070	17373
634.132	17781
634.193	19965
634.255	21635
634.317	22115
634.379	21780
634.441	19526
634.502	17987
634.564	17244
634.626	15832
634.687	15540
634.749	14917
634.811	14987
634.873	13345
634.934	14495
634.996	13337
635.057	13622
635.119	14162
635.181	15509
635.242	14949
635.304	14433
635.365	15812
635.427	14141
635.488	14780
635.550	14676
635.611	14088
635.673	14162
635.734	16373
635.796	15853
635.857	18494
635.918	17994
635.980	19900
636.041	20779
636.102	22149
636.164	23129
636.225	22475
636.286	19252
636.348	17644
636.409	16613
636.470	13949
636.531	13898
636.593	14627
636.654	14825
636.715	11969
636.776	12614
636.838	12423
636.899	12804
636.960	11735
637.021	12406
637.082	11111
637.143	11775
637.204	10072
637.265	11523
637.326	12637
637.387	11707
637.448	10825
637.509	12117
637.570	11030
637.631	11551
637.692	10809
637.753	10632
637.814	9919
637.875	10374
637.936	11220
637.997	11094
638.058	11319
638.119	11669
638.179	11132
638.240	10731
638.301	10439
638.362	10131
638.423	9785
638.483	11150
638.544	10244
638.605	11082
638.666	9996
638.726	11477
638.787	11370
638.848	9796
638.908	10007
638.969	10298
639.030	10172
639.090	9152
639.151	9718
639.211	10317
639.272	11206
639.332	13287
639.393	11689
639.453	9697
639.514	10798
639.574	9882
639.635	8424
639.695	9289
639.756	7946
639.816	8937
639.877	8589
639.937	12493
639.997	13558
640.058	10173
640.118	8786
640.178	9576
640.239	9558
640.299	7844
640.359	9184
640.420	9861
640.480	9860
640.540	12121
640.600	12442
640.661	11965
640.721	11820
640.781	17059
640.841	18405
640.901	11991
640.961	9581
641.021	10279
641.082	10290
641.142	10659
641.202	9920
641.262	8895
641.322	9057
641.382	8074
641.442	8209
641.502	8508
641.562	8589
641.622	7992
641.682	9466
641.742	10199
641.802	8714
641.861	9317
641.921	8433
641.981	9393
642.041	8477
642.101	9479
642.161	7002
642.221	7757
642.280	7572
642.340	7998
642.400	8253
642.460	8622
642.519	8045
642.579	7021
642.639	8206
642.698	7334
642.758	9250
642.818	8111
642.877	7545
642.937	9311
642.997	9036
643.056	11234
643.116	7740
643.175	10007
643.235	9082
643.294	8587
643.354	9096
643.414	11278
643.473	12617
643.532	16250
643.592	22647
643.651	36354
643.711	66888
643.770	128640
643.830	300085
643.889	794796
643.948	279378
644.008	35715
644.067	19515
644.126	14547
644.186	12277
644.245	11485
644.304	8991
644.363	10779
644.423	7399
644.482	9747
644.541	8496
644.600	8573
644.659	12309
644.719	14344
644.778	22366
644.837	37902
644.896	73163
644.955	195503
645.014	94338
645.073	15813
645.132	10921
645.191	10206
645.250	8682
645.309	11260
645.368	11033
645.427	13003
645.486	19390
645.545	41326
645.604	16322
645.663	9312
645.722	9504
645.781	10428
645.840	10615
645.898	14392
645.957	21304
646.016	33110
646.075	61493
646.134	125779
646.192	303519
646.251	619277
646.310	122480
646.369	24702
646.427	17110
646.486	13938
646.545	10863
646.603	10059
646.662	8449
646.721	8633
646.779	7528
646.838	8109
646.896	11863
646.955	14026
647.014	22608
647.072	40558
647.131	116469
647.189	83882
647.248	11754
647.306	8507
647.365	8143
647.423	6163
647.481	7185
647.540	5586
647.598	6335
647.657	6299
647.715	6937
647.773	5706
647.832	5985
647.890	5041
647.948	5895
648.007	6048
648.065	4589
648.123	5142
648.181	6418
648.240	5188
648.298	5011
648.356	4445
648.414	5985
648.472	5746
648.531	6316
648.589	5908
648.647	4639
648.705	5889
648.763	5288
648.821	5547
648.879	5816
648.937	7420
648.995	8639
649.053	10481
649.111	16326
649.169	28248
649.227	49907
649.285	97391
649.343	310814
649.401	226571
649.459	27294
649.516	16803
649.574	9089
649.632	12339
649.690	13495
649.748	12313
649.806	15823
649.863	29573
649.921	77297
649.979	77801
650.037	11260
650.094	5632
650.152	5285
650.210	5814
650.268	6220
650.325	6711
650.383	10766
650.440	5885
650.498	5016
650.556	4585
650.613	3728
650.671	4108
650.728	4899
650.786	4973
650.843	5342
650.901	4389
650.958	4454
651.016	4718
651.073	4692
651.131	4258
651.188	2774
651.246	4436
651.303	3883
651.360	4533
651.418	3142
651.475	3970
651.532	2830
651.590	4334
651.647	2564
651.704	3845
651.762	3619
651.819	3853
651.876	2811
651.933	3764
651.990	3796
652.048	2715
652.105	2776
652.162	3668
652.219	2915
652.276	3570
652.333	3353
652.390	2334
652.448	3470
652.505	4012
652.562	4179
652.619	3383
652.676	4156
652.733	4247
652.790	2689
652.847	2948
652.904	3354
652.961	2391
653.017	1715
653.074	4579
653.131	2328
653.188	2643
653.245	2849
653.302	3506
653.359	2176
653.415	4148
653.472	2698
653.529	2898
653.586	1817
653.642	2761
653.699	3016
653.756	2333
653.813	3529
653.869	3615
653.926	2078
653.983	3324
654.039	3620
654.096	2750
654.152	3709
654.209	1966
654.266	3167
654.322	3467
654.379	3335
654.435	4226
654.492	3090
654.548	4692
654.605	5713
654.661	6097
654.717	2866
654.774	3128
654.830	3476
654.887	3849
654.943	3266
655.000	6048
655.056	5010
655.112	3785
655.168	2487
655.225	3439
655.281	3865
655.337	3980
655.394	5603
655.450	5086
655.506	4825
655.562	5662
655.618	6751
655.675	2671
655.731	2923
655.787	2895
655.843	2945
655.899	1853
655.955	3840
656.011	3529
656.067	2224
656.123	3751
656.179	3982
656.235	4201
656.291	2067
656.347	3743
656.403	2799
656.459	3441
656.515	3968
656.571	3587
656.627	3184
656.683	2607
656.739	3623
656.795	3071
656.850	2845
656.906	3686
656.962	3713
657.018	2546
657.074	3444
657.129	4880
657.185	5839
657.241	11766
657.297	9525
657.352	4053
657.408	2363
657.464	4389
657.519	2446
657.575	1611
657.630	2982
657.686	3556
657.742	2501
657.797	2984
657.853	2795
657.908	3913
657.964	1972
658.019	2525
658.075	2740
658.130	3665
658.186	2132
658.241	2555
658.297	1792
658.352	2607
658.407	2463
658.463	2910
658.518	2267
658.573	2926
658.629	2133
658.684	2732
658.739	3179
658.795	1740
658.850	3061
658.905	3110
658.960	3384
659.016	2736
659.071	3147
659.126	3332
659.181	2246
659.236	3336
659.291	4785
659.346	3223
659.401	2497
659.457	3019
659.512	2431
659.567	3379
659.622	2054
659.677	2896
659.732	2196
659.787	2711
659.842	3003
659.897	3381
659.952	3091
660.007	2865
660.061	2845
660.116	1767
660.171	2052
660.226	2681
660.281	2657
660.336	1634
660.391	3028
660.445	2121
660.500	2121
660.555	1825
660.610	2051
660.664	2886
660.719	1146
660.774	2708
660.828	2575
660.883	2979
660.938	2317
660.992	1477
661.047	2337
661.101	2597
661.156	2186
661.211	2002
661.265	2318
661.320	2060
661.374	2347
661.429	1730
661.483	2874
661.538	3032
661.592	2893
661.647	3098
661.701	4937
661.755	4177
661.810	2572
661.864	1939
661.919	1537
661.973	3195
662.027	2373
662.081	2439
662.136	1997
662.190	2966
662.244	3046
662.299	2360
662.353	2657
662.407	2373
662.461	2177
662.515	2696
662.569	1367
662.624	3490
662.678	2170
662.732	2349
662.786	2131
662.840	2848
662.894	3443
662.948	1554
663.002	2052
663.056	2640
663.110	1726
663.164	2033
663.218	2398
663.272	2670
663.326	2568
663.380	2419
663.434	2527
663.488	2349
663.542	2339
663.595	2909
663.649	2277
663.703	3043
663.757	2430
663.811	3013
663.864	2106
663.918	2138
663.972	1663
664.026	2202
664.079	1782
664.133	1973
664.187	2070
664.240	2131
664.294	2172
664.348	3627
664.401	2226
664.455	2680
664.508	1485
664.562	2227
664.615	2907
664.669	2011
664.722	2032
664.776	2676
664.829	2230
664.883	2110
664.936	1825
664.990	3084
665.043	2135
665.097	2652
665.150	3322
665.203	1950
665.257	2034
665.310	2732
665.363	2748
665.417	3119
665.470	2755
665.523	3275
665.576	3217
665.630	2244
665.683	2084
665.736	2943
665.789	3273
665.842	2452
665.895	2435
665.949	3377
666.002	2555
666.055	3020
666.108	2661
666.161	2916
666.214	2549
666.267	3085
666.320	2942
666.373	3103
666.426	2216
666.479	2682
666.532	2170
666.585	2201
666.638	3205
666.691	2367
666.744	3910
666.796	3147
666.849	2867
666.902	3302
666.955	2297
667.008	1880
667.060	2016
667.113	1978
667.166	1825
667.219	2269
667.271	2148
667.324	2355
667.377	1259
667.430	2682
667.482	2242
667.535	2344
667.587	2175
667.640	3434
667.693	2313
667.745	3351
667.798	3997
667.850	3233
667.903	1887
667.955	2060
668.008	2202
668.060	3192
668.113	2222
668.165	2799
668.218	2676
668.270	3349
668.322	3291
668.375	3103
668.427	2858
668.479	2608
668.532	1752
668.584	2544
668.636	2503
668.689	3181
668.741	1827
668.793	3034
668.845	1889
668.898	3246
668.950	2171
669.002	2840
669.054	1876
669.106	2051
669.158	2845
669.211	2443
669.263	2002
669.315	3191
669.367	3092
669.419	2919
669.471	3592
669.523	3567
669.575	4695
669.627	4437
669.679	3247
669.731	2678
669.783	3273
669.835	3189
669.886	3299
669.938	2763
669.990	2758
670.042	2459
670.094	2431
670.146	3233
670.197	3108
670.249	3874
670.301	4425
670.353	6439
670.404	9211
670.456	13792
670.508	21501
670.560	37011
670.611	64983
670.663	112401
670.715	239846
670.766	502707
670.818	194402
670.869	25759
670.921	11930
670.972	8608
671.024	6739
671.075	5496
671.127	4309
671.178	3572
671.230	3812
671.281	3921
671.333	3705
671.384	3427
671.436	3946
671.487	5187
671.538	6479
671.590	9821
671.641	15516
671.692	25374
671.744	54387
671.795	44284
671.846	13039
671.897	6258
671.949	4363
672.000	4025
672.051	3191
672.102	4106
672.153	2344
672.204	2410
672.256	2583
672.307	3295
672.358	3298
672.409	3250
672.460	2247
672.511	2359
672.562	1427
672.613	1860
672.664	2018
672.715	2243
672.766	2095
672.817	1429
672.868	1046
672.919	2014
672.970	1643
673.021	2119
673.071	777
673.122	1620
673.173	1821
673.224	1625
673.275	1879
673.326	1841
673.376	1157
673.427	1695
673.478	1874
673.528	1849
673.579	1166
673.630	1981
673.680	2331
673.731	2025
673.782	1401
673.832	1088
673.883	2291
673.934	1799
673.984	1417
674.035	2341
674.085	1160
674.136	2419
674.186	2251
674.237	3073
674.287	3152
674.338	2776
674.388	2061
674.438	2034
674.489	1774
674.539	2170
674.589	1567
674.640	2244
674.690	1611
674.740	705
674.791	1244
674.841	1625
674.891	1670
674.942	1537
674.992	1594
675.042	1350
675.092	585
675.142	804
675.193	853
675.243	1122
675.293	1768
675.343	1779
675.393	1405
675.443	2113
675.493	1108
675.543	1162
675.593	2270
675.643	1569
675.693	1563
675.743	1610
675.793	2777
675.843	914
675.893	1198
675.943	1704
675.993	1611
676.043	1481
676.093	1425
676.142	922
676.192	906
676.242	1316
676.292	1167
676.341	1791
676.391	1124
676.441	1840
676.491	1031
676.540	1359
676.590	839
676.640	1739
676.689	595
676.739	745
676.789	1713
676.838	1978
676.888	102
676.937	641
676.987	1386
677.037	1231
677.086	1109
677.136	1827
677.185	723
677.235	561
677.284	1083
677.333	1289
677.383	953
677.432	711
677.482	946
677.531	1139
677.580	928
677.630	1209
677.679	601
677.728	1388
677.778	984
677.827	822
677.876	568
677.925	1233
677.975	1227
678.024	612
678.073	282
678.122	947
678.171	-18
678.220	443
678.269	1496
678.319	1922
678.368	1064
678.417	1246
678.466	888
678.515	1554
678.564	797
678.613	1306
678.662	171
678.711	797
678.760	1170
678.809	784
678.857	1205
678.906	1899
678.955	934
679.004	991
679.053	1373
679.102	1352
679.151	917
679.199	982
679.248	612
679.297	1153
679.346	581
679.394	1472
679.443	433
679.492	896
679.540	1722
679.589	1546
679.638	767
679.686	586
679.735	819
679.784	892
679.832	1148
679.881	341
679.929	1076
679.978	405
680.026	878
680.075	966
680.123	94
680.172	702
680.220	152
680.268	919
680.317	646
680.365	684
680.414	359
680.462	360
680.510	1132
680.559	965
680.607	416
680.655	787
680.703	641
680.752	1032
680.800	463
680.848	159
680.896	392
680.945	756
680.993	864
681.041	829
681.089	433
681.137	956
681.185	261
681.233	44
681.258	414
681.281	751
681.329	462
681.377	96
681.380	166
681.425	1234
681.473	458
681.502	484
681.521	469
681.569	418
681.617	948
681.624	950
681.665	869
681.713	1050
681.745	1080
681.761	1074
681.809	313
681.857	1184
681.867	1219
681.904	1278
681.952	746
681.989	836
682.000	841
682.048	456
682.096	834
682.111	605
682.143	84
682.191	993
682.233	771
682.239	721
682.286	831
682.334	801
682.354	866
682.382	949
682.430	378
682.476	962
682.477	960
682.525	1816
682.572	597
682.598	718
682.620	816
682.667	1470
682.715	970
682.720	1016
682.763	1266
682.810	1003
682.841	1002
682.857	1009
682.905	975
682.952	1424
682.963	1419
683.000	1282
683.047	1889
683.085	1401
683.095	1270
683.142	1587
683.190	1500
683.206	1553
683.237	1591
683.284	1539
683.328	1580
683.332	1572
683.379	830
683.426	1552
683.449	1363
683.473	1197
683.521	1580
683.568	1059
683.571	1147
683.615	2107
683.662	1659
683.693	1705
683.709	1697
683.757	1465
683.804	1850
683.814	1680
683.851	1045
683.898	2082
683.936	2057
683.945	2058
683.992	1217
684.039	2116
684.057	1830
684.086	1363
684.133	1656
684.179	1986
684.180	1983
684.227	1783
684.274	2484
684.300	2067
684.321	1768
684.368	2147
684.415	1891
684.422	1947
684.462	2167
684.509	1916
684.543	2289
684.556	2426
684.603	2027
684.649	2474
684.665	2524
684.696	2563
684.743	2374
684.786	2176
684.790	2163
684.837	2631
684.883	2394
684.908	2518
684.930	2567
684.977	2943
685.023	2511
685.029	2551
685.070	2746
685.117	2491
685.150	2418
685.164	2416
685.210	2982
685.257	2722
685.272	2784
685.303	2871
685.350	2940
685.393	3167
685.396	3177
685.443	3132
685.490	3130
685.514	3112
685.536	3104
685.583	3411
685.629	3120
685.636	3181
685.675	3396
685.722	2750
685.757	2965
685.768	3065
685.815	2461
685.861	3392
685.878	3128
685.908	2640
685.954	3256
686.000	3489
686.000	3492
686.047	4105
686.093	3770
686.121	4105
686.139	4207
686.185	3776
686.232	3544
686.242	3611
686.278	3764
686.324	3770
686.363	3166
686.370	3062
686.416	3041
686.463	4244
686.484	3832
686.509	3438
686.555	3086
686.601	3412
686.606	3389
686.647	3163
686.693	3154
686.727	3499
686.739	3642
686.785	3506
686.831	3439
686.848	3537
686.877	3620
686.923	3356
686.969	3284
686.969	3283
687.015	3395
687.061	3555
687.090	3890
687.107	3993
687.153	3850
687.199	3215
687.211	3128
687.245	3078
687.291	3450
687.332	3801
687.336	3837
687.382	3948
687.428	4427
687.453	4252
687.474	4031
687.520	4424
687.565	4457
687.574	4437
687.611	4501
687.657	4409
687.695	4899
687.702	5133
687.748	6429
687.794	9325
687.816	8936
687.839	7676
687.885	6355
687.931	5987
687.937	5899
687.976	5366
688.022	4045
688.058	3990
688.067	4131
688.113	3866
688.158	4093
688.179	4141
688.204	4164
688.249	3894
688.295	3765
688.300	3812
688.340	4247
688.386	4303
688.421	3928
688.431	3836
688.477	3715
688.522	4219
688.542	4262
688.567	4314
688.613	4798
688.658	4312
688.663	4345
688.703	4406
688.749	4011
688.784	4079
688.794	4151
688.839	3891
688.884	4458
688.905	4412
688.930	4362
688.975	4438
689.020	4064
689.026	4144
689.065	4707
689.110	4150
689.146	4798
689.155	5024
689.201	4912
689.246	5292
689.267	5312
689.291	4975
689.336	4611
689.381	3842
689.388	3879
689.426	4456
689.471	4161
689.509	4529
689.516	4617
689.561	4535
689.606	4197
689.630	4221
689.651	4155
689.696	4148
689.741	4441
689.750	4414
689.785	4440
689.830	4116
689.871	4230
689.875	4254
689.920	4518
689.965	4641
689.992	4515
690.010	4383
690.054	4320
690.099	4176
690.112	4225
690.144	4430
690.189	4098
690.233	4477
690.233	4486
690.278	4557
690.323	4614
690.354	4230
690.367	4197
690.412	4834
690.457	4671
690.474	5021
690.501	5307
690.546	5199
690.590	5013
690.595	4987
690.635	5053
690.680	5095
690.716	5133
690.724	5153
690.769	5524
690.813	5641
690.836	5623
690.857	5766
690.902	6147
690.946	7072
690.957	7089
690.991	8281
691.035	10361
691.077	12848
691.080	12931
691.124	13070
691.168	12945
691.198	13338
691.213	12786
691.257	10617
691.301	9102
691.318	8152
691.346	7357
691.390	6879
691.434	5662
691.439	5588
691.478	5817
691.522	5564
691.559	5760
691.567	5816
691.611	5591
691.655	5911
691.680	5720
691.699	5491
691.743	5551
691.787	5065
691.800	5099
691.831	5424
691.875	5100
691.919	5425
691.921	5410
691.964	5438
692.008	6027
692.041	5898
692.052	5841
692.096	5876
692.139	6215
692.162	6216
692.183	6150
692.227	6255
692.271	6181
692.282	6019
692.315	5597
692.359	5814
692.402	5559
692.403	5572
692.447	5750
692.490	5902
692.523	6102
692.534	6176
692.578	6018
692.622	6054
692.643	6079
692.666	5994
692.709	5729
692.753	5427
692.763	5409
692.797	5699
692.840	5750
692.884	6178
692.884	6194
692.928	5838
692.971	5908
693.004	5870
693.015	5899
693.059	6128
693.102	6000
693.124	6065
693.146	6131
693.189	6059
693.233	6225
693.245	6160
693.276	6205
693.320	6645
693.363	6516
693.365	6512
693.407	6755
693.450	7125
693.485	6874
693.493	6930
693.537	7626
693.580	8293
693.605	8790
693.624	9469
693.667	10619
693.710	11870
693.725	12404
693.753	15207
693.797	18934
693.840	23684
693.845	24117
693.883	25166
693.926	25851
693.966	26829
693.970	26354
694.013	20947
694.056	15652
694.086	11739
694.099	11324
694.142	10007
694.185	8752
694.206	8214
694.229	8176
694.272	7757
694.315	7673
694.326	7550
694.358	7337
694.401	7130
694.444	6976
694.446	6948
694.487	7036
694.530	7212
694.566	7351
694.573	7335
694.616	7045
694.659	6789
694.686	6582
694.702	6622
694.745	6457
694.787	6820
694.806	6721
694.830	6420
694.873	6222
694.916	5813
694.926	5721
694.959	5913
695.002	6211
695.044	6447
695.046	6436
695.087	6350
695.130	6304
695.166	6254
695.172	6309
695.215	6463
695.258	6944
695.286	7080
695.301	6949
695.343	6571
695.386	6184
695.406	5885
695.428	5875
695.471	6169
695.514	6179
695.526	6235
695.556	6522
695.599	6824
695.641	7109
695.646	7107
695.684	7163
695.726	7248
695.766	7440
695.769	7442
695.811	7213
695.854	6701
695.886	6444
695.896	6457
695.938	6416
695.981	6296
696.005	6253
696.023	6384
696.065	6649
696.108	6875
696.125	6980
696.150	7066
696.192	7146
696.235	7244
696.245	7234
696.277	7337
696.319	7562
696.361	7425
696.365	7420
696.404	7393
696.446	7271
696.485	7217
696.488	7261
696.530	7402
696.572	7733
696.604	7827
696.614	7741
696.656	7494
696.698	6932
696.724	6704
696.740	6799
696.783	6913
696.825	7039
696.844	7093
696.867	7151
696.909	7141
696.951	7264
696.964	7270
696.992	7320
697.034	7159
697.076	7258
697.083	7250
697.118	7697
697.160	8106
697.202	8530
697.203	8519
697.244	8178
697.286	7713
697.323	7375
697.327	7402
697.369	7297
697.411	7307
697.442	7345
697.453	7425
697.494	7563
697.536	7634
697.562	7805
697.578	7895
697.620	7797
697.661	7878
697.682	7872
697.703	7988
697.744	8153
697.786	8398
697.801	8429
697.828	8530
697.869	8668
697.911	8821
697.921	8830
697.952	8385
697.994	7776
698.035	7144
698.040	7053
698.077	7313
698.118	7508
698.160	7755
698.160	7734
698.201	8022
698.243	8290
698.279	8488
698.284	8522
698.325	8656
698.367	8772
698.399	8804
698.408	8743
698.449	8380
698.491	8018
698.518	7742
698.532	7784
698.573	7873
698.614	7926
698.638	7950
698.656	8064
698.697	8254
698.738	8476
698.757	8530
698.779	8533
698.820	8539
698.862	8531
698.877	8508
698.903	8682
698.944	8909
698.985	9141
698.996	9181
699.026	8975
699.067	8658
699.116	8257
699.235	8874
699.354	8124
699.474	8288
699.593	8043
699.713	9547
699.832	8897
699.951	9218
700.070	9164
700.190	8790
700.309	8649
700.428	8579
700.547	8331
700.667	7388
700.786	8379
700.905	8324
701.024	8632
701.143	8325
701.262	7462
701.381	8662
701.500	8265
701.619	8193
701.738	7572
701.857	7909
701.976	7632
702.095	7811
702.214	8619
702.333	8453
702.452	8277
702.571	7339
702.690	7241
702.809	7417
702.928	7017
703.047	7641
703.165	8079
703.284	7489
703.403	7290
703.522	7701
703.640	7584
703.759	8170
703.878	10900
703.997	7796
704.115	7206
704.234	7481
704.353	6752
704.471	6686
704.590	6907
704.708	6585
704.827	6740
704.946	7213
705.064	7414
705.183	7372
705.301	7748
705.420	9436
705.538	9534
705.656	8432
705.775	7876
705.893	9274
706.012	11851
706.130	8766
706.249	8531
706.367	8186
706.485	8891
706.604	8606
706.722	9380
706.840	11347
706.958	18658
707.077	15804
707.195	8844
707.313	8323
707.431	7722
707.549	7598
707.668	6905
707.786	7222
707.904	7469
708.022	7816
708.140	6712
708.258	6196
708.376	7748
708.494	7414
708.612	8925
708.730	9428
708.848	9729
708.966	9555
709.084	9203
709.202	7751
709.320	8456
709.438	8960
709.556	8154
709.674	8468
709.791	8479
709.909	7619
710.027	8218
710.145	7584
710.263	8334
710.380	7964
710.498	7307
710.616	7213
710.733	7938
710.851	7907
710.969	8458
711.086	7610
711.204	8115
711.322	7642
711.439	7777
711.557	8488
711.674	8041
711.792	7694
711.909	7241
712.027	6897
712.144	7461
712.262	7178
712.379	8299
712.497	10013
712.614	11080
712.732	8197
712.849	8909
712.966	8774
713.084	10025
713.201	9007
713.318	9662
713.436	8996
713.553	9895
713.670	9280
713.787	10512
713.905	10024
714.022	8877
714.139	8987
714.256	10745
714.373	14457
714.490	23577
714.608	49216
714.725	222111
714.842	417761
714.959	35964
715.076	13392
715.193	10320
715.310	10444
715.427	7770
715.544	8282
715.661	8280
715.778	8308
715.895	9042
716.011	8735
716.128	8492
716.245	7342
716.362	8180
716.479	8529
716.596	8081
716.713	8045
716.829	8263
716.946	7758
717.063	7382
717.180	6345
717.296	7100
717.413	7656
717.530	6704
717.646	5793
717.763	6521
717.880	6286
717.996	6692
718.113	6662
718.229	6444
718.346	6420
718.462	7502
718.579	7499
718.695	10658
718.812	9866
718.928	8953
719.045	7775
719.161	6603
719.277	6103
719.394	6848
719.510	6795
719.626	6671
719.743	8692
719.859	11154
719.975	18154
720.092	60139
720.208	203649
720.324	43679
720.440	8178
720.557	7855
720.673	9209
720.789	12972
720.905	23928
721.021	15206
721.137	6139
721.253	6384
721.369	6080
721.486	6688
721.602	9591
721.718	5903
721.834	5390
721.950	5947
722.066	5390
722.181	5072
722.297	5786
722.413	5691
722.529	5961
722.645	5823
722.761	5301
722.877	5941
722.993	4965
723.108	6652
723.224	6530
723.340	5294
723.456	6025
723.571	5877
723.687	5183
723.803	5190
723.918	4538
724.034	5081
724.150	5121
724.265	5905
724.381	8484
724.497	15788
724.612	4549
724.728	4522
724.843	4739
724.959	5945
725.074	8971
725.190	13921
725.305	6004
725.421	4962
725.536	3930
725.651	4813
725.767	3895
725.882	4287
725.997	4519
726.113	3827
726.228	3801
726.343	4293
726.459	3903
726.574	4370
726.689	4595
726.804	4777
726.920	3953
727.035	4315
727.150	4736
727.265	3622
727.380	4103
727.495	4496
727.610	3709
727.725	4442
727.841	3681
727.956	5051
728.071	5757
728.186	3881
728.301	3913
728.416	5177
728.531	3730
728.645	3716
728.760	4718
728.875	4314
728.990	4996
729.105	4433
729.220	4330
729.335	4924
729.449	3769
729.564	3622
729.679	3205
729.794	3661
729.908	4252
730.023	4488
730.138	3573
730.253	3929
730.367	3873
730.482	4196
730.596	3613
730.711	4272
730.826	5540
730.940	7292
731.055	4817
731.169	3995
731.284	3845
731.398	3422
731.513	4198
731.627	4615
731.742	5190
731.856	6350
731.970	4544
732.085	4846
732.199	7629
732.313	10226
732.428	25776
732.542	86173
732.656	84594
732.771	13077
732.885	7453
732.999	6207
733.113	6144
733.227	5113
733.342	5042
733.456	5539
733.570	4985
733.684	4951
733.798	5081
733.912	4773
734.026	3813
734.140	4540
734.254	4914
734.368	6214
734.482	9635
734.596	4690
734.710	3749
734.824	4074
734.938	3764
735.052	4148
735.166	5274
735.280	4701
735.393	4548
735.507	2607
735.621	4899
735.735	7412
735.849	5473
735.962	3895
736.076	3426
736.190	4253
736.303	4506
736.417	6820
736.531	3936
736.644	3763
736.758	3277
736.872	4309
736.985	3199
737.099	3704
737.212	3467
737.326	3975
737.439	3768
737.553	4129
737.666	3756
737.780	2935
737.893	4054
738.007	3691
738.120	3400
738.233	3750
738.347	3814
738.460	3688
738.573	2894
738.687	3184
738.800	3055
738.913	4416
739.026	3905
739.140	3523
739.253	3563
739.366	3081
739.479	2814
739.592	3145
739.705	2778
739.818	3414
739.932	2634
740.045	3696
740.158	3037
740.271	3133
740.384	3153
740.497	3503
740.610	4137
740.723	3378
740.836	3797
740.949	3960
741.062	4270
741.174	4660
741.287	3457
741.400	3012
741.513	2867
741.626	3652
741.739	3293
741.851	3430
741.964	2989
742.077	3380
742.189	3181
742.302	4762
742.415	3401
742.527	4142
742.640	3739
742.753	3087
742.865	2615
742.978	2164
743.090	2982
743.203	3215
743.316	3090
743.428	2351
743.541	2714
743.653	2689
743.766	3055
743.878	3038
743.990	2267
744.103	4085
744.215	3195
744.327	3045
744.440	3917
744.552	4509
744.664	2939
744.777	2771
744.889	1607
745.001	3857
745.113	2051
745.226	2204
745.338	2267
745.450	3457
745.562	2077
745.674	2260
745.786	1726
745.898	2237
746.010	1801
746.122	1975
746.234	3162
746.347	2476
746.459	2304
746.570	2458
746.682	2125
746.794	3702
746.906	3046
747.018	2696
747.130	2560
747.242	2402
747.354	2578
747.466	3580
747.577	2026
747.689	2303
747.801	2692
747.913	2408
748.024	2189
748.136	2121
748.248	2091
748.359	2542
748.471	2367
748.583	2207
748.694	1347
748.806	2897
748.918	3103
749.029	2870
749.141	2301
749.252	2856
749.364	2348
749.475	3807
749.587	3678
749.698	2502
749.809	1780
749.921	3016
750.032	2240
750.144	1365
750.255	2006
750.366	1794
750.478	2008
750.589	2309
750.700	1595
750.811	1589
750.923	2644
751.034	3654
751.145	5319
751.256	2050
751.367	1764
751.479	1919
751.590	856
751.701	1661
751.812	2096
751.923	1846
752.034	1692
752.145	1404
752.256	1737
752.367	2152
752.478	2034
752.589	2527
752.700	1784
752.811	1010
752.922	1567
753.032	1883
753.143	2455
753.254	1401
753.365	1881
753.476	2209
753.586	2178
753.697	1646
753.808	2388
753.919	1578
754.029	1824
754.140	1243
754.251	2407
754.361	1198
754.472	1875
754.582	2478
754.693	1317
754.804	2424
754.914	1532
755.025	1472
755.135	1160
755.246	1256
755.356	862
755.466	1861
755.577	1679
755.687	2022
755.798	1790
755.908	2496
756.018	981
756.129	2029
756.239	1863
756.349	1738
756.460	1460
756.570	2499
756.680	1601
756.790	1864
756.900	1862
757.011	2053
757.121	1947
757.231	1963
757.341	1622
757.451	2013
757.561	806
757.671	1352
757.781	1798
757.891	1887
758.001	1841
758.111	2140
758.221	2369
758.331	2601
758.441	1633
758.551	1815
758.661	2747
758.771	2413
758.880	2589
758.990	1496
759.100	1883
759.210	1996
759.320	2273
759.429	1536
759.539	2193
759.649	1929
759.758	2311
759.868	2888
759.978	2077
760.087	2778
760.197	2581
760.307	1449
760.416	2011
760.526	1852
760.635	2848
760.745	2552
760.854	2781
760.964	3102
761.073	2910
761.182	2494
761.292	2170
761.401	2659
761.511	2724
761.620	2275
761.729	1753
761.839	2157
761.948	3009
762.057	2346
762.166	2815
762.276	2463
762.385	3392
762.494	3043
762.603	2573
762.712	2722
762.822	2041
762.931	2433
763.040	2241
763.149	2677
763.258	2057
763.367	2808
763.476	2556
763.585	2481
763.694	3340
763.803	3775
763.912	3828
764.021	3041
764.130	3906
764.238	3899
764.347	3530
764.456	4239
764.565	4690
764.674	4146
764.783	4812
764.891	4866
765.000	5612
765.109	6130
765.217	7178
765.326	8576
765.435	10825
765.543	11744
765.652	13066
765.761	17635
765.869	26979
765.978	41662
766.086	73008
766.195	143807
766.303	347127
766.412	829111
766.520	842179
766.629	355897
766.737	123333
766.846	64689
766.954	41073
767.062	29096
767.171	20923
767.279	15876
767.387	13030
767.496	10998
767.604	9800
767.712	8624
767.820	8275
767.928	7082
768.037	6768
768.145	6624
768.253	6035
768.361	5690
768.469	4699
768.577	5590
768.685	6187
768.793	7701
768.901	6980
769.009	8406
769.117	9100
769.225	11750
769.333	18368
769.441	28485
769.549	55210
769.657	123541
769.765	359170
769.873	755797
769.981	412156
770.088	103014
770.196	42525
770.304	26882
770.412	17728
770.519	14213
770.627	10259
770.735	8756
770.842	7619
770.950	7499
771.058	5751
771.165	6486
771.273	5216
771.380	4747
771.488	4519
771.595	4814
771.703	4252
771.810	4119
771.918	3106
772.025	3931
772.133	3727
772.240	4231
772.348	4017
772.455	3888
772.562	3218
772.670	3842
772.777	3830
772.884	3102
772.991	2883
773.099	3418
773.206	2986
773.313	3156
773.420	2715
773.528	3395
773.635	2685
773.742	3836
773.849	2473
773.956	3402
774.063	3271
774.170	2560
774.277	2628
774.384	3005
774.491	2608
774.598	3143
774.705	3084
774.812	2525
774.919	3647
775.026	3139
775.133	2704
775.239	2140
775.346	2391
775.453	2338
775.560	2196
775.667	3055
775.773	2649
775.880	2663
775.987	1743
776.093	3079
776.200	2130
776.307	1691
776.413	2365
776.520	2295
776.627	2842
776.733	1512
776.840	1390
776.946	2911
777.053	3545
777.159	4275
777.266	2442
777.372	3949
777.478	3349
777.585	3553
777.691	2152
777.798	2204
777.904	2206
778.010	3054
778.117	2681
778.223	2973
778.329	1792
778.435	1724
778.542	3021
778.648	2402
778.754	1906
778.860	2547
778.966	2287
779.072	1335
779.178	2355
779.284	2091
779.391	1755
779.497	1255
779.603	3149
779.708	3824
779.815	8226
779.920	27945
780.026	68315
780.132	14735
780.238	2195
780.344	2076
780.450	2721
780.556	1825
780.661	1342
780.767	1519
780.873	1988
780.979	1790
781.085	1326
781.190	1940
781.296	1603
781.402	1389
781.507	1138
781.613	1542
781.719	1810
781.824	1482
781.930	1682
782.035	1535
782.141	1937
782.246	1964
782.352	2045
782.457	1867
782.563	1684
782.668	907
782.773	1532
782.879	1258
782.984	1494
783.090	2218
783.195	1841
783.300	2230
783.405	2181
783.511	990
783.616	2307
783.721	621
783.826	812
783.932	1049
784.037	1669
784.142	2040
784.247	528
784.352	1583
784.457	1363
784.562	2576
784.667	1430
784.772	1854
784.877	1034
784.982	1992
785.087	1063
785.192	2370
785.297	1401
785.402	1000
785.507	1635
785.611	618
785.716	1101
785.821	885
785.926	969
786.031	1198
786.135	1306
786.240	1640
786.345	960
786.450	1694
786.554	489
786.659	1070
786.763	1191
786.868	1674
786.973	1445
787.077	1249
787.182	66
787.286	1352
787.391	1175
787.495	956
787.600	715
787.704	861
787.809	1167
787.913	565
788.017	513
788.122	1324
788.226	575
788.330	57
788.435	667
788.539	763
788.643	470
788.747	526
788.852	641
788.956	358
789.060	419
789.164	1179
789.268	775
789.372	1414
789.476	906
789.580	-147
789.684	550
789.788	1034
789.892	871
789.996	866
790.100	629
790.204	640
790.308	688
790.412	-81
790.516	734
790.620	668
790.724	587
790.828	1656
790.931	133
791.035	1399
791.139	840
791.242	452
791.346	1667
791.450	440
791.554	425
791.657	81
791.761	1399
791.864	832
791.968	1050
792.072	1606
792.175	1228
792.279	348
792.382	819
792.486	1073
792.589	1036
792.693	1024
792.796	-32
792.899	910
793.003	1044
793.106	482
793.209	557
793.313	2102
793.416	624
793.519	757
793.623	944
793.726	1682
793.829	1219
793.932	326
794.035	-109
794.138	1373
794.242	1607
794.345	1427
794.448	2184
794.551	4242
794.654	13313
794.757	32419
794.860	7636
794.963	2083
795.066	403
795.169	900
795.272	92
795.375	1192
795.477	667
795.580	796
795.683	-308
795.786	702
795.889	154
795.991	342
796.094	1792
796.197	196
796.300	561
796.402	82
796.505	331
796.608	428
796.710	425
796.813	601
796.915	470
797.018	899
797.120	606
797.223	-238
797.326	958
797.428	346
797.530	-13
797.633	355
797.735	1083
797.838	1002
797.940	2064
798.042	1107
798.145	-496
798.247	1162
798.349	-202
798.452	868
798.554	-129
798.656	-244
798.758	793
798.860	591
798.962	-303
799.065	-64
799.167	-74
799.269	136
799.371	719
799.473	560
799.575	-87
799.677	592
799.779	1533
799.881	723
799.983	1917
800.085	-203
800.187	333
800.289	-444
800.390	100
800.492	260
800.594	357
800.696	136
800.798	463
800.899	460
801.001	411
801.103	312
801.205	-45
801.306	725
801.408	-131
801.509	1065
801.611	5
801.713	594
801.814	305
801.916	23
802.017	441
802.119	224
802.220	451
802.322	-988
802.423	1832
802.525	491
802.626	239
802.727	-17
802.829	483
802.930	-1554
803.031	925
803.133	217
803.234	551
803.335	259
803.436	179
803.538	786
803.639	-573
803.740	256
803.841	-206
803.942	843
804.043	354
804.144	-248
804.245	293
804.346	-289
804.447	-648
804.548	-393
804.649	556
804.750	-424
804.851	-123
804.952	-17
805.053	96
805.154	-1275
805.255	240
805.355	-206
805.456	625
805.557	-98
805.658	-646
805.758	463
805.859	-74
805.960	-671
806.061	-286
806.161	30
806.262	178
806.362	370
806.463	648
806.564	493
806.664	-130
806.765	134
806.865	21
806.966	-242
807.066	-650
807.166	455
807.267	152
807.367	530
807.468	-39
807.568	-1108
807.668	114
807.769	108
807.869	810
807.969	280
808.069	228
808.170	-407
808.270	317
808.370	250
808.470	375
808.570	488
808.670	-960
808.770	-295
808.870	-1214
808.970	384
809.070	-556
809.170	-58
809.271	646
809.370	-330
809.470	-230
809.570	-194
809.670	-1676
809.770	76
809.870	-702
809.970	-115
810.070	-84
810.169	-160
810.269	-1644
810.369	265
810.469	273
810.568	-256
810.668	170
810.768	53
810.867	-80
810.967	-498
811.066	122
811.166	-238
811.265	-279
811.365	-78
811.464	-772
811.564	-682
811.663	-416
811.763	-698
811.862	-100
811.962	-14
812.061	-476
812.160	-903
812.260	246
812.359	14
812.458	61
812.557	1509
812.657	1683
812.756	886
812.855	-257
812.954	-122
813.053	216
813.153	32
813.252	-1101
813.351	38
813.450	-665
813.549	-6
813.648	302
813.747	-623
813.846	374
813.945	-152
814.044	-210
814.143	266
814.242	224
814.341	425
814.439	-104
814.538	1454
814.637	-312
814.736	-43
814.835	101
814.933	685
815.032	170
815.131	1423
815.229	768
815.328	1377
815.427	571
815.525	1334
815.624	835
815.722	265
815.821	1594
815.919	1284
816.018	146
816.116	1864
816.215	539
816.313	1968
816.412	1446
816.510	1517
816.609	2398
816.707	1880
816.805	2281
816.904	2037
817.002	2823
817.100	2951
817.198	3561
817.296	3910
817.395	3371
817.493	5223
817.591	5022
817.689	6896
817.787	9000
817.885	14962
817.983	28186
818.081	55491
818.179	129795
818.277	324194
818.375	397865
818.473	134632
818.571	43688
818.669	25440
818.767	21360
818.865	19166
818.963	22964
819.061	31219
819.158	52635
819.256	105436
819.354	236974
819.452	529225
819.549	488112
819.647	167304
819.745	61038
819.842	32879
819.940	21747
820.038	15834
820.135	10960
820.233	9545
820.330	6801
820.428	5344
820.525	5088
820.623	4831
820.720	3140
820.818	4043
820.915	3344
821.012	3090
821.110	1830
821.207	2667
821.304	2103
821.402	1834
821.499	2285
821.596	2678
821.693	2916
821.791	1690
821.888	2199
821.985	2271
822.082	1267
822.179	1812
822.276	941
822.373	1664
822.470	1229
822.567	602
822.664	-517
822.761	1300
822.858	512
822.955	899
823.052	613
823.149	1126
823.246	321
823.343	51
823.440	749
823.536	340
823.633	540
823.730	-53
823.827	954
823.923	-119
824.020	205
824.117	351
824.213	-337
824.310	1219
824.407	-44
824.503	413
824.600	183
824.696	423
824.793	611
824.889	453
824.986	450
825.082	370
825.179	783
825.275	294
825.371	-438
825.468	1040
825.564	-47
825.660	545
825.757	921
825.853	-146
825.949	-1074
826.045	-233
826.142	200
826.238	1077
826.334	610
826.430	-274
826.526	335
826.622	-56
826.718	-286
826.814	463
826.910	514
827.006	-238
827.102	-777
827.198	279
827.294	-188
827.390	636
827.486	510
827.582	-711
827.678	37
827.774	311
827.869	-709
827.965	537
828.061	-235
828.157	-466
828.252	52
828.348	-571
828.444	301
828.539	-520
828.635	-654
828.731	-314
828.826	-878
828.922	-258
829.017	-34
829.113	228
829.208	-774
829.304	-345
829.399	312
829.495	-1033
829.590	71
829.685	-429
829.781	-489
829.876	515
829.971	-464
830.066	-594
830.162	-100
830.257	-281
830.352	-583
830.447	876
830.543	539
830.638	-1066
830.733	119
830.828	-655
830.923	-360
831.018	434
831.113	-208
831.208	-784
831.303	-1162
831.398	-1095
831.493	-694
831.588	39
831.683	-390
831.778	-375
831.873	-158
831.967	48
832.062	-1341
832.157	-775
832.252	-277
832.346	587
832.441	-121
832.536	-506
832.631	50
832.725	1189
832.820	-191
832.914	-182
833.009	-988
833.104	-233
833.198	-691
833.293	-978
833.387	-386
833.482	-329
833.576	-1000
833.670	53
833.765	-983
833.859	-787
833.954	-277
834.048	758
834.142	-2
834.237	-709
834.331	-549
834.425	-560
834.519	-932
834.613	435
834.708	-621
834.802	20
834.896	-1273
834.990	-654
835.084	-123
835.178	-570
835.272	-1167
835.366	-1048
835.460	-1185
835.554	-716
835.648	-638
835.742	-1091
835.836	-340
835.930	-697
836.024	-468
836.117	-235
836.211	-977
836.305	-264
836.399	359
836.493	-908
836.586	91
836.680	-292
836.774	-1239
836.867	294
836.961	-804
837.055	-1191
837.148	-497
837.242	-1199
837.335	-613
837.429	265
837.522	-1159
837.616	-389
837.709	-414
837.803	292
837.896	-96
837.989	-909
838.083	115
838.176	277
838.269	744
838.363	278
838.456	-24
838.549	-261
838.642	-589
838.735	1781
838.829	1053
838.922	-721
839.015	-414
839.108	-1454
839.201	-373
839.294	-41
839.387	-144
839.480	-1210
839.573	-760
839.666	426
839.759	-793
839.852	-1209
839.945	-509
840.038	-809
840.131	-1157
840.223	-643
840.316	-277
840.409	-109
840.502	-2005
840.594	237
840.687	-1613
840.780	-1323
840.873	-1270
840.965	-578
841.058	-337
841.150	351
841.243	14
841.336	-151
841.428	-1304
841.521	-475
841.613	-1069
841.706	482
841.798	-965
841.890	139
841.983	-1851
842.075	86
842.167	-864
842.260	-1126
842.352	144
842.444	-696
842.537	54
842.629	2420
842.721	-702
842.813	110
842.905	-1427
842.997	-711
843.090	-876
843.182	-723
843.274	-92
843.366	3292
843.458	5639
843.550	6833
843.642	-50
843.734	-14
843.826	-542
843.918	-184
844.009	-947
844.101	-717
844.193	-497
844.285	-323
844.377	-1074
844.469	12
844.560	-186
844.652	160
844.744	-202
844.835	-158
844.927	-465
845.019	-329
845.110	-334
845.202	-296
845.293	-333
845.385	-994
845.476	-1020
845.568	-291
845.659	-622
845.751	-179
845.842	-1065
845.934	-1016
846.025	-1811
846.116	289
846.208	-1417
846.299	-972
846.390	-557
846.482	-299
846.573	111
846.664	154
846.755	-798
846.846	-114
846.937	-967
847.029	-403
847.120	-1478
847.211	-797
847.302	68
847.393	-1204
847.484	-716
847.575	-494
847.666	-1064
847.757	-339
847.847	-894
847.938	-272
848.029	-874
848.120	-632
848.211	-957
848.302	-1061
848.392	-1348
848.483	-546
848.574	-1759
848.664	-435
848.755	5
848.846	-767
848.936	-1093
849.027	-321
849.118	-1096
849.208	-688
849.299	-989
849.389	746
849.480	1365
849.570	5026
849.661	8540
849.751	19937
849.841	11760
849.932	1262
850.022	-115
850.112	-810
850.203	-181
850.293	-1401
850.383	-954
850.474	-1151
850.564	-954
850.654	-567
850.744	-887
850.834	-590
850.924	-708
851.014	-970
851.104	-537
851.194	-633
851.284	-894
851.374	92
851.464	-889
851.554	351
851.644	-966
851.734	-214
851.824	-366
851.914	-824
852.004	186
852.094	-558
852.183	-675
852.273	-86
852.363	-668
852.452	-642
852.542	-345
852.632	-931
852.721	-782
852.811	-718
852.901	-639
852.990	37
853.080	-587
853.169	-411
853.259	-710
853.348	-833
853.438	-114
853.527	1071
853.617	1202
853.706	2807
853.795	5291
853.885	13928
853.974	32570
854.063	55576
854.152	111505
854.242	70322
854.331	9672
854.420	1759
854.509	39
854.598	977
854.687	-296
854.777	-63
854.866	-88
854.955	-205
855.044	-685
855.133	-160
855.222	-1139
855.311	-598
855.400	-317
855.488	-885
855.577	-541
855.666	-453
855.755	270
855.844	-526
855.933	-1113
856.021	-909
856.110	-569
856.199	-1326
856.288	-1790
856.376	-576
856.465	-1239
856.554	-551
856.642	-1097
856.731	-954
856.819	-219
856.908	-753
856.996	-746
857.085	-854
857.173	-1222
857.262	-429
857.350	-1571
857.438	-930
857.527	-519
857.615	-1324
857.703	-1641
857.792	-1765
857.880	-1002
857.968	-1403
858.056	-1129
858.145	-655
858.233	-1047
858.321	-841
858.409	181
858.497	-1395
858.585	-717
858.673	-1339
858.761	-746
858.849	-466
858.937	-1000
859.025	-813
859.113	-1379
859.201	-1293
859.289	-441
859.377	32
859.465	-732
859.552	-409
859.640	-969
859.728	-410
859.816	-924
859.903	-316
859.991	-794
860.079	-1035
860.166	-766
860.254	-992
860.342	-884
860.429	-998
860.517	-1298
860.604	-470
860.692	-707
860.779	-553
860.867	-1387
860.954	-673
861.042	-1055
861.129	-521
861.216	-1372
861.304	-1347
861.391	-891
861.478	-826
861.565	-1139
861.653	-178
861.740	-1761
861.827	-651
861.914	-1106
862.001	-1095
862.089	-1194
862.176	-690
862.263	-1209
862.350	-372
862.437	-1104
862.524	-1328
862.611	-1271
862.698	-949
862.785	-831
862.871	-422
862.958	-1222
863.045	-1030
863.132	-1561
863.219	-1024
863.306	-2502
863.392	-552
863.479	-360
863.566	-609
863.652	-827
863.739	-666
863.826	-854
863.912	-1084
863.999	-1187
864.086	-658
864.172	-1076
864.259	-388
864.345	-1146
864.432	-269
864.518	-1335
864.604	-853
864.691	-237
864.777	-777
864.863	-1051
864.950	-291
865.036	-991
865.122	628
865.209	414
865.295	-491
865.381	-216
865.467	771
865.553	559
865.639	1120
865.726	2525
865.812	6725
865.898	15271
865.984	25732
866.070	41234
866.156	67569
866.242	25806
866.328	3219
866.414	769
866.499	545
866.585	350
866.671	142
866.757	520
866.843	-218
866.928	-352
867.014	-189
867.100	119
867.186	-566
867.271	-364
867.357	723
867.442	102
867.528	1068
867.614	184
867.699	310
867.785	345
867.870	-733
867.956	-7
868.041	702
868.127	-248
868.212	119
868.297	-74
868.383	-465
868.468	-143
868.553	689
868.639	-265
868.724	590
868.809	1864
868.894	53
868.979	-1205
869.065	-392
869.150	-887
869.235	-538
869.320	-610
869.405	-176
869.490	-577
869.575	-150
869.660	-289
869.745	57
869.830	-221
869.915	-1421
870.000	-471
870.085	-584
870.169	-72
870.254	607
870.339	-452
870.424	-983
870.509	-1074
870.593	-373
870.678	-55
870.763	118
870.847	-1023
870.932	-1158
871.016	-564
871.101	-493
871.186	-426
871.270	-231
871.355	-467
871.439	-234
871.523	-769
871.608	-1448
871.692	-889
871.777	-490
871.861	-274
871.945	-1317
872.030	-951
872.114	-854
872.198	-1366
872.282	-167
872.367	-641
872.451	-841
872.535	-698
872.619	-892
872.703	-552
872.787	-1357
872.871	-764
872.955	-760
873.039	-1122
873.123	-919
873.207	-382
873.291	-1358
873.375	-692
873.459	-319
873.543	-1233
873.627	-527
873.711	-1152
873.794	-930
873.878	-1377
873.962	-976
874.045	-983
874.129	-846
874.137	-854
874.213	-932
874.245	-837
874.296	-681
874.352	-837
874.380	-916
874.460	-778
874.464	-773
874.547	-572
874.568	-616
874.631	-726
874.676	-536
874.714	-402
874.784	-520
874.798	-532
874.881	-175
874.892	-205
874.965	-452
874.999	-634
875.048	-887
875.107	-565
875.131	-437
875.215	-738
875.215	-738
875.298	-721
875.323	-763
875.381	-882
875.430	-612
875.465	-414
875.538	-210
875.548	-180
875.631	-1192
875.646	-1190
875.714	-1223
875.753	-829
875.798	-375
875.861	-538
875.881	-581
875.964	-214
875.968	-249
876.047	-957
876.076	-809
876.130	-462
876.183	-795
876.213	-1015
876.291	-179
876.296	-117
876.379	-1517
876.398	-1369
876.462	-942
876.506	-762
876.545	-596
876.613	-278
876.628	-204
876.711	-1057
876.721	-994
876.794	-601
876.828	-695
876.877	-736
876.935	-460
876.960	-379
877.043	-810
877.043	-805
877.125	464
877.150	194
877.208	-507
877.258	-463
877.291	-394
877.365	-511
877.374	-530
877.456	-200
877.472	-235
877.539	-345
877.579	-56
877.622	216
877.687	-365
877.704	-518
877.787	-354
877.794	-370
877.869	-545
877.901	-646
877.952	-942
878.008	-1141
878.034	-1154
878.115	-585
878.117	-571
878.199	-687
878.222	-553
878.282	-163
878.329	-151
878.364	-301
878.437	-320
878.447	-300
878.529	-722
878.544	-643
878.611	-358
878.651	-522
878.694	-648
878.758	-226
878.776	-58
878.858	-72
878.865	-52
878.941	-210
878.972	-554
879.023	-847
879.078	-494
879.105	-325
879.185	-348
879.187	-357
879.269	-362
879.292	-576
879.351	-877
879.399	-871
879.433	-850
879.506	-475
879.516	-393
879.598	-313
879.613	-356
879.680	-790
879.720	-622
879.762	-494
879.827	-730
879.844	-735
879.926	-389
879.933	-368
880.007	-396
880.040	-702
880.089	-1082
880.147	-710
880.171	-511
880.253	-131
880.254	-130
880.335	-199
880.360	-181
880.417	58
880.467	516
880.499	838
880.574	2243
880.580	2353
880.662	762
880.680	594
880.744	-271
880.787	-574
880.825	-541
880.893	-208
880.907	-230
880.989	-521
881.000	-577
881.070	-442
881.106	-155
881.152	-307
881.213	-527
881.233	-343
881.315	-456
881.319	-418
881.396	-353
881.426	-590
881.478	-728
881.532	-461
881.559	-471
881.639	-1303
881.641	-1313
881.722	-567
881.745	-617
881.803	-607
881.852	-647
881.885	-897
881.958	-639
881.966	-555
882.047	-406
882.064	-340
882.129	-183
882.171	-283
882.210	-441
882.277	-145
882.291	-28
882.372	-20
882.383	-45
882.454	-554
882.489	-785
882.535	-1070
882.596	-796
882.616	-665
882.697	-1053
882.702	-1034
882.778	-393
882.808	-323
882.859	-218
882.914	-155
882.940	-284
883.020	-536
883.021	-532
883.102	-380
883.127	-397
883.183	-263
883.233	128
883.264	219
883.339	110
883.345	92
883.426	-628
883.445	-632
883.507	-305
883.551	-318
883.587	-391
883.657	-451
883.668	-410
883.749	209
883.763	208
883.830	-501
883.869	-816
883.910	-639
883.975	-159
883.991	-169
884.072	-535
884.081	-561
884.152	-165
884.187	51
884.233	58
884.292	-9
884.314	-21
884.394	-100
884.398	-127
884.475	-527
884.504	-497
884.555	-423
884.610	-524
884.636	-545
884.716	-364
884.716	-358
884.797	121
884.821	117
884.877	-68
884.927	-338
884.958	-242
885.033	46
885.038	30
885.118	59
885.139	-36
885.199	-365
885.244	-462
885.279	-234
885.350	-64
885.359	-86
885.439	23
885.456	-22
885.520	-282
885.561	-300
885.600	-218
885.667	-349
885.680	-364
885.760	-183
885.773	-165
885.840	157
885.878	320
885.920	210
885.984	-270
886.000	-229
886.080	349
886.089	396
886.160	-132
886.195	-364
886.240	-22
886.300	351
886.320	211
886.400	-526
886.406	-559
886.480	-528
886.511	-567
886.560	-288
886.616	31
886.640	235
886.720	865
886.722	875
886.800	325
886.827	83
886.879	129
886.932	174
886.959	193
887.038	356
887.039	353
887.119	-439
887.143	-585
887.198	-402
887.248	-516
887.278	-404
887.354	108
887.358	127
887.437	347
887.459	379
887.517	227
887.564	137
887.596	220
887.669	498
887.676	513
887.755	439
887.774	452
887.835	442
887.880	397
887.914	424
887.985	346
887.994	311
888.073	108
888.090	55
888.153	340
888.195	481
888.232	259
888.300	-136
888.311	-164
888.391	-481
888.405	-506
888.470	-209
888.510	-97
888.549	24
888.615	291
888.628	266
888.708	-14
888.720	-43
888.787	49
888.825	42
888.866	-232
888.930	-581
888.945	-425
889.024	356
889.035	455
889.103	448
889.140	435
889.182	429
889.245	453
889.261	350
889.340	-206
889.349	-268
889.419	-44
889.454	63
889.498	-11
889.559	-96
889.577	-62
889.656	69
889.664	82
889.735	289
889.768	385
889.814	188
889.873	-75
889.978	467
890.083	1043
890.187	-57
890.292	-130
890.397	-246
890.501	24
890.606	599
890.710	60
890.815	1058
890.919	-10
891.024	200
891.128	379
891.233	806
891.337	149
891.442	-439
891.546	597
891.650	-264
891.755	290
891.859	711
891.963	720
892.068	16
892.172	218
892.276	-317
892.380	264
892.484	783
892.589	923
892.693	-150
892.797	973
892.901	458
893.005	538
893.109	81
893.213	461
893.317	-9
893.421	153
893.525	-13
893.629	-285
893.733	-107
893.837	-93
893.941	310
894.045	891
894.148	597
894.252	-78
894.356	463
894.460	615
894.564	1056
894.667	526
894.771	346
894.875	576
894.978	209
895.082	318
895.186	20
895.289	406
895.393	593
895.496	469
895.600	-206
895.703	230
895.807	-55
895.910	434
896.014	605
896.117	406
896.221	-94
896.324	-32
896.427	535
896.531	348
896.634	55
896.737	654
896.840	-177
896.944	1047
897.047	-224
897.150	102
897.253	-824
897.356	280
897.460	-189
897.563	517
897.666	360
897.769	-25
897.872	517
897.975	-215
898.078	389
898.181	360
898.284	-110
898.387	863
898.490	517
898.593	-193
898.695	128
898.798	-528
898.901	240
899.004	5
899.107	618
899.209	8
899.312	99
899.415	-37
899.518	-48
899.620	144
899.723	66
899.826	463
899.928	197
900.031	-162
900.133	-225
900.236	-521
900.338	-543
900.441	287
900.543	256
900.646	-320
900.748	500
900.851	-593
900.953	370
901.055	-765
901.158	162
901.260	105
901.362	503
901.465	-354
901.567	-599
901.669	783
901.771	75
901.873	221
901.976	192
902.078	461
902.180	-300
902.282	-86
902.384	-97
902.486	-114
902.588	928
902.690	-430
902.792	-164
902.894	41
902.996	208
903.098	567
903.200	-627
903.302	333
903.404	-274
903.505	-483
903.607	-253
903.709	580
903.811	71
903.913	312
904.014	736
904.116	286
904.218	-656
904.319	-368
904.421	798
904.523	-62
904.624	527
904.726	314
904.827	425
904.929	1019
905.030	-267
905.132	275
905.233	315
905.335	213
905.436	-639
905.537	-257
905.639	-944
905.740	-520
905.841	-623
905.943	74
906.044	-379
906.145	217
906.247	-105
906.348	-45
906.449	-341
906.550	666
906.651	591
906.752	-218
906.854	-212
906.955	46
907.056	-274
907.157	392
907.258	288
907.359	172
907.460	-491
907.561	252
907.662	491
907.762	-42
907.863	-12
907.964	155
908.065	203
908.166	910
908.267	-208
908.367	-12
908.468	236
908.569	300
908.670	-103
908.770	179
908.871	-427
908.971	-195
909.072	157
909.173	21
909.273	-501
909.374	-366
909.474	77
909.575	464
909.675	364
909.776	-46
909.876	-410
909.977	319
910.077	-337
910.177	-544
910.278	416
910.378	56
910.478	-508
910.579	-45
910.679	829
910.779	-96
910.879	-90
910.980	-37
911.080	-622
911.180	-948
911.280	-259
911.380	-572
911.480	25
911.580	85
911.680	-559
911.780	-31
911.880	259
911.980	-681
912.080	-29
912.180	499
912.280	-548
912.380	918
912.480	-760
912.580	-195
912.679	-367
912.779	-145
912.879	256
912.979	-304
913.078	-738
913.178	-256
913.278	259
913.377	-92
913.477	-315
913.577	-418
913.676	-132
913.776	120
913.875	442
913.975	122
914.074	-1151
914.174	536
914.273	-893
914.373	-702
914.472	24
914.572	-433
914.671	-108
914.770	307
914.870	-224
914.969	-365
915.068	-196
915.167	-193
915.267	-62
915.366	48
915.465	-596
915.564	48
915.663	-332
915.763	5
915.862	537
915.961	45
916.060	-175
916.159	-74
916.258	-658
916.357	580
916.456	-396
916.555	7
916.654	-69
916.752	-906
916.851	-991
916.950	-597
917.049	-144
917.148	183
917.247	98
917.345	-781
917.444	-124
917.543	-1102
917.642	-672
917.740	86
917.839	33
917.937	-429
918.036	532
918.135	-67
918.233	-81
918.332	-561
918.430	-74
918.529	-261
918.627	3
918.726	281
918.824	-812
918.923	-314
919.021	-539
919.119	24
919.218	343
919.316	376
919.414	-478
919.512	-555
919.611	220
919.709	118
919.807	-224
919.905	182
920.003	128
920.102	-97
920.200	-701
920.298	154
920.396	287
920.494	161
920.592	-606
920.690	310
920.788	21
920.886	-475
920.984	-600
921.082	-427
921.180	-43
921.277	-394
921.375	-224
921.473	473
921.571	-285
921.669	222
921.766	-527
921.864	354
921.962	-318
922.060	-308
922.157	-963
922.255	-679
922.352	-616
922.450	224
922.548	-223
922.645	172
922.743	431
922.840	405
922.938	473
923.035	527
923.133	11
923.230	146
923.327	887
923.425	390
923.522	948
923.619	600
923.717	722
923.814	-272
923.911	385
924.008	809
924.106	1159
924.203	827
924.300	262
924.397	-129
924.494	1507
924.591	71
924.688	815
924.786	1106
924.883	674
924.979	506
925.077	868
925.173	-82
925.270	287
925.367	339
925.464	-229
925.561	265
925.658	199
925.755	-335
925.852	577
925.948	670
926.045	314
926.142	403
926.239	-164
926.335	204
926.432	212
926.529	720
926.625	511
926.722	-289
926.818	-209
926.915	-101
927.011	328
927.108	-321
927.204	-65
927.301	34
927.397	202
927.494	457
927.590	478
927.687	612
927.783	453
927.879	-490
927.976	-477
928.072	231
928.168	-352
928.264	588
928.361	43
928.457	-656
928.553	144
928.649	300
928.745	644
928.841	281
928.937	776
929.033	568
929.129	210
929.225	4
929.321	-295
929.417	-650
929.513	280
929.609	-138
929.705	-577
929.801	88
929.897	11
929.993	72
930.089	320
930.184	56
930.280	-39
930.376	279
930.471	-597
930.567	-202
930.663	-189
930.758	-607
930.854	-1125
930.950	141
931.045	233
931.141	300
931.236	998
931.332	-260
931.427	-518
931.523	-444
931.618	81
931.714	-129
931.809	96
931.905	438
932.000	-484
932.095	-99
932.191	-287
932.286	-3
932.381	-1428
932.476	-337
932.572	-500
932.667	-367
932.762	-515
932.857	-168
932.952	-70
933.047	-112
933.142	-471
933.237	-561
933.332	-268
933.427	319
933.522	-513
933.617	-38
933.712	-170
933.807	281
933.902	-575
933.997	-167
934.092	92
934.187	-519
934.282	-92
934.376	-321
934.471	-148
934.566	-696
934.661	-1128
934.755	-323
934.850	-647
934.945	-538
935.039	-152
935.134	-317
935.228	-934
935.323	-833
935.417	-559
935.512	-830
935.606	-695
935.701	-222
935.795	-1150
935.890	-804
935.984	-1058
936.079	-589
936.173	-34
936.267	-188
936.362	-1304
936.456	25
936.550	-924
936.644	-458
936.738	-266
936.833	317
936.927	-250
937.021	-1050
937.115	-798
937.209	-508
937.303	337
937.397	-799
937.491	-377
937.585	-48
937.679	-103
937.773	47
937.867	-1181
937.961	99
938.055	-585
938.149	-193
938.243	-573
938.337	-318
938.430	-1058
938.524	-339
938.618	-675
938.712	378
938.805	-312
938.899	-161
938.993	-379
939.086	-498
939.180	-72
939.274	-50
939.367	108
939.461	-609
939.554	-1318
939.648	-729
939.741	-743
939.835	-546
939.928	152
940.022	-24
940.115	-277
940.208	376
940.302	361
940.395	-319
940.488	-1374
940.582	-548
940.675	-882
940.768	124
940.861	-386
940.954	-566
941.048	-480
941.141	-710
941.234	-218
941.327	-261
941.420	-525
941.513	-395
941.606	-61
941.699	507
941.792	-9
941.885	-1032
941.978	-254
942.071	-773
942.164	-1504
942.257	-614
942.349	-710
942.442	-646
942.535	-521
942.628	-807
942.721	-176
942.813	-652
942.906	-531
942.999	-154
943.091	-77
943.184	-224
943.277	-1093
943.369	-313
943.462	-258
943.554	-977
943.647	-1389
943.739	-86
943.832	-723
943.924	-919
944.017	-820
944.109	-922
944.201	-187
944.294	-34
944.386	-240
944.478	-454
944.571	-908
944.663	-971
944.755	31
944.847	-1299
944.940	-509
945.032	-978
945.124	-674
945.216	-909
945.308	-392
945.400	-552
945.492	-893
945.584	-750
945.676	-757
945.768	336
945.860	-475
945.952	-968
946.044	-1113
946.136	-157
946.228	-483
946.320	-468
946.412	271
946.503	-627
946.595	-739
946.687	-1425
946.779	-764
946.870	-819
946.962	-271
947.054	439
947.145	-1196
947.237	92
947.329	-97
947.420	-742
947.512	-969
947.603	-68
947.695	-686
947.786	-1245
947.878	-448
947.969	-3
948.061	-808
948.152	-602
948.243	-950
948.335	-989
948.426	-503
948.517	-816
948.609	-1020
948.700	-296
948.791	-984
948.882	-792
948.973	-1069
949.065	-191
949.156	-40
949.247	-853
949.338	-563
949.429	-542
949.520	-642
949.611	-1635
949.702	-1353
949.793	-1004
949.884	-345
949.975	-1133
950.066	-746
950.157	-210
950.247	-482
950.338	-1655
950.429	-1024
950.520	102
950.611	-966
950.701	-1183
950.792	-1105
950.883	-234
950.973	-550
951.064	-687
951.155	-257
951.245	178
951.336	681
951.427	-594
951.517	298
951.608	28
951.698	-1202
951.788	-1388
951.879	-407
951.969	-874
952.060	-677
952.150	-453
952.240	-880
952.331	-869
952.421	473
952.511	-1132
952.602	84
952.692	-1565
952.782	-474
952.872	-1148
952.962	-1052
953.052	-378
953.143	-560
953.233	-998
953.323	-95
953.413	-103
953.503	-655
953.593	49
953.683	-817
953.773	66
953.863	-1626
953.953	-590
954.042	-676
954.132	-1272
954.222	-267
954.312	-598
954.402	-709
954.492	-864
954.581	-1198
954.671	-344
954.761	-1447
954.850	-68
954.940	-594
955.030	-1112
955.119	-491
955.209	-434
955.298	-512
955.388	-825
955.477	-1132
955.567	-490
955.656	-627
955.746	-579
955.835	-438
955.925	-1045
956.014	-315
956.103	-868
956.193	-700
956.282	-1614
956.371	-1068
956.461	-827
956.550	-1471
956.639	-157
956.728	-1154
956.817	-250
956.906	-217
956.995	391
957.085	-324
957.174	-366
957.263	-649
957.352	-910
957.441	-425
957.530	-132
957.619	-623
957.708	-907
957.796	-595
957.885	-1226
957.974	-2043
958.063	-228
958.152	-966
958.241	-425
958.329	-775
958.418	-1711
958.507	-1374
958.596	-219
958.684	-478
958.773	-193
958.861	-465
958.950	-545
959.039	-567
959.127	-769
959.216	-607
959.304	-1262
959.393	-184
959.481	-1421
959.570	-160
959.658	-1140
959.746	-1230
959.835	-85
959.923	-565
960.011	-101
960.100	-795
960.188	-994
960.276	-1130
960.365	-891
960.453	-1046
960.541	-1018
960.629	-1046
960.717	-975
960.805	-1031
960.893	-323
960.981	-383
961.069	-344
961.158	-559
961.245	-797
961.333	-464
961.421	-798
961.509	-733
961.597	-750
961.685	-988
961.773	-1397
961.861	-1204
961.949	-735
962.036	-1665
962.124	-521
962.212	-814
962.299	-1518
962.387	-1633
962.475	-992
962.562	-2110
962.650	-535
962.738	-138
962.825	-1581
962.913	-1503
963.000	-753
963.088	-365
963.175	-1178
963.263	-799
963.350	-1341
963.438	-1529
963.525	-1200
963.612	-573
963.700	-414
963.787	161
963.874	-395
963.962	-349
964.049	-525
964.136	-1046
964.223	-681
964.310	-1165
964.398	-1164
964.485	-1285
964.572	-1640
964.659	-1045
964.746	-963
964.833	-451
964.920	-557
965.007	-503
965.094	-1135
965.181	-1283
965.268	-666
965.355	-1022
965.441	-1643
965.528	-2015
965.615	-535
965.702	-1536
965.789	-1206
965.875	-1154
965.962	-1412
966.049	-1102
966.136	-634
966.222	-585
966.309	-1314
966.395	-1699
966.482	-981
966.569	-1552
966.655	-992
966.742	-548
966.828	-1380
966.915	-1459
967.001	-596
967.087	-1781
967.174	-1569
967.260	-254
967.347	-974
967.433	-1054
967.519	-1011
967.605	-1322
967.692	-825
967.778	-240
967.864	-1208
967.950	-911
968.036	-1590
968.123	-802
968.209	-1342
968.295	-674
968.381	-260
968.467	-1615
968.553	-1739
968.639	-742
968.725	-1494
968.811	-1120
968.897	34
968.983	-1890
969.069	-2482
969.154	-571
969.240	-857
969.326	-1776
969.412	-1081
969.497	-1447
969.583	-1415
969.669	-668
969.755	-1572
969.840	-1665
969.926	-788
970.012	-1155
970.097	-875
970.183	-1327
970.268	-926
970.354	-1234
970.439	-981
970.525	-1169
970.610	-1167
970.696	-1086
970.781	-1384
970.866	-1729
970.952	-1056
971.037	-1504
971.122	-855
971.208	-1297
971.293	-1870
971.378	-1465
971.463	-1195
971.549	-996
971.634	-1433
971.719	-1279
971.804	-1398
971.889	-622
971.974	-1618
972.059	-1170
972.144	-1527
972.229	-1658
972.314	-810
972.399	-1698
972.484	-945
972.569	-984
972.654	-2029
972.739	-505
972.824	-1310
972.908	-1071
972.993	-1926
973.078	-1784
973.163	-1506
973.247	-965
973.332	-2672
973.417	-633
973.501	-1980
973.586	-1545
973.671	-1654
973.755	-1672
973.840	-1185
973.924	-1067
974.009	-1603
974.093	-1259
974.178	-1020
974.262	-1854
974.346	-1241
974.431	-1257
974.515	-1627
974.600	-1221
974.684	-1092
974.768	-2117
974.852	-917
974.937	-2341
975.021	-1625
975.105	-2038
975.189	-972
975.273	-1552
975.358	-1099
975.442	-1436
975.526	-1635
975.610	-2193
975.694	-1448
975.778	-1388
975.862	-841
975.946	-2113
976.030	-1463
976.114	-1670
976.198	-1058
976.281	-1916
976.365	-105
976.449	-1675
976.533	-1669
976.617	-1759
976.700	-1890
976.784	-1510
976.868	-1750
976.951	-1494
977.035	-1707
977.119	-1640
977.202	-2337
977.286	-1473
977.369	-1805
977.453	-1995
977.536	-1822
977.620	-1598
977.703	-1544
977.787	-2664
977.870	-1365
977.953	-1454
978.037	-2349
978.120	-1756
978.203	-1541
978.287	-1594
978.370	-1621
978.453	-1871
978.536	-1023
978.620	-1434
978.703	-1581
978.786	-2179
978.869	-1759
978.952	-1981
979.035	-585
979.118	-1481
979.201	-2557
979.284	-1803
979.367	-1413
979.450	-894
979.533	-2453
979.616	-1197
979.699	-1135
979.782	-1517
979.865	-1931
979.948	-1994
980.030	-2115
980.113	-1270
980.196	-1659
980.279	-817
980.361	-2375
980.444	-1506
980.526	-1218
980.609	-2105
980.692	-1627
980.774	-1055
980.857	-1196
980.939	-1607
981.022	-1230
981.104	-1151
981.187	-1694
981.269	-1420
981.352	-1154
981.434	-2093
981.516	-1015
981.599	-1049
981.681	-1132
981.763	-1626
981.846	-1294
981.928	-1866
982.010	-1567
982.092	-1547
982.174	-1529
982.256	-2536
982.339	-1781
982.421	-1807
982.503	-927
982.585	-2016
982.667	-1299
982.749	-1019
982.831	-1691
982.913	-2316
982.995	-1441
983.077	-2003
983.158	-1359
983.240	-2478
983.322	-1427
983.404	-736
983.486	-2161
983.568	-1136
983.649	-1331
983.731	-1277
983.813	-1973
983.894	-1352
983.976	-1311
984.058	-1718
984.139	-2046
984.221	-2497
984.302	-1227
984.384	-1802
984.465	-2480
984.547	-2109
984.628	-2093
984.710	-804
984.791	-1166
984.872	-2113
984.954	-2179
985.035	-1298
985.116	-1726
985.198	-1512
985.279	-1325
985.360	-808
985.441	-2083
985.522	-1583
985.604	-1509
985.685	-3074
985.766	-1404
985.847	-1280
985.928	-1318
986.009	-1153
986.090	-1945
986.171	-1267
986.252	-1677
986.333	-1713
986.414	-1379
986.495	-1481
986.576	-1639
986.656	-1753
986.737	-797
986.818	-1671
986.899	-1975
986.980	-1784
987.060	-1195
987.141	-1239
987.222	-1325
987.302	-1415
987.383	-513
987.464	-1808
987.544	-1285
987.625	-1392
987.705	-1246
987.786	-1672
987.866	-2069
987.947	-2016
988.027	-2358
988.108	-2229
988.188	-1668
988.268	-1109
988.349	-934
988.429	-685
988.509	-1252
988.589	-1345
988.670	-2664
988.750	-988
988.830	-2098
988.910	-813
988.990	-2209
989.070	-2009
989.151	-1664
989.231	-1788
989.311	-1186
989.391	-1238
989.471	-2026
989.551	-1606
989.631	-1249
989.711	-597
989.791	-2232
989.870	-1751
989.950	-284
990.030	-2370
990.110	-1239
990.190	-1380
990.269	-1363
990.349	-1496
990.429	-1523
990.509	-1165
990.588	-1721
990.668	-1524
990.747	-1319
990.827	-2462
990.907	-1237
990.986	-1392
991.066	-1451
991.145	-1749
991.225	-1124
991.304	-2403
991.383	-1187
991.463	-1814
991.542	-1736
991.622	-1343
991.701	-1959
991.780	-2251
991.859	-1208
991.939	-1257
992.018	-923
992.097	-1594
992.176	-1433
992.256	-1813
992.335	-1821
992.414	-1080
992.493	-1596
992.572	-1946
992.651	-1279
992.730	-1574
992.809	-1895
992.888	-2305
992.967	-2082
993.046	-1419
993.125	-1494
993.203	-2181
993.282	-1219
993.361	-2075
993.440	-1119
993.519	-1788
993.597	-1987
993.676	-2227
993.755	-1846
993.834	-931
993.912	-2502
993.991	-667
994.069	-1577
994.148	-2092
994.226	-1713
994.305	-2522
994.384	-2079
994.462	-733
994.540	-1825
994.619	-1017
994.697	-1184
994.776	-2453
994.854	-1565
994.932	-1646
995.011	-1434
995.089	-2076
995.167	-1622
995.245	-1604
995.324	-2536
995.402	-2073
995.480	-2038
995.558	-1951
995.636	-2535
995.714	-1498
995.792	-648
995.870	-2157
995.948	-1658
996.026	-1294
996.104	-1941
996.182	-1667
996.260	-1953
996.338	-1757
996.416	-1991
996.494	-2133
996.572	-1042
996.649	-1753
996.727	-2597
996.805	-1324
996.883	-2086
996.960	-1347
997.038	-1350
997.116	-1502
997.193	-2514
997.271	-1298
997.348	-1220
997.426	-933
997.504	-2131
997.581	-2137
997.658	-1930
997.736	-1423
997.813	-2628
997.891	-1500
997.968	-1827
998.046	-1503
998.123	-2548
998.200	-1705
998.277	-2059
998.355	-1611
998.432	-2040
998.509	-1747
998.586	-1329
998.663	-1763
998.741	-2144
998.818	-1917
998.895	-2143
998.972	-1439
999.049	-2026
999.126	-2428
999.203	-1499
999.280	-1882
999.357	-2007
999.434	-1859
999.511	-1135
999.587	-1163
999.664	-1994
999.741	-2622
999.818	-1108
999.895	-2027
999.971	-1812
1000.048	-1980
1000.125	-2497
1000.202	-1875
1000.278	-1536
1000.355	-2044
1000.431	-1583
1000.508	-2005
1000.584	-1338
1000.661	-1544
1000.738	-2133
1000.814	-2546
1000.890	-1706
1000.967	-1695
1001.043	-1659
1001.120	-1915
1001.196	-1927
1001.272	-1745
1001.349	-1613
1001.425	-1146
1001.501	-1759
1001.577	-2514
1001.654	-1254
1001.730	-1579
1001.806	-1630
1001.882	-2826
1001.958	-1938
1002.034	-1336
1002.110	-1924
1002.186	-1908
1002.262	-880
1002.338	-2732
1002.414	-1770
1002.490	-1885
1002.566	-1820
1002.642	-2611
1002.718	-1369
1002.794	-2142
1002.870	-1700
1002.945	-2021
1003.021	-1932
1003.097	-1808
1003.173	-1548
1003.248	-1916
1003.324	-2810
1003.400	-1635
1003.475	-2464
1003.551	-2335
1003.626	-1335
1003.702	-2015
1003.777	-1666
1003.853	-2425
1003.928	-2770
1004.004	-2413
1004.079	-800
1004.155	-1520
1004.230	-2846
1004.305	-1350
1004.381	-1766
1004.456	-1593
1004.531	-1963
1004.607	-2239
1004.682	-1568
1004.757	-1427
1004.832	-1839
1004.907	-2043
1004.982	-1846
1005.057	-1994
1005.133	-2318
1005.208	-1980
1005.283	-1660
1005.358	-1242
1005.433	-2195
1005.508	-2293
1005.583	-2141
1005.657	-2148
1005.732	-1677
1005.807	-1719
1005.882	-2217
1005.957	-1999
1006.032	-1648
1006.106	-2460
1006.181	-1641
1006.256	-2364
1006.331	-1813
1006.405	-1447
1006.480	-1374
1006.554	-1902
1006.629	-1569
1006.704	-2086
1006.778	-1765
1006.853	-2023
1006.927	-1378
1007.002	-2269
1007.076	-1913
1007.150	-2522
1007.225	-2197
1007.299	-1992
1007.373	-2398
1007.448	-2407
1007.522	-957
1007.596	-1991
1007.671	-2057
1007.745	-1452
1007.819	-2154
1007.893	-2541
1007.967	-2015
1008.041	-2275
1008.115	-1094
1008.190	-2460
1008.264	-1820
1008.338	-2319
1008.412	-2265
1008.486	-2461
1008.560	-1504
1008.633	-2653
1008.707	-2174
1008.781	-2221
1008.855	-2316
1008.929	-2002
1009.003	-2744
1009.076	-2483
1009.150	-1803
1009.224	-1572
1009.298	-1886
1009.371	-2606
1009.445	-1527
1009.519	-1805
1009.592	-2085
1009.666	-1444
1009.739	-2285
1009.813	-1798
1009.886	-1529
1009.960	-2572
1010.033	-1307
1010.107	-1822
1010.180	-2065
1010.253	-2377
1010.327	-2515
1010.400	-1808
1010.473	-2351
1010.547	-1191
1010.620	-1885
1010.693	-2040
1010.766	-1853
1010.840	-1275
1010.913	-1675
1010.986	-1902
1011.059	-2269
1011.132	-2344
1011.205	-2499
1011.278	-1734
1011.351	-1600
1011.424	-1512
1011.497	-2205
1011.570	-1836
1011.643	-2235
1011.716	-2026
1011.789	-2293
1011.862	-1739
1011.934	-1765
1012.007	-3070
1012.080	-1896
1012.153	-2453
1012.225	-1079
1012.298	-2646
1012.371	-2874
1012.443	-1225
1012.516	-2325
1012.588	-1660
1012.661	-1258
1012.733	-3258
1012.806	-1695
1012.879	-2162
1012.951	-1634
1013.023	-2268
1013.096	-1637
1013.168	-1625
1013.241	-1355
1013.313	-2254
1013.385	-2781
1013.458	-1723
1013.530	-1613
1013.602	-1928
1013.674	-1449
1013.746	-1917
1013.819	-2061
1013.891	-2129
1013.963	-2211
1014.035	-2269
1014.107	-1713
1014.179	-1211
1014.251	-2301
1014.323	-1852
1014.395	-1931
1014.467	-1523
1014.539	-2266
1014.611	-2086
1014.683	-2379
1014.754	-2108
1014.826	-1865
1014.898	-2070
1014.970	-2570
1015.042	-1587
1015.113	-2429
1015.185	-1842
1015.257	-1986
1015.328	-1685
1015.400	-2011
1015.471	-1539
1015.543	-2910
1015.615	-1695
1015.686	-1876
1015.757	-1865
1015.829	-1884
1015.901	-1716
1015.972	-1256
1016.043	-2611
1016.115	-1792
1016.186	-1912
1016.257	-2228
1016.328	-1817
1016.400	-1879
1016.471	-1810
1016.542	-1338
1016.613	-2273
1016.685	-2647
1016.756	-1315
1016.827	-1749
1016.898	-2823
1016.969	-1117
1017.040	-3242
1017.111	-1355
1017.182	-2199
1017.253	-1063
1017.324	-2268
1017.395	-2299
1017.466	-993
1017.537	-2003
1017.608	-1936
1017.678	-2236
1017.749	-2019
1017.820	-2139
1017.891	-1738
1017.961	-2203
1018.032	-1809
1018.103	-1909
1018.173	-2341
1018.244	-1833
1018.315	-1556
1018.385	-1702
1018.456	-1783
1018.526	-2828
1018.597	-2504
1018.667	-2124
1018.738	-1879
1018.808	-1989
1018.878	-2074
1018.949	-2096
1019.019	-2389
1019.089	-1559
1019.160	-886
1019.230	-2659
1019.300	-2243
1019.371	-2467
1019.441	-937
1019.511	-1808
1019.581	-1983
1019.651	-1069
1019.721	-1609
1019.791	-2146
1019.861	-1822
1019.931	-1923
1020.001	-2347
1020.071	-1564
1020.141	-1943
1020.211	-1851
1020.281	-2522
1020.351	-2297
1020.421	-1261
1020.491	-1305
1020.560	-2431
1020.630	-1753
1020.700	-2791
1020.770	-1856
1020.839	-2505
1020.909	-1043
1020.979	-1515
1021.048	-2341
1021.118	-1367
1021.187	-2404
1021.257	-1166
1021.326	-1737
1021.396	-2386
1021.465	-1770
1021.535	-2146
1021.604	-2842
1021.674	-2179
1021.743	-1978
1021.812	-2177
1021.882	-1976
1021.951	-1047
1022.020	-1677
1022.089	-1527
1022.159	-1666
1022.228	-2449
1022.297	-1951
1022.366	-1787
1022.435	-1418
1022.504	-1924
1022.573	-1980
1022.642	-1399
1022.711	-2539
1022.781	-1552
1022.849	-1702
1022.918	-1945
1022.987	-1872
1023.056	-1676
1023.125	-1774
1023.194	-1908
1023.263	-1596
1023.331	-1814
1023.400	-2455
1023.469	-2204
1023.538	-1570
1023.606	-2724
1023.675	-2407
1023.744	-2221
1023.812	-2124
1023.881	-2442
1023.949	-2335
1024.018	-2662
1024.086	-2271
1024.155	-1632
1024.223	-2551
1024.292	-1711
1024.360	-2039
1024.429	-1875
1024.497	-2130
1024.565	-1781
1024.634	-2423
1024.702	-1457
1024.770	-1314
1024.838	-2435
1024.907	-1845
1024.975	-1951
1025.043	-1620
1025.111	-1836
1025.179	-1859
1025.247	-2038
1025.315	-2236
1025.383	-1990
1025.451	-1640
1025.519	-1047
1025.587	-1889
1025.655	-2142
1025.723	-2409
1025.791	-2741
1025.859	-1963
1025.927	-1283
1025.995	-2343
1026.062	-2093
1026.130	-2094
1026.198	-2918
1026.266	-2855
1026.333	-1557
1026.401	-1716
1026.469	-1948
1026.536	-2195
1026.604	-2276
1026.671	-1876
1026.739	-2379
1026.806	-2706
1026.874	-2526
1026.941	-2828
1027.009	-2228
1027.076	-2611
1027.144	-1635
1027.211	-2642
1027.278	-2345
1027.345	-2247
1027.413	-1693
1027.480	-2900
1027.547	-2033
1027.614	-1703
1027.682	-1620
1027.749	-2056
1027.816	-2406
1027.883	-2364
1027.950	-2124
1028.017	-2632
1028.084	-1525
1028.151	-3066
1028.218	-2431
1028.285	-2112
1028.352	-2099
1028.419	-2307
1028.486	-1999
1028.553	-1933
1028.619	-1476
1028.686	-1776
1028.753	-3349
1028.820	-2386
1028.886	-2386
1028.953	-1709
1029.020	-2171
1029.086	-2042
1029.153	-2887
1029.220	-2873
1029.286	-1784
1029.353	-2188
1029.419	-2411
1029.486	-2840
1029.552	-2496
1029.619	-3070
1029.685	-2144
1029.751	-2449
1029.818	-1626
1029.884	-2372
1029.951	-1828
1030.017	-2796
1030.083	-2636
1030.149	-1703
1030.216	-2167
1030.282	-1266
1030.348	-2525
1030.414	-2598
1030.480	-2506
1030.546	-1480
1030.612	-2271
1030.678	-2426
1030.744	-1555
1030.810	-1781
1030.876	-2389
1030.942	-2544
1031.008	-2093
1031.074	-2625
1031.140	-2273
1031.206	-2133
1031.272	-2097
1031.337	-1832
1031.403	-1100
1031.469	-2062
1031.534	-1871
1031.600	-2463
1031.666	-2552
1031.731	-1894
1031.797	-1927
1031.863	-2809
1031.928	-2453
1031.994	-2605
1032.059	-1538
1032.125	-2630
1032.190	-1516
1032.256	-2552
1032.321	-3324
1032.386	-2329
1032.452	-2261
1032.517	-1944
1032.582	-2962
1032.647	-2458
1032.713	-2939
1032.778	-2533
1032.843	-2578
1032.908	-2601
1032.974	-1454
1033.039	-2137
1033.104	-2309
1033.169	-2105
1033.234	-2191
1033.299	-2553
1033.364	-2400
1033.429	-2756
1033.494	-2314
1033.559	-1999
1033.624	-2448
1033.688	-2346
1033.753	-2065
1033.818	-1799
1033.883	-2568
1033.948	-2504
1034.013	-2202
1034.077	-2553
1034.142	-1228
1034.207	-2957
1034.271	-2293
1034.336	-1142
1034.400	-2674
1034.465	-2113
1034.530	-2441
1034.594	-1745
1034.658	-1729
1034.723	-1724
1034.787	-2194
1034.852	-2215
1034.916	-2712
1034.981	-2563
1035.045	-2089
1035.109	-2272
1035.173	-2191
1035.238	-2665
1035.302	-2569
1035.366	-2539
1035.430	-2238
1035.495	-2797
1035.559	-2493
1035.623	-2581
1035.687	-2567
1035.751	-2256
1035.815	-2516
1035.879	-3160
1035.943	-2250
1036.007	-2425
1036.071	-2125
1036.135	-2481
1036.198	-2546
1036.262	-2332
1036.326	-2269
1036.390	-1817
1036.454	-2419
1036.517	-2518
1036.581	-2893
1036.645	-2538
1036.709	-2568
1036.772	-2374
1036.836	-2752
1036.900	-2778
1036.963	-3021
1037.026	-2593
1037.090	-2131
1037.154	-2823
1037.217	-2226
1037.280	-2565
1037.344	-2439
1037.407	-2923
1037.471	-2510
1037.534	-2835
1037.597	-2238
1037.661	-2541
1037.724	-2669
1037.787	-2409
1037.850	-2294
1037.913	-2511
1037.977	-2639
1038.040	-2031
1038.103	-1937
1038.166	-2155
1038.229	-2241
1038.292	-3090
1038.355	-1998
1038.418	-2501
1038.481	-2194
1038.544	-2318
1038.607	-2290
1038.670	-2130
1038.732	-2327
1038.795	-2219
1038.858	-3208
1038.921	-2656
1038.984	-2394
1039.046	-2893
1039.109	-2951
1039.172	-2741
1039.234	-3512
1039.297	-2668
1039.360	-2395
1039.422	-3415
1039.485	-2741
1039.547	-2868
1039.610	-3009
1039.672	-2089
1039.734	-3172
1039.797	-3326
1039.859	-2661
1039.922	-2818
1039.984	-2740
1040.046	-2622
1040.109	-2442
1040.171	-3215
1040.233	-2945
1040.295	-2503
1040.358	-2974
1040.420	-2547
1040.482	-2464
1040.544	-2303
1040.606	-2994
1040.668	-2639
1040.730	-2359
1040.792	-2891
1040.854	-3476
1040.916	-2863
1040.978	-3213
1041.040	-2654
1041.102	-1849
1041.164	-2211
1041.225	-2133
1041.287	-3084
1041.349	-3091
1041.411	-2301
1041.472	-2363
1041.534	-3091
1041.596	-3600
1041.657	-2511
1041.719	-2018
1041.781	-2578
1041.842	-3630
1041.904	-2825
1041.965	-2504
1042.027	-3155
1042.088	-2017
1042.150	-3171
1042.211	-2156
1042.272	-2720
1042.334	-2683
1042.395	-2212
1042.456	-2777
1042.518	-1066
1042.579	-2622
1042.640	-2873
1042.701	-2061
1042.763	-2908
1042.824	-2700
1042.885	-3054
1042.946	-2760
1043.007	-2130
1043.068	-2310
1043.129	-2340
1043.190	-1954
1043.251	-2421
1043.312	-2403
1043.373	-2421
1043.434	-2669
1043.495	-2537
1043.556	-2260
1043.616	-3189
1043.677	-3575
1043.738	-2806
1043.799	-3236
1043.859	-2109
1043.920	-2395
1043.981	-3150
1044.041	-2470
1044.102	-2648
1044.162	-2804
1044.223	-3025
1044.284	-3207
1044.344	-2398
1044.405	-2095
1044.465	-2876
1044.525	-2919
1044.586	-2605
1044.646	-2358
1044.707	-2217
1044.767	-2283
1044.827	-2898
1044.887	-2098
1044.948	-2802
1045.008	-2333
1045.068	-2532
1045.128	-2144
1045.188	-2404
1045.249	-2302
1045.309	-2484
1045.369	-1904
1045.429	-2209
1045.489	-2339
1045.549	-2855
1045.609	-2410
1045.669	-2272
1045.729	-2483
1045.789	-2495
1045.848	-3092
1045.908	-2382
1045.968	-2793
1046.028	-2754
1046.088	-1847
1046.147	-2150
1046.207	-2284
1046.267	-2339
1046.326	-1954
1046.386	-2508
1046.446	-1945
1046.505	-2185
1046.565	-1873
1046.624	-1390
1046.684	-1211
1046.743	-1863
1046.803	-1752
1046.862	-1143
1046.922	0
