'Start Wavelength	183.907
'End Wavelength	1046.922
'Gate Delay	5.000
'Gate Width (ms)	1.050
'Laser Output Level	0.000
'X Position	0.000
'Y Position	0.000
'Z Position	0.000
'Grid Point Number	1.000
'Shot Number	100.000
183.907	741.000
183.977	-844.000
184.047	-78
184.116	49
184.186	430
184.256	-64
184.325	461
184.395	-424
184.465	872
184.534	405
184.604	306
184.674	-144
184.743	178
184.813	511
184.883	1084
184.952	436
185.022	1682
185.092	47
185.161	759
185.231	61
185.301	-241
185.370	-60
185.440	314
185.509	103
185.579	552
185.649	288
185.718	121
185.788	444
185.857	385
185.927	430
185.996	455
186.066	-118
186.136	617
186.205	352
186.275	1134
186.344	303
186.414	295
186.483	-538
186.553	560
186.622	473
186.692	588
186.761	381
186.831	191
186.900	73
186.970	746
187.039	88
187.109	869
187.178	-562
187.248	817
187.317	224
187.387	138
187.456	97
187.526	1574
187.595	307
187.664	898
187.734	387
187.803	811
187.873	24
187.942	816
188.012	604
188.081	404
188.150	-184
188.220	1285
188.289	117
188.358	695
188.428	259
188.497	596
188.567	465
188.636	489
188.705	46
188.775	216
188.844	-69
188.913	1365
188.983	28
189.052	367
189.121	115
189.191	538
189.260	-119
189.329	579
189.399	338
189.468	824
189.537	-343
189.606	-109
189.676	626
189.745	730
189.814	-69
189.883	1036
189.953	206
190.022	1116
190.091	184
190.161	1129
190.230	272
190.299	268
190.368	-382
190.437	-366
190.507	-198
190.576	673
190.645	-424
190.714	401
190.783	-502
190.853	521
190.922	1248
190.991	772
191.060	546
191.129	78
191.198	224
191.268	214
191.337	256
191.406	349
191.475	-26
191.544	-8
191.613	998
191.682	368
191.752	122
191.821	931
191.890	101
191.959	967
192.028	164
192.097	254
192.166	46
192.235	-30
192.304	-87
192.373	84
192.442	-453
192.511	989
192.580	-625
192.650	893
192.719	14
192.788	253
192.857	-536
192.926	588
192.995	2
193.064	215
193.133	317
193.202	635
193.271	1488
193.340	1530
193.409	527
193.478	890
193.547	501
193.615	1254
193.684	307
193.753	559
193.822	-469
193.891	973
193.960	-197
194.029	581
194.098	491
194.167	207
194.236	705
194.305	711
194.374	-411
194.443	549
194.512	663
194.580	1132
194.649	-205
194.718	746
194.787	69
194.856	698
194.925	0
194.994	1255
195.062	807
195.131	186
195.200	89
195.269	509
195.338	441
195.407	327
195.475	158
195.544	1603
195.613	492
195.682	1165
195.751	322
195.819	1121
195.888	404
195.957	1805
196.026	418
196.094	504
196.163	500
196.232	644
196.301	475
196.369	1238
196.438	374
196.507	147
196.576	329
196.644	751
196.713	526
196.782	407
196.850	241
196.919	303
196.988	993
197.056	599
197.125	-23
197.194	1110
197.262	-111
197.331	86
197.400	347
197.468	298
197.537	-403
197.606	959
197.674	629
197.743	165
197.812	-45
197.880	2303
197.949	782
198.017	573
198.086	99
198.155	740
198.223	-147
198.292	1133
198.360	732
198.429	1004
198.497	1148
198.566	441
198.635	610
198.703	1306
198.772	704
198.840	1808
198.909	599
198.977	448
199.046	803
199.114	943
199.183	545
199.251	693
199.320	-156
199.388	947
199.457	-565
199.525	763
199.594	406
199.662	687
199.731	542
199.799	1335
199.867	462
199.936	834
200.004	-75
200.073	1138
200.141	16
200.210	1055
200.278	95
200.346	1499
200.415	1045
200.483	1789
200.552	751
200.620	293
200.688	1003
200.757	349
200.825	707
200.893	1285
200.962	478
201.030	66
201.098	431
201.167	929
201.235	389
201.303	286
201.372	1253
201.440	1027
201.508	638
201.577	915
201.645	854
201.713	685
201.781	915
201.850	1426
201.918	-142
201.986	1417
202.055	314
202.123	1157
202.191	-92
202.259	765
202.327	588
202.396	1241
202.464	1015
202.532	1944
202.600	1788
202.669	1220
202.737	749
202.805	1452
202.873	978
202.941	1861
203.009	46
203.078	1297
203.146	341
203.214	970
203.282	104
203.350	1225
203.418	533
203.487	1635
203.555	230
203.623	918
203.691	1101
203.759	482
203.827	959
203.895	1548
203.963	800
204.031	793
204.099	431
204.168	692
204.236	957
204.304	1403
204.372	482
204.440	595
204.508	826
204.576	896
204.644	140
204.712	1477
204.780	709
204.848	579
204.916	217
204.984	1156
205.052	807
205.120	514
205.188	-102
205.256	1573
205.324	-55
205.392	714
205.460	774
205.528	767
205.596	323
205.664	785
205.732	922
205.799	1597
205.867	1582
205.935	591
206.003	1035
206.071	587
206.139	-185
206.207	626
206.275	567
206.343	836
206.411	612
206.478	910
206.546	580
206.614	880
206.682	-284
206.750	939
206.818	277
206.885	1285
206.953	225
207.021	1901
207.089	1305
207.157	674
207.225	1147
207.292	1593
207.360	555
207.428	944
207.496	812
207.563	774
207.631	1100
207.699	1200
207.767	978
207.834	888
207.902	238
207.970	478
208.038	704
208.105	823
208.173	736
208.241	1866
208.309	809
208.376	1170
208.444	2052
208.512	861
208.579	-270
208.647	1186
208.715	890
208.782	703
208.850	829
208.918	1222
208.985	997
209.053	1564
209.120	914
209.188	1689
209.256	642
209.323	997
209.391	590
209.459	1343
209.526	1332
209.594	1470
209.661	1118
209.729	947
209.796	796
209.864	1399
209.932	498
209.999	1999
210.067	758
210.134	1567
210.202	2025
210.269	2418
210.337	1281
210.404	1219
210.472	762
210.539	1164
210.607	1368
210.674	1531
210.742	514
210.809	1254
210.877	1457
210.944	1392
211.012	881
211.079	1699
211.146	985
211.214	926
211.281	1096
211.349	1786
211.416	703
211.484	2202
211.551	849
211.618	948
211.686	934
211.753	1221
211.821	1276
211.888	563
211.955	1634
212.023	2074
212.090	1047
212.157	1062
212.225	730
212.292	1881
212.359	2138
212.427	4509
212.494	2285
212.561	1685
212.629	1261
212.696	1634
212.763	1229
212.831	864
212.898	1095
212.965	1785
213.032	437
213.100	938
213.167	1392
213.234	1615
213.301	1316
213.369	1636
213.436	1521
213.503	1131
213.570	1648
213.638	1617
213.705	1192
213.772	573
213.839	1376
213.906	1820
213.973	1630
214.041	1726
214.108	942
214.175	1424
214.242	1060
214.309	1596
214.376	697
214.444	2171
214.511	2425
214.578	1544
214.645	1021
214.712	1319
214.779	1504
214.846	1975
214.913	1444
214.980	2350
215.048	2314
215.115	2577
215.182	2095
215.249	2260
215.316	1457
215.383	1443
215.450	1705
215.517	2269
215.584	1862
215.651	1985
215.718	1050
215.785	2101
215.852	1035
215.919	2780
215.986	1869
216.053	2076
216.120	1798
216.187	2441
216.254	1848
216.321	2303
216.388	1593
216.455	2513
216.522	1805
216.589	3532
216.656	2751
216.722	3321
216.789	2130
216.856	2925
216.923	1839
216.990	1927
217.057	1577
217.124	3061
217.191	2853
217.258	3824
217.324	3124
217.391	3977
217.458	3052
217.525	2850
217.592	2364
217.659	1855
217.725	2448
217.792	2946
217.859	2512
217.926	1968
217.993	1184
218.059	2332
218.126	1456
218.193	2233
218.260	1180
218.327	2271
218.393	1984
218.460	2230
218.527	456
218.594	1257
218.660	1502
218.727	2584
218.794	1485
218.860	2439
218.927	1308
218.994	1105
219.061	1053
219.127	1840
219.194	1614
219.261	1827
219.327	567
219.394	1717
219.461	768
219.527	1691
219.594	1706
219.661	2402
219.727	616
219.794	2942
219.860	1667
219.927	1981
219.994	2615
220.060	3668
220.127	2656
220.193	2413
220.260	1926
220.326	3744
220.393	4176
220.460	5129
220.526	3104
220.593	2625
220.659	3121
220.726	3297
220.792	3975
220.859	4724
220.925	5633
220.992	6681
221.058	5225
221.125	4857
221.191	3469
221.258	1935
221.324	2119
221.391	2232
221.457	1303
221.524	2464
221.590	2437
221.657	4255
221.723	3400
221.789	3193
221.856	2941
221.922	2298
221.989	2226
222.055	1968
222.121	1500
222.188	3660
222.254	2710
222.321	2176
222.387	1256
222.453	1771
222.520	789
222.586	1625
222.652	1516
222.719	1691
222.785	2480
222.851	1864
222.918	1358
222.984	2578
223.050	1561
223.116	749
223.183	1672
223.249	1639
223.315	1264
223.382	1271
223.448	1661
223.514	1236
223.580	1960
223.647	1301
223.713	724
223.779	1637
223.845	414
223.911	2212
223.978	877
224.044	1874
224.110	633
224.176	1889
224.242	747
224.309	1013
224.375	1773
224.441	2651
224.507	817
224.573	1344
224.639	1710
224.705	1067
224.772	1359
224.838	1580
224.904	1730
224.970	2001
225.036	807
225.102	1659
225.168	1996
225.234	1440
225.300	921
225.366	2051
225.432	1748
225.499	1147
225.565	1441
225.631	1759
225.697	2359
225.763	2259
225.829	2216
225.895	2509
225.961	3700
226.027	2900
226.093	2759
226.159	3509
226.225	4393
226.291	8243
226.357	9573
226.423	6779
226.489	4153
226.554	3818
226.620	2951
226.686	3940
226.752	4700
226.818	8182
226.884	10956
226.950	10347
227.016	5402
227.082	4286
227.148	3526
227.214	4309
227.279	2401
227.345	3135
227.411	2087
227.477	2247
227.543	5336
227.609	3986
227.674	2731
227.740	2763
227.806	2592
227.872	2653
227.938	1750
228.003	3520
228.069	1908
228.135	2458
228.201	1818
228.267	1994
228.332	2150
228.398	2610
228.464	1282
228.530	1119
228.595	1465
228.661	946
228.727	2043
228.792	2746
228.858	1474
228.924	1801
228.990	2659
229.055	1612
229.121	2232
229.187	2292
229.252	1796
229.318	843
229.384	1117
229.449	2615
229.515	-355
229.581	229
229.646	2662
229.712	2023
229.777	2842
229.843	2747
229.909	2516
229.974	3666
230.040	3087
230.105	2491
230.171	2224
230.236	3650
230.302	3910
230.368	3921
230.433	2123
230.499	3073
230.564	2207
230.630	2008
230.695	2062
230.761	2390
230.826	1739
230.892	3792
230.957	1504
231.023	2353
231.088	2071
231.154	2981
231.219	2699
231.284	3156
231.350	2353
231.415	2479
231.481	1440
231.546	1658
231.612	1618
231.677	2162
231.742	1473
231.808	2550
231.873	865
231.939	748
232.004	3548
232.069	3304
232.135	871
232.200	2062
232.265	1359
232.331	1979
232.396	1302
232.461	1735
232.527	1705
232.592	1738
232.657	1752
232.723	2678
232.788	1584
232.853	2391
232.918	1414
232.984	1464
233.049	1583
233.114	2059
233.179	2005
233.245	2815
233.310	1415
233.375	1242
233.440	2084
233.506	1674
233.571	1163
233.636	1489
233.701	1653
233.766	2071
233.832	1058
233.897	1779
233.962	1380
234.027	3301
234.092	2093
234.157	1712
234.222	1614
234.288	2924
234.353	3920
234.418	4787
234.483	4204
234.548	3966
234.613	3143
234.678	4281
234.743	3006
234.808	5540
234.873	2727
234.938	3810
235.004	2737
235.069	3232
235.134	1917
235.199	3173
235.264	2791
235.329	2559
235.394	2449
235.459	2856
235.524	2292
235.589	3045
235.654	1467
235.719	1784
235.784	2926
235.849	2814
235.913	2536
235.978	3141
236.043	2410
236.108	3194
236.173	3004
236.238	2800
236.303	1404
236.368	2121
236.433	2813
236.498	4050
236.563	4047
236.627	7529
236.692	15397
236.757	12943
236.822	6700
236.887	5892
236.952	4909
237.017	4415
237.081	4935
237.146	5475
237.211	10493
237.276	16478
237.341	19360
237.405	11414
237.470	6604
237.535	6049
237.600	4149
237.664	4703
237.729	2642
237.794	4908
237.859	7443
237.923	5055
237.988	2828
238.053	4025
238.118	3963
238.182	5987
238.247	5129
238.312	3244
238.376	3568
238.441	2048
238.506	4253
238.570	2155
238.635	2778
238.700	3356
238.764	2087
238.829	4078
238.893	3652
238.958	3412
239.023	3137
239.087	3360
239.152	2693
239.216	2166
239.281	2214
239.346	2844
239.410	2462
239.475	2305
239.539	5324
239.604	3340
239.668	3638
239.733	2394
239.797	3511
239.862	7722
239.926	6067
239.991	3656
240.055	3084
240.120	2708
240.184	2404
240.249	1427
240.313	976
240.378	1780
240.442	3715
240.507	4599
240.571	2123
240.635	3408
240.700	3704
240.764	2914
240.829	1740
240.893	1048
240.957	2776
241.022	4569
241.086	4939
241.151	2991
241.215	767
241.279	3559
241.344	2057
241.408	3920
241.472	3664
241.537	5734
241.601	3246
241.665	2666
241.730	2992
241.794	4479
241.858	2170
241.922	3522
241.987	2821
242.051	2720
242.115	2195
242.179	3674
242.244	1860
242.308	3871
242.372	4116
242.436	3818
242.501	3907
242.565	2372
242.629	2262
242.693	3925
242.757	1942
242.822	3562
242.886	3179
242.950	3730
243.014	1638
243.078	3169
243.142	2586
243.206	3582
243.271	2430
243.335	3041
243.399	3846
243.463	8629
243.527	15409
243.591	6580
243.655	4274
243.719	2943
243.783	4266
243.847	4967
243.911	4784
243.975	7193
244.040	3852
244.104	4945
244.168	3166
244.232	4659
244.296	4968
244.360	5575
244.424	2122
244.488	3225
244.552	2936
244.615	1355
244.679	2205
244.743	3092
244.807	2546
244.871	3436
244.935	2276
244.999	2565
245.063	2551
245.127	4081
245.191	4492
245.255	3874
245.319	4445
245.383	3104
245.446	3355
245.510	2368
245.574	3661
245.638	3278
245.702	2331
245.766	6456
245.829	3951
245.893	3518
245.957	2901
246.021	4182
246.085	2574
246.149	3719
246.212	9085
246.276	10000
246.340	5302
246.404	4702
246.467	4867
246.531	4978
246.595	4641
246.659	4876
246.722	3254
246.786	5427
246.850	4853
246.913	5192
246.977	2323
247.041	4240
247.104	3543
247.168	4470
247.232	7979
247.295	12898
247.359	6627
247.423	4246
247.486	6616
247.550	5665
247.614	4561
247.677	5703
247.741	3203
247.804	3490
247.868	3739
247.932	7339
247.995	13227
248.059	6178
248.122	3106
248.186	6385
248.249	9143
248.313	20753
248.376	21178
248.440	15082
248.503	5829
248.567	7446
248.630	7631
248.694	11578
248.757	14733
248.821	20984
248.884	17362
248.948	14569
249.011	19733
249.075	24386
249.138	21308
249.202	11010
249.265	7716
249.328	7511
249.392	7027
249.455	7030
249.519	5485
249.582	7235
249.645	8431
249.709	6544
249.772	5071
249.835	4680
249.899	5098
249.962	5213
250.025	4285
250.089	10852
250.152	12551
250.215	8062
250.279	5554
250.342	6443
250.405	5267
250.468	4329
250.532	5847
250.595	9202
250.658	18670
250.721	26590
250.785	11005
250.848	9353
250.911	5536
250.974	6425
251.038	8465
251.101	14674
251.164	7702
251.227	9098
251.290	6904
251.354	10009
251.417	24949
251.480	21839
251.543	18446
251.606	38914
251.669	28980
251.732	15613
251.795	17903
251.859	17404
251.922	27150
251.985	17052
252.048	9439
252.111	8252
252.174	8441
252.237	16058
252.300	23798
252.363	24989
252.426	33624
252.489	17091
252.552	9599
252.615	6962
252.678	9410
252.741	20124
252.804	20929
252.867	35662
252.930	25779
252.993	15834
253.056	10367
253.119	7664
253.182	5121
253.245	8557
253.308	6991
253.371	8458
253.434	7149
253.497	7949
253.559	13193
253.622	9602
253.685	12814
253.748	13589
253.811	6144
253.874	7802
253.937	6858
254.000	6351
254.062	10685
254.125	13384
254.188	13615
254.251	10707
254.314	5659
254.376	9684
254.439	11493
254.502	11316
254.565	9987
254.628	16791
254.690	10853
254.753	6412
254.816	4950
254.878	6003
254.941	10351
255.004	9748
255.067	5351
255.129	5681
255.192	4126
255.255	3933
255.317	4921
255.380	3636
255.443	1625
255.505	2829
255.568	1506
255.631	2433
255.693	2981
255.756	2316
255.819	3648
255.881	2478
255.944	2017
256.006	1871
256.069	2853
256.132	3470
256.194	3585
256.257	5071
256.319	3741
256.382	3967
256.444	4214
256.507	4421
256.569	3768
256.632	3847
256.694	4470
256.757	13151
256.819	28058
256.882	12577
256.944	6856
257.007	6863
257.069	5652
257.132	4613
257.194	4669
257.257	4016
257.319	3285
257.381	4244
257.444	10049
257.506	32142
257.569	33710
257.631	16395
257.693	10361
257.756	5919
257.818	4419
257.880	4339
257.943	3689
258.005	3688
258.067	3339
258.130	4102
258.192	4687
258.254	7016
258.317	4677
258.379	3784
258.441	6723
258.503	6850
258.566	6348
258.628	7561
258.690	2368
258.753	5216
258.815	8389
258.877	5114
258.939	3452
259.001	4301
259.064	3673
259.126	4326
259.188	4594
259.250	4647
259.312	5256
259.375	7918
259.437	5086
259.499	4408
259.561	2945
259.623	4644
259.685	3647
259.747	4902
259.809	5733
259.872	9158
259.934	14746
259.996	16423
260.058	6170
260.120	3283
260.182	3382
260.244	4193
260.306	2684
260.368	3995
260.430	2157
260.492	7423
260.554	9271
260.616	5791
260.678	10250
260.740	8849
260.802	3491
260.864	5721
260.926	3503
260.988	4021
261.050	4369
261.112	8598
261.174	14743
261.236	7750
261.298	4270
261.359	5625
261.421	6266
261.483	3050
261.545	3803
261.607	1878
261.669	3269
261.731	4494
261.793	8124
261.854	4960
261.916	4400
261.978	4453
262.040	3637
262.102	3381
262.164	3030
262.225	3870
262.287	2826
262.349	8183
262.411	4864
262.472	3410
262.534	3274
262.596	5784
262.658	3458
262.719	2115
262.781	3696
262.843	4025
262.904	3546
262.966	3383
263.028	3163
263.090	11326
263.151	22836
263.213	10908
263.275	8838
263.336	4184
263.398	3699
263.459	2046
263.521	2893
263.583	7062
263.644	4571
263.706	2810
263.767	1638
263.829	2019
263.891	1841
263.952	2211
264.014	1926
264.075	4366
264.137	9148
264.198	5556
264.260	2225
264.321	2528
264.383	6714
264.444	14133
264.506	4391
264.567	3864
264.629	6494
264.690	11415
264.752	5527
264.813	4435
264.875	2307
264.936	3532
264.998	2033
265.059	2178
265.120	2806
265.182	4255
265.243	18711
265.305	15068
265.366	4805
265.427	2944
265.489	3035
265.550	1877
265.611	2921
265.673	3371
265.734	2746
265.795	2365
265.857	1229
265.918	2837
265.979	5881
266.040	27119
266.102	19119
266.163	7432
266.224	6860
266.286	4228
266.347	2360
266.408	3302
266.469	2490
266.530	2645
266.592	1727
266.653	6353
266.714	8426
266.775	3590
266.836	2957
266.898	2597
266.959	4605
267.020	3953
267.081	2881
267.142	3447
267.203	2716
267.264	1958
267.326	4234
267.387	3015
267.448	1680
267.509	2944
267.570	3659
267.631	3042
267.692	1730
267.753	3117
267.814	1880
267.875	5858
267.936	8501
267.997	7202
268.058	5955
268.119	4130
268.180	3606
268.241	2090
268.302	2445
268.363	2465
268.424	1510
268.485	3483
268.546	1437
268.607	1698
268.668	1541
268.729	2572
268.790	1670
268.851	3583
268.912	6534
268.972	8051
269.033	4534
269.094	2627
269.155	1764
269.216	2019
269.277	2482
269.338	2645
269.398	2513
269.459	3834
269.520	4832
269.581	6522
269.642	6397
269.702	4694
269.763	4224
269.824	3735
269.885	4256
269.945	6911
270.006	3060
270.067	2788
270.128	1914
270.188	2767
270.249	2624
270.310	2860
270.370	2725
270.431	3034
270.492	2095
270.553	3290
270.613	5931
270.674	10822
270.734	4340
270.795	3699
270.856	4659
270.916	3488
270.977	3133
271.038	4401
271.098	3450
271.159	5737
271.219	5210
271.280	3874
271.340	2739
271.401	2715
271.462	3243
271.522	4628
271.583	2334
271.643	2777
271.704	2608
271.764	4681
271.825	9597
271.885	25518
271.946	29319
272.006	12738
272.066	16602
272.127	23941
272.187	9343
272.248	6275
272.308	5728
272.369	16991
272.429	8284
272.489	8383
272.550	7811
272.610	10065
272.671	6282
272.731	5802
272.791	6603
272.852	5740
272.912	4815
272.972	3991
273.033	2680
273.093	4786
273.153	5420
273.214	4253
273.274	4376
273.334	12940
273.394	21048
273.455	10821
273.515	10117
273.575	19548
273.635	8887
273.696	13269
273.756	20245
273.816	10104
273.876	5940
273.936	7684
273.997	9643
274.057	4928
274.117	4186
274.177	8659
274.237	27579
274.297	19193
274.358	11824
274.418	17680
274.478	13417
274.538	4786
274.598	3478
274.658	9341
274.718	9819
274.778	5764
274.838	3533
274.898	5787
274.958	11856
275.018	20461
275.078	12641
275.138	7244
275.198	3409
275.258	3430
275.318	3473
275.378	8945
275.438	9128
275.498	6073
275.558	7207
275.618	15916
275.678	13565
275.738	10862
275.798	8690
275.858	5241
275.918	2394
275.978	4611
276.038	3469
276.098	3029
276.157	6520
276.217	17433
276.277	8052
276.337	7169
276.397	4066
276.457	5827
276.517	2408
276.576	2642
276.636	2205
276.696	5681
276.756	10924
276.815	7633
276.875	3484
276.935	4533
276.995	4120
277.055	3108
277.114	2540
277.174	5661
277.234	13362
277.293	6044
277.353	3590
277.413	3020
277.472	3743
277.532	4283
277.592	3285
277.651	11420
277.711	16571
277.771	8224
277.830	23717
277.890	18655
277.950	13518
278.009	30808
278.069	11986
278.128	15957
278.188	19031
278.248	10062
278.307	21991
278.367	12257
278.426	4943
278.486	4210
278.545	3422
278.605	4217
278.664	2721
278.724	3697
278.783	9189
278.843	19456
278.902	6469
278.962	5794
279.021	5212
279.081	6068
279.140	5341
279.199	6211
279.259	5542
279.318	5160
279.378	6969
279.437	10904
279.496	30601
279.556	64681
279.615	43560
279.675	15141
279.734	11071
279.793	17100
279.853	22885
279.912	10479
279.971	5973
280.031	6238
280.090	10914
280.149	17400
280.208	11886
280.268	45258
280.327	38370
280.386	12474
280.445	11791
280.505	10652
280.564	5926
280.623	5864
280.682	8324
280.742	11647
280.801	4083
280.860	3873
280.919	2960
280.978	3671
281.037	2824
281.097	2907
281.156	3016
281.215	2845
281.274	4265
281.333	14278
281.392	8683
281.451	2732
281.510	2524
281.569	2929
281.628	2998
281.688	3333
281.747	2999
281.806	3535
281.865	2182
281.924	2552
281.983	2360
282.042	2324
282.101	2135
282.160	3302
282.219	1505
282.278	3421
282.337	9975
282.396	6008
282.454	3253
282.513	4150
282.572	14674
282.631	9421
282.690	2894
282.749	2814
282.808	5250
282.867	4641
282.926	3784
282.985	2456
283.043	1952
283.102	2664
283.161	2643
283.220	7246
283.279	13341
283.338	5363
283.396	3767
283.455	3631
283.514	4553
283.573	7223
283.631	5531
283.690	3880
283.749	3386
283.808	8748
283.866	8998
283.925	4105
283.984	3608
284.043	6783
284.101	5999
284.160	5126
284.219	5382
284.277	5703
284.336	7455
284.395	21641
284.453	16201
284.512	8545
284.570	12961
284.629	11477
284.688	10695
284.746	13279
284.805	14316
284.863	19639
284.922	24218
284.981	30462
285.039	42817
285.098	67440
285.156	92884
285.215	77918
285.273	85086
285.332	96200
285.390	71576
285.449	49839
285.507	35787
285.566	27493
285.624	20647
285.683	17142
285.741	13452
285.799	12691
285.858	10896
285.916	10909
285.975	7682
286.033	7561
286.091	5901
286.150	6003
286.208	5087
286.267	6235
286.325	5316
286.383	9529
286.442	6570
286.500	4326
286.558	3908
286.616	4601
286.675	5932
286.733	5164
286.791	3883
286.850	5126
286.908	6056
286.966	10044
287.024	4149
287.083	4397
287.141	2822
287.199	3998
287.257	5431
287.315	4510
287.374	4060
287.432	10570
287.490	6844
287.548	4921
287.606	3201
287.664	3881
287.723	4781
287.781	5639
287.839	3665
287.897	3824
287.955	3928
288.013	5589
288.071	11374
288.129	39435
288.187	90650
288.245	41122
288.303	14267
288.361	9484
288.419	5570
288.477	4610
288.535	4012
288.593	3731
288.651	2578
288.709	2236
288.767	2334
288.825	2892
288.883	1607
288.941	2560
288.999	2936
289.057	2709
289.115	1646
289.173	2862
289.231	2135
289.289	2713
289.346	1778
289.404	4238
289.462	6101
289.520	7011
289.578	3700
289.636	2809
289.694	2480
289.751	1714
289.809	2134
289.867	3136
289.925	3076
289.983	4695
290.040	2197
290.098	1943
290.156	3229
290.214	3663
290.271	2108
290.329	2397
290.387	2366
290.444	3001
290.502	1196
290.560	2068
290.617	1570
290.675	3254
290.733	1752
290.790	3650
290.848	2624
290.906	2437
290.963	2367
291.021	2665
291.078	2187
291.136	3119
291.194	9072
291.251	16944
291.309	3995
291.366	2374
291.424	2324
291.481	3337
291.539	3191
291.596	2687
291.654	1381
291.711	2206
291.769	2659
291.826	5857
291.884	3191
291.941	2147
291.999	1906
292.056	3157
292.114	2688
292.171	2520
292.228	2461
292.286	3798
292.343	6188
292.401	7937
292.458	4211
292.515	2914
292.573	3696
292.630	3993
292.687	3030
292.745	3157
292.802	4241
292.859	10074
292.917	17974
292.974	9578
293.031	3644
293.089	3007
293.146	2067
293.203	2369
293.260	1873
293.318	2557
293.375	3795
293.432	2497
293.489	3118
293.546	2181
293.604	4642
293.661	12221
293.718	26949
293.775	14651
293.832	7561
293.889	5955
293.947	4924
294.004	3666
294.061	4152
294.118	9093
294.175	17293
294.232	20588
294.289	8842
294.346	5670
294.403	5331
294.460	3864
294.517	3506
294.574	3309
294.631	2712
294.688	4253
294.745	10117
294.802	30637
294.859	30775
294.916	11696
294.973	6986
295.030	6678
295.087	5862
295.144	4629
295.201	3471
295.258	3296
295.315	4587
295.372	13120
295.429	20573
295.486	10209
295.542	6303
295.599	14594
295.656	20811
295.713	16899
295.770	19186
295.827	8555
295.883	3852
295.940	4876
295.997	8298
296.054	8230
296.111	4224
296.167	3600
296.224	2619
296.281	2796
296.338	2654
296.394	3864
296.451	4149
296.508	10557
296.564	17244
296.621	14382
296.678	27871
296.734	35045
296.791	13995
296.848	8404
296.904	9364
296.961	20187
297.018	24742
297.074	17509
297.131	6917
297.187	6271
297.244	8703
297.301	24209
297.357	36344
297.414	14515
297.470	6697
297.527	4945
297.583	4196
297.640	5614
297.696	3945
297.753	3262
297.809	3106
297.866	3448
297.922	3116
297.979	3402
298.035	3735
298.092	6132
298.148	14751
298.204	14175
298.261	7326
298.317	14556
298.374	30020
298.430	18744
298.486	7996
298.543	6503
298.599	5529
298.656	6225
298.712	11388
298.768	20604
298.824	12763
298.881	5652
298.937	3656
298.993	3949
299.050	5572
299.106	5674
299.162	3784
299.218	4725
299.275	3275
299.331	4845
299.387	9305
299.443	28687
299.500	28284
299.556	13030
299.612	6525
299.668	5741
299.724	7464
299.780	8764
299.837	5313
299.893	8190
299.949	23621
300.005	26910
300.061	24214
300.117	36131
300.173	18168
300.229	10087
300.285	11652
300.341	13063
300.397	7667
300.453	5124
300.510	3685
300.566	4462
300.622	6050
300.678	14937
300.734	25691
300.790	24172
300.845	26118
300.901	18382
300.957	24176
301.013	17302
301.069	7148
301.125	7013
301.181	6315
301.237	5178
301.293	3608
301.349	3951
301.405	2492
301.461	2594
301.516	4253
301.572	5896
301.628	9194
301.684	7929
301.740	11060
301.796	16636
301.851	11056
301.907	20177
301.963	19771
302.019	30573
302.074	65811
302.130	66760
302.186	32406
302.242	15701
302.297	9772
302.353	10418
302.409	16825
302.464	15379
302.520	13175
302.576	28963
302.631	31136
302.687	19625
302.743	8456
302.798	6555
302.854	4558
302.910	4631
302.965	6432
303.021	10637
303.076	10645
303.132	14058
303.187	15181
303.243	8734
303.299	5228
303.354	4554
303.410	4545
303.465	4549
303.521	3678
303.576	4287
303.632	5488
303.687	10138
303.743	24831
303.798	21203
303.853	10027
303.909	6035
303.964	5797
304.020	8906
304.075	12255
304.130	12076
304.186	20755
304.241	20918
304.297	16226
304.352	9531
304.358	9217
304.407	6669
304.449	6507
304.463	6454
304.518	6533
304.539	6031
304.573	5239
304.629	5434
304.630	5489
304.684	8206
304.720	16006
304.739	19959
304.794	28152
304.811	24227
304.850	14497
304.902	7891
304.905	7492
304.960	5644
304.992	5594
305.015	5514
305.071	5787
305.083	5768
305.126	5714
305.173	4079
305.181	3822
305.236	3938
305.264	4214
305.292	4558
305.347	5795
305.354	5846
305.402	6014
305.445	6030
305.457	6064
305.512	6813
305.535	7194
305.567	7625
305.622	7281
305.626	7476
305.678	12352
305.716	21411
305.733	24621
305.788	27924
305.807	24737
305.843	19071
305.897	25646
305.898	25719
305.953	24468
305.988	17369
306.008	13465
306.063	10008
306.078	9042
306.118	6725
306.168	4691
306.173	4548
306.228	3943
306.259	3533
306.283	3204
306.338	3075
306.349	3135
306.393	3601
306.440	4344
306.448	4450
306.503	4572
306.530	4843
306.558	6236
306.613	12349
306.620	13302
306.668	19818
306.711	26722
306.723	27329
306.778	20601
306.801	16303
306.833	11236
306.888	6200
306.892	5974
306.943	4845
306.982	4471
306.997	4425
307.052	3594
307.072	3681
307.107	4097
307.162	4166
307.163	4183
307.217	6770
307.253	7661
307.272	7730
307.327	7842
307.343	7750
307.381	7209
307.434	6810
307.436	7037
307.491	13718
307.524	19847
307.546	21796
307.600	23244
307.614	21637
307.655	13907
307.704	6873
307.710	6643
307.765	7277
307.795	8401
307.819	10415
307.874	16018
307.885	16359
307.929	13034
307.975	10746
307.984	11192
308.038	15217
308.065	19078
308.093	31510
308.148	62924
308.156	69460
308.202	110994
308.246	136907
308.257	131741
308.312	78463
308.336	57406
308.366	46170
308.421	30103
308.426	28577
308.475	18209
308.517	12551
308.530	11950
308.585	10354
308.607	9899
308.639	9709
308.694	9543
308.697	9597
308.748	15577
308.787	21017
308.803	20840
308.857	17263
308.877	15804
308.912	14662
308.967	14475
308.967	14467
309.021	21003
309.058	26751
309.076	33278
309.130	56614
309.148	65319
309.185	101513
309.238	159676
309.239	160435
309.293	181173
309.328	181640
309.348	159940
309.402	88142
309.418	68887
309.457	49758
309.508	30802
309.511	30543
309.566	29214
309.598	29490
309.620	36447
309.674	56726
309.688	61904
309.729	59840
309.778	51341
309.783	49998
309.837	33510
309.868	24832
309.892	27302
309.946	36126
309.959	38893
310.001	52116
310.049	64468
310.055	62244
310.109	37329
310.139	23463
310.163	18940
310.218	11064
310.229	9771
310.272	8294
310.319	6735
310.326	6533
310.381	5223
310.409	4567
310.435	4438
310.489	4512
310.499	4478
310.543	4151
310.589	4086
310.598	4206
310.652	4967
310.679	5226
310.706	4637
310.760	3403
310.769	3253
310.814	3418
310.859	3357
310.868	3394
310.923	3797
310.948	3894
310.977	4268
311.031	5287
311.038	5406
311.085	5174
311.128	4784
311.139	4715
311.193	4422
311.218	4308
311.247	4375
311.301	4338
311.308	4341
311.356	4240
311.398	4143
311.410	4106
311.464	3861
311.488	3733
311.518	3951
311.572	4396
311.578	4442
311.626	6260
311.668	7944
311.680	7844
311.734	7070
311.758	6775
311.788	6620
311.842	6256
311.847	6214
311.896	8030
311.937	9606
311.950	9701
312.004	10007
312.027	10101
312.058	8539
312.112	5742
312.117	5454
312.165	4951
312.207	4515
312.297	7111
312.386	6305
312.476	6261
312.566	13693
312.656	6279
312.745	4261
312.835	4932
312.925	5671
313.015	4202
313.104	5372
313.194	4206
313.284	4760
313.374	6603
313.463	6876
313.553	4429
313.643	4367
313.732	3903
313.822	3915
313.912	4459
314.001	5399
314.091	6116
314.180	8746
314.270	7579
314.360	8455
314.449	6609
314.539	4859
314.628	4585
314.718	5063
314.808	5830
314.897	4457
314.987	4374
315.076	6311
315.166	8418
315.255	7345
315.345	6862
315.434	6657
315.524	6298
315.613	6847
315.703	10042
315.792	10733
315.881	18151
315.971	9857
316.060	12918
316.150	16626
316.239	15721
316.328	8100
316.418	4826
316.507	4579
316.597	6883
316.686	6201
316.775	6778
316.865	15547
316.954	4990
317.043	3690
317.133	4632
317.222	3710
317.311	4092
317.400	4354
317.490	7428
317.579	9186
317.668	4174
317.757	7982
317.847	13379
317.936	33368
318.025	23740
318.114	13480
318.203	9981
318.293	14409
318.382	33533
318.471	25021
318.560	29936
318.649	48060
318.738	12462
318.828	7823
318.917	9674
319.006	8847
319.095	20826
319.184	57671
319.273	38771
319.362	22963
319.451	7501
319.540	7175
319.629	14035
319.718	30527
319.807	11534
319.896	18433
319.985	70059
320.074	34020
320.163	7896
320.252	11488
320.341	10966
320.430	10259
320.519	14504
320.608	9416
320.697	6898
320.786	7210
320.875	8911
320.964	12268
321.053	19004
321.142	27026
321.230	31093
321.319	19694
321.408	49105
321.497	22839
321.586	18419
321.675	18503
321.764	20612
321.852	12939
321.941	27613
322.030	20347
322.119	18004
322.207	49032
322.296	29725
322.385	15536
322.474	17667
322.562	56785
322.651	34732
322.740	20177
322.829	27594
322.917	23877
323.006	17877
323.095	15540
323.183	9796
323.272	15147
323.361	22900
323.449	60199
323.538	22906
323.626	41525
323.715	28590
323.804	11529
323.892	38139
323.981	28982
324.069	8304
324.158	19072
324.246	22799
324.335	10217
324.424	18710
324.512	8035
324.601	10411
324.689	21185
324.778	45390
324.866	19856
324.954	6317
325.043	6481
325.131	10128
325.220	17811
325.308	20339
325.397	14680
325.485	11070
325.574	4638
325.662	3938
325.750	5764
325.839	4211
325.927	4119
326.015	5722
326.104	6994
326.192	10096
326.280	4612
326.369	4313
326.457	7417
326.545	16123
326.634	7844
326.722	3106
326.810	3820
326.898	4607
326.987	5686
327.075	12149
327.163	13345
327.251	7041
327.340	14659
327.428	28556
327.516	5440
327.604	4143
327.692	5009
327.781	3842
327.869	7872
327.957	5675
328.045	6532
328.133	3218
328.221	4691
328.309	4878
328.397	4198
328.485	5244
328.574	8388
328.662	30522
328.750	17078
328.838	5170
328.926	4231
329.014	3574
329.102	6699
329.190	17338
329.278	13145
329.366	3430
329.454	3324
329.542	3737
329.630	3078
329.718	3521
329.806	5464
329.893	5501
329.981	5847
330.069	7243
330.157	24983
330.245	76455
330.333	47517
330.421	9358
330.509	9275
330.597	36909
330.684	27973
330.772	8833
330.860	10166
330.948	13271
331.036	7336
331.123	2828
331.211	3114
331.299	4322
331.387	10613
331.475	23121
331.562	6797
331.650	3580
331.738	4732
331.825	5244
331.913	3089
332.001	2854
332.089	5221
332.176	8779
332.264	18603
332.352	17530
332.439	6619
332.527	4721
332.614	4646
332.702	4929
332.790	4114
332.877	9427
332.965	22880
333.052	9145
333.140	8518
333.228	23233
333.315	7136
333.403	4272
333.490	11268
333.578	13464
333.665	30308
333.753	15708
333.840	5266
333.928	5695
334.015	12614
334.103	18619
334.190	66404
334.278	21302
334.365	7823
334.452	6369
334.540	4407
334.627	5399
334.715	7978
334.802	13202
334.889	59280
334.977	73370
335.064	13522
335.151	5592
335.239	5800
335.326	7903
335.413	30338
335.501	51829
335.588	8253
335.675	5347
335.762	6207
335.850	13114
335.937	8939
336.024	17674
336.111	76298
336.199	40963
336.286	10577
336.373	4578
336.460	3910
336.547	3797
336.635	5156
336.722	5818
336.809	4734
336.896	6503
336.983	21495
337.070	54635
337.157	74687
337.245	44158
337.332	35407
337.419	6080
337.506	3879
337.593	4652
337.680	15269
337.767	57778
337.854	17719
337.941	18372
338.028	19239
338.115	7379
338.202	8176
338.289	12639
338.376	47010
338.463	18083
338.550	28693
338.637	37835
338.724	8896
338.811	15890
338.898	4172
338.984	2840
339.071	5223
339.158	5060
339.245	17661
339.332	13026
339.419	10616
339.506	11888
339.593	3188
339.679	4974
339.766	3690
339.853	4542
339.940	14412
340.027	4851
340.113	4567
340.200	7381
340.287	5822
340.374	6334
340.460	13483
340.547	5490
340.634	8536
340.720	32486
340.807	23634
340.894	3335
340.980	4278
341.067	3995
341.154	6044
341.240	7352
341.327	20125
341.414	6314
341.500	7415
341.587	5295
341.674	4277
341.760	11813
341.847	16303
341.933	5704
342.020	1732
342.106	2426
342.193	3726
342.279	10548
342.366	6775
342.452	13563
342.539	6763
342.625	13610
342.712	40579
342.798	17800
342.885	7257
342.971	1738
343.058	2502
343.144	2595
343.230	3459
343.317	3407
343.403	2922
343.490	2733
343.576	2700
343.662	3015
343.749	4197
343.835	5158
343.921	9160
344.008	43090
344.094	121339
344.180	31863
344.267	11690
344.353	32032
344.439	40726
344.525	19444
344.612	8721
344.698	6410
344.784	4548
344.870	2264
344.957	3643
345.043	7507
345.129	4518
345.215	13410
345.301	7628
345.387	5095
345.474	2668
345.560	2090
345.646	3989
345.732	3427
345.818	5282
345.904	4498
345.990	5774
346.076	3824
346.162	8299
346.249	4040
346.335	3278
346.421	3505
346.507	10270
346.593	47841
346.679	14355
346.765	4676
346.851	3732
346.937	4270
347.023	4117
347.108	4780
347.194	4278
347.280	3240
347.366	4865
347.452	12641
347.538	54963
347.624	45490
347.710	40885
347.796	6882
347.882	3858
347.967	2693
348.053	5460
348.139	3789
348.225	3163
348.311	4151
348.397	2795
348.482	4828
348.568	6909
348.654	2713
348.740	3990
348.825	4468
348.911	6698
348.997	21487
349.083	53291
349.168	10212
349.254	4608
349.340	4958
349.425	3392
349.511	5010
349.597	5707
349.682	11552
349.768	37747
349.854	20669
349.939	4347
350.025	2114
350.110	3413
350.196	3142
350.282	2981
350.367	2694
350.453	4671
350.538	5587
350.624	5497
350.709	5984
350.795	3096
350.880	3034
350.966	3820
351.051	5703
351.137	4294
351.222	3628
351.308	10971
351.393	39751
351.479	11112
351.564	4051
351.649	4384
351.735	2949
351.820	2724
351.906	3520
351.991	4837
352.076	20848
352.162	39262
352.247	8712
352.332	5918
352.418	11013
352.503	13332
352.588	51636
352.673	53028
352.759	11526
352.844	5917
352.929	5148
353.014	8631
353.100	4793
353.185	8509
353.270	14958
353.355	16237
353.441	4241
353.526	4208
353.611	11748
353.696	17368
353.781	9793
353.866	4269
353.952	4029
354.037	12151
354.122	30482
354.207	29101
354.292	12080
354.377	4793
354.462	4231
354.547	6508
354.632	5323
354.717	7608
354.802	10261
354.887	5246
354.972	3303
355.057	2448
355.142	2436
355.227	4359
355.312	7643
355.397	17727
355.482	47262
355.567	25950
355.652	15534
355.737	16838
355.822	39914
355.907	41899
355.991	6924
356.076	4751
356.161	3760
356.246	3808
356.331	4233
356.416	8337
356.501	54009
356.585	72326
356.670	12390
356.755	8418
356.840	9824
356.924	38218
357.009	155815
357.094	73289
357.179	17006
357.263	11326
357.348	10096
357.433	10974
357.517	10180
357.602	8965
357.687	5387
357.771	7098
357.856	12901
357.941	10892
358.025	28492
358.110	138869
358.195	82027
358.279	14278
358.364	10220
358.448	30446
358.533	90262
358.617	69244
358.702	63935
358.787	27557
358.871	15568
358.956	14076
359.040	4893
359.125	3192
359.209	3246
359.294	5639
359.378	10399
359.462	11324
359.547	6734
359.631	4351
359.716	3635
359.800	4122
359.885	7417
359.969	5593
360.053	4822
360.138	4533
360.222	7270
360.306	14444
360.391	11445
360.475	12465
360.559	30878
360.644	33462
360.728	27331
360.812	28934
360.896	93945
360.981	47915
361.065	28883
361.149	8879
361.233	7128
361.318	6553
361.402	6502
361.486	6547
361.570	4348
361.654	7091
361.739	14585
361.823	56019
361.907	100217
361.991	20633
362.075	11592
362.159	28525
362.243	21337
362.327	17304
362.411	21841
362.495	12038
362.580	7517
362.664	5669
362.748	4330
362.832	5589
362.916	8586
363.000	28635
363.084	80378
363.168	118691
363.252	34390
363.336	12462
363.420	14650
363.503	45576
363.587	65067
363.671	13636
363.755	9415
363.839	15463
363.923	6982
364.007	14153
364.091	16749
364.175	15893
364.258	75253
364.342	60706
364.426	67438
364.510	41711
364.594	19379
364.677	17673
364.761	74210
364.845	65948
364.929	25234
365.013	22816
365.096	15110
365.180	20635
365.264	16422
365.347	74721
365.431	38890
365.515	12013
365.598	6670
365.682	6193
365.766	8685
365.849	14037
365.933	7587
366.017	8940
366.100	7561
366.184	2906
366.267	4756
366.351	3767
366.435	3836
366.518	3624
366.602	3126
366.685	3962
366.769	4322
366.852	9897
366.936	17373
367.019	12170
367.103	7543
367.186	15444
367.270	6128
367.353	2532
367.436	4628
367.520	4068
367.603	6187
367.687	8306
367.770	16923
367.853	10556
367.937	23435
368.020	47268
368.104	13213
368.187	11771
368.270	20459
368.353	17557
368.437	17070
368.520	31479
368.603	25477
368.687	29182
368.770	66558
368.853	19391
368.936	15507
369.020	18022
369.103	7343
369.186	4582
369.269	6093
369.352	10969
369.436	17774
369.519	11505
369.602	5236
369.685	6470
369.768	6274
369.851	6348
369.934	3668
370.018	5711
370.101	14730
370.184	12275
370.267	7828
370.350	14673
370.433	21057
370.516	42315
370.599	55212
370.682	18621
370.765	38180
370.848	43445
370.931	73161
371.014	33800
371.097	7388
371.180	7113
371.263	3595
371.346	3829
371.429	4560
371.511	4603
371.594	9384
371.677	16025
371.760	17819
371.843	14168
371.926	48203
372.009	128884
372.091	52164
372.174	28310
372.257	63061
372.340	30016
372.423	22806
372.505	28397
372.588	13338
372.671	20338
372.754	71189
372.836	41515
372.919	23076
373.002	54675
373.085	20378
373.167	14500
373.250	31114
373.332	64269
373.415	74130
373.498	168744
373.580	72799
373.663	68175
373.746	110681
373.828	31746
373.911	13567
373.993	13328
374.076	43600
374.159	50407
374.241	18981
374.324	61959
374.406	46037
374.489	38911
374.571	130443
374.654	64756
374.736	24387
374.819	75681
374.901	108806
374.983	128193
375.066	26404
375.148	8976
375.231	31225
375.313	76783
375.395	32591
375.478	8720
375.560	6250
375.643	7236
375.725	20373
375.807	94240
375.890	83639
375.972	34421
376.054	19420
376.136	26196
376.219	13785
376.301	23761
376.383	86445
376.465	39158
376.548	25309
376.630	26111
376.712	73609
376.794	42845
376.877	6412
376.959	4467
377.041	5297
377.123	10464
377.205	15498
377.287	4514
377.369	4980
377.452	4278
377.534	3522
377.616	3767
377.698	4242
377.780	2771
377.862	4299
377.944	4696
378.026	2373
378.108	3884
378.190	3214
378.272	3376
378.354	2377
378.436	2761
378.518	5562
378.600	25213
378.682	23096
378.764	43585
378.846	40763
378.928	11505
379.010	17720
379.091	10404
379.173	4575
379.255	4223
379.337	5615
379.419	18220
379.501	63327
379.583	29108
379.664	7407
379.746	15409
379.828	45059
379.910	62358
379.991	56749
380.073	11228
380.155	6460
380.237	5740
380.318	3255
380.400	5241
380.482	9598
380.564	18040
380.645	15843
380.727	17196
380.809	9916
380.890	6600
380.972	5147
381.053	4570
381.135	6214
381.217	13700
381.298	50125
381.380	28122
381.461	17566
381.543	68291
381.624	101302
381.706	21970
381.787	12687
381.869	12834
381.951	27285
382.032	116898
382.113	92210
382.195	24738
382.276	14519
382.358	24006
382.439	68917
382.521	72587
382.602	118969
382.684	58994
382.765	100944
382.846	135903
382.928	227537
383.009	142096
383.090	76608
383.172	248963
383.253	422985
383.334	158451
383.416	117899
383.497	71843
383.578	38095
383.659	67287
383.741	204096
383.822	518874
383.903	321023
383.984	101958
384.066	144216
384.147	103205
384.228	24826
384.309	18705
384.390	15594
384.471	11380
384.553	11118
384.634	15001
384.715	16700
384.796	8373
384.877	9418
384.958	37011
385.039	57878
385.120	23568
385.201	9675
385.282	12527
385.363	11799
385.444	11509
385.525	16800
385.606	51916
385.687	51249
385.768	14347
385.849	14977
385.930	52721
386.011	104531
386.092	34142
386.173	8772
386.254	6851
386.335	7356
386.416	7576
386.496	25765
386.577	51232
386.658	19522
386.739	10666
386.820	9934
386.901	7621
386.981	7747
387.062	5046
387.143	8550
387.224	41017
387.304	46750
387.385	17076
387.466	10409
387.547	13796
387.627	9246
387.708	13267
387.789	66073
387.869	93434
387.950	27342
388.031	5997
388.111	4097
388.192	13051
388.273	21175
388.353	13491
388.434	7407
388.514	12062
388.595	53887
388.676	87868
388.756	49634
388.837	45655
388.917	32412
388.998	6285
389.078	6595
389.159	5127
389.239	4227
389.320	9057
389.400	8011
389.480	14435
389.561	45114
389.641	25643
389.722	7802
389.802	16019
389.883	17414
389.963	48546
390.043	34469
390.124	11133
390.204	14419
390.284	53364
390.365	36659
390.445	30434
390.525	69761
390.605	67837
390.686	31037
390.766	10690
390.846	5991
390.927	3832
391.007	5081
391.087	5981
391.167	5371
391.247	4337
391.328	6888
391.408	13143
391.488	10558
391.568	2504
391.648	6322
391.728	10487
391.808	9069
391.888	10672
391.969	21368
392.049	43678
392.129	19911
392.209	15706
392.289	48634
392.369	29959
392.449	23770
392.529	16524
392.609	11605
392.689	12992
392.769	43646
392.849	44159
392.929	25766
393.009	64319
393.089	52062
393.169	32065
393.248	83358
393.328	333033
393.408	421394
393.488	129826
393.568	36630
393.648	18361
393.728	12334
393.807	9004
393.887	9438
393.967	7783
394.047	9655
394.127	12251
394.206	19059
394.286	52637
394.366	233211
394.446	302761
394.525	86765
394.605	22253
394.685	15117
394.764	31858
394.844	54788
394.924	44046
395.003	14284
395.083	9834
395.163	6858
395.242	6973
395.322	7920
395.402	5116
395.481	7863
395.561	18339
395.640	63148
395.720	51690
395.799	60928
395.879	55428
395.958	28719
396.038	81193
396.117	306035
396.197	395861
396.276	144223
396.356	47817
396.435	32633
396.515	22064
396.594	21308
396.673	33196
396.753	90589
396.832	324821
396.912	301751
396.991	86864
397.070	23383
397.150	11713
397.229	9103
397.308	11422
397.388	21363
397.467	12174
397.546	4714
397.625	3343
397.705	7466
397.784	8936
397.863	4160
397.942	3365
398.022	3489
398.101	12699
398.180	53587
398.259	33714
398.338	8344
398.417	6184
398.497	3454
398.576	4142
398.655	2914
398.734	3020
398.813	2743
398.892	11857
398.971	54502
399.050	33634
399.129	3035
399.208	2022
399.287	3575
399.366	2205
399.445	1711
399.524	2721
399.603	1892
399.682	6314
399.761	16816
399.840	56098
399.919	51247
399.998	7564
400.077	1794
400.156	1830
400.235	4849
400.313	2901
400.392	3245
400.471	21511
400.550	44848
400.629	12958
400.708	4329
400.786	4144
400.865	12473
400.944	16611
401.023	8840
401.102	1753
401.180	1972
401.259	1581
401.338	2948
401.416	5320
401.495	3270
401.574	4353
401.652	1786
401.731	4485
401.810	3921
401.888	1602
401.967	1034
402.046	2620
402.124	4152
402.203	6703
402.281	3618
402.360	4658
402.438	15157
402.517	13741
402.596	4062
402.674	3801
402.753	1409
402.831	1501
402.910	3194
402.988	10288
403.066	48906
403.145	32221
403.223	14064
403.302	40820
403.380	31855
403.459	31580
403.537	13139
403.615	4671
403.694	750
403.772	2236
403.850	1373
403.929	1302
404.007	1389
404.085	6177
404.164	6445
404.242	2268
404.320	2343
404.398	5847
404.477	15291
404.555	84756
404.633	91076
404.711	14648
404.789	3996
404.868	2916
404.946	2127
405.024	999
405.102	1315
405.180	1023
405.258	408
405.336	3137
405.415	897
405.493	6352
405.571	6031
405.649	1433
405.727	814
405.805	4077
405.883	3474
405.961	3594
406.039	5493
406.117	2005
406.195	4318
406.273	16784
406.351	81268
406.429	58578
406.507	9529
406.585	2781
406.663	4138
406.740	5010
406.818	4896
406.896	2297
406.974	2204
407.052	4529
407.130	43041
407.208	77543
407.285	17115
407.363	2623
407.441	2487
407.519	2237
407.596	2896
407.674	6293
407.752	13071
407.830	19220
407.907	10501
407.985	4090
408.063	1678
408.141	1379
408.218	4206
408.296	4622
408.373	2851
408.451	3696
408.529	3208
408.606	1700
408.684	583
408.762	1114
408.839	-9
408.917	750
408.994	671
409.072	1681
409.149	1479
409.227	3531
409.304	5046
409.382	3089
409.459	2947
409.537	7041
409.614	5173
409.692	2886
409.769	2483
409.846	6303
409.924	8051
410.001	6967
410.079	3761
410.156	3721
410.233	2769
410.311	2336
410.388	1040
410.465	3267
410.543	3640
410.620	1748
410.697	2510
410.775	3895
410.852	732
410.929	3251
411.006	6686
411.083	2333
411.161	8607
411.238	10558
411.315	5157
411.392	1568
411.469	4185
411.547	5537
411.624	2366
411.701	2457
411.778	2537
411.855	8007
411.932	3789
412.009	1498
412.086	1414
412.163	2281
412.240	3455
412.317	4201
412.394	4134
412.471	1540
412.548	1439
412.625	1304
412.702	2384
412.779	7284
412.856	5175
412.933	1013
413.010	1973
413.087	3040
413.164	21518
413.241	39463
413.318	9579
413.395	5817
413.471	8487
413.548	4288
413.625	2203
413.702	2354
413.779	2938
413.855	961
413.932	-178
414.009	470
414.086	746
414.162	1084
414.239	2643
414.316	18013
414.393	52405
414.469	21552
414.546	1602
414.623	786
414.699	1250
414.776	2588
414.853	1572
414.929	1827
415.006	1504
415.082	1886
415.159	1397
415.236	2100
415.312	2315
415.389	4822
415.465	7573
415.542	4185
415.618	731
415.695	5493
415.771	2408
415.848	2769
415.924	2436
416.000	1320
416.077	1332
416.153	-698
416.230	-236
416.306	824
416.383	871
416.459	1441
416.535	-497
416.612	508
416.688	409
416.764	1261
416.841	1379
416.917	839
416.993	1472
417.069	2062
417.146	2280
417.222	5449
417.298	3526
417.374	1073
417.451	2146
417.527	3573
417.603	3454
417.679	3351
417.755	1940
417.831	903
417.908	649
417.984	449
418.060	-538
418.136	4782
418.212	9774
418.288	3020
418.364	1203
418.440	913
418.516	3752
418.592	4763
418.668	9692
418.744	17556
418.820	13526
418.896	3358
418.972	405
419.048	1626
419.124	7312
419.200	5994
419.276	1270
419.352	398
419.428	1090
419.504	1340
419.579	3479
419.655	2020
419.731	2190
419.807	9190
419.883	19812
419.959	14595
420.034	3434
420.110	5692
420.186	30499
420.262	28751
420.337	4466
420.413	3535
420.489	1426
420.565	1837
420.640	1758
420.716	1897
420.792	465
420.867	2714
420.943	1333
421.019	4713
421.094	4189
421.170	2111
421.245	778
421.321	2069
421.397	1115
421.472	2834
421.548	6579
421.623	8416
421.699	3857
421.774	4635
421.850	2975
421.925	7184
422.001	6383
422.076	5111
422.152	6156
422.227	9952
422.302	11968
422.378	16358
422.453	29093
422.529	64469
422.604	174757
422.679	281317
422.755	226012
422.830	93951
422.905	35482
422.981	18957
423.056	12099
423.131	8861
423.207	7043
423.282	6570
423.357	12550
423.432	8571
423.508	6624
423.583	17388
423.658	15585
423.733	4291
423.808	4959
423.883	5904
423.959	4726
424.034	3561
424.109	3226
424.184	2234
424.259	942
424.334	2291
424.409	878
424.484	741
424.559	1164
424.634	1670
424.709	2511
424.784	4624
424.859	1769
424.934	3716
425.009	21060
425.084	40997
425.159	16183
425.234	2907
425.309	-185
425.384	2454
425.459	3416
425.534	1830
425.609	1366
425.683	1141
425.758	473
425.833	2053
425.908	2238
425.983	10328
426.058	40505
426.132	19418
426.207	2792
426.282	4359
426.357	4525
426.431	1339
426.506	1216
426.581	1116
426.655	1725
426.730	1299
426.805	824
426.879	1438
426.954	1371
427.029	4290
427.103	27152
427.178	77062
427.253	38765
427.327	4308
427.402	2864
427.476	8206
427.551	3456
427.625	1944
427.700	2081
427.774	1029
427.849	2019
427.923	419
427.998	620
428.072	942
428.147	5166
428.221	19662
428.296	64299
428.370	39994
428.444	5179
428.519	5566
428.593	12681
428.667	11005
428.742	12827
428.816	11758
428.890	36168
428.965	67825
429.039	21913
429.113	15300
429.188	6809
429.262	2797
429.336	4840
429.410	18834
429.485	13278
429.559	9737
429.633	9616
429.707	2810
429.781	5996
429.855	41959
429.930	78952
430.004	39743
430.078	53916
430.152	50112
430.226	70636
430.300	86829
430.374	14842
430.448	4452
430.522	13200
430.596	51911
430.670	34838
430.744	62633
430.818	116477
430.892	27511
430.966	4403
431.040	2394
431.114	662
431.188	582
431.262	653
431.336	361
431.410	4902
431.484	16638
431.557	12755
431.631	2668
431.705	1512
431.779	8681
431.853	48212
431.927	43256
432.000	4799
432.074	731
432.148	1736
432.222	2346
432.295	915
432.369	768
432.443	2891
432.516	22574
432.590	74713
432.664	33906
432.737	3360
432.811	318
432.885	-248
432.958	982
433.032	67
433.106	362
433.179	325
433.253	321
433.326	137
433.400	75
433.473	-11
433.547	-21
433.620	785
433.694	3322
433.767	4429
433.841	228
433.914	189
433.988	1021
434.061	400
434.134	938
434.208	-574
434.281	-574
434.355	75
434.428	182
434.501	-637
434.575	295
434.648	482
434.721	39
434.795	-536
434.868	299
434.941	-184
435.014	97
435.088	-397
435.161	1811
435.234	3277
435.307	6110
435.381	2487
435.454	1918
435.527	1284
435.600	2877
435.673	2011
435.746	2042
435.819	454
435.892	175
435.966	-100
436.039	747
436.112	944
436.185	-27
436.258	87
436.331	-905
436.404	122
436.477	20
436.550	-178
436.623	-104
436.696	-239
436.769	826
436.842	831
436.915	738
436.987	1671
437.060	462
437.133	-417
437.206	-131
437.279	634
437.352	277
437.425	648
437.498	1045
437.570	4345
437.643	5730
437.716	1252
437.789	362
437.861	2957
437.934	13514
438.007	6604
438.080	928
438.152	1194
438.225	3045
438.298	27110
438.370	95867
438.443	49758
438.516	13848
438.588	3688
438.661	242
438.734	808
438.806	1699
438.879	2079
438.951	1623
439.024	6612
439.096	1804
439.169	675
439.241	129
439.314	-242
439.386	1566
439.459	3366
439.531	5593
439.604	2493
439.676	666
439.749	-1031
439.821	58
439.893	487
439.966	222
440.038	1016
440.110	2537
440.183	276
440.255	379
440.327	1639
440.400	10618
440.472	61194
440.544	49774
440.617	6698
440.689	4540
440.761	6229
440.833	11362
440.905	6955
440.978	180
441.050	-600
441.122	640
441.194	-544
441.266	393
441.338	63
441.411	1874
441.483	18924
441.555	38062
441.627	8633
441.699	3225
441.771	3015
441.843	100
441.915	47
441.987	481
442.059	-84
442.131	1178
442.203	2691
442.275	3913
442.347	2836
442.419	3473
442.491	19620
442.563	64170
442.635	31679
442.706	16364
442.778	14655
442.850	2246
442.922	-206
442.994	729
443.066	3194
443.137	2908
443.209	1720
443.281	3226
443.353	6368
443.425	25420
443.496	106549
443.568	118719
443.640	44205
443.711	7438
443.783	2537
443.855	2252
443.926	931
443.998	1745
444.070	2306
444.141	2193
444.213	4179
444.285	5739
444.356	2824
444.428	3778
444.499	1207
444.571	433
444.642	839
444.714	1367
444.785	3632
444.857	3617
444.928	9671
445.000	5709
445.071	5244
445.143	8174
445.214	4440
445.285	6230
445.357	20855
445.428	61116
445.500	168010
445.571	114337
445.642	57981
445.714	21097
445.785	20199
445.856	5904
445.928	5902
445.999	5872
446.070	3609
446.141	3506
446.213	5072
446.284	2055
446.355	2040
446.426	1191
446.497	499
446.569	2810
446.640	5732
446.711	4080
446.782	874
446.853	1475
446.924	2146
446.995	1645
447.066	1075
447.138	3371
447.209	1406
447.280	-1274
447.351	101
447.422	-214
447.493	906
447.564	2172
447.635	3522
447.706	1459
447.777	-731
447.847	7
447.918	-1145
447.989	1578
448.060	1667
448.131	5585
448.202	6542
448.273	4898
448.344	1897
448.414	588
448.485	333
448.556	216
448.627	-949
448.698	1038
448.768	-1068
448.839	-728
448.910	2483
448.981	3175
449.051	-71
449.122	-130
449.193	349
449.263	382
449.334	-358
449.405	1574
449.475	5639
449.546	3574
449.616	3011
449.687	3587
449.758	1057
449.828	262
449.899	-531
449.969	813
450.040	52
450.110	880
450.181	1118
450.251	550
450.322	309
450.392	800
450.463	212
450.533	-118
450.604	-300
450.674	-408
450.744	-71
450.815	-300
450.885	365
450.955	484
451.026	-504
451.096	-681
451.166	628
451.237	3139
451.307	10950
451.377	3432
451.447	-361
451.518	123
451.588	-723
451.658	298
451.728	432
451.799	9531
451.869	13172
451.939	2033
452.009	141
452.079	304
452.149	-315
452.219	1557
452.289	11324
452.360	9581
452.430	1488
452.500	640
452.570	1561
452.640	2581
452.710	8549
452.780	15466
452.850	10280
452.920	11191
452.990	3175
453.060	1356
453.129	2034
453.199	3256
453.269	9648
453.339	27871
453.409	46145
453.479	41410
453.549	65039
453.619	73853
453.688	29707
453.758	3553
453.828	607
453.898	83
453.968	72
454.037	131
454.087	-30
454.107	-113
454.168	-565
454.177	-654
454.247	184
454.249	206
454.316	341
454.330	459
454.386	833
454.411	2432
454.456	4930
454.492	7008
454.525	8832
454.574	4460
454.595	2565
454.655	873
454.665	596
454.734	1025
454.736	1080
454.804	1922
454.817	3562
454.873	9870
454.898	11041
454.943	13071
454.979	8300
455.013	3996
455.060	1904
455.082	1104
455.141	1655
455.152	1647
455.221	5792
455.222	5937
455.291	14086
455.303	12427
455.360	4970
455.384	3948
455.430	2354
455.465	3140
455.499	3628
455.546	7943
455.569	9705
455.627	6793
455.638	6310
455.707	1966
455.708	1976
455.777	666
455.789	702
455.846	704
455.869	512
455.916	182
455.950	305
455.985	372
456.031	791
456.054	942
456.112	380
456.124	294
456.193	653
456.193	635
456.262	1208
456.274	1204
456.332	907
456.355	1196
456.401	1741
456.436	1384
456.470	1138
456.516	748
456.540	436
456.597	324
456.609	299
456.678	880
456.678	868
456.747	827
456.759	780
456.817	714
456.840	564
456.886	120
456.920	435
456.955	663
457.001	855
457.024	993
457.082	1499
457.093	1572
457.162	1511
457.163	1530
457.232	2952
457.243	2683
457.301	1206
457.324	1236
457.370	1467
457.405	1418
457.439	1327
457.485	1264
457.508	1243
457.566	1665
457.577	1766
457.646	2354
457.647	2372
457.715	3193
457.727	3614
457.784	5967
457.808	7290
457.853	9140
457.889	11512
457.922	11950
457.969	7989
457.991	7810
458.050	9644
458.060	9928
458.129	15574
458.130	15785
458.198	17366
458.211	15713
458.267	8484
458.292	5939
458.336	3783
458.372	3452
458.405	4549
458.453	6674
458.474	8604
458.533	16351
458.543	16989
458.611	26857
458.614	27084
458.680	19466
458.694	15797
458.749	7032
458.775	4784
458.818	2671
458.855	2738
458.887	2973
458.936	2559
458.955	2236
459.016	2104
459.024	2146
459.093	2196
459.097	2231
459.162	2862
459.177	3001
459.230	3365
459.257	3747
459.299	4277
459.338	4414
459.368	4564
459.418	5112
459.437	4869
459.499	3404
459.505	3365
459.574	3357
459.579	3384
459.643	3042
459.659	2835
459.711	2716
459.740	2737
459.780	2749
459.820	3416
459.849	3794
459.900	3732
459.917	3744
459.981	4126
459.986	4131
460.054	4329
460.061	4328
460.123	4109
460.141	4247
460.191	5468
460.222	6039
460.260	6736
460.302	8119
460.328	7863
460.382	6200
460.397	6052
460.462	5004
460.465	4977
460.534	5677
460.543	5695
460.602	10705
460.623	12807
460.671	19622
460.703	25557
460.739	23897
460.783	20887
460.808	17948
460.864	5515
460.876	4659
460.944	3908
460.945	3889
461.013	3337
461.024	3326
461.081	3796
461.104	3901
461.150	3722
461.184	3752
461.218	3783
461.264	3273
461.286	3031
461.345	3464
461.355	3644
461.423	3662
461.425	3681
461.491	3730
461.505	3717
461.559	5186
461.585	6013
461.628	9099
461.665	11952
461.696	13078
461.745	17393
461.764	16372
461.825	7479
461.832	7236
461.901	4951
461.905	4943
461.969	3990
461.985	3763
462.037	4177
462.065	4272
462.105	4322
462.145	4711
462.173	5716
462.225	7324
462.241	7914
462.305	11260
462.310	11077
462.378	8396
462.385	7765
462.446	4816
462.465	4301
462.514	4208
462.545	4319
462.582	4287
462.625	4149
462.650	4348
462.705	4712
462.718	4504
462.785	3869
462.786	3902
462.854	5664
462.865	5859
462.922	6349
462.945	6969
462.990	6630
463.025	5547
463.058	5058
463.104	4715
463.126	4609
463.184	4216
463.194	4276
463.262	4902
463.264	4926
463.330	4811
463.344	4719
463.398	5121
463.424	5269
463.466	5312
463.504	5542
463.533	5674
463.583	5669
463.601	5574
463.663	5212
463.669	5296
463.737	6387
463.743	6492
463.805	8727
463.823	9316
463.873	12547
463.903	14820
463.940	16406
463.982	18533
464.008	16058
464.062	9059
464.076	8568
464.142	5855
464.144	5814
464.211	5015
464.221	4912
464.279	4675
464.301	4588
464.347	5028
464.381	5423
464.414	5890
464.461	6497
464.482	6760
464.540	7407
464.550	7306
464.617	6459
464.620	6418
464.685	7263
464.699	7482
464.753	9815
464.779	10920
464.820	12064
464.859	13184
464.888	12472
464.938	11048
464.956	11097
465.018	11246
465.023	11152
465.091	9613
465.098	9443
465.158	9394
465.177	9366
465.226	9421
465.257	9502
465.293	9736
465.336	9837
465.361	10267
465.416	11318
465.428	11716
465.495	13838
465.496	13894
465.563	18987
465.575	19909
465.631	23691
465.654	25483
465.698	18938
465.734	12641
465.765	11469
465.813	9815
465.833	9619
465.893	9402
465.900	9423
465.968	9535
465.972	9512
466.035	9839
466.052	9948
466.102	9900
466.131	9819
466.170	10065
466.210	10293
466.237	10362
466.290	10408
466.304	10706
466.369	11994
466.372	12029
466.439	12310
466.449	12335
466.506	12805
466.528	12954
466.573	15256
466.607	16920
466.641	21928
466.687	28844
466.708	31851
466.766	40235
466.775	38026
466.842	20819
466.845	19955
466.909	15932
466.925	15019
466.977	14696
467.004	14535
467.044	14694
467.083	14777
467.111	16099
467.163	18496
467.178	18978
467.242	20834
467.245	20744
467.312	17992
467.321	17592
467.379	17411
467.400	17293
467.446	17353
467.480	17334
467.559	16021
467.638	14755
467.717	14501
467.796	15367
467.875	15864
467.955	16272
468.034	17987
468.113	33207
468.192	44568
468.271	19818
468.350	13845
468.429	16213
468.508	15192
468.588	14015
468.667	12034
468.746	13484
468.825	13468
468.904	12488
468.983	12661
469.062	16450
469.141	18752
469.220	13017
469.299	11930
469.378	13667
469.456	17760
469.535	15979
469.614	14312
469.693	14192
469.772	16237
469.851	19096
469.930	16887
470.009	13556
470.088	13997
470.166	14916
470.245	19853
470.324	21853
470.403	17942
470.482	14169
470.560	12872
470.639	14183
470.718	14646
470.797	13153
470.875	12951
470.954	16257
471.033	18371
471.111	12328
471.190	10298
471.269	10992
471.347	11574
471.426	12549
471.505	12985
471.583	15261
471.662	15076
471.740	12676
471.819	13032
471.898	11430
471.976	13088
472.055	11695
472.133	12721
472.212	15749
472.290	15566
472.369	12564
472.447	12570
472.526	11200
472.604	11705
472.683	11714
472.761	13073
472.839	11674
472.918	12738
472.996	12408
473.075	12535
473.153	12134
473.231	11182
473.310	12942
473.388	12470
473.466	11950
473.545	13930
473.623	16149
473.701	15639
473.780	12806
473.858	11302
473.936	13466
474.014	11734
474.093	12994
474.171	14354
474.249	18115
474.327	14832
474.405	11531
474.484	11536
474.562	10828
474.640	11041
474.718	11108
474.796	12856
474.874	11381
474.952	11185
475.030	11118
475.108	11801
475.187	12811
475.265	12789
475.343	15102
475.421	17614
475.499	12587
475.577	10706
475.655	12832
475.733	18833
475.811	27201
475.889	25679
475.966	21740
476.044	11067
476.122	13366
476.200	14774
476.278	14013
476.356	10351
476.434	11155
476.512	11887
476.590	13265
476.667	14644
476.745	10413
476.823	11009
476.901	11115
476.979	11450
477.056	11598
477.134	11182
477.212	11347
477.290	11045
477.367	10283
477.445	10645
477.523	9672
477.601	10546
477.678	10484
477.756	10893
477.834	12600
477.911	10693
477.989	9697
478.066	10350
478.144	10902
478.222	11663
478.299	15089
478.377	15726
478.454	9997
478.532	9253
478.609	10258
478.687	10834
478.764	10434
478.842	10214
478.919	10514
478.997	10340
479.074	8960
479.152	10669
479.229	11592
479.307	10718
479.384	9572
479.461	8674
479.539	8823
479.616	9964
479.694	9151
479.771	9157
479.848	9726
479.926	10407
480.003	13404
480.080	8665
480.157	9031
480.235	8781
480.312	10017
480.389	9700
480.467	12832
480.544	14231
480.621	11325
480.698	10163
480.775	11897
480.853	10396
480.930	10005
481.007	9997
481.084	10228
481.161	11761
481.238	11168
481.315	10057
481.392	9168
481.470	9749
481.547	9875
481.624	9403
481.701	8902
481.778	9464
481.855	9641
481.932	12918
482.009	17983
482.086	15618
482.163	10426
482.240	11585
482.317	18304
482.393	17146
482.470	10203
482.547	9880
482.624	9439
482.701	10199
482.778	10001
482.855	7359
482.932	7860
483.009	8794
483.085	9272
483.162	11092
483.239	10791
483.316	9432
483.393	9336
483.469	8828
483.546	10889
483.623	10831
483.699	8650
483.776	9936
483.853	10427
483.930	12399
484.006	24601
484.083	42565
484.160	37491
484.236	56371
484.313	45116
484.389	33755
484.466	29716
484.543	28167
484.619	27640
484.696	28352
484.772	29174
484.849	29947
484.925	25712
485.002	26231
485.078	28471
485.155	28426
485.231	25524
485.308	24370
485.384	25141
485.461	27600
485.537	34541
485.614	40424
485.690	25604
485.766	22855
485.843	24593
485.919	29731
485.995	33144
486.072	23689
486.148	21698
486.224	22236
486.301	22188
486.377	25229
486.453	25956
486.530	25956
486.606	31445
486.682	37310
486.758	36463
486.835	38867
486.911	31848
486.987	42362
487.063	49204
487.139	61253
487.215	48242
487.292	30210
487.368	25379
487.444	27607
487.520	31318
487.596	31992
487.672	36572
487.748	74467
487.824	111850
487.900	54561
487.976	27694
488.052	26552
488.128	30165
488.204	27605
488.280	23229
488.356	24645
488.432	34164
488.508	50505
488.584	28797
488.660	20906
488.736	21658
488.812	21952
488.888	26849
488.964	32393
489.039	53577
489.115	83544
489.191	59929
489.267	23326
489.343	21626
489.418	20890
489.494	19569
489.570	18574
489.646	20458
489.722	19309
489.797	19465
489.873	22704
489.949	36744
490.024	39485
490.100	19202
490.176	18853
490.251	20341
490.327	24863
490.403	19626
490.478	18338
490.554	15634
490.629	16430
490.705	15798
490.781	17442
490.856	17065
490.932	19016
491.007	18527
491.083	18838
491.158	15922
491.234	20203
491.309	28547
491.385	33703
491.460	18278
491.536	17221
491.611	16590
491.686	18065
491.762	20913
491.837	33516
491.913	57771
491.988	70972
492.063	102254
492.139	35284
492.214	21510
492.289	15979
492.365	13993
492.440	17439
492.515	16126
492.590	16721
492.666	14106
492.741	16160
492.816	20987
492.891	16221
492.967	14766
493.042	12520
493.117	12940
493.192	13729
493.267	14618
493.342	17328
493.418	18255
493.493	14535
493.568	11921
493.643	12856
493.718	14923
493.793	17682
493.868	23635
493.943	17718
494.018	14700
494.093	13462
494.168	12080
494.243	12345
494.318	12582
494.393	12471
494.468	12615
494.543	12244
494.618	13453
494.693	12530
494.768	11962
494.842	13782
494.917	12095
494.992	12415
495.067	12409
495.142	11772
495.217	13682
495.292	13254
495.366	13785
495.441	17056
495.516	20166
495.591	23360
495.665	62533
495.740	156214
495.815	93103
495.890	19756
495.964	15283
496.039	17502
496.114	16013
496.188	16163
496.263	17911
496.338	14362
496.412	16213
496.487	18164
496.561	17052
496.636	19578
496.710	17174
496.785	16724
496.860	19536
496.934	17918
497.009	16684
497.083	18181
497.158	19593
497.232	20038
497.307	22172
497.381	21267
497.455	22348
497.530	25718
497.604	22672
497.679	21958
497.753	30074
497.827	41657
497.902	41110
497.976	41324
498.050	62181
498.125	185810
498.199	246259
498.273	69108
498.348	50707
498.422	42449
498.496	37663
498.570	33771
498.645	26489
498.719	23798
498.793	24916
498.867	29117
498.941	35816
499.016	74615
499.090	210211
499.164	115033
499.238	20036
499.312	17331
499.386	21589
499.460	20906
499.534	17267
499.609	21123
499.683	25965
499.757	24437
499.831	34984
499.905	128200
499.979	164112
500.053	31189
500.127	28506
500.201	23823
500.275	17849
500.349	16662
500.422	18850
500.496	23151
500.570	42205
500.644	85304
500.718	159947
500.792	58692
500.866	15728
500.940	18547
501.013	17521
501.087	16161
501.161	26909
501.235	33561
501.309	46510
501.382	124309
501.456	147922
501.530	35076
501.603	47404
501.677	28490
501.751	12059
501.825	14864
501.898	20429
501.972	54541
502.046	48600
502.119	14297
502.193	25348
502.266	58841
502.340	42187
502.413	27242
502.487	54327
502.561	37193
502.634	16802
502.708	13754
502.781	11697
502.855	11147
502.928	10282
503.002	10489
503.075	9588
503.149	10119
503.222	11484
503.295	11425
503.369	13176
503.442	15557
503.516	35278
503.589	95727
503.662	81955
503.736	25961
503.809	45734
503.882	48260
503.956	57079
504.029	70719
504.102	48011
504.175	66631
504.249	30253
504.322	16536
504.395	14705
504.468	10926
504.542	11429
504.615	10209
504.688	10390
504.761	8070
504.834	12212
504.907	13878
504.980	20506
505.053	15262
505.127	14916
505.200	19614
505.273	14857
505.346	11070
505.419	9938
505.492	9826
505.565	8377
505.638	8598
505.711	8404
505.784	8299
505.857	7921
505.930	10204
506.003	8889
506.076	10596
506.149	10188
506.221	12357
506.294	13337
506.367	21508
506.440	72054
506.513	59493
506.586	14635
506.659	10195
506.731	9351
506.804	10599
506.877	14220
506.950	12591
507.022	8413
507.095	9246
507.168	13122
507.241	9895
507.313	8291
507.386	8559
507.459	11906
507.531	9481
507.604	8409
507.677	9422
507.749	8811
507.822	10065
507.894	20054
507.967	29169
508.040	18602
508.112	15703
508.185	14958
508.257	13414
508.330	18953
508.402	14123
508.475	12764
508.547	12947
508.620	13063
508.692	16347
508.765	14370
508.837	11013
508.909	12234
508.982	10950
509.054	12694
509.127	10955
509.199	10129
509.271	10927
509.344	10981
509.416	10385
509.488	10769
509.560	10877
509.633	11134
509.705	12310
509.777	11950
509.849	15511
509.922	12381
509.994	11160
510.066	11119
510.138	12345
510.210	24207
510.283	23878
510.355	19982
510.427	16901
510.499	16182
510.571	16015
510.643	15282
510.715	21140
510.787	21418
510.859	15466
510.931	16167
511.003	21523
511.076	22825
511.148	14081
511.219	12622
511.291	16066
511.363	20172
511.435	13680
511.507	12136
511.579	12795
511.651	13553
511.723	12671
511.795	12248
511.867	12084
511.939	13918
512.010	19655
512.082	20463
512.154	12386
512.226	14206
512.298	18323
512.369	29766
512.441	23303
512.513	20882
512.585	17180
512.656	17086
512.728	17479
512.800	16804
512.871	14952
512.943	15236
513.015	13279
513.086	14927
513.158	14632
513.230	14304
513.301	18426
513.373	21774
513.444	16168
513.516	13514
513.588	14322
513.659	13984
513.731	16509
513.802	16400
513.874	23021
513.945	42539
514.016	23074
514.088	13978
514.159	14497
514.231	18292
514.302	26146
514.374	21111
514.445	17579
514.516	25126
514.588	24176
514.659	17376
514.730	23429
514.802	24408
514.873	19730
514.944	21569
515.016	19269
515.087	19511
515.158	20515
515.229	27611
515.301	22514
515.372	28765
515.443	19440
515.514	16689
515.585	13357
515.656	14914
515.728	13989
515.799	13263
515.870	14583
515.941	14821
516.012	14672
516.083	19271
516.154	20098
516.225	23060
516.296	22926
516.367	21051
516.438	22277
516.509	26433
516.580	37268
516.651	89622
516.722	333949
516.793	227967
516.864	42536
516.935	37499
517.006	37636
517.077	49018
517.148	99039
517.219	307047
517.289	606439
517.360	184857
517.431	66990
517.502	22829
517.573	21212
517.643	20571
517.714	22896
517.785	24367
517.856	23604
517.926	27958
517.997	29624
518.068	35416
518.138	45684
518.209	65114
518.280	188733
518.350	741442
518.421	428645
518.492	60591
518.562	30344
518.633	26897
518.703	25321
518.774	34836
518.845	68420
518.915	79343
518.986	32452
519.056	26847
519.127	36232
519.197	50508
519.268	94952
519.338	82612
519.408	24452
519.479	29045
519.549	24950
519.620	17671
519.690	13707
519.760	13777
519.831	14376
519.901	15861
519.971	13890
520.042	13145
520.112	14449
520.182	16313
520.253	20451
520.323	13523
520.393	15814
520.463	22227
520.534	14815
520.604	23950
520.674	18090
520.744	15819
520.814	25364
520.885	27749
520.955	29427
521.025	99310
521.095	65539
521.165	15490
521.235	14433
521.305	12936
521.375	13808
521.445	13775
521.515	15590
521.585	19188
521.655	21357
521.725	16670
521.795	14869
521.865	11481
521.935	16668
522.005	16509
522.075	11685
522.145	13621
522.215	12646
522.285	17021
522.355	18731
522.424	30632
522.494	30843
522.564	20519
522.634	29585
522.704	92066
522.774	56540
522.843	14964
522.913	13397
522.983	16015
523.053	13557
523.122	14267
523.192	15763
523.262	42283
523.331	57360
523.401	17509
523.471	10761
523.540	11939
523.610	9749
523.680	10442
523.749	11560
523.819	12425
523.888	13151
523.958	9779
524.027	11739
524.097	11993
524.166	11696
524.236	11826
524.305	13912
524.375	11086
524.444	9922
524.514	12546
524.583	11288
524.653	12945
524.722	14511
524.791	11817
524.861	11962
524.930	10571
524.999	12097
525.069	15158
525.138	13557
525.207	13668
525.277	11306
525.346	10965
525.415	11976
525.484	12166
525.554	12435
525.623	12999
525.692	12246
525.761	12524
525.830	13616
525.900	15681
525.969	19161
526.038	29197
526.107	43683
526.176	130738
526.245	134112
526.314	47900
526.383	69308
526.452	108377
526.522	147009
526.591	195835
526.660	66227
526.729	37958
526.797	35553
526.867	60321
526.935	245939
527.004	421881
527.073	274663
527.142	33562
527.211	16985
527.280	16276
527.349	16264
527.418	10604
527.487	11156
527.555	9990
527.624	10141
527.693	8718
527.762	10812
527.831	9484
527.899	9313
527.968	10226
528.037	9348
528.106	12164
528.174	17779
528.243	16938
528.312	17233
528.380	26711
528.449	12816
528.518	11083
528.586	8651
528.655	10108
528.723	9583
528.792	9318
528.861	9247
528.929	8506
528.998	10499
529.066	9733
529.135	10114
529.203	8789
529.272	8329
529.340	10988
529.409	10050
529.477	9131
529.545	9689
529.614	13192
529.682	11090
529.751	14259
529.819	14254
529.887	12203
529.956	10437
530.024	11635
530.092	9069
530.161	11717
530.229	15519
530.297	12916
530.365	11178
530.434	10426
530.502	9448
530.570	9807
530.638	8567
530.707	10445
530.775	11935
530.843	8925
530.911	10016
530.979	10081
531.047	9730
531.115	10933
531.183	10710
531.252	11363
531.320	10809
531.388	9892
531.456	10325
531.524	8376
531.592	10615
531.660	13049
531.728	9623
531.796	9748
531.864	10180
531.932	11436
532.000	9871
532.067	10866
532.135	12182
532.203	13666
532.271	12393
532.339	17297
532.407	38990
532.475	34425
532.542	17794
532.610	17838
532.678	22244
532.746	61286
532.814	203819
532.881	78457
532.949	16841
533.017	12744
533.084	11366
533.152	10247
533.220	11176
533.287	12254
533.355	10828
533.423	10756
533.490	10960
533.558	10987
533.625	11605
533.693	11222
533.761	12800
533.828	12898
533.896	10897
533.963	17175
534.031	22322
534.098	30337
534.166	20674
534.233	11617
534.300	11928
534.368	12544
534.435	12000
534.503	12274
534.570	12168
534.637	12269
534.705	13515
534.772	14367
534.840	19430
534.907	57377
534.974	98979
535.041	21732
535.109	14982
535.176	11143
535.243	11482
535.310	11622
535.378	10736
535.445	10758
535.512	11729
535.579	11935
535.646	11100
535.714	11202
535.781	13852
535.848	13151
535.915	13976
535.982	12301
536.049	11935
536.116	13918
536.183	11618
536.250	12394
536.317	12008
536.384	13847
536.451	16627
536.518	18873
536.585	14714
536.652	17047
536.719	20617
536.786	18313
536.853	15794
536.920	19403
536.987	28504
537.053	29534
537.120	90319
537.187	119126
537.254	19164
537.321	14026
537.388	14321
537.454	11384
537.521	12105
537.588	11795
537.654	13386
537.721	15504
537.788	15323
537.855	13230
537.921	13948
537.988	12462
538.055	13350
538.121	13455
538.188	13149
538.254	15282
538.321	26724
538.388	23125
538.454	14100
538.521	13855
538.587	12707
538.654	12511
538.720	12371
538.787	13170
538.853	13200
538.920	14283
538.986	15666
539.053	13595
539.119	14121
539.185	14316
539.252	15501
539.318	21263
539.385	20495
539.451	18062
539.517	18187
539.583	19438
539.650	30364
539.716	89819
539.782	40654
539.849	14597
539.915	15257
539.981	14702
540.047	15807
540.114	16574
540.180	15885
540.246	16394
540.312	17984
540.378	27503
540.444	33543
540.510	31410
540.576	96165
540.643	50943
540.709	14733
540.775	14257
540.841	13832
540.907	16400
540.973	21267
541.039	20976
541.105	22853
541.171	16745
541.237	14355
541.303	14958
541.369	17137
541.435	18135
541.500	26045
541.566	21192
541.632	14850
541.698	13322
541.764	13697
541.830	12743
541.896	12846
541.961	14049
542.027	14273
542.093	14539
542.159	15592
542.224	15293
542.290	20106
542.356	25384
542.421	31183
542.487	19023
542.553	15930
542.618	17291
542.684	15768
542.750	16408
542.815	17849
542.881	24439
542.947	73476
543.012	84794
543.078	17700
543.143	14702
543.209	16256
543.274	15916
543.340	18105
543.405	30727
543.471	63331
543.536	22784
543.602	14760
543.667	14443
543.732	15364
543.798	12889
543.863	14737
543.928	13886
543.994	13069
544.059	13193
544.124	15214
544.190	14425
544.255	14813
544.320	15602
544.386	15745
544.451	18984
544.516	21064
544.581	21413
544.646	45363
544.712	97447
544.777	29992
544.842	18466
544.907	18604
544.972	17718
545.037	16768
545.102	18161
545.168	18957
545.233	19672
545.298	20613
545.363	22347
545.428	23045
545.493	30193
545.558	71407
545.623	45123
545.688	19155
545.753	18479
545.818	18883
545.883	19130
545.947	17837
546.012	19587
546.077	19962
546.142	20090
546.207	19774
546.272	22310
546.337	23938
546.401	22039
546.466	21009
546.531	20140
546.596	21856
546.661	22639
546.725	22459
546.790	20951
546.855	22608
546.919	21597
546.984	25041
547.049	25357
547.113	27333
547.178	28765
547.243	31087
547.307	33994
547.372	37361
547.436	39931
547.501	35763
547.565	38614
547.630	38904
547.695	39503
547.759	38065
547.823	38954
547.888	36260
547.952	35789
548.017	38718
548.081	40025
548.146	42838
548.210	42860
548.274	40792
548.339	40911
548.403	38429
548.468	35964
548.532	36255
548.596	36269
548.660	36827
548.725	39492
548.789	42337
548.853	45013
548.917	41412
548.982	41852
549.046	43356
549.110	34817
549.174	34908
549.238	36135
549.303	39050
549.367	40827
549.431	39983
549.495	38632
549.559	37452
549.623	42975
549.687	48328
549.751	53858
549.815	56378
549.879	54285
549.943	49641
550.007	52987
550.071	54092
550.135	54998
550.199	51225
550.263	47163
550.327	46427
550.391	49066
550.455	50782
550.519	50984
550.582	53759
550.646	64764
550.710	69128
550.774	59908
550.838	58687
550.901	60189
550.965	63280
551.029	64093
551.093	69865
551.156	73023
551.220	87754
551.284	104932
551.347	77536
551.411	81006
551.475	92334
551.538	66960
551.602	60899
551.666	57370
551.729	52520
551.793	52168
551.856	52620
551.920	50174
551.983	50872
552.047	50121
552.110	51741
552.174	51242
552.237	52314
552.301	51824
552.364	48293
552.428	48229
552.491	48427
552.554	50350
552.618	50206
552.681	51020
552.745	51014
552.808	60367
552.871	74535
552.934	59801
552.998	50186
553.061	50023
553.124	48679
553.187	47030
553.251	47899
553.314	49509
553.377	47169
553.440	52138
553.503	53958
553.567	58243
553.630	51916
553.693	50122
553.756	50490
553.819	50126
553.882	48946
553.945	49078
554.008	48204
554.071	47904
554.134	50263
554.197	47400
554.260	45914
554.323	48248
554.386	48006
554.449	48791
554.512	50075
554.575	47295
554.638	47595
554.701	47109
554.764	47238
554.827	45286
554.889	43496
554.952	41585
555.015	40461
555.078	40941
555.141	41678
555.203	41057
555.266	40811
555.329	41305
555.391	40107
555.454	39901
555.517	39616
555.580	37297
555.642	34403
555.705	35768
555.768	36719
555.830	36414
555.893	34152
555.955	32658
556.018	33349
556.080	33089
556.143	32822
556.206	32378
556.268	33294
556.330	34088
556.393	33288
556.455	31956
556.518	34508
556.580	36685
556.643	30737
556.705	29774
556.767	28149
556.830	30091
556.892	30074
556.955	35985
557.017	33631
557.079	28735
557.142	26743
557.204	28514
557.266	38569
557.328	40196
557.391	26264
557.453	24642
557.515	24191
557.577	27642
557.639	29206
557.701	25477
557.764	23601
557.826	25051
557.888	26265
557.950	26096
558.012	26952
558.074	30995
558.136	49201
558.198	116255
558.260	64995
558.322	29497
558.384	29193
558.446	31820
558.508	34217
558.570	39648
558.632	51797
558.694	76780
558.756	77615
558.818	165876
558.880	493978
558.942	217857
559.003	123397
559.065	84959
559.127	37230
559.189	35746
559.251	39463
559.312	47376
559.374	86886
559.436	298921
559.498	217386
559.559	42326
559.621	35445
559.683	38019
559.744	53317
559.806	131928
559.868	254755
559.929	72818
559.991	37254
560.052	43966
560.114	105708
560.176	93812
560.237	60001
560.299	116151
560.360	44482
560.422	22930
560.483	21890
560.545	20620
560.606	19629
560.667	19459
560.729	19771
560.790	18649
560.852	18915
560.913	18899
560.974	18617
561.036	18834
561.097	18858
561.158	19526
561.220	20493
561.281	19240
561.342	20563
561.403	22146
561.465	23655
561.526	38337
561.587	59490
561.648	26544
561.709	20369
561.771	20470
561.832	18576
561.893	18943
561.954	19544
562.015	19538
562.076	18940
562.137	19025
562.198	19133
562.259	19435
562.320	19557
562.381	20486
562.442	23860
562.503	24326
562.564	18680
562.625	18965
562.686	18356
562.747	18768
562.808	19726
562.869	17855
562.930	22215
562.991	22468
563.051	21073
563.112	18725
563.173	18545
563.234	18079
563.294	19817
563.355	18647
563.416	20144
563.477	18368
563.537	18670
563.598	19584
563.659	18703
563.720	19298
563.780	19230
563.841	20824
563.901	19017
563.962	19132
564.023	18257
564.083	18691
564.144	19326
564.204	19058
564.265	18136
564.325	20081
564.386	25995
564.446	28175
564.507	18094
564.567	18129
564.628	18539
564.688	18659
564.749	18922
564.809	18806
564.869	20930
564.930	19325
564.990	19808
565.050	18607
565.111	19819
565.171	18566
565.231	18678
565.292	19323
565.352	18262
565.412	19243
565.472	20257
565.532	19738
565.593	18792
565.653	18296
565.713	19336
565.773	20406
565.833	21420
565.893	25759
565.953	20573
566.013	20530
566.074	21342
566.134	22216
566.194	25864
566.254	30410
566.314	25695
566.374	21186
566.434	20885
566.494	21415
566.554	20474
566.614	20931
566.673	21769
566.733	22556
566.793	23959
566.853	24815
566.913	24034
566.973	24642
567.033	25797
567.092	25043
567.152	23833
567.212	24316
567.272	24364
567.331	25171
567.391	25368
567.451	27122
567.511	30153
567.570	31729
567.630	25566
567.690	24879
567.749	24840
567.809	26775
567.868	29345
567.928	31405
567.988	33571
568.047	39727
568.107	45349
568.166	59783
568.226	92763
568.285	135234
568.345	113615
568.404	86730
568.464	71838
568.523	66190
568.582	65812
568.642	71611
568.701	88565
568.761	129547
568.820	216157
568.879	217844
568.939	152301
568.998	108811
569.057	79558
569.116	64390
569.176	52625
569.235	44046
569.294	38983
569.353	35313
569.413	31621
569.472	30923
569.531	26631
569.590	26238
569.649	25783
569.708	24692
569.767	24065
569.827	25684
569.886	25227
569.945	20656
570.004	21378
570.063	21698
570.122	20999
570.181	21728
570.240	21523
570.299	23137
570.358	22953
570.417	20016
570.475	18769
570.534	19263
570.593	19068
570.652	20195
570.711	20316
570.770	18469
570.829	18941
570.887	18834
570.946	19791
571.005	17658
571.064	17524
571.122	19094
571.181	18402
571.240	17782
571.299	16589
571.357	16986
571.416	17506
571.475	18021
571.533	19634
571.592	16741
571.650	17182
571.709	17658
571.768	16725
571.826	17959
571.885	16517
571.943	16907
572.002	15864
572.060	17088
572.119	16241
572.177	16515
572.236	15395
572.294	15508
572.352	15693
572.411	16072
572.469	15897
572.528	15547
572.586	16300
572.644	17053
572.703	21681
572.761	18327
572.819	15461
572.877	15920
572.936	15350
572.994	14699
573.052	14693
573.110	16262
573.169	15692
573.227	14725
573.285	14772
573.343	14976
573.401	15443
573.459	14016
573.517	13466
573.576	14686
573.634	15755
573.692	15632
573.750	14180
573.808	14107
573.866	14515
573.924	16663
573.982	15753
574.040	15310
574.098	13793
574.155	14488
574.213	14984
574.271	12857
574.329	14748
574.387	13601
574.445	13416
574.503	13627
574.560	12933
574.618	13587
574.676	13657
574.734	13463
574.792	13285
574.849	13610
574.907	12246
574.965	13275
575.022	13113
575.080	12941
575.138	13058
575.195	13798
575.253	13293
575.311	14052
575.368	13871
575.426	11806
575.483	13515
575.541	13851
575.598	12729
575.656	13524
575.713	13298
575.771	12862
575.828	12945
575.886	12542
575.943	14143
576.001	14191
576.058	14139
576.115	13326
576.173	15862
576.230	15651
576.287	16932
576.345	15558
576.402	13060
576.459	13736
576.517	13749
576.574	14611
576.631	14520
576.688	13960
576.746	13812
576.803	14223
576.860	13030
576.917	13472
576.974	14448
577.031	13868
577.089	14038
577.146	14235
577.203	13174
577.260	14617
577.317	13170
577.374	15028
577.431	14220
577.488	13573
577.545	13347
577.602	14029
577.659	13020
577.716	13177
577.773	13330
577.830	12626
577.886	12495
577.943	13104
578.000	13150
578.057	13416
578.114	13897
578.171	13181
578.227	13902
578.284	12075
578.341	13565
578.398	12850
578.454	13799
578.511	13710
578.568	14920
578.625	14291
578.681	13324
578.738	13620
578.794	13666
578.851	14016
578.908	14718
578.964	16161
579.021	16098
579.077	14491
579.134	14509
579.190	14091
579.247	13581
579.303	14060
579.360	12970
579.416	14930
579.473	14043
579.529	12805
579.586	13847
579.642	14235
579.698	12445
579.755	14328
579.811	14163
579.867	14837
579.924	13547
579.980	12859
580.036	14014
580.093	13159
580.149	14131
580.205	14160
580.261	13935
580.317	14670
580.374	14051
580.430	15602
580.486	15389
580.542	15076
580.598	14798
580.619	14899
580.654	15093
580.692	15161
580.710	15222
580.765	15103
580.767	15116
580.823	14889
580.838	15014
580.879	15408
580.911	15172
580.935	15033
580.984	15023
580.991	15038
581.047	14703
581.057	14667
581.103	14625
581.130	14908
581.159	15201
581.203	14622
581.215	14489
581.270	14301
581.276	14445
581.326	15937
581.349	15421
581.382	14679
581.422	14797
581.438	14870
581.494	15568
581.494	15555
581.550	15420
581.567	15356
581.606	15244
581.640	15545
581.661	15758
581.713	15801
581.717	15814
581.773	15132
581.786	15062
581.829	14876
581.859	15349
581.885	15766
581.932	16832
581.940	17030
581.996	15886
582.004	15885
582.052	15941
582.077	15591
582.107	15224
582.150	15779
582.163	15946
582.219	15495
582.223	15527
582.274	15939
582.296	16128
582.330	16573
582.368	16531
582.386	16482
582.441	16114
582.441	16118
582.497	16291
582.514	16004
582.552	15572
582.587	15972
582.608	16117
582.659	15860
582.663	15846
582.719	16283
582.732	16163
582.774	15844
582.805	16300
582.830	16708
582.877	16303
582.885	16231
582.941	16234
582.950	16305
582.996	16763
583.023	16991
583.052	17151
583.095	16492
583.107	16331
583.162	16681
583.168	16740
583.218	17199
583.240	16762
583.273	16194
583.313	16108
583.328	16077
583.384	16522
583.385	16532
583.439	16866
583.458	16539
583.494	15866
583.531	16517
583.549	16866
583.603	16588
583.605	16581
583.660	17037
583.676	17112
583.715	17186
583.748	17155
583.770	17181
583.820	17181
583.825	17187
583.881	18231
583.893	17995
583.936	17014
583.965	16639
583.991	16412
584.038	17203
584.046	17320
584.101	16991
584.110	17214
584.156	18224
584.183	18223
584.211	18277
584.255	17500
584.266	17317
584.321	17706
584.328	17646
584.376	17019
584.400	17566
584.431	18227
584.472	17728
584.486	17618
584.541	18605
584.545	18593
584.596	18295
584.617	18501
584.651	18872
584.689	19174
584.706	19268
584.761	19633
584.762	19637
584.816	19566
584.834	19717
584.871	19921
584.906	19939
584.926	20083
584.978	20551
584.980	20557
585.035	20838
585.051	20996
585.090	21540
585.123	22314
585.145	22844
585.195	23650
585.200	23704
585.254	24404
585.267	24492
585.309	24902
585.340	25705
585.364	26455
585.412	28369
585.419	28630
585.473	30534
585.484	31146
585.528	34698
585.556	37823
585.583	44286
585.628	59233
585.637	65472
585.692	118336
585.700	129953
585.747	180214
585.772	166056
585.801	118188
585.845	52761
585.856	44241
585.910	31496
585.917	30489
585.965	29214
585.989	28193
586.019	27380
586.061	27403
586.074	27491
586.128	27863
586.133	27925
586.183	28495
586.205	28694
586.237	28984
586.277	29262
586.292	29385
586.346	29636
586.349	29689
586.401	30428
586.421	30632
586.455	31085
586.493	32236
586.509	33442
586.564	37455
586.565	37617
586.618	47567
586.637	49766
586.672	46550
586.709	39995
586.727	37869
586.781	36778
586.781	36767
586.835	36335
586.853	36093
586.889	36010
586.925	35880
586.944	35620
586.996	36405
586.998	36439
587.052	37567
587.068	38037
587.106	39052
587.140	40188
587.161	40731
587.212	41380
587.215	41398
587.269	43523
587.284	43841
587.323	44766
587.356	45785
587.377	46445
587.427	48360
587.431	48484
587.485	51000
587.499	51520
587.539	52832
587.571	54221
587.593	55473
587.643	58326
587.648	58536
587.702	61206
587.715	62139
587.755	65637
587.786	68097
587.810	69536
587.858	73574
587.864	74191
587.917	80648
587.930	82287
587.971	87960
588.001	92322
588.025	95467
588.073	102734
588.079	103760
588.133	114174
588.145	116908
588.187	127530
588.217	135159
588.241	142330
588.288	158378
588.295	160697
588.348	182615
588.360	188048
588.402	210504
588.431	227189
588.456	243271
588.503	278882
588.510	284713
588.564	337399
588.575	349876
588.617	409370
588.646	455091
588.671	507445
588.718	615909
588.725	639506
588.778	837729
588.789	879477
588.832	1090394
588.861	1222229
588.886	1283488
588.932	1328744
588.939	1311662
588.993	1134400
589.004	1127600
589.047	1262945
589.075	1328553
589.100	1240413
589.147	1004448
589.154	977823
589.207	765277
589.218	725708
589.261	659222
589.290	624494
589.314	630018
589.361	659081
589.368	675331
589.421	830322
589.433	865803
589.475	1066573
589.504	1194879
589.528	1221399
589.576	1201311
589.582	1191582
589.635	1170511
589.647	1159799
589.689	968754
589.718	799179
589.742	686753
589.790	470425
589.795	456671
589.849	345615
589.861	322893
589.902	277967
589.932	246848
589.955	226265
590.004	186952
590.009	184082
590.062	158337
590.075	152464
590.115	138083
590.146	128353
590.168	122860
590.218	110982
590.222	110113
590.275	101809
590.289	99769
590.328	93857
590.360	89596
590.381	86966
590.431	80785
590.435	80449
590.488	76664
590.503	75704
590.541	72621
590.574	70296
590.594	68901
590.645	65392
590.647	65243
590.700	62851
590.716	62168
590.753	60340
590.787	58836
590.806	57913
590.859	55599
590.859	55536
590.912	53748
590.930	53407
590.965	52665
591.001	51610
591.018	51013
591.071	49673
591.072	49682
591.124	49016
591.143	48850
591.177	47633
591.214	46550
591.230	46644
591.283	46892
591.285	46912
591.336	45963
591.356	45664
591.389	45271
591.427	44741
591.442	44307
591.495	42786
591.498	42688
591.547	41666
591.569	41192
591.600	40491
591.640	39560
591.653	39388
591.706	38879
591.711	38828
591.759	39613
591.782	40025
591.811	40791
591.853	42013
591.864	41571
591.917	39248
591.924	38889
591.969	38525
591.995	38387
592.022	38073
592.066	37602
592.075	37933
592.127	39907
592.137	40286
592.180	41841
592.208	42764
592.233	41153
592.279	38004
592.285	37766
592.338	35775
592.350	35315
592.390	35057
592.421	34897
592.443	35090
592.491	35495
592.495	35451
592.548	34827
592.562	34654
592.600	34802
592.633	34933
592.653	34684
592.704	33844
592.705	34026
592.775	33447
592.846	34947
592.916	34711
592.987	35117
593.058	35382
593.128	33731
593.199	32925
593.270	32462
593.341	32052
593.411	32316
593.482	32628
593.553	32745
593.623	32335
593.694	32067
593.764	33586
593.835	32554
593.906	31653
593.976	32171
594.047	33393
594.117	36588
594.188	38052
594.258	31992
594.329	32054
594.399	31781
594.470	32500
594.540	32148
594.611	32255
594.681	32026
594.751	32622
594.822	34090
594.892	34207
594.963	35153
595.033	34504
595.103	35473
595.174	36373
595.244	43651
595.314	51267
595.384	37389
595.455	34802
595.525	37433
595.595	37707
595.665	37617
595.736	37325
595.806	36415
595.876	36942
595.946	36337
596.016	36804
596.087	37448
596.157	38316
596.227	38390
596.297	39112
596.367	41113
596.437	43523
596.507	47299
596.577	56566
596.647	45668
596.717	43164
596.787	44115
596.857	43506
596.927	44248
596.997	43961
597.067	44530
597.137	44114
597.207	46719
597.277	45608
597.347	44602
597.417	44903
597.487	44790
597.557	44785
597.626	45494
597.696	47869
597.766	50020
597.836	54546
597.906	46211
597.975	40449
598.045	41177
598.115	42401
598.185	43219
598.254	47285
598.324	51887
598.394	51814
598.464	51014
598.533	47862
598.603	46012
598.672	45668
598.742	46926
598.812	46018
598.881	47338
598.951	46492
599.020	46764
599.090	47071
599.159	47793
599.229	47437
599.299	46131
599.368	46580
599.437	46014
599.507	44315
599.576	43277
599.646	43144
599.715	42116
599.785	42168
599.854	42414
599.924	44075
599.993	42843
600.062	41119
600.132	42692
600.201	43356
600.270	49796
600.340	50496
600.409	49846
600.478	47734
600.547	49824
600.617	49011
600.686	40641
600.755	38575
600.824	38292
600.894	36315
600.963	35897
601.032	36016
601.101	34261
601.170	34192
601.239	33425
601.308	34451
601.378	34530
601.447	33087
601.516	33523
601.585	35599
601.654	36181
601.723	35399
601.792	34207
601.861	37060
601.930	38624
601.999	39714
602.068	37368
602.137	38071
602.206	38839
602.275	37871
602.343	40499
602.412	41546
602.481	38788
602.550	38542
602.619	38102
602.688	39767
602.756	39693
602.825	39112
602.894	40150
602.963	40360
603.032	40256
603.100	39493
603.169	40622
603.238	41150
603.307	41028
603.375	40665
603.444	41383
603.513	41745
603.581	41150
603.650	41669
603.719	41549
603.787	41297
603.856	42988
603.924	43857
603.993	45803
604.061	45287
604.130	47612
604.198	48343
604.267	49021
604.335	48702
604.404	49185
604.472	50427
604.541	50646
604.609	51331
604.678	51030
604.746	51024
604.815	52353
604.883	54121
604.951	54157
605.020	52385
605.088	53973
605.156	54912
605.225	55708
605.293	55625
605.361	55629
605.429	56026
605.498	57096
605.566	58851
605.634	60775
605.702	62492
605.771	62892
605.839	64830
605.907	64006
605.975	61148
606.043	60058
606.111	59480
606.180	59309
606.248	58416
606.316	59326
606.384	60107
606.452	63275
606.520	65644
606.588	62412
606.656	60533
606.724	59101
606.792	56014
606.860	51455
606.928	47278
606.996	45891
607.064	44480
607.132	46147
607.200	48408
607.267	49865
607.335	50273
607.403	51222
607.471	51382
607.539	48444
607.607	47880
607.674	43981
607.742	44090
607.810	44792
607.878	44096
607.946	44463
608.013	46118
608.081	48255
608.149	48244
608.216	48079
608.284	49954
608.352	50310
608.419	50285
608.487	55065
608.555	50785
608.622	48817
608.690	52771
608.757	56689
608.825	58432
608.893	58370
608.960	57351
609.028	58873
609.095	58312
609.163	53423
609.230	48736
609.298	44110
609.365	45565
609.432	48341
609.500	51606
609.567	59035
609.635	66501
609.702	69333
609.769	68301
609.837	57282
609.904	50122
609.971	50491
610.039	60281
610.106	77450
610.173	144974
610.241	340340
610.308	319317
610.375	178693
610.442	70344
610.509	53581
610.577	50722
610.644	50188
610.711	49857
610.778	51168
610.845	52956
610.912	55543
610.980	57456
611.047	58212
611.114	57636
611.181	55729
611.248	54620
611.315	58583
611.382	57311
611.449	60842
611.516	61503
611.583	61040
611.650	61095
611.717	62583
611.784	63375
611.851	67933
611.918	73358
611.984	84740
612.051	120965
612.118	241574
612.185	606880
612.252	442916
612.319	105142
612.386	80640
612.452	73530
612.519	71448
612.586	75757
612.653	72217
612.719	71180
612.786	69037
612.853	63992
612.919	61436
612.986	63004
613.053	59463
613.120	56109
613.186	54660
613.253	56707
613.319	55342
613.386	55593
613.453	56833
613.519	59258
613.586	61568
613.652	72024
613.719	66637
613.785	64128
613.852	57566
613.918	56360
613.985	56866
614.051	57771
614.118	60079
614.184	58402
614.250	55704
614.317	57897
614.383	55850
614.449	57215
614.516	56605
614.582	58823
614.648	57724
614.715	55982
614.781	56191
614.847	55643
614.914	55362
614.980	56266
615.046	53941
615.112	56193
615.179	56741
615.245	56896
615.311	61566
615.377	75455
615.443	79172
615.509	64831
615.575	61665
615.642	59032
615.708	61637
615.774	66412
615.840	72592
615.906	82829
615.972	107142
616.038	177539
616.104	329079
616.170	727537
616.236	717200
616.302	158373
616.368	105866
616.434	80947
616.500	73452
616.565	78413
616.631	95359
616.697	81217
616.763	79079
616.829	111776
616.895	197718
616.961	200791
617.026	91444
617.092	63670
617.158	60716
617.224	59271
617.289	56272
617.355	54416
617.421	52566
617.487	53467
617.552	52168
617.618	49703
617.684	50567
617.749	51428
617.815	48477
617.880	47531
617.946	47109
618.012	48673
618.077	49588
618.143	47525
618.208	47534
618.274	50929
618.339	52553
618.405	45394
618.470	44124
618.536	45156
618.601	46321
618.667	43635
618.732	41280
618.798	40674
618.863	40757
618.928	40939
618.994	41824
619.059	43623
619.124	51830
619.190	45276
619.255	41132
619.320	41412
619.386	40671
619.451	39534
619.516	38907
619.581	38924
619.647	39965
619.712	40075
619.777	39080
619.842	39584
619.907	41085
619.972	39797
620.038	40913
620.103	38379
620.168	39144
620.233	39097
620.298	39816
620.363	39097
620.428	40370
620.493	40384
620.558	41141
620.623	41670
620.688	42285
620.753	40318
620.818	41551
620.883	41314
620.948	42181
621.013	41005
621.078	41343
621.143	41278
621.207	45006
621.272	42927
621.337	43446
621.402	44247
621.467	47153
621.532	49556
621.596	44979
621.661	42476
621.726	41141
621.791	42365
621.855	44063
621.920	43702
621.985	43966
622.049	46786
622.114	45155
622.179	44871
622.243	45279
622.308	46239
622.373	47599
622.437	47684
622.502	43319
622.566	43639
622.631	43645
622.695	44210
622.760	45212
622.824	44385
622.889	45210
622.953	47330
623.018	56774
623.082	57709
623.147	46359
623.211	45612
623.276	45919
623.340	43523
623.404	41529
623.469	41309
623.533	40897
623.597	40901
623.662	40287
623.726	39006
623.790	37076
623.854	37411
623.919	37952
623.983	37114
624.047	38953
624.111	38299
624.176	38921
624.240	41526
624.304	44982
624.368	38340
624.432	39413
624.496	38875
624.560	42883
624.625	44680
624.689	41658
624.753	40886
624.817	39663
624.881	39474
624.945	36776
625.009	35140
625.073	37700
625.137	39187
625.201	45191
625.265	43542
625.329	37910
625.393	39682
625.456	39102
625.520	39433
625.584	41113
625.648	46193
625.712	54341
625.776	92069
625.839	106581
625.903	55639
625.967	36667
626.031	48033
626.095	69807
626.158	41811
626.222	30541
626.286	28726
626.349	28046
626.413	26653
626.477	29552
626.540	27835
626.604	27029
626.668	26992
626.731	26685
626.795	26213
626.858	27260
626.922	25797
626.986	26135
627.049	24955
627.113	26658
627.176	25816
627.240	25242
627.303	24728
627.366	25258
627.430	26088
627.493	24980
627.557	24476
627.620	25364
627.684	24431
627.747	26051
627.810	23518
627.874	22972
627.937	20963
628.000	24626
628.064	22120
628.127	19924
628.190	21252
628.253	20670
628.317	19946
628.380	20700
628.443	18991
628.506	20767
628.569	18291
628.632	17773
628.696	18240
628.759	17296
628.822	17310
628.885	17226
628.948	17980
629.011	17308
629.074	17821
629.137	16769
629.200	16484
629.263	18071
629.326	15680
629.389	16444
629.452	16230
629.515	17265
629.578	15940
629.641	17368
629.704	16750
629.767	16748
629.830	15937
629.892	15689
629.955	15417
630.018	17072
630.081	17337
630.144	20749
630.207	16471
630.269	17348
630.332	17038
630.395	16330
630.458	14973
630.520	13783
630.583	14936
630.646	14338
630.708	14579
630.771	13954
630.834	14661
630.896	14223
630.959	14710
631.021	13658
631.084	14337
631.146	15018
631.209	16243
631.272	13981
631.334	14737
631.397	14005
631.459	13848
631.522	15502
631.584	15667
631.646	16649
631.709	16691
631.771	20061
631.834	17297
631.896	15357
631.958	12946
632.021	14265
632.083	13856
632.145	13880
632.208	13905
632.270	15348
632.332	12734
632.395	12047
632.457	13742
632.519	13344
632.581	13445
632.643	12690
632.706	12971
632.768	12920
632.830	12823
632.892	13319
632.954	12730
633.016	13813
633.078	13005
633.141	13524
633.203	12476
633.265	12754
633.327	12597
633.389	12960
633.451	13711
633.513	16294
633.575	14940
633.637	16546
633.698	14988
633.760	13546
633.822	12822
633.884	12856
633.946	12784
634.008	13094
634.070	13845
634.132	14109
634.193	14391
634.255	15236
634.317	15968
634.379	16366
634.441	14212
634.502	13544
634.564	12609
634.626	12375
634.687	12949
634.749	11590
634.811	12091
634.873	11625
634.934	12272
634.996	12479
635.057	12040
635.119	11250
635.181	11818
635.242	12732
635.304	10498
635.365	13768
635.427	12215
635.488	11729
635.550	11507
635.611	12451
635.673	11113
635.734	13929
635.796	12544
635.857	14436
635.918	13115
635.980	15821
636.041	15173
636.102	15527
636.164	16078
636.225	15844
636.286	12762
636.348	14112
636.409	12481
636.470	11626
636.531	12203
636.593	12964
636.654	12754
636.715	11216
636.776	10541
636.838	10015
636.899	10561
636.960	10538
637.021	10650
637.082	10570
637.143	10439
637.204	9217
637.265	9354
637.326	10437
637.387	10401
637.448	9010
637.509	10111
637.570	9567
637.631	10317
637.692	9188
637.753	9033
637.814	9390
637.875	9109
637.936	10445
637.997	9300
638.058	9603
638.119	9833
638.179	9231
638.240	9389
638.301	10003
638.362	8567
638.423	8669
638.483	9831
638.544	7957
638.605	9588
638.666	8492
638.726	9760
638.787	9692
638.848	8472
638.908	8338
638.969	8943
639.030	9339
639.090	7752
639.151	8771
639.211	8991
639.272	12022
639.332	17328
639.393	13394
639.453	9416
639.514	9187
639.574	8912
639.635	8538
639.695	9212
639.756	8222
639.816	8600
639.877	10072
639.937	15109
639.997	20721
640.058	10329
640.118	7916
640.178	8118
640.239	7986
640.299	8531
640.359	8251
640.420	8018
640.480	9062
640.540	9164
640.600	9340
640.661	8797
640.721	7767
640.781	10814
640.841	8313
640.901	8940
640.961	7886
641.021	9445
641.082	10140
641.142	13198
641.202	10750
641.262	6771
641.322	8601
641.382	6113
641.442	7379
641.502	6353
641.562	8007
641.622	7371
641.682	7993
641.742	8872
641.802	8713
641.861	8891
641.921	8706
641.981	9535
642.041	8573
642.101	10470
642.161	7948
642.221	6585
642.280	6978
642.340	6674
642.400	6498
642.460	7400
642.519	6781
642.579	6257
642.639	8541
642.698	5693
642.758	8854
642.818	7374
642.877	7000
642.937	7484
642.997	9972
643.056	12159
643.116	8430
643.175	8872
643.235	7672
643.294	7224
643.354	8530
643.414	8882
643.473	10803
643.532	12052
643.592	15874
643.651	24376
643.711	42529
643.770	82542
643.830	191867
643.889	476153
643.948	142065
644.008	20880
644.067	12963
644.126	9049
644.186	8905
644.245	8854
644.304	7046
644.363	9487
644.423	6898
644.482	7840
644.541	7003
644.600	6286
644.659	9830
644.719	9348
644.778	15035
644.837	21928
644.896	45128
644.955	110585
645.014	47715
645.073	11052
645.132	7789
645.191	8656
645.250	6701
645.309	9137
645.368	7610
645.427	10000
645.486	13429
645.545	24747
645.604	10595
645.663	7276
645.722	5928
645.781	8332
645.840	9140
645.898	10916
645.957	15050
646.016	22127
646.075	39577
646.134	77316
646.192	195292
646.251	354098
646.310	61607
646.369	14960
646.427	11982
646.486	8365
646.545	7669
646.603	8084
646.662	6996
646.721	6235
646.779	6134
646.838	5483
646.896	8623
646.955	10493
647.014	15235
647.072	24469
647.131	66276
647.189	41546
647.248	6752
647.306	6211
647.365	6801
647.423	4454
647.481	6713
647.540	4323
647.598	5411
647.657	4148
647.715	5406
647.773	4518
647.832	5209
647.890	4268
647.948	5227
648.007	4528
648.065	4020
648.123	4945
648.181	6254
648.240	4981
648.298	3902
648.356	4242
648.414	5157
648.472	5359
648.531	5747
648.589	4937
648.647	3577
648.705	4234
648.763	4416
648.821	4364
648.879	5407
648.937	5789
648.995	7711
649.053	7419
649.111	11917
649.169	17804
649.227	31707
649.285	61075
649.343	186910
649.401	117964
649.459	27186
649.516	18005
649.574	6237
649.632	8508
649.690	8480
649.748	8871
649.806	9757
649.863	17720
649.921	45684
649.979	37219
650.037	7749
650.094	3611
650.152	4765
650.210	4011
650.268	4919
650.325	4472
650.383	3960
650.440	3065
650.498	4514
650.556	4048
650.613	3860
650.671	4057
650.728	4345
650.786	4367
650.843	5277
650.901	3144
650.958	4559
651.016	3426
651.073	3875
651.131	3284
651.188	2203
651.246	4596
651.303	2853
651.360	3593
651.418	3108
651.475	4124
651.532	3182
651.590	4319
651.647	2577
651.704	3358
651.762	3268
651.819	3766
651.876	2973
651.933	2951
651.990	3601
652.048	2991
652.105	3220
652.162	3439
652.219	3188
652.276	4077
652.333	3721
652.390	2433
652.448	3067
652.505	3187
652.562	2753
652.619	2224
652.676	2826
652.733	3861
652.790	3075
652.847	1855
652.904	3797
652.961	2644
653.017	3381
653.074	3389
653.131	4069
653.188	2593
653.245	3499
653.302	3130
653.359	2719
653.415	3264
653.472	3479
653.529	3585
653.586	2842
653.642	3149
653.699	3698
653.756	2324
653.813	3042
653.869	3607
653.926	2229
653.983	1826
654.039	3243
654.096	2791
654.152	4002
654.209	1767
654.266	3880
654.322	2540
654.379	3907
654.435	4322
654.492	4688
654.548	5217
654.605	8502
654.661	5097
654.717	2673
654.774	3352
654.830	3111
654.887	2902
654.943	3533
655.000	2764
655.056	3577
655.112	3169
655.168	2205
655.225	3690
655.281	3524
655.337	4092
655.394	7310
655.450	5014
655.506	4879
655.562	7056
655.618	7914
655.675	2138
655.731	4010
655.787	2402
655.843	3424
655.899	1821
655.955	3440
656.011	2840
656.067	1209
656.123	2627
656.179	3583
656.235	3330
656.291	2057
656.347	3610
656.403	2161
656.459	3387
656.515	4165
656.571	3729
656.627	4052
656.683	2788
656.739	3791
656.795	2658
656.850	3812
656.906	3631
656.962	3384
657.018	2570
657.074	2934
657.129	3905
657.185	4610
657.241	7454
657.297	6412
657.352	2799
657.408	2417
657.464	4593
657.519	2772
657.575	2053
657.630	2125
657.686	2742
657.742	2381
657.797	2222
657.853	2599
657.908	2949
657.964	2618
658.019	2460
658.075	3296
658.130	2792
658.186	1792
658.241	2706
658.297	2051
658.352	2155
658.407	3330
658.463	2350
658.518	2741
658.573	3713
658.629	2405
658.684	2481
658.739	3523
658.795	2222
658.850	2022
658.905	2008
658.960	2244
659.016	2129
659.071	2171
659.126	3262
659.181	2856
659.236	5519
659.291	7029
659.346	3464
659.401	3554
659.457	3686
659.512	2447
659.567	3697
659.622	2834
659.677	3101
659.732	1504
659.787	2449
659.842	2883
659.897	3892
659.952	3486
660.007	3247
660.061	1905
660.116	1895
660.171	1962
660.226	2745
660.281	3189
660.336	1448
660.391	2221
660.445	1858
660.500	3485
660.555	2436
660.610	2231
660.664	2611
660.719	2389
660.774	2973
660.828	3466
660.883	2628
660.938	2737
660.992	2075
661.047	2436
661.101	1670
661.156	2401
661.211	1584
661.265	2261
661.320	1997
661.374	2709
661.429	3096
661.483	3094
661.538	1632
661.592	2096
661.647	2137
661.701	2121
661.755	2397
661.810	2665
661.864	1046
661.919	2577
661.973	2092
662.027	2337
662.081	1885
662.136	2838
662.190	1933
662.244	2500
662.299	2587
662.353	2160
662.407	2018
662.461	2451
662.515	3002
662.569	2419
662.624	3015
662.678	2763
662.732	2153
662.786	2672
662.840	2449
662.894	3601
662.948	1529
663.002	2408
663.056	2749
663.110	2034
663.164	2431
663.218	2149
663.272	2742
663.326	3430
663.380	2910
663.434	2535
663.488	1709
663.542	2483
663.595	2386
663.649	1926
663.703	2312
663.757	1893
663.811	1694
663.864	2043
663.918	2564
663.972	2283
664.026	2040
664.079	2342
664.133	3083
664.187	1807
664.240	2162
664.294	2697
664.348	2173
664.401	2838
664.455	2594
664.508	2263
664.562	2571
664.615	2243
664.669	1713
664.722	1785
664.776	1633
664.829	2615
664.883	2589
664.936	1773
664.990	2682
665.043	2461
665.097	1949
665.150	3915
665.203	1737
665.257	2456
665.310	2826
665.363	2507
665.417	3084
665.470	2432
665.523	3114
665.576	2930
665.630	2509
665.683	2936
665.736	2215
665.789	2671
665.842	2486
665.895	2536
665.949	2886
666.002	2334
666.055	1832
666.108	2844
666.161	2527
666.214	3490
666.267	2662
666.320	3699
666.373	3114
666.426	2703
666.479	2483
666.532	3442
666.585	3610
666.638	4042
666.691	3215
666.744	4050
666.796	2631
666.849	2542
666.902	3101
666.955	3224
667.008	1966
667.060	1711
667.113	1395
667.166	3026
667.219	2554
667.271	2862
667.324	3125
667.377	2382
667.430	2276
667.482	2264
667.535	1952
667.587	3729
667.640	3300
667.693	3574
667.745	5053
667.798	7871
667.850	2881
667.903	3668
667.955	2427
668.008	3269
668.060	2483
668.113	3145
668.165	3522
668.218	3726
668.270	3643
668.322	2814
668.375	3015
668.427	3145
668.479	2415
668.532	2958
668.584	2874
668.636	3179
668.689	2982
668.741	2195
668.793	3330
668.845	2420
668.898	2652
668.950	3065
669.002	2315
669.054	3279
669.106	2344
669.158	3230
669.211	2307
669.263	2698
669.315	3395
669.367	3443
669.419	3200
669.471	4480
669.523	4387
669.575	4954
669.627	3795
669.679	2839
669.731	4225
669.783	4284
669.835	4266
669.886	3543
669.938	4161
669.990	4006
670.042	4005
670.094	4617
670.146	4133
670.197	7121
670.249	7651
670.301	9563
670.353	13012
670.404	17964
670.456	25563
670.508	39202
670.560	60994
670.611	99859
670.663	164318
670.715	339588
670.766	552737
670.818	287522
670.869	68279
670.921	28173
670.972	18485
671.024	13874
671.075	9905
671.127	8388
671.178	7076
671.230	6960
671.281	5635
671.333	5794
671.384	5522
671.436	4968
671.487	6551
671.538	6609
671.590	8906
671.641	10778
671.692	17930
671.744	32300
671.795	24548
671.846	9378
671.897	4748
671.949	5036
672.000	3563
672.051	3730
672.102	3663
672.153	2951
672.204	3934
672.256	3639
672.307	2714
672.358	3605
672.409	3633
672.460	3050
672.511	2662
672.562	2153
672.613	2733
672.664	3189
672.715	2800
672.766	2153
672.817	2611
672.868	2628
672.919	3126
672.970	2380
673.021	3486
673.071	1952
673.122	3067
673.173	3036
673.224	2123
673.275	2328
673.326	2208
673.376	3052
673.427	1995
673.478	2553
673.528	2350
673.579	2276
673.630	1985
673.680	3080
673.731	2149
673.782	2367
673.832	2845
673.883	3020
673.934	2332
673.984	2214
674.035	1699
674.085	2849
674.136	2646
674.186	3356
674.237	3315
674.287	4920
674.338	3479
674.388	2631
674.438	1666
674.489	2861
674.539	2485
674.589	2679
674.640	2456
674.690	2685
674.740	2266
674.791	2854
674.841	2645
674.891	2630
674.942	2335
674.992	2255
675.042	2099
675.092	2015
675.142	2107
675.193	2029
675.243	1504
675.293	2449
675.343	2016
675.393	2100
675.443	2805
675.493	2290
675.543	1660
675.593	1806
675.643	2082
675.693	2463
675.743	2361
675.793	3012
675.843	1533
675.893	2474
675.943	1556
675.993	2290
676.043	2625
676.093	1896
676.142	1825
676.192	1760
676.242	2240
676.292	1320
676.341	1287
676.391	2300
676.441	1733
676.491	1646
676.540	1538
676.590	1972
676.640	2450
676.689	2299
676.739	1066
676.789	1729
676.838	1747
676.888	1864
676.937	1120
676.987	1803
677.037	1598
677.086	1017
677.136	1515
677.185	2272
677.235	1355
677.284	1481
677.333	1670
677.383	2699
677.432	1443
677.482	1022
677.531	2607
677.580	2063
677.630	2110
677.679	1197
677.728	1524
677.778	1705
677.827	862
677.876	1847
677.925	1250
677.975	1718
678.024	1719
678.073	1876
678.122	1408
678.171	2269
678.220	1446
678.269	2328
678.319	2400
678.368	2358
678.417	1928
678.466	1830
678.515	1770
678.564	2532
678.613	1078
678.662	1328
678.711	1578
678.760	1470
678.809	1305
678.857	1819
678.906	1623
678.955	577
679.004	923
679.053	1866
679.102	1644
679.151	1872
679.199	1480
679.248	1270
679.297	2134
679.346	1516
679.394	1137
679.443	1450
679.492	1602
679.540	1580
679.589	1932
679.638	1780
679.686	1642
679.735	1178
679.784	2002
679.832	1280
679.881	1489
679.929	1843
679.978	1009
680.026	1882
680.075	1526
680.123	1545
680.172	1145
680.220	971
680.268	352
680.317	1100
680.365	646
680.414	1298
680.462	1481
680.510	1744
680.559	800
680.607	995
680.655	862
680.703	1580
680.752	1500
680.800	1058
680.848	826
680.896	618
680.945	1035
680.993	1063
681.041	509
681.089	1629
681.137	1601
681.185	1708
681.233	1465
681.258	1375
681.281	1279
681.329	912
681.377	1447
681.380	1443
681.425	1157
681.473	1447
681.502	1324
681.521	1212
681.569	1809
681.617	1310
681.624	1363
681.665	1627
681.713	1178
681.745	1301
681.761	1339
681.809	1719
681.857	1780
681.867	1638
681.904	1109
681.952	1013
681.989	606
682.000	470
682.048	1376
682.096	1459
682.111	1325
682.143	1006
682.191	2068
682.233	1887
682.239	1845
682.286	1415
682.334	345
682.354	613
682.382	959
682.430	1656
682.476	1217
682.477	1197
682.525	1629
682.572	733
682.598	1045
682.620	1311
682.667	1504
682.715	2021
682.720	2025
682.763	1937
682.810	2196
682.841	1809
682.857	1594
682.905	1636
682.952	1812
682.963	1907
683.000	2185
683.047	1682
683.085	2128
683.095	2240
683.142	1735
683.190	1404
683.206	1473
683.237	1564
683.284	2598
683.328	1340
683.332	1225
683.379	1866
683.426	1912
683.449	1745
683.473	1594
683.521	1904
683.568	1586
683.571	1627
683.615	1995
683.662	2245
683.693	2035
683.709	1893
683.757	1419
683.804	2181
683.814	2218
683.851	2404
683.898	1947
683.936	2055
683.945	2053
683.992	2198
684.039	2927
684.057	2631
684.086	2193
684.133	2584
684.179	2848
684.180	2843
684.227	2816
684.274	2056
684.300	2188
684.321	2327
684.368	2001
684.415	2798
684.422	2672
684.462	1851
684.509	1993
684.543	2430
684.556	2573
684.603	2161
684.649	2626
684.665	2645
684.696	2654
684.743	2235
684.786	2436
684.790	2460
684.837	2384
684.883	3014
684.908	2938
684.930	2798
684.977	3359
685.023	2660
685.029	2670
685.070	2616
685.117	2678
685.150	2920
685.164	3041
685.210	2733
685.257	3299
685.272	3274
685.303	3233
685.350	3129
685.393	2872
685.396	2846
685.443	3776
685.490	3919
685.514	3570
685.536	3210
685.583	4042
685.629	3599
685.636	3585
685.675	3443
685.722	3733
685.757	3180
685.768	2999
685.815	3166
685.861	3185
685.878	3437
685.908	3966
685.954	3649
686.000	4105
686.000	4108
686.047	3740
686.093	4229
686.121	4230
686.139	4180
686.185	4041
686.232	3980
686.242	3907
686.278	3586
686.324	3110
686.363	3483
686.370	3562
686.416	3589
686.463	2830
686.484	2871
686.509	2947
686.555	3277
686.601	3485
686.606	3527
686.647	3782
686.693	2937
686.727	3222
686.739	3377
686.785	3743
686.831	3519
686.848	3553
686.877	3505
686.923	3157
686.969	2890
686.969	2888
687.015	3564
687.061	3569
687.090	3830
687.107	3977
687.153	4013
687.199	3643
687.211	3497
687.245	3151
687.291	3439
687.332	3646
687.336	3659
687.382	3750
687.428	4134
687.453	3802
687.474	3507
687.520	3446
687.565	3255
687.574	3240
687.611	3322
687.657	3678
687.695	3295
687.702	3222
687.748	3609
687.794	3600
687.816	3699
687.839	3793
687.885	3871
687.931	3418
687.937	3453
687.976	3664
688.022	3630
688.058	3748
688.067	3780
688.113	3882
688.158	4188
688.179	4278
688.204	4315
688.249	3877
688.295	4022
688.300	4009
688.340	4195
688.386	4602
688.421	4489
688.431	4384
688.477	3926
688.522	4165
688.542	4023
688.567	3998
688.613	3869
688.658	4113
688.663	4122
688.703	4109
688.749	4268
688.784	4262
688.794	4251
688.839	4238
688.884	3908
688.905	4009
688.930	4200
688.975	3810
689.020	4184
689.026	4171
689.065	4041
689.110	3790
689.146	3535
689.155	3520
689.201	4209
689.246	3799
689.267	4051
689.291	4263
689.336	4555
689.381	4483
689.388	4471
689.426	4362
689.471	4310
689.509	4016
689.516	3994
689.561	4355
689.606	4655
689.630	4457
689.651	4195
689.696	4212
689.741	4100
689.750	4083
689.785	4184
689.830	4546
689.871	4099
689.875	4047
689.920	3915
689.965	4291
689.992	3969
690.010	3798
690.054	4164
690.099	4017
690.112	4058
690.144	4245
690.189	4208
690.233	3972
690.233	3977
690.278	4432
690.323	4126
690.354	4439
690.367	4569
690.412	4580
690.457	4542
690.474	4540
690.501	4464
690.546	3856
690.590	4084
690.595	4064
690.635	4148
690.680	3690
690.716	3676
690.724	3685
690.769	4078
690.813	4472
690.836	4088
690.857	3796
690.902	4365
690.946	4387
690.957	4444
690.991	4564
691.035	4763
691.077	4846
691.080	4857
691.124	4766
691.168	4765
691.198	4658
691.213	4662
691.257	4922
691.301	4995
691.318	4983
691.346	4797
691.390	4677
691.434	4468
691.439	4389
691.478	4084
691.522	4995
691.559	4648
691.567	4598
691.611	4859
691.655	4799
691.680	4938
691.699	5055
691.743	5071
691.787	5012
691.800	5091
691.831	5249
691.875	5484
691.919	5620
691.921	5607
691.964	5342
692.008	5164
692.041	4806
692.052	4802
692.096	4979
692.139	5250
692.162	5296
692.183	5204
692.227	5334
692.271	4934
692.282	4914
692.315	5035
692.359	5308
692.402	5186
692.403	5194
692.447	4981
692.490	5031
692.523	4611
692.534	4586
692.578	5164
692.622	5204
692.643	5282
692.666	5277
692.709	5333
692.753	5485
692.763	5358
692.797	4949
692.840	5120
692.884	5195
692.884	5209
692.928	5203
692.971	5606
693.004	5547
693.015	5494
693.059	5389
693.102	5226
693.124	5303
693.146	5347
693.189	5131
693.233	4881
693.245	4915
693.276	5339
693.320	5470
693.363	5543
693.365	5537
693.407	5414
693.450	5322
693.485	5245
693.493	5268
693.537	5417
693.580	5433
693.605	5317
693.624	5233
693.667	5329
693.710	5349
693.725	5341
693.753	5723
693.797	6467
693.840	6848
693.845	6892
693.883	6564
693.926	6253
693.966	5992
693.970	5973
694.013	5518
694.056	5198
694.086	4760
694.099	4771
694.142	4971
694.185	5407
694.206	5463
694.229	5480
694.272	5510
694.315	5598
694.326	5582
694.358	5863
694.401	6080
694.444	6772
694.446	6772
694.487	6733
694.530	6868
694.566	6845
694.573	6765
694.616	5957
694.659	5653
694.686	5250
694.702	5255
694.745	5287
694.787	5202
694.806	5226
694.830	5253
694.873	5259
694.916	5247
694.926	5175
694.959	5100
695.002	5293
695.044	5388
695.046	5373
695.087	5416
695.130	5372
695.166	5606
695.172	5697
695.215	5909
695.258	6367
695.286	6452
695.301	6323
695.343	6238
695.386	6040
695.406	5800
695.428	5644
695.471	5562
695.514	5462
695.526	5399
695.556	5543
695.599	5842
695.641	5997
695.646	6007
695.684	5902
695.726	5740
695.766	5468
695.769	5501
695.811	5882
695.854	6272
695.886	6493
695.896	6426
695.938	6100
695.981	5795
696.005	5640
696.023	5715
696.065	5682
696.108	5795
696.125	5744
696.150	5823
696.192	6213
696.235	6417
696.245	6480
696.277	6472
696.319	6292
696.361	6261
696.365	6235
696.404	6464
696.446	6684
696.485	6741
696.488	6764
696.530	7055
696.572	7072
696.604	7137
696.614	7063
696.656	6822
696.698	6544
696.724	6238
696.740	6235
696.783	6380
696.825	6413
696.844	6394
696.867	6452
696.909	6557
696.951	6677
696.964	6724
696.992	6590
697.034	6286
697.076	5863
697.083	5786
697.118	6061
697.160	6465
697.202	6789
697.203	6779
697.244	6634
697.286	6491
697.323	6278
697.327	6317
697.369	6528
697.411	6770
697.442	6865
697.453	6840
697.494	6702
697.536	6552
697.562	6481
697.578	6637
697.620	6943
697.661	7326
697.682	7431
697.703	7343
697.744	7224
697.786	7131
697.801	7068
697.828	7330
697.869	7588
697.911	7915
697.921	7992
697.952	7684
697.994	7166
698.035	6695
698.040	6608
698.077	6403
698.118	6233
698.160	6027
698.160	6006
698.201	6415
698.243	6761
698.279	7053
698.284	7057
698.325	6911
698.367	6735
698.399	6621
698.408	6684
698.449	6824
698.491	7021
698.518	7111
698.532	7180
698.573	7346
698.614	7533
698.638	7585
698.656	7430
698.697	7063
698.738	6685
698.757	6480
698.779	6616
698.820	6857
698.862	7090
698.877	7158
698.903	7246
698.944	7354
698.985	7461
698.996	7472
699.026	7416
699.067	7308
699.116	7162
699.235	6710
699.354	7233
699.474	6499
699.593	6958
699.713	7925
699.832	7492
699.951	7856
700.070	6878
700.190	6622
700.309	7428
700.428	6675
700.547	7274
700.667	6067
700.786	6679
700.905	6658
701.024	7488
701.143	6597
701.262	6730
701.381	6616
701.500	6521
701.619	7611
701.738	6983
701.857	6305
701.976	6662
702.095	6193
702.214	6831
702.333	7530
702.452	6910
702.571	6220
702.690	6620
702.809	6142
702.928	6233
703.047	5987
703.165	6569
703.284	5621
703.403	6179
703.522	6824
703.640	6490
703.759	7124
703.878	8495
703.997	6800
704.115	6215
704.234	6395
704.353	6012
704.471	5416
704.590	5882
704.708	5072
704.827	5165
704.946	6154
705.064	5702
705.183	5259
705.301	6483
705.420	9176
705.538	8180
705.656	6537
705.775	6768
705.893	6942
706.012	7129
706.130	6765
706.249	7352
706.367	7099
706.485	7066
706.604	6800
706.722	6994
706.840	7804
706.958	8849
707.077	6171
707.195	6572
707.313	7086
707.431	5878
707.549	5792
707.668	5897
707.786	7554
707.904	6520
708.022	5620
708.140	6620
708.258	6656
708.376	6615
708.494	6418
708.612	6707
708.730	9179
708.848	9383
708.966	8094
709.084	7762
709.202	7406
709.320	7912
709.438	7754
709.556	7038
709.674	7461
709.791	7777
709.909	6939
710.027	7782
710.145	7266
710.263	8392
710.380	7476
710.498	7557
710.616	6425
710.733	7391
710.851	7470
710.969	7578
711.086	7688
711.204	7052
711.322	6792
711.439	7032
711.557	6587
711.674	7036
711.792	6495
711.909	6527
712.027	6444
712.144	7199
712.262	6553
712.379	7180
712.497	9061
712.614	9732
712.732	8609
712.849	7712
712.966	8804
713.084	10250
713.201	8105
713.318	8266
713.436	8011
713.553	8184
713.670	8313
713.787	8491
713.905	9456
714.022	8525
714.139	7817
714.256	9965
714.373	11153
714.490	15127
714.608	30720
714.725	128095
714.842	184240
714.959	16681
715.076	8706
715.193	7470
715.310	6887
715.427	7822
715.544	6934
715.661	7160
715.778	5737
715.895	8047
716.011	7073
716.128	7608
716.245	7089
716.362	8533
716.479	7894
716.596	7595
716.713	6296
716.829	6428
716.946	6670
717.063	6523
717.180	6011
717.296	5317
717.413	6185
717.530	6360
717.646	6459
717.763	6373
717.880	5890
717.996	5151
718.113	6754
718.229	5690
718.346	5719
718.462	5546
718.579	7471
718.695	11074
718.812	8972
718.928	8103
719.045	6372
719.161	5527
719.277	4909
719.394	6441
719.510	6161
719.626	5856
719.743	7117
719.859	7474
719.975	10878
720.092	34216
720.208	97178
720.324	18265
720.440	5606
720.557	6011
720.673	8935
720.789	11379
720.905	19854
721.021	9851
721.137	5605
721.253	5642
721.369	5604
721.486	6161
721.602	7660
721.718	5476
721.834	4526
721.950	5320
722.066	4740
722.181	5186
722.297	4720
722.413	4248
722.529	4700
722.645	4378
722.761	4334
722.877	3894
722.993	4470
723.108	4892
723.224	5260
723.340	4710
723.456	4935
723.571	5083
723.687	4332
723.803	4131
723.918	4363
724.034	4703
724.150	4792
724.265	4991
724.381	7865
724.497	11481
724.612	5190
724.728	3967
724.843	3330
724.959	4973
725.074	8080
725.190	10403
725.305	4480
725.421	4281
725.536	4004
725.651	3677
725.767	3246
725.882	4279
725.997	3629
726.113	4656
726.228	3790
726.343	3559
726.459	3136
726.574	3526
726.689	3539
726.804	3787
726.920	3162
727.035	3976
727.150	4093
727.265	3293
727.380	3021
727.495	3446
727.610	3885
727.725	3410
727.841	3145
727.956	3396
728.071	3869
728.186	3200
728.301	2993
728.416	3218
728.531	3320
728.645	3629
728.760	3399
728.875	4157
728.990	3208
729.105	3391
729.220	3574
729.335	3904
729.449	3170
729.564	3430
729.679	3192
729.794	3498
729.908	3759
730.023	3728
730.138	2984
730.253	3726
730.367	2831
730.482	3548
730.596	3085
730.711	3720
730.826	4819
730.940	3858
731.055	3702
731.169	3395
731.284	3019
731.398	2846
731.513	3407
731.627	3205
731.742	3601
731.856	4411
731.970	3943
732.085	4257
732.199	5042
732.313	6781
732.428	13447
732.542	42515
732.656	34528
732.771	6222
732.885	3933
732.999	4349
733.113	3411
733.227	3946
733.342	3465
733.456	3328
733.570	3392
733.684	3743
733.798	3575
733.912	3329
734.026	3670
734.140	3359
734.254	3389
734.368	4827
734.482	6384
734.596	3293
734.710	3473
734.824	2531
734.938	2814
735.052	2818
735.166	3125
735.280	3500
735.393	2126
735.507	3638
735.621	3819
735.735	5710
735.849	3048
735.962	2014
736.076	3510
736.190	3263
736.303	3443
736.417	5606
736.531	2667
736.644	3067
736.758	2264
736.872	2570
736.985	2511
737.099	2749
737.212	2632
737.326	3354
737.439	3177
737.553	2494
737.666	2590
737.780	2529
737.893	2794
738.007	3042
738.120	2487
738.233	3021
738.347	2886
738.460	2944
738.573	3154
738.687	2642
738.800	2921
738.913	3801
739.026	2806
739.140	2759
739.253	2410
739.366	2220
739.479	2026
739.592	2520
739.705	1844
739.818	2782
739.932	3088
740.045	2515
740.158	1940
740.271	1697
740.384	1436
740.497	2255
740.610	2686
740.723	2480
740.836	2620
740.949	2024
741.062	3155
741.174	3333
741.287	3053
741.400	2042
741.513	2846
741.626	2639
741.739	2063
741.851	2449
741.964	2297
742.077	2599
742.189	2490
742.302	2665
742.415	2436
742.527	2600
742.640	2474
742.753	2222
742.865	1673
742.978	2250
743.090	1749
743.203	1607
743.316	3143
743.428	1753
743.541	2203
743.653	1696
743.766	1819
743.878	1530
743.990	2757
744.103	3197
744.215	1455
744.327	1688
744.440	2966
744.552	3863
744.664	2481
744.777	2013
744.889	1499
745.001	2337
745.113	1789
745.226	1965
745.338	2437
745.450	2283
745.562	1791
745.674	1499
745.786	1677
745.898	1855
746.010	2172
746.122	1514
746.234	1560
746.347	1440
746.459	1973
746.570	1607
746.682	2179
746.794	1880
746.906	1461
747.018	2037
747.130	2747
747.242	930
747.354	1916
747.466	1885
747.577	1726
747.689	1643
747.801	1920
747.913	1511
748.024	1360
748.136	1781
748.248	1960
748.359	2217
748.471	1351
748.583	1696
748.694	2325
748.806	2147
748.918	1573
749.029	2406
749.141	2133
749.252	2206
749.364	1944
749.475	4267
749.587	2391
749.698	2284
749.809	2137
749.921	2061
750.032	1754
750.144	1438
750.255	1757
750.366	960
750.478	1925
750.589	1838
750.700	1791
750.811	1634
750.923	2552
751.034	3759
751.145	6100
751.256	2409
751.367	1347
751.479	2050
751.590	952
751.701	2386
751.812	1026
751.923	2759
752.034	1511
752.145	997
752.256	1220
752.367	1829
752.478	552
752.589	1524
752.700	1162
752.811	1597
752.922	799
753.032	646
753.143	2431
753.254	446
753.365	1588
753.476	1263
753.586	1168
753.697	1056
753.808	1308
753.919	1297
754.029	1735
754.140	1362
754.251	1172
754.361	1892
754.472	1533
754.582	592
754.693	1193
754.804	1819
754.914	175
755.025	581
755.135	2349
755.246	556
755.356	813
755.466	863
755.577	478
755.687	1430
755.798	1706
755.908	1495
756.018	1550
756.129	1409
756.239	1293
756.349	1188
756.460	717
756.570	1881
756.680	991
756.790	1010
756.900	1525
757.011	1801
757.121	977
757.231	641
757.341	1111
757.451	1267
757.561	1200
757.671	332
757.781	494
757.891	1189
758.001	1064
758.111	1250
758.221	1853
758.331	1032
758.441	1696
758.551	1940
758.661	1968
758.771	1071
758.880	862
758.990	1299
759.100	1235
759.210	1044
759.320	1924
759.429	1749
759.539	1987
759.649	1113
759.758	1372
759.868	1945
759.978	721
760.087	1888
760.197	1569
760.307	1736
760.416	748
760.526	1183
760.635	1380
760.745	1963
760.854	1898
760.964	1868
761.073	1446
761.182	1168
761.292	1660
761.401	1272
761.511	1834
761.620	1103
761.729	793
761.839	555
761.948	1513
762.057	1342
762.166	1685
762.276	1321
762.385	2204
762.494	1135
762.603	1078
762.712	1022
762.822	1294
762.931	823
763.040	1554
763.149	962
763.258	1671
763.367	1615
763.476	1105
763.585	1699
763.694	578
763.803	1455
763.912	852
764.021	1968
764.130	873
764.238	1380
764.347	1308
764.456	1460
764.565	1492
764.674	1735
764.783	780
764.891	589
765.000	1617
765.109	1631
765.217	1679
765.326	1736
765.435	2548
765.543	2179
765.652	2368
765.761	2904
765.869	3347
765.978	4441
766.086	8337
766.195	16607
766.303	45953
766.412	165797
766.520	161580
766.629	26873
766.737	8992
766.846	4796
766.954	3930
767.062	3402
767.171	2508
767.279	2850
767.387	1794
767.496	1950
767.604	1954
767.712	1830
767.820	1495
767.928	1051
768.037	1700
768.145	2147
768.253	1560
768.361	1460
768.469	1823
768.577	1075
768.685	1554
768.793	1789
768.901	1647
769.009	2317
769.117	2315
769.225	2095
769.333	3231
769.441	4281
769.549	7612
769.657	16303
769.765	59518
769.873	157445
769.981	48816
770.088	6809
770.196	3071
770.304	3636
770.412	2244
770.519	2605
770.627	2307
770.735	1677
770.842	1578
770.950	2312
771.058	1542
771.165	1637
771.273	1272
771.380	1520
771.488	1492
771.595	2005
771.703	1288
771.810	2189
771.918	1305
772.025	1489
772.133	1767
772.240	2560
772.348	2477
772.455	1848
772.562	1624
772.670	1363
772.777	2013
772.884	2075
772.991	1801
773.099	2460
773.206	2297
773.313	1936
773.420	2149
773.528	1050
773.635	1116
773.742	2295
773.849	1641
773.956	1558
774.063	1830
774.170	1824
774.277	1692
774.384	1520
774.491	1618
774.598	1614
774.705	2168
774.812	2190
774.919	1826
775.026	1821
775.133	1715
775.239	2056
775.346	1152
775.453	1736
775.560	1782
775.667	2242
775.773	1015
775.880	1480
775.987	1458
776.093	1453
776.200	1899
776.307	1923
776.413	2381
776.520	966
776.627	2110
776.733	1631
776.840	1474
776.946	1385
777.053	2156
777.159	1705
777.266	620
777.372	2478
777.478	1685
777.585	2239
777.691	1057
777.798	1774
777.904	2714
778.010	1739
778.117	1775
778.223	1409
778.329	1164
778.435	1715
778.542	1015
778.648	1144
778.754	680
778.860	1146
778.966	1345
779.072	1881
779.178	844
779.284	1218
779.391	1283
779.497	442
779.603	2145
779.708	549
779.815	1882
779.920	2428
780.026	3265
780.132	2518
780.238	1257
780.344	1173
780.450	1509
780.556	1474
780.661	785
780.767	1213
780.873	1216
780.979	1359
781.085	1073
781.190	1954
781.296	635
781.402	1054
781.507	814
781.613	1128
781.719	894
781.824	237
781.930	1305
782.035	1325
782.141	1708
782.246	846
782.352	174
782.457	1407
782.563	1059
782.668	1505
782.773	1591
782.879	932
782.984	2070
783.090	1363
783.195	2250
783.300	1681
783.405	932
783.511	917
783.616	1352
783.721	1870
783.826	1444
783.932	658
784.037	680
784.142	1396
784.247	1305
784.352	716
784.457	371
784.562	1010
784.667	843
784.772	1372
784.877	165
784.982	282
785.087	926
785.192	708
785.297	457
785.402	621
785.507	780
785.611	786
785.716	629
785.821	612
785.926	443
786.031	1003
786.135	825
786.240	741
786.345	238
786.450	1017
786.554	551
786.659	-249
786.763	297
786.868	994
786.973	1715
787.077	-122
787.182	57
787.286	634
787.391	682
787.495	-140
787.600	515
787.704	706
787.809	442
787.913	542
788.017	754
788.122	585
788.226	265
788.330	71
788.435	267
788.539	507
788.643	443
788.747	1075
788.852	-122
788.956	870
789.060	798
789.164	410
789.268	2
789.372	1056
789.476	-413
789.580	438
789.684	346
789.788	306
789.892	913
789.996	987
790.100	332
790.204	326
790.308	926
790.412	496
790.516	883
790.620	612
790.724	462
790.828	769
790.931	-320
791.035	1499
791.139	-257
791.242	312
791.346	1393
791.450	-387
791.554	508
791.657	-493
791.761	1103
791.864	445
791.968	612
792.072	732
792.175	-339
792.279	682
792.382	260
792.486	896
792.589	565
792.693	547
792.796	-157
792.899	1023
793.003	794
793.106	-319
793.209	90
793.313	1308
793.416	310
793.519	1365
793.623	604
793.726	1447
793.829	266
793.932	85
794.035	140
794.138	1100
794.242	677
794.345	296
794.448	632
794.551	499
794.654	1860
794.757	2368
794.860	911
794.963	690
795.066	-43
795.169	1343
795.272	443
795.375	593
795.477	-81
795.580	1085
795.683	3
795.786	374
795.889	-826
795.991	1128
796.094	1005
796.197	-814
796.300	801
796.402	639
796.505	144
796.608	487
796.710	144
796.813	1095
796.915	-384
797.018	795
797.120	118
797.223	109
797.326	217
797.428	193
797.530	251
797.633	145
797.735	724
797.838	563
797.940	1184
798.042	324
798.145	813
798.247	706
798.349	-677
798.452	769
798.554	-195
798.656	-1057
798.758	812
798.860	-679
798.962	-187
799.065	-262
799.167	-1447
799.269	1252
799.371	1465
799.473	524
799.575	-686
799.677	1084
799.779	1264
799.881	459
799.983	1323
800.085	-485
800.187	-1097
800.289	-7
800.390	-264
800.492	347
800.594	563
800.696	-483
800.798	161
800.899	33
801.001	-673
801.103	1045
801.205	150
801.306	29
801.408	-242
801.509	-74
801.611	-575
801.713	-160
801.814	-66
801.916	316
802.017	-294
802.119	-818
802.220	9
802.322	-854
802.423	2350
802.525	-199
802.626	461
802.727	-37
802.829	668
802.930	-436
803.031	1528
803.133	213
803.234	-126
803.335	-171
803.436	-931
803.538	-397
803.639	-683
803.740	-193
803.841	-408
803.942	637
804.043	14
804.144	356
804.245	-520
804.346	19
804.447	-467
804.548	139
804.649	1670
804.750	745
804.851	-259
804.952	-88
805.053	-169
805.154	-1086
805.255	1137
805.355	-306
805.456	-526
805.557	-654
805.658	-1168
805.758	386
805.859	-110
805.960	-139
806.061	-273
806.161	-1167
806.262	409
806.362	-381
806.463	291
806.564	576
806.664	-393
806.765	314
806.865	67
806.966	-635
807.066	-910
807.166	737
807.267	124
807.367	-980
807.468	-99
807.568	-984
807.668	-90
807.769	170
807.869	30
807.969	-39
808.069	170
808.170	-114
808.270	57
808.370	332
808.470	312
808.570	-375
808.670	82
808.770	618
808.870	-658
808.970	-36
809.070	-991
809.170	-1239
809.271	-96
809.370	-245
809.470	-89
809.570	-613
809.670	-1162
809.770	-213
809.870	-430
809.970	152
810.070	-512
810.169	308
810.269	-1078
810.369	425
810.469	-860
810.568	-691
810.668	-984
810.768	-553
810.867	-140
810.967	-609
811.066	-587
811.166	419
811.265	-73
811.365	-542
811.464	-972
811.564	-465
811.663	592
811.763	-554
811.862	31
811.962	-285
812.061	-47
812.160	-1383
812.260	27
812.359	221
812.458	538
812.557	3738
812.657	7008
812.756	1806
812.855	179
812.954	-26
813.053	213
813.153	-300
813.252	-1014
813.351	-254
813.450	-50
813.549	-662
813.648	-669
813.747	-535
813.846	-392
813.945	-165
814.044	-308
814.143	542
814.242	-65
814.341	-261
814.439	-154
814.538	673
814.637	-251
814.736	-896
814.835	-95
814.933	-95
815.032	535
815.131	-189
815.229	-65
815.328	84
815.427	140
815.525	226
815.624	710
815.722	-277
815.821	297
815.919	144
816.018	310
816.116	485
816.215	-77
816.313	-283
816.412	554
816.510	552
816.609	1622
816.707	599
816.805	72
816.904	-271
817.002	1402
817.100	965
817.198	1259
817.296	431
817.395	616
817.493	1298
817.591	1297
817.689	3310
817.787	3222
817.885	6714
817.983	12881
818.081	27659
818.179	68911
818.277	170661
818.375	169851
818.473	44048
818.571	14357
818.669	9256
818.767	7607
818.865	6922
818.963	8582
819.061	14182
819.158	24899
819.256	54530
819.354	124024
819.452	271992
819.549	200603
819.647	55102
819.745	19930
819.842	12081
819.940	7282
820.038	5126
820.135	4557
820.233	4136
820.330	2635
820.428	1857
820.525	2718
820.623	2136
820.720	1202
820.818	844
820.915	689
821.012	1086
821.110	-444
821.207	1552
821.304	173
821.402	783
821.499	918
821.596	1372
821.693	1383
821.791	1221
821.888	1070
821.985	2207
822.082	1402
822.179	1269
822.276	-80
822.373	-103
822.470	617
822.567	-159
822.664	-212
822.761	658
822.858	-161
822.955	831
823.052	-155
823.149	631
823.246	-188
823.343	-934
823.440	457
823.536	-28
823.633	-170
823.730	896
823.827	54
823.923	132
824.020	144
824.117	-669
824.213	-725
824.310	808
824.407	239
824.503	642
824.600	-122
824.696	352
824.793	27
824.889	-1312
824.986	214
825.082	-380
825.179	-437
825.275	255
825.371	-1027
825.468	698
825.564	-804
825.660	-231
825.757	652
825.853	1180
825.949	-308
826.045	-407
826.142	-554
826.238	-614
826.334	-623
826.430	-1293
826.526	-720
826.622	-810
826.718	-306
826.814	-326
826.910	617
827.006	-841
827.102	-496
827.198	1112
827.294	-853
827.390	172
827.486	127
827.582	-1152
827.678	-697
827.774	455
827.869	-770
827.965	879
828.061	-845
828.157	-354
828.252	324
828.348	-675
828.444	218
828.539	-602
828.635	-600
828.731	512
828.826	-575
828.922	271
829.017	-629
829.113	-892
829.208	-652
829.304	-592
829.399	526
829.495	-979
829.590	329
829.685	-550
829.781	159
829.876	-881
829.971	-1128
830.066	-667
830.162	212
830.257	-789
830.352	-345
830.447	163
830.543	384
830.638	-1559
830.733	243
830.828	-563
830.923	303
831.018	-824
831.113	-113
831.208	-248
831.303	-719
831.398	-236
831.493	-536
831.588	-414
831.683	-1025
831.778	-215
831.873	-320
831.967	365
832.062	-500
832.157	-635
832.252	-143
832.346	154
832.441	-4
832.536	744
832.631	1771
832.725	1933
832.820	-876
832.914	-546
833.009	-464
833.104	-618
833.198	648
833.293	-920
833.387	267
833.482	-86
833.576	-316
833.670	362
833.765	-321
833.859	-246
833.954	242
834.048	-573
834.142	-469
834.237	-480
834.331	-536
834.425	-609
834.519	-1063
834.613	288
834.708	-277
834.802	-588
834.896	-544
834.990	-852
835.084	-349
835.178	-517
835.272	-1028
835.366	-911
835.460	-105
835.554	-395
835.648	-1024
835.742	-570
835.836	-15
835.930	-259
836.024	-592
836.117	65
836.211	-123
836.305	471
836.399	-81
836.493	-1083
836.586	675
836.680	-471
836.774	-558
836.867	700
836.961	-1042
837.055	-644
837.148	-1029
837.242	-266
837.335	-1242
837.429	-163
837.522	-792
837.616	-366
837.709	895
837.803	-362
837.896	-370
837.989	44
838.083	154
838.176	657
838.269	-678
838.363	346
838.456	-280
838.549	337
838.642	862
838.735	2329
838.829	467
838.922	-756
839.015	-127
839.108	-483
839.201	-237
839.294	-691
839.387	-868
839.480	-491
839.573	-602
839.666	59
839.759	104
839.852	-625
839.945	-624
840.038	-648
840.131	-1066
840.223	-566
840.316	200
840.409	405
840.502	-685
840.594	10
840.687	-328
840.780	-144
840.873	-632
840.965	107
841.058	-340
841.150	567
841.243	-31
841.336	-259
841.428	-397
841.521	-457
841.613	-643
841.706	284
841.798	-661
841.890	-888
841.983	-1071
842.075	-481
842.167	-627
842.260	-1055
842.352	128
842.444	486
842.537	797
842.629	1863
842.721	-579
842.813	-584
842.905	-580
842.997	-372
843.090	-670
843.182	474
843.274	-68
843.366	2584
843.458	5082
843.550	4357
843.642	146
843.734	-614
843.826	-474
843.918	440
844.009	-325
844.101	-497
844.193	-501
844.285	-531
844.377	-279
844.469	546
844.560	-1006
844.652	-576
844.744	-263
844.835	-580
844.927	-221
845.019	-12
845.110	36
845.202	-495
845.293	-688
845.385	-737
845.476	-246
845.568	236
845.659	-1256
845.751	63
845.842	-323
845.934	-1257
846.025	-1095
846.116	-58
846.208	-691
846.299	-1579
846.390	-412
846.482	-946
846.573	53
846.664	-354
846.755	-361
846.846	965
846.937	-1325
847.029	-366
847.120	-984
847.211	-1313
847.302	-326
847.393	-762
847.484	-663
847.575	-515
847.666	-903
847.757	-190
847.847	-347
847.938	-522
848.029	-872
848.120	-1144
848.211	-640
848.302	-1319
848.392	-762
848.483	222
848.574	-1222
848.664	-1019
848.755	-191
848.846	-229
848.936	-921
849.027	-502
849.118	-1067
849.208	-187
849.299	-120
849.389	87
849.480	734
849.570	780
849.661	4503
849.751	10788
849.841	4480
849.932	252
850.022	-1092
850.112	-722
850.203	-62
850.293	-1074
850.383	-938
850.474	-1487
850.564	-1149
850.654	-780
850.744	-1145
850.834	-1128
850.924	-958
851.014	-896
851.104	-932
851.194	-927
851.284	-404
851.374	-575
851.464	-87
851.554	-313
851.644	-862
851.734	-191
851.824	-568
851.914	-818
852.004	-890
852.094	-779
852.183	-708
852.273	-905
852.363	-1158
852.452	-122
852.542	-689
852.632	-851
852.721	-392
852.811	-980
852.901	-890
852.990	40
853.080	-376
853.169	-832
853.259	-696
853.348	-772
853.438	-650
853.527	-464
853.617	23
853.706	1477
853.795	3003
853.885	9305
853.974	19765
854.063	34170
854.152	68942
854.242	34408
854.331	3521
854.420	457
854.509	-300
854.598	168
854.687	314
854.777	-138
854.866	-541
854.955	-793
855.044	-1020
855.133	-737
855.222	-1070
855.311	-833
855.400	-280
855.488	-483
855.577	-855
855.666	-1474
855.755	-637
855.844	-631
855.933	-1724
856.021	-1362
856.110	-53
856.199	-912
856.288	-603
856.376	-932
856.465	-790
856.554	-932
856.642	-1029
856.731	-389
856.819	-507
856.908	-784
856.996	-1144
857.085	-565
857.173	-1237
857.262	-446
857.350	-869
857.438	-834
857.527	30
857.615	-1091
857.703	-1010
857.792	-1319
857.880	-1038
857.968	-702
858.056	-1150
858.145	-1183
858.233	-1325
858.321	-1036
858.409	354
858.497	-1310
858.585	-879
858.673	442
858.761	-1357
858.849	-876
858.937	-1135
859.025	-753
859.113	-845
859.201	-1001
859.289	-356
859.377	-240
859.465	-78
859.552	-191
859.640	-1178
859.728	-342
859.816	-1015
859.903	-867
859.991	-1557
860.079	-548
860.166	-1021
860.254	-1033
860.342	-871
860.429	-602
860.517	-251
860.604	-445
860.692	-1209
860.779	-1392
860.867	-1431
860.954	-229
861.042	-779
861.129	-809
861.216	-261
861.304	-686
861.391	-349
861.478	-1086
861.565	-590
861.653	-1293
861.740	-1298
861.827	-1358
861.914	-183
862.001	-646
862.089	-576
862.176	-297
862.263	-627
862.350	-924
862.437	-946
862.524	-931
862.611	-1453
862.698	-486
862.785	-444
862.871	-523
862.958	-599
863.045	-1031
863.132	-824
863.219	-980
863.306	-1770
863.392	40
863.479	-548
863.566	-449
863.652	-472
863.739	-551
863.826	-1384
863.912	-153
863.999	-804
864.086	-721
864.172	-1075
864.259	-1415
864.345	-1083
864.432	-877
864.518	-1211
864.604	-1151
864.691	-441
864.777	-415
864.863	-643
864.950	186
865.036	-1283
865.122	152
865.209	413
865.295	467
865.381	-334
865.467	-626
865.553	242
865.639	304
865.726	643
865.812	4516
865.898	8969
865.984	14264
866.070	25528
866.156	38914
866.242	12008
866.328	2137
866.414	136
866.499	403
866.585	144
866.671	-443
866.757	102
866.843	-274
866.928	-1150
867.014	90
867.100	93
867.186	-189
867.271	-150
867.357	-416
867.442	111
867.528	-255
867.614	-291
867.699	-127
867.785	-205
867.870	-754
867.956	-310
868.041	-78
868.127	-1114
868.212	364
868.297	-230
868.383	-142
868.468	-681
868.553	856
868.639	955
868.724	1589
868.809	2517
868.894	-25
868.979	-1059
869.065	-264
869.150	-810
869.235	-610
869.320	-1424
869.405	-504
869.490	-1077
869.575	-129
869.660	-1132
869.745	544
869.830	-1211
869.915	-1240
870.000	-700
870.085	-1209
870.169	-294
870.254	-635
870.339	-1579
870.424	-1653
870.509	-379
870.593	-437
870.678	-437
870.763	-813
870.847	-878
870.932	-406
871.016	-1415
871.101	-498
871.186	-842
871.270	33
871.355	-973
871.439	-412
871.523	-800
871.608	-1214
871.692	-654
871.777	-779
871.861	-1304
871.945	-673
872.030	-112
872.114	-394
872.198	-650
872.282	-878
872.367	-728
872.451	-821
872.535	-408
872.619	-105
872.703	-619
872.787	-178
872.871	-454
872.955	-709
873.039	-722
873.123	-833
873.207	-899
873.291	-757
873.375	-705
873.459	-700
873.543	-1084
873.627	-1746
873.711	-950
873.794	-676
873.878	-1313
873.962	-1063
874.045	-1217
874.129	-1043
874.137	-997
874.213	-544
874.245	-590
874.296	-663
874.352	-626
874.380	-608
874.460	-881
874.464	-894
874.547	-861
874.568	-820
874.631	-678
874.676	-686
874.714	-702
874.784	-234
874.798	-140
874.881	-132
874.892	-214
874.965	-845
874.999	-687
875.048	-440
875.107	-849
875.131	-1001
875.215	-915
875.215	-914
875.298	-1047
875.323	-858
875.381	-347
875.430	-269
875.465	-230
875.538	-54
875.548	-35
875.631	-771
875.646	-804
875.714	-934
875.753	-768
875.798	-518
875.861	-531
875.881	-581
875.964	-123
875.968	-162
876.047	-827
876.076	-606
876.130	-115
876.183	-26
876.213	28
876.291	107
876.296	109
876.379	-143
876.398	-356
876.462	-1123
876.506	-860
876.545	-587
876.613	-41
876.628	84
876.711	151
876.721	163
876.794	222
876.828	-225
876.877	-835
876.935	-301
876.960	-103
877.043	-640
877.043	-639
877.125	-15
877.150	35
877.208	129
877.258	-142
877.291	-341
877.365	-532
877.374	-547
877.456	-6
877.472	-96
877.539	-318
877.579	141
877.622	439
877.687	71
877.704	21
877.787	676
877.794	681
877.869	629
877.901	358
877.952	-0
878.008	108
878.034	103
878.115	-8
878.117	-5
878.199	-451
878.222	-440
878.282	-308
878.329	212
878.364	538
878.437	589
878.447	585
878.529	-272
878.544	-152
878.611	312
878.651	271
878.694	334
878.758	434
878.776	507
878.858	845
878.865	829
878.941	455
878.972	316
879.023	82
879.078	116
879.105	173
879.185	541
879.187	551
879.269	807
879.292	643
879.351	184
879.399	206
879.433	286
879.506	242
879.516	250
879.598	408
879.613	492
879.680	638
879.720	703
879.762	871
879.827	197
879.844	16
879.926	692
879.933	651
880.007	294
880.040	280
880.089	257
880.147	508
880.171	763
880.253	1935
880.254	1933
880.335	1988
880.360	2269
880.417	3518
880.467	4562
880.499	5286
880.574	7469
880.580	7482
880.662	3711
880.680	2994
880.744	1125
880.787	792
880.825	814
880.893	927
880.907	934
880.989	1101
881.000	1043
881.070	846
881.106	735
881.152	387
881.213	583
881.233	691
881.315	452
881.319	438
881.396	576
881.426	683
881.478	889
881.532	1055
881.559	1157
881.639	1043
881.641	1038
881.722	916
881.745	838
881.803	979
881.852	1141
881.885	1010
881.958	726
881.966	766
882.047	1218
882.064	1291
882.129	1366
882.171	1263
882.210	1527
882.277	2554
882.291	2609
882.372	1676
882.383	1638
882.454	1128
882.489	821
882.535	900
882.596	970
882.616	1034
882.697	1308
882.702	1308
882.778	1103
882.808	1147
882.859	1464
882.914	1569
882.940	1513
883.020	1435
883.021	1443
883.102	1389
883.127	1369
883.183	1388
883.233	1215
883.264	1233
883.339	1500
883.345	1482
883.426	1014
883.445	951
883.507	794
883.551	495
883.587	686
883.657	1419
883.668	1472
883.749	1440
883.763	1399
883.830	956
883.869	918
883.910	1139
883.975	1424
883.991	1482
884.072	1220
884.081	1204
884.152	1753
884.187	2092
884.233	2069
884.292	1810
884.314	1808
884.394	1785
884.398	1806
884.475	2318
884.504	2153
884.555	1745
884.610	1508
884.636	1461
884.716	1431
884.716	1446
884.797	2082
884.821	2249
884.877	1999
884.927	1679
884.958	1707
885.033	1836
885.038	1838
885.118	1655
885.139	1535
885.199	1559
885.244	1820
885.279	2057
885.350	2352
885.359	2404
885.439	2857
885.456	2866
885.520	2338
885.561	2067
885.600	2224
885.667	2576
885.680	2569
885.760	2260
885.773	2242
885.840	2359
885.878	2313
885.920	2186
885.984	1860
886.000	1864
886.080	2022
886.089	2013
886.160	2343
886.195	2563
886.240	2746
886.300	2836
886.320	2687
886.400	2029
886.406	1988
886.480	2238
886.511	2295
886.560	2527
886.616	2575
886.640	2480
886.720	2437
886.722	2419
886.800	2162
886.827	2150
886.879	2411
886.932	2429
886.959	2491
887.038	2758
887.039	2771
887.119	2806
887.143	2767
887.198	2762
887.248	2769
887.278	2785
887.354	2771
887.358	2763
887.437	2302
887.459	2197
887.517	2556
887.564	2733
887.596	2679
887.669	2534
887.676	2486
887.755	1848
887.774	1653
887.835	2205
887.880	2596
887.914	2501
887.985	2289
887.994	2332
888.073	2672
888.090	2712
888.153	2574
888.195	2505
888.232	2898
888.300	3540
888.311	3483
888.391	2934
888.405	2832
888.470	3160
888.510	3311
888.549	3095
888.615	2753
888.628	2837
888.708	3214
888.720	3267
888.787	3044
888.825	2858
888.866	2786
888.930	2680
888.945	2783
889.024	3235
889.035	3286
889.103	3300
889.140	3266
889.182	3328
889.245	3412
889.261	3284
889.340	2607
889.349	2517
889.419	2742
889.454	2828
889.498	2943
889.559	3090
889.577	3147
889.656	3336
889.664	3341
889.735	3638
889.768	3758
889.814	3754
889.873	3714
889.978	3041
890.083	3327
890.187	2934
890.292	3423
890.397	3094
890.501	2757
890.606	2702
890.710	3274
890.815	4142
890.919	3761
891.024	2897
891.128	3258
891.233	2235
891.337	3838
891.442	3179
891.546	4100
891.650	2964
891.755	3985
891.859	4075
891.963	3965
892.068	3306
892.172	3313
892.276	1808
892.380	2740
892.484	3034
892.589	3491
892.693	2845
892.797	3026
892.901	2741
893.005	3269
893.109	3429
893.213	3466
893.317	2975
893.421	2655
893.525	2450
893.629	3174
893.733	3115
893.837	2646
893.941	2790
894.045	3395
894.148	3139
894.252	3146
894.356	2381
894.460	4493
894.564	3257
894.667	2753
894.771	3079
894.875	2848
894.978	2999
895.082	2711
895.186	3790
895.289	2973
895.393	2723
895.496	3084
895.600	2860
895.703	2247
895.807	2642
895.910	3030
896.014	3354
896.117	2809
896.221	3410
896.324	3075
896.427	2435
896.531	3371
896.634	2860
896.737	3655
896.840	3297
896.944	3603
897.047	3134
897.150	3992
897.253	3004
897.356	2787
897.460	2790
897.563	3099
897.666	3294
897.769	3477
897.872	2447
897.975	3065
898.078	2994
898.181	3305
898.284	2975
898.387	3154
898.490	2356
898.593	3020
898.695	2652
898.798	2498
898.901	3253
899.004	3165
899.107	3538
899.209	2880
899.312	3333
899.415	3140
899.518	2827
899.620	2156
899.723	1570
899.826	3660
899.928	3941
900.031	2608
900.133	3440
900.236	3100
900.338	1331
900.441	2761
900.543	3064
900.646	2749
900.748	3399
900.851	2694
900.953	2512
901.055	2713
901.158	3153
901.260	2596
901.362	3038
901.465	2626
901.567	3116
901.669	2531
901.771	2703
901.873	3392
901.976	3172
902.078	3608
902.180	2537
902.282	3191
902.384	2612
902.486	3624
902.588	3071
902.690	2706
902.792	2398
902.894	3879
902.996	2484
903.098	2807
903.200	2149
903.302	3313
903.404	2895
903.505	2639
903.607	3145
903.709	3568
903.811	3240
903.913	3236
904.014	2489
904.116	2165
904.218	2487
904.319	3546
904.421	3647
904.523	2910
904.624	2680
904.726	3284
904.827	1986
904.929	3177
905.030	2674
905.132	3309
905.233	3048
905.335	3286
905.436	3164
905.537	2524
905.639	2896
905.740	3117
905.841	2794
905.943	3550
906.044	2841
906.145	2868
906.247	2723
906.348	2808
906.449	3019
906.550	3314
906.651	2802
906.752	2730
906.854	2656
906.955	3410
907.056	2686
907.157	3208
907.258	2962
907.359	3150
907.460	2331
907.561	3671
907.662	2967
907.762	2949
907.863	2988
907.964	3338
908.065	2730
908.166	3463
908.267	2946
908.367	3289
908.468	3141
908.569	3128
908.670	3217
908.770	3468
908.871	3114
908.971	3308
909.072	3440
909.173	3595
909.273	3622
909.374	3383
909.474	2816
909.575	3465
909.675	3311
909.776	3354
909.876	3253
909.977	3383
910.077	3361
910.177	3184
910.278	3295
910.378	4326
910.478	2642
910.579	3778
910.679	2620
910.779	4073
910.879	2454
910.980	3974
911.080	2628
911.180	2704
911.280	2902
911.380	2966
911.480	3678
911.580	2452
911.680	3233
911.780	3272
911.880	3586
911.980	3177
912.080	2708
912.180	3061
912.280	2421
912.380	3002
912.480	2704
912.580	3006
912.679	2588
912.779	4260
912.879	3360
912.979	3406
913.078	3108
913.178	3667
913.278	2133
913.377	3041
913.477	2652
913.577	2613
913.676	3290
913.776	3535
913.875	2747
913.975	3459
914.074	2478
914.174	3351
914.273	2150
914.373	3450
914.472	3186
914.572	2141
914.671	3361
914.770	3596
914.870	2594
914.969	2469
915.068	2620
915.167	2965
915.267	3026
915.366	2814
915.465	3675
915.564	2806
915.663	2483
915.763	2833
915.862	2843
915.961	3504
916.060	2614
916.159	3226
916.258	2231
916.357	3061
916.456	3087
916.555	3143
916.654	2641
916.752	2696
916.851	2723
916.950	3123
917.049	3001
917.148	2735
917.247	2528
917.345	2976
917.444	2925
917.543	2765
917.642	2634
917.740	3089
917.839	3257
917.937	2835
918.036	3357
918.135	2752
918.233	1901
918.332	3022
918.430	2493
918.529	2410
918.627	1907
918.726	2713
918.824	2882
918.923	3482
919.021	3290
919.119	2315
919.218	2457
919.316	2877
919.414	2547
919.512	3358
919.611	3072
919.709	2286
919.807	3346
919.905	3303
920.003	2998
920.102	3306
920.200	2580
920.298	2642
920.396	2552
920.494	3024
920.592	3261
920.690	3886
920.788	3217
920.886	2725
920.984	3428
921.082	2716
921.180	4223
921.277	2624
921.375	2951
921.473	4364
921.571	2922
921.669	4150
921.766	2791
921.864	3520
921.962	2808
922.060	3182
922.157	3642
922.255	4111
922.352	3851
922.450	3867
922.548	3770
922.645	3859
922.743	4045
922.840	4885
922.938	5831
923.035	4495
923.133	4838
923.230	5568
923.327	5604
923.425	5771
923.522	5485
923.619	4840
923.717	5558
923.814	5348
923.911	4937
924.008	5903
924.106	5346
924.203	4654
924.300	4998
924.397	4294
924.494	5525
924.591	5522
924.688	4629
924.786	4609
924.883	5010
924.979	4910
925.077	4842
925.173	5267
925.270	4503
925.367	4972
925.464	4847
925.561	5940
925.658	4771
925.755	5053
925.852	5089
925.948	4516
926.045	5261
926.142	4418
926.239	5238
926.335	3970
926.432	4165
926.529	4231
926.625	4973
926.722	4983
926.818	4305
926.915	4047
927.011	3818
927.108	4518
927.204	3947
927.301	3738
927.397	4969
927.494	4805
927.590	4192
927.687	4360
927.783	4535
927.879	5417
927.976	4101
928.072	4200
928.168	4106
928.264	3752
928.361	4386
928.457	4966
928.553	3791
928.649	4618
928.745	4283
928.841	3771
928.937	4410
929.033	4769
929.129	3959
929.225	3910
929.321	4532
929.417	4309
929.513	4015
929.609	3247
929.705	3820
929.801	4456
929.897	3944
929.993	4338
930.089	3761
930.184	3432
930.280	5019
930.376	5026
930.471	3478
930.567	3679
930.663	4267
930.758	3675
930.854	2927
930.950	3615
931.045	4110
931.141	3445
931.236	4622
931.332	4633
931.427	3871
931.523	3531
931.618	4121
931.714	3116
931.809	4097
931.905	4390
932.000	2699
932.095	3531
932.191	4253
932.286	3899
932.381	3389
932.476	3666
932.572	3842
932.667	3719
932.762	4095
932.857	3846
932.952	3882
933.047	3985
933.142	3025
933.237	3735
933.332	3359
933.427	3788
933.522	2884
933.617	3076
933.712	3206
933.807	3680
933.902	3768
933.997	3498
934.092	3443
934.187	3769
934.282	3305
934.376	4437
934.471	3652
934.566	3648
934.661	3115
934.755	3289
934.850	3279
934.945	3885
935.039	3087
935.134	3033
935.228	3469
935.323	4238
935.417	2726
935.512	2894
935.606	3205
935.701	3546
935.795	3318
935.890	3209
935.984	3276
936.079	3009
936.173	3277
936.267	2604
936.362	2961
936.456	3385
936.550	4475
936.644	4080
936.738	3140
936.833	3862
936.927	2515
937.021	2395
937.115	2978
937.209	3233
937.303	3894
937.397	2224
937.491	3097
937.585	3582
937.679	3031
937.773	3665
937.867	2900
937.961	2583
938.055	3466
938.149	3804
938.243	3172
938.337	2643
938.430	3026
938.524	3401
938.618	3343
938.712	3282
938.805	2787
938.899	3554
938.993	3255
939.086	2766
939.180	2322
939.274	2731
939.367	2629
939.461	3977
939.554	2906
939.648	2927
939.741	3017
939.835	3571
939.928	3760
940.022	3445
940.115	3033
940.208	3413
940.302	3269
940.395	3180
940.488	1970
940.582	3104
940.675	2124
940.768	2361
940.861	3228
940.954	2972
941.048	2319
941.141	3100
941.234	2208
941.327	3143
941.420	2799
941.513	3590
941.606	2493
941.699	3285
941.792	2816
941.885	3000
941.978	3547
942.071	3549
942.164	2416
942.257	2542
942.349	3282
942.442	2942
942.535	2445
942.628	3230
942.721	2678
942.813	2532
942.906	3674
942.999	2653
943.091	2364
943.184	2453
943.277	2586
943.369	3167
943.462	1821
943.554	2729
943.647	2028
943.739	3359
943.832	2888
943.924	1906
944.017	1922
944.109	2050
944.201	2816
944.294	3332
944.386	2981
944.478	2505
944.571	2315
944.663	2599
944.755	2260
944.847	2576
944.940	2944
945.032	2096
945.124	2772
945.216	3486
945.308	2055
945.400	2716
945.492	2262
945.584	1964
945.676	2867
945.768	2453
945.860	3415
945.952	3117
946.044	2159
946.136	2015
946.228	2662
946.320	2493
946.412	2413
946.503	3724
946.595	3447
946.687	2621
946.779	1637
946.870	2636
946.962	2087
947.054	2761
947.145	2816
947.237	2605
947.329	2233
947.420	2639
947.512	2678
947.603	2396
947.695	2349
947.786	2178
947.878	2081
947.969	2289
948.061	1834
948.152	2433
948.243	3009
948.335	2393
948.426	1974
948.517	1427
948.609	2486
948.700	2545
948.791	1635
948.882	2392
948.973	1908
949.065	3165
949.156	1874
949.247	2335
949.338	2392
949.429	1406
949.520	1883
949.611	2326
949.702	2924
949.793	1953
949.884	1837
949.975	2583
950.066	2436
950.157	1681
950.247	2686
950.338	2340
950.429	2025
950.520	2833
950.611	1703
950.701	1826
950.792	2318
950.883	2293
950.973	2975
951.064	1961
951.155	2888
951.245	2708
951.336	2805
951.427	2191
951.517	2156
951.608	2699
951.698	1360
951.788	2121
951.879	2083
951.969	1918
952.060	1395
952.150	2005
952.240	2585
952.331	1807
952.421	2604
952.511	1514
952.602	1341
952.692	2374
952.782	2419
952.872	2707
952.962	801
953.052	1808
953.143	1731
953.233	1460
953.323	2280
953.413	1656
953.503	1706
953.593	2101
953.683	1407
953.773	1792
953.863	1914
953.953	1407
954.042	1784
954.132	1693
954.222	1445
954.312	1561
954.402	1735
954.492	2046
954.581	2376
954.671	2423
954.761	1905
954.850	2535
954.940	1185
955.030	2056
955.119	1678
955.209	1682
955.298	1440
955.388	2450
955.477	1804
955.567	1406
955.656	1573
955.746	1893
955.835	1595
955.925	1213
956.014	1826
956.103	2182
956.193	1802
956.282	1660
956.371	1710
956.461	2126
956.550	1883
956.639	1767
956.728	1615
956.817	1440
956.906	1674
956.995	2160
957.085	1437
957.174	1804
957.263	1432
957.352	1067
957.441	1072
957.530	1515
957.619	1969
957.708	1952
957.796	1995
957.885	2023
957.974	807
958.063	2148
958.152	485
958.241	2037
958.329	1060
958.418	1427
958.507	1153
958.596	2452
958.684	1929
958.773	1232
958.861	1633
958.950	1984
959.039	1565
959.127	1231
959.216	1832
959.304	1271
959.393	2200
959.481	1492
959.570	1354
959.658	1617
959.746	1192
959.835	1703
959.923	2039
960.011	1130
960.100	2154
960.188	1771
960.276	1240
960.365	1461
960.453	1572
960.541	851
960.629	1322
960.717	1210
960.805	525
960.893	1852
960.981	1219
961.069	1955
961.158	2178
961.245	1929
961.333	1729
961.421	1705
961.509	2061
961.597	1664
961.685	1444
961.773	1814
961.861	780
961.949	1793
962.036	1213
962.124	1971
962.212	1104
962.299	1260
962.387	981
962.475	1528
962.562	335
962.650	1899
962.738	1368
962.825	1089
962.913	535
963.000	993
963.088	1542
963.175	1565
963.263	1368
963.350	1724
963.438	986
963.525	1538
963.612	2435
963.700	2986
963.787	5364
963.874	2426
963.962	1329
964.049	1774
964.136	1055
964.223	1544
964.310	1008
964.398	1159
964.485	221
964.572	1847
964.659	2002
964.746	1643
964.833	1214
964.920	1780
965.007	1525
965.094	1681
965.181	653
965.268	1493
965.355	1017
965.441	1413
965.528	1549
965.615	1705
965.702	896
965.789	1468
965.875	1269
965.962	1483
966.049	721
966.136	1668
966.222	384
966.309	1457
966.395	1099
966.482	1824
966.569	1179
966.655	1679
966.742	759
966.828	1195
966.915	696
967.001	968
967.087	13
967.174	1587
967.260	1468
967.347	1777
967.433	2116
967.519	3179
967.605	2107
967.692	908
967.778	930
967.864	550
967.950	625
968.036	316
968.123	635
968.209	655
968.295	385
968.381	961
968.467	890
968.553	333
968.639	1439
968.725	547
968.811	1363
968.897	1564
968.983	930
969.069	612
969.154	940
969.240	1173
969.326	397
969.412	674
969.497	234
969.583	795
969.669	1539
969.755	758
969.840	253
969.926	1837
970.012	567
970.097	1537
970.183	367
970.268	1059
970.354	819
970.439	607
970.525	1674
970.610	1314
970.696	1206
970.781	1224
970.866	-69
970.952	1130
971.037	880
971.122	1386
971.208	483
971.293	741
971.378	249
971.463	889
971.549	1017
971.634	1337
971.719	1118
971.804	1399
971.889	1211
971.974	1315
972.059	806
972.144	49
972.229	410
972.314	915
972.399	833
972.484	876
972.569	1197
972.654	893
972.739	2097
972.824	1217
972.908	50
972.993	1240
973.078	1457
973.163	932
973.247	1677
973.332	-469
973.417	1384
973.501	231
973.586	1031
973.671	1567
973.755	1150
973.840	1828
973.924	733
974.009	1279
974.093	-7
974.178	1816
974.262	692
974.346	1613
974.431	536
974.515	965
974.600	827
974.684	1063
974.768	185
974.852	2088
974.937	-454
975.021	989
975.105	615
975.189	453
975.273	26
975.358	611
975.442	-128
975.526	1322
975.610	355
975.694	262
975.778	1616
975.862	908
975.946	-229
976.030	1608
976.114	655
976.198	113
976.281	928
976.365	984
976.449	748
976.533	1136
976.617	290
976.700	240
976.784	135
976.868	307
976.951	1003
977.035	1270
977.119	1121
977.202	951
977.286	869
977.369	1117
977.453	1616
977.536	537
977.620	662
977.703	1594
977.787	581
977.870	1435
977.953	305
978.037	593
978.120	810
978.203	552
978.287	947
978.370	1093
978.453	-2
978.536	927
978.620	977
978.703	1566
978.786	291
978.869	706
978.952	138
979.035	1991
979.118	563
979.201	279
979.284	245
979.367	787
979.450	879
979.533	29
979.616	466
979.699	96
979.782	653
979.865	509
979.948	439
980.030	922
980.113	718
980.196	264
980.279	806
980.361	111
980.444	330
980.526	641
980.609	856
980.692	404
980.774	1432
980.857	-53
980.939	1995
981.022	400
981.104	452
981.187	389
981.269	498
981.352	971
981.434	-339
981.516	128
981.599	972
981.681	828
981.763	547
981.846	906
981.928	1003
982.010	822
982.092	-542
982.174	1176
982.256	-308
982.339	526
982.421	571
982.503	767
982.585	-405
982.667	906
982.749	727
982.831	987
982.913	3
982.995	1233
983.077	-78
983.158	1102
983.240	-262
983.322	673
983.404	1473
983.486	738
983.568	1125
983.649	833
983.731	251
983.813	1046
983.894	1040
983.976	346
984.058	108
984.139	1585
984.221	385
984.302	1370
984.384	479
984.465	260
984.547	500
984.628	619
984.710	815
984.791	399
984.872	459
984.954	596
985.035	759
985.116	144
985.198	-365
985.279	1553
985.360	424
985.441	857
985.522	561
985.604	618
985.685	-723
985.766	1314
985.847	1260
985.928	418
986.009	1099
986.090	-73
986.171	1190
986.252	202
986.333	1128
986.414	875
986.495	689
986.576	442
986.656	706
986.737	956
986.818	974
986.899	422
986.980	329
987.060	751
987.141	-124
987.222	709
987.302	970
987.383	1193
987.464	522
987.544	1434
987.625	-146
987.705	1484
987.786	469
987.866	880
987.947	774
988.027	1410
988.108	581
988.188	638
988.268	717
988.349	513
988.429	143
988.509	998
988.589	88
988.670	-469
988.750	1375
988.830	366
988.910	806
988.990	1071
989.070	539
989.151	466
989.231	-265
989.311	755
989.391	509
989.471	-3
989.551	165
989.631	513
989.711	756
989.791	432
989.870	239
989.950	1203
990.030	543
990.110	583
990.190	165
990.269	630
990.349	747
990.429	449
990.509	999
990.588	595
990.668	605
990.747	653
990.827	751
990.907	-59
990.986	504
991.066	855
991.145	-363
991.225	497
991.304	-18
991.383	-273
991.463	577
991.542	618
991.622	-284
991.701	-188
991.780	393
991.859	135
991.939	-340
992.018	296
992.097	1026
992.176	1091
992.256	-437
992.335	-99
992.414	890
992.493	-327
992.572	-110
992.651	1095
992.730	545
992.809	-89
992.888	528
992.967	452
993.046	247
993.125	-717
993.203	808
993.282	711
993.361	1125
993.440	-16
993.519	-611
993.597	10
993.676	38
993.755	580
993.834	121
993.912	-442
993.991	523
994.069	276
994.148	-585
994.226	243
994.305	-45
994.384	260
994.462	754
994.540	-14
994.619	-1071
994.697	428
994.776	156
994.854	400
994.932	-286
995.011	615
995.089	-16
995.167	105
995.245	106
995.324	-458
995.402	334
995.480	728
995.558	111
995.636	-217
995.714	-727
995.792	384
995.870	-725
995.948	-245
996.026	417
996.104	-384
996.182	-55
996.260	552
996.338	-997
996.416	-353
996.494	188
996.572	288
996.649	-22
996.727	-1410
996.805	-4
996.883	-398
996.960	-529
997.038	133
997.116	-177
997.193	-997
997.271	647
997.348	-138
997.426	-537
997.504	-1270
997.581	232
997.658	111
997.736	-523
997.813	-1274
997.891	-316
997.968	-516
998.046	-21
998.123	-481
998.200	278
998.277	-308
998.355	755
998.432	-1641
998.509	148
998.586	601
998.663	-391
998.741	-172
998.818	-1081
998.895	-1003
998.972	-156
999.049	444
999.126	-810
999.203	770
999.280	260
999.357	199
999.434	-565
999.511	-975
999.587	-27
999.664	18
999.741	-761
999.818	-682
999.895	-764
999.971	-930
1000.048	-144
1000.125	-252
1000.202	-812
1000.278	-635
1000.355	-444
1000.431	-1001
1000.508	-1232
1000.584	477
1000.661	160
1000.738	-1350
1000.814	-1167
1000.890	-119
1000.967	-496
1001.043	-2
1001.120	-1135
1001.196	-116
1001.272	-1136
1001.349	-728
1001.425	106
1001.501	420
1001.577	-484
1001.654	82
1001.730	-918
1001.806	-621
1001.882	-1198
1001.958	-1080
1002.034	-392
1002.110	-34
1002.186	-1525
1002.262	-1128
1002.338	-1113
1002.414	-11
1002.490	-338
1002.566	-724
1002.642	-1018
1002.718	-124
1002.794	-796
1002.870	-535
1002.945	-570
1003.021	-180
1003.097	-1120
1003.173	-413
1003.248	-742
1003.324	-891
1003.400	-1364
1003.475	-982
1003.551	-1306
1003.626	-631
1003.702	-1645
1003.777	-997
1003.853	-1191
1003.928	-723
1004.004	-719
1004.079	-327
1004.155	-902
1004.230	-1116
1004.305	-337
1004.381	-327
1004.456	-128
1004.531	-318
1004.607	-682
1004.682	-651
1004.757	-359
1004.832	-404
1004.907	-568
1004.982	-302
1005.057	-661
1005.133	-669
1005.208	15
1005.283	-906
1005.358	-661
1005.433	-702
1005.508	-422
1005.583	-1455
1005.657	-752
1005.732	-335
1005.807	-1333
1005.882	-890
1005.957	-870
1006.032	-600
1006.106	-672
1006.181	-444
1006.256	-1089
1006.331	-706
1006.405	-963
1006.480	-135
1006.554	-237
1006.629	-512
1006.704	-1265
1006.778	-364
1006.853	-87
1006.927	-1840
1007.002	-1666
1007.076	-1134
1007.150	-806
1007.225	-391
1007.299	-1044
1007.373	-1118
1007.448	-616
1007.522	29
1007.596	-387
1007.671	-1332
1007.745	-1022
1007.819	-1315
1007.893	-1147
1007.967	67
1008.041	-1521
1008.115	-657
1008.190	-1269
1008.264	-390
1008.338	-1652
1008.412	-1380
1008.486	-707
1008.560	-362
1008.633	-1258
1008.707	-1094
1008.781	-78
1008.855	-554
1008.929	-592
1009.003	-1097
1009.076	-567
1009.150	-150
1009.224	-1353
1009.298	-1215
1009.371	-1115
1009.445	-61
1009.519	-343
1009.592	-1124
1009.666	-252
1009.739	-551
1009.813	-1606
1009.886	-542
1009.960	-1837
1010.033	-540
1010.107	-77
1010.180	-1025
1010.253	-688
1010.327	-1274
1010.400	-1166
1010.473	-609
1010.547	0
1010.620	-760
1010.693	373
1010.766	-149
1010.840	-692
1010.913	-587
1010.986	-1675
1011.059	-1139
1011.132	-968
1011.205	-214
1011.278	-787
1011.351	-127
1011.424	-1048
1011.497	-1447
1011.570	-1174
1011.643	-1277
1011.716	-1467
1011.789	-835
1011.862	-532
1011.934	-966
1012.007	-1961
1012.080	38
1012.153	-968
1012.225	-495
1012.298	-406
1012.371	-1328
1012.443	-880
1012.516	-839
1012.588	-372
1012.661	-1180
1012.733	-1683
1012.806	-556
1012.879	-1116
1012.951	-1190
1013.023	-1524
1013.096	-729
1013.168	-829
1013.241	-404
1013.313	-1402
1013.385	-1312
1013.458	-1227
1013.530	384
1013.602	-892
1013.674	-335
1013.746	-1220
1013.819	-829
1013.891	-844
1013.963	-1541
1014.035	-913
1014.107	-844
1014.179	-628
1014.251	-903
1014.323	-464
1014.395	-1163
1014.467	-1306
1014.539	-776
1014.611	-1390
1014.683	-652
1014.754	-417
1014.826	-1139
1014.898	-479
1014.970	-1758
1015.042	-659
1015.113	-957
1015.185	-2074
1015.257	-1179
1015.328	-704
1015.400	-1350
1015.471	-799
1015.543	-1608
1015.615	-1564
1015.686	-991
1015.757	-799
1015.829	-907
1015.901	-1356
1015.972	-1216
1016.043	-1097
1016.115	-799
1016.186	-1363
1016.257	-1077
1016.328	-683
1016.400	296
1016.471	-1023
1016.542	-1786
1016.613	-824
1016.685	-1199
1016.756	-834
1016.827	-503
1016.898	-901
1016.969	-445
1017.040	-274
1017.111	-991
1017.182	-482
1017.253	-939
1017.324	-1431
1017.395	-1756
1017.466	-1371
1017.537	-840
1017.608	-2132
1017.678	-712
1017.749	-1175
1017.820	-409
1017.891	-600
1017.961	-1108
1018.032	-1748
1018.103	-958
1018.173	-1252
1018.244	-1487
1018.315	-1456
1018.385	-1470
1018.456	-1414
1018.526	-1016
1018.597	-1567
1018.667	-909
1018.738	-1021
1018.808	-828
1018.878	-1214
1018.949	-547
1019.019	-1026
1019.089	-926
1019.160	-1328
1019.230	-1346
1019.300	-1239
1019.371	-1914
1019.441	-430
1019.511	-1332
1019.581	-1739
1019.651	-599
1019.721	-1244
1019.791	-1346
1019.861	-1404
1019.931	-1083
1020.001	-1739
1020.071	-1327
1020.141	-2065
1020.211	-880
1020.281	-1411
1020.351	-1400
1020.421	-725
1020.491	-877
1020.560	-1760
1020.630	-963
1020.700	-621
1020.770	-1551
1020.839	-879
1020.909	-1655
1020.979	-1104
1021.048	-1130
1021.118	-861
1021.187	-978
1021.257	-1716
1021.326	-1612
1021.396	-1183
1021.465	-646
1021.535	-1343
1021.604	-1190
1021.674	-1276
1021.743	-1636
1021.812	-1716
1021.882	-1304
1021.951	-1485
1022.020	-1165
1022.089	-1348
1022.159	-1889
1022.228	-1074
1022.297	-664
1022.366	-1596
1022.435	-907
1022.504	-1107
1022.573	-1388
1022.642	-1214
1022.711	-1625
1022.781	-1366
1022.849	-1574
1022.918	-2021
1022.987	-661
1023.056	-1213
1023.125	-1622
1023.194	-1714
1023.263	-686
1023.331	-1008
1023.400	-2067
1023.469	-2651
1023.538	-1404
1023.606	-2466
1023.675	-1133
1023.744	-1859
1023.812	-1853
1023.881	-1169
1023.949	-1808
1024.018	-1721
1024.086	-1795
1024.155	-1613
1024.223	-1463
1024.292	-1452
1024.360	-905
1024.429	-1762
1024.497	-1910
1024.565	-825
1024.634	-1642
1024.702	-1651
1024.770	-1254
1024.838	-1952
1024.907	-1116
1024.975	-1919
1025.043	-1249
1025.111	-2005
1025.179	-1307
1025.247	-1347
1025.315	-1240
1025.383	-1472
1025.451	-1286
1025.519	-1294
1025.587	-1315
1025.655	-1623
1025.723	-995
1025.791	-1243
1025.859	-1347
1025.927	-1185
1025.995	-1675
1026.062	-1780
1026.130	-1105
1026.198	-1847
1026.266	-1186
1026.333	-918
1026.401	-1060
1026.469	-1343
1026.536	-1136
1026.604	-1337
1026.671	-1653
1026.739	-2314
1026.806	-1266
1026.874	-1467
1026.941	-1656
1027.009	-1658
1027.076	-1154
1027.144	-999
1027.211	-1846
1027.278	-2840
1027.345	-837
1027.413	-1894
1027.480	-1673
1027.547	-1567
1027.614	-1817
1027.682	-1808
1027.749	-1225
1027.816	-2455
1027.883	-1102
1027.950	-1393
1028.017	-1807
1028.084	-1477
1028.151	-1535
1028.218	-1660
1028.285	-1414
1028.352	-1968
1028.419	-2245
1028.486	-1610
1028.553	-1324
1028.619	-1559
1028.686	-1367
1028.753	-1522
1028.820	-1637
1028.886	-1698
1028.953	-1390
1029.020	-1626
1029.086	-1186
1029.153	-1631
1029.220	-1397
1029.286	-2080
1029.353	-1361
1029.419	-1846
1029.486	-1703
1029.552	-1747
1029.619	-1853
1029.685	-2237
1029.751	-1266
1029.818	-589
1029.884	-1304
1029.951	-906
1030.017	-1645
1030.083	-1400
1030.149	-1926
1030.216	-2134
1030.282	-869
1030.348	-1777
1030.414	-2055
1030.480	-1897
1030.546	-879
1030.612	-1985
1030.678	-2180
1030.744	-2572
1030.810	-1557
1030.876	-1973
1030.942	-2208
1031.008	-1636
1031.074	-1314
1031.140	-1484
1031.206	-1344
1031.272	-2320
1031.337	-2048
1031.403	-1636
1031.469	-2115
1031.534	-2116
1031.600	-1595
1031.666	-1823
1031.731	-1798
1031.797	-1271
1031.863	-1424
1031.928	-2418
1031.994	-1549
1032.059	-1690
1032.125	-1746
1032.190	-1707
1032.256	-1963
1032.321	-2065
1032.386	-1965
1032.452	-1077
1032.517	-974
1032.582	-1788
1032.647	-963
1032.713	-2126
1032.778	-1563
1032.843	-1492
1032.908	-2114
1032.974	-484
1033.039	-1634
1033.104	-1304
1033.169	-2021
1033.234	-1680
1033.299	-1310
1033.364	-1762
1033.429	-1143
1033.494	-1184
1033.559	-1201
1033.624	-1122
1033.688	-1712
1033.753	-2127
1033.818	-2301
1033.883	-2056
1033.948	-1090
1034.013	-885
1034.077	-1265
1034.142	-940
1034.207	-794
1034.271	-1663
1034.336	-1015
1034.400	-1023
1034.465	-1313
1034.530	-1114
1034.594	-1398
1034.658	-1684
1034.723	-1123
1034.787	-1425
1034.852	-1578
1034.916	-1758
1034.981	-1276
1035.045	-1775
1035.109	-1833
1035.173	-1334
1035.238	-2048
1035.302	-1424
1035.366	-1222
1035.430	-1432
1035.495	-2034
1035.559	-1306
1035.623	-1232
1035.687	-2340
1035.751	-944
1035.815	-2193
1035.879	-1443
1035.943	-1297
1036.007	-2392
1036.071	-1799
1036.135	-1218
1036.198	-1861
1036.262	-1003
1036.326	-1233
1036.390	-1848
1036.454	-1507
1036.517	-1080
1036.581	-1864
1036.645	-506
1036.709	-1709
1036.772	-1467
1036.836	-1590
1036.900	-857
1036.963	-1492
1037.026	-1077
1037.090	-2398
1037.154	-1375
1037.217	-1841
1037.280	-1876
1037.344	-1113
1037.407	-1202
1037.471	-1242
1037.534	-1610
1037.597	-2017
1037.661	-1411
1037.724	-1411
1037.787	-1902
1037.850	-1334
1037.913	-1422
1037.977	-1608
1038.040	-898
1038.103	-1835
1038.166	-1292
1038.229	-2078
1038.292	-1319
1038.355	-1421
1038.418	-1214
1038.481	-1159
1038.544	-1554
1038.607	-2056
1038.670	-1319
1038.732	-2170
1038.795	-1722
1038.858	-1598
1038.921	-1040
1038.984	-2047
1039.046	-1160
1039.109	-2297
1039.172	-1546
1039.234	-2159
1039.297	-816
1039.360	-1530
1039.422	-1485
1039.485	-1605
1039.547	-2239
1039.610	-1830
1039.672	-1871
1039.734	-1685
1039.797	-1083
1039.859	-2286
1039.922	-1602
1039.984	-1974
1040.046	-2323
1040.109	-1266
1040.171	-2027
1040.233	-1909
1040.295	-1713
1040.358	-1789
1040.420	-1477
1040.482	-2247
1040.544	-1690
1040.606	-1145
1040.668	-1242
1040.730	-2444
1040.792	-1371
1040.854	-2063
1040.916	-1798
1040.978	-1863
1041.040	-947
1041.102	-1126
1041.164	-1466
1041.225	-2423
1041.287	-1170
1041.349	-1287
1041.411	-1702
1041.472	-1206
1041.534	-1870
1041.596	-1752
1041.657	-852
1041.719	-1678
1041.781	-1981
1041.842	-1878
1041.904	-1994
1041.965	-1684
1042.027	-1764
1042.088	-1734
1042.150	-893
1042.211	-1425
1042.272	-1651
1042.334	-1240
1042.395	-1107
1042.456	-1418
1042.518	-1618
1042.579	-1072
1042.640	-849
1042.701	-1477
1042.763	-1874
1042.824	-1868
1042.885	-1856
1042.946	-2258
1043.007	-1753
1043.068	-2072
1043.129	-1022
1043.190	-1806
1043.251	-1545
1043.312	-1627
1043.373	-1475
1043.434	-1564
1043.495	-1656
1043.556	-2447
1043.616	-1330
1043.677	-1865
1043.738	-1137
1043.799	-2357
1043.859	-1389
1043.920	-1219
1043.981	-750
1044.041	-1863
1044.102	-1213
1044.162	-1307
1044.223	-1904
1044.284	-1726
1044.344	-1560
1044.405	-1908
1044.465	-1479
1044.525	-1923
1044.586	-1470
1044.646	-1259
1044.707	-552
1044.767	-1461
1044.827	-946
1044.887	-1626
1044.948	-1513
1045.008	-1335
1045.068	-1361
1045.128	-1935
1045.188	-1669
1045.249	-1396
1045.309	-1338
1045.369	-1554
1045.429	-1393
1045.489	-1711
1045.549	-850
1045.609	-1267
1045.669	-1570
1045.729	-2166
1045.789	-936
1045.848	-1005
1045.908	-1811
1045.968	-1392
1046.028	-2104
1046.088	-1215
1046.147	-1030
1046.207	-1912
1046.267	-1457
1046.326	-1073
1046.386	-1268
1046.446	-210
1046.505	-591
1046.565	-999
1046.624	-786
1046.684	-817
1046.743	-484
1046.803	-1081
1046.862	-245
1046.922	0
