'Start Wavelength	183.907
'End Wavelength	1046.922
'Gate Delay	5.000
'Gate Width (ms)	1.050
'Laser Output Level	0.000
'X Position	0.000
'Y Position	0.000
'Z Position	0.000
'Grid Point Number	1.000
'Shot Number	100.000
183.907	790.000
183.977	-348.000
184.047	68
184.116	869
184.186	585
184.256	118
184.325	-248
184.395	-330
184.465	480
184.534	923
184.604	-365
184.674	-102
184.743	75
184.813	-258
184.883	245
184.952	-32
185.022	-83
185.092	183
185.161	-303
185.231	-131
185.301	-194
185.370	257
185.440	-743
185.509	-75
185.579	-595
185.649	231
185.718	206
185.788	-10
185.857	-1042
185.927	-343
185.996	-255
186.066	-449
186.136	-718
186.205	370
186.275	-19
186.344	287
186.414	110
186.483	249
186.553	304
186.622	1412
186.692	-698
186.761	-186
186.831	52
186.900	-442
186.970	-155
187.039	405
187.109	191
187.178	18
187.248	132
187.317	303
187.387	-916
187.456	625
187.526	-436
187.595	125
187.664	-596
187.734	-181
187.803	391
187.873	71
187.942	383
188.012	498
188.081	164
188.150	-120
188.220	34
188.289	412
188.358	221
188.428	660
188.497	-596
188.567	25
188.636	-48
188.705	-197
188.775	126
188.844	-552
188.913	393
188.983	331
189.052	-348
189.121	-107
189.191	606
189.260	503
189.329	-431
189.399	-555
189.468	143
189.537	-931
189.606	-194
189.676	19
189.745	3
189.814	100
189.883	202
189.953	-684
190.022	-167
190.091	536
190.161	1261
190.230	533
190.299	-486
190.368	-96
190.437	-431
190.507	13
190.576	289
190.645	318
190.714	576
190.783	19
190.853	-221
190.922	875
190.991	221
191.060	380
191.129	-444
191.198	-152
191.268	75
191.337	-916
191.406	0
191.475	877
191.544	-720
191.613	-166
191.682	-516
191.752	348
191.821	-271
191.890	-127
191.959	-421
192.028	455
192.097	616
192.166	367
192.235	-106
192.304	400
192.373	-110
192.442	-751
192.511	85
192.580	95
192.650	-44
192.719	-47
192.788	324
192.857	456
192.926	-227
192.995	72
193.064	533
193.133	368
193.202	506
193.271	788
193.340	1312
193.409	661
193.478	288
193.547	1194
193.615	1266
193.684	2110
193.753	496
193.822	-62
193.891	724
193.960	525
194.029	112
194.098	97
194.167	-112
194.236	-26
194.305	-236
194.374	54
194.443	561
194.512	204
194.580	478
194.649	-133
194.718	689
194.787	225
194.856	-243
194.925	739
194.994	-379
195.062	1012
195.131	556
195.200	440
195.269	259
195.338	26
195.407	273
195.475	-67
195.544	1177
195.613	163
195.682	396
195.751	726
195.819	734
195.888	732
195.957	668
196.026	962
196.094	925
196.163	1214
196.232	370
196.301	603
196.369	-605
196.438	458
196.507	341
196.576	181
196.644	-102
196.713	175
196.782	-272
196.850	364
196.919	992
196.988	348
197.056	368
197.125	88
197.194	646
197.262	761
197.331	-552
197.400	450
197.468	335
197.537	500
197.606	568
197.674	668
197.743	1079
197.812	-38
197.880	578
197.949	570
198.017	1157
198.086	748
198.155	227
198.223	1226
198.292	950
198.360	2
198.429	652
198.497	-54
198.566	237
198.635	1364
198.703	813
198.772	297
198.840	1631
198.909	636
198.977	461
199.046	-200
199.114	767
199.183	1233
199.251	172
199.320	22
199.388	241
199.457	521
199.525	192
199.594	398
199.662	26
199.731	37
199.799	27
199.867	423
199.936	283
200.004	194
200.073	-120
200.141	312
200.210	-680
200.278	302
200.346	-214
200.415	1079
200.483	819
200.552	307
200.620	134
200.688	800
200.757	117
200.825	73
200.893	83
200.962	703
201.030	319
201.098	221
201.167	760
201.235	45
201.303	-58
201.372	659
201.440	159
201.508	299
201.577	608
201.645	299
201.713	667
201.781	118
201.850	551
201.918	297
201.986	126
202.055	369
202.123	378
202.191	357
202.259	61
202.327	459
202.396	280
202.464	334
202.532	623
202.600	3152
202.669	1328
202.737	372
202.805	558
202.873	63
202.941	291
203.009	-441
203.078	220
203.146	508
203.214	891
203.282	330
203.350	-409
203.418	-6
203.487	55
203.555	-22
203.623	864
203.691	465
203.759	49
203.827	179
203.895	330
203.963	-395
204.031	-9
204.099	112
204.168	5
204.236	523
204.304	673
204.372	817
204.440	246
204.508	473
204.576	244
204.644	-425
204.712	337
204.780	348
204.848	390
204.916	-443
204.984	618
205.052	793
205.120	299
205.188	688
205.256	-606
205.324	551
205.392	-100
205.460	-90
205.528	1009
205.596	782
205.664	841
205.732	256
205.799	2346
205.867	2280
205.935	24
206.003	1026
206.071	126
206.139	-67
206.207	991
206.275	428
206.343	34
206.411	742
206.478	307
206.546	-183
206.614	565
206.682	944
206.750	144
206.818	298
206.885	841
206.953	-1066
207.021	829
207.089	250
207.157	-296
207.225	581
207.292	-231
207.360	771
207.428	-337
207.496	-358
207.563	327
207.631	241
207.699	86
207.767	268
207.834	570
207.902	29
207.970	420
208.038	-159
208.105	602
208.173	817
208.241	766
208.309	1311
208.376	-52
208.444	1724
208.512	1166
208.579	-103
208.647	1017
208.715	942
208.782	-356
208.850	1351
208.918	343
208.985	1325
209.053	983
209.120	1058
209.188	655
209.256	413
209.323	178
209.391	421
209.459	1593
209.526	987
209.594	404
209.661	907
209.729	1408
209.796	485
209.864	880
209.932	-38
209.999	1602
210.067	1309
210.134	548
210.202	1332
210.269	1170
210.337	1026
210.404	200
210.472	589
210.539	597
210.607	781
210.674	963
210.742	816
210.809	149
210.877	780
210.944	1485
211.012	1099
211.079	2014
211.146	882
211.214	892
211.281	979
211.349	1168
211.416	1302
211.484	1754
211.551	867
211.618	751
211.686	614
211.753	96
211.821	828
211.888	67
211.955	483
212.023	596
212.090	1055
212.157	1353
212.225	1097
212.292	1657
212.359	4103
212.427	7450
212.494	3522
212.561	1561
212.629	537
212.696	1270
212.763	1309
212.831	595
212.898	1590
212.965	554
213.032	185
213.100	652
213.167	638
213.234	1642
213.301	1087
213.369	1312
213.436	589
213.503	499
213.570	1348
213.638	1165
213.705	491
213.772	545
213.839	1704
213.906	1146
213.973	853
214.041	265
214.108	385
214.175	815
214.242	1040
214.309	1167
214.376	992
214.444	1002
214.511	1922
214.578	1619
214.645	1082
214.712	1422
214.779	2043
214.846	695
214.913	2089
214.980	1551
215.048	1944
215.115	1857
215.182	1702
215.249	1424
215.316	437
215.383	1698
215.450	1214
215.517	1016
215.584	919
215.651	833
215.718	1061
215.785	1713
215.852	1277
215.919	1163
215.986	1013
216.053	616
216.120	440
216.187	1547
216.254	972
216.321	410
216.388	971
216.455	1529
216.522	1451
216.589	1225
216.656	3389
216.722	1973
216.789	2318
216.856	2279
216.923	1372
216.990	1982
217.057	1613
217.124	2370
217.191	2351
217.258	2501
217.324	3144
217.391	3953
217.458	2002
217.525	1512
217.592	847
217.659	1071
217.725	1682
217.792	1917
217.859	1820
217.926	958
217.993	1157
218.059	913
218.126	1074
218.193	261
218.260	723
218.327	911
218.393	699
218.460	935
218.527	1178
218.594	-357
218.660	1685
218.727	2485
218.794	808
218.860	1367
218.927	-85
218.994	727
219.061	814
219.127	1040
219.194	1538
219.261	993
219.327	-227
219.394	1017
219.461	386
219.527	268
219.594	1510
219.661	489
219.727	90
219.794	996
219.860	-142
219.927	1107
219.994	1699
220.060	2781
220.127	1450
220.193	1022
220.260	1263
220.326	2379
220.393	4320
220.460	5654
220.526	2745
220.593	1922
220.659	2497
220.726	1860
220.792	5081
220.859	3916
220.925	6461
220.992	9324
221.058	7839
221.125	5618
221.191	5186
221.258	2169
221.324	1695
221.391	2524
221.457	839
221.524	736
221.590	1549
221.657	5740
221.723	3514
221.789	3844
221.856	2998
221.922	1218
221.989	966
222.055	701
222.121	177
222.188	2456
222.254	781
222.321	678
222.387	-143
222.453	88
222.520	913
222.586	-284
222.652	1204
222.719	517
222.785	985
222.851	285
222.918	242
222.984	394
223.050	293
223.116	-374
223.183	688
223.249	-376
223.315	-12
223.382	39
223.448	74
223.514	-320
223.580	545
223.647	-87
223.713	-142
223.779	280
223.845	-291
223.911	754
223.978	179
224.044	676
224.110	232
224.176	171
224.242	491
224.309	-248
224.375	-97
224.441	-54
224.507	-276
224.573	-173
224.639	1386
224.705	-134
224.772	568
224.838	320
224.904	1016
224.970	677
225.036	-104
225.102	348
225.168	318
225.234	280
225.300	462
225.366	597
225.432	-13
225.499	82
225.565	306
225.631	305
225.697	117
225.763	289
225.829	1264
225.895	1244
225.961	2766
226.027	1375
226.093	1414
226.159	1773
226.225	3315
226.291	8135
226.357	13292
226.423	6312
226.489	3340
226.554	2521
226.620	2443
226.686	2777
226.752	3844
226.818	7916
226.884	17013
226.950	13419
227.016	5421
227.082	3615
227.148	1353
227.214	3082
227.279	1587
227.345	950
227.411	1069
227.477	1598
227.543	4702
227.609	3914
227.674	2574
227.740	1538
227.806	781
227.872	44
227.938	1323
228.003	1822
228.069	935
228.135	706
228.201	963
228.267	1008
228.332	908
228.398	892
228.464	1275
228.530	97
228.595	858
228.661	166
228.727	1680
228.792	2210
228.858	1219
228.924	-230
228.990	1908
229.055	504
229.121	1386
229.187	677
229.252	725
229.318	31
229.384	1051
229.449	1122
229.515	-605
229.581	-1086
229.646	1301
229.712	1082
229.777	2384
229.843	2144
229.909	1909
229.974	2180
230.040	2052
230.105	1350
230.171	1741
230.236	2023
230.302	3565
230.368	1843
230.433	870
230.499	1398
230.564	1454
230.630	286
230.695	1167
230.761	1016
230.826	312
230.892	1720
230.957	714
231.023	-780
231.088	201
231.154	864
231.219	520
231.284	1642
231.350	1569
231.415	627
231.481	1174
231.546	942
231.612	1303
231.677	576
231.742	-97
231.808	1389
231.873	-157
231.939	-1270
232.004	2137
232.069	1697
232.135	785
232.200	-17
232.265	966
232.331	520
232.396	54
232.461	-313
232.527	73
232.592	57
232.657	952
232.723	1314
232.788	741
232.853	708
232.918	314
232.984	48
233.049	114
233.114	1427
233.179	497
233.245	1927
233.310	2141
233.375	-202
233.440	1210
233.506	705
233.571	-581
233.636	991
233.701	269
233.766	1138
233.832	2025
233.897	728
233.962	193
234.027	1702
234.092	1161
234.157	684
234.222	894
234.288	1813
234.353	5644
234.418	5014
234.483	3458
234.548	1816
234.613	1675
234.678	1720
234.743	1248
234.808	6458
234.873	2337
234.938	1913
235.004	1209
235.069	820
235.134	834
235.199	1014
235.264	1262
235.329	710
235.394	1325
235.459	1938
235.524	1397
235.589	1576
235.654	748
235.719	-479
235.784	840
235.849	1187
235.913	3249
235.978	3289
236.043	4399
236.108	1739
236.173	848
236.238	1596
236.303	847
236.368	760
236.433	2393
236.498	3992
236.563	2533
236.627	6740
236.692	21128
236.757	14863
236.822	5855
236.887	4081
236.952	3469
237.017	1862
237.081	3194
237.146	3853
237.211	9580
237.276	20272
237.341	31014
237.405	14160
237.470	5832
237.535	3973
237.600	1831
237.664	2180
237.729	562
237.794	2597
237.859	5431
237.923	4522
237.988	2283
238.053	3582
238.118	3258
238.182	7447
238.247	7371
238.312	3320
238.376	2794
238.441	766
238.506	2459
238.570	1311
238.635	1840
238.700	753
238.764	741
238.829	3925
238.893	3718
238.958	1958
239.023	1231
239.087	839
239.152	1123
239.216	509
239.281	1821
239.346	295
239.410	380
239.475	1346
239.539	8656
239.604	4943
239.668	1775
239.733	1453
239.797	2321
239.862	7218
239.926	7593
239.991	2344
240.055	648
240.120	1425
240.184	1090
240.249	664
240.313	925
240.378	664
240.442	3610
240.507	6562
240.571	1845
240.635	3223
240.700	4290
240.764	1381
240.829	917
240.893	230
240.957	935
241.022	4586
241.086	7299
241.151	3252
241.215	914
241.279	2082
241.344	3060
241.408	2546
241.472	1928
241.537	2191
241.601	1936
241.665	577
241.730	620
241.794	1761
241.858	1436
241.922	1968
241.987	1809
242.051	1376
242.115	524
242.179	1073
242.244	84
242.308	2249
242.372	1908
242.436	622
242.501	2237
242.565	1068
242.629	930
242.693	794
242.757	238
242.822	71
242.886	1400
242.950	1030
243.014	670
243.078	1816
243.142	1781
243.206	90
243.271	1631
243.335	1303
243.399	2860
243.463	11001
243.527	25960
243.591	8379
243.655	4164
243.719	1420
243.783	2181
243.847	4219
243.911	5002
243.975	6013
244.040	3876
244.104	2972
244.168	1622
244.232	3014
244.296	4452
244.360	3837
244.424	1823
244.488	2541
244.552	1345
244.615	81
244.679	1473
244.743	1593
244.807	1226
244.871	1151
244.935	1393
244.999	208
245.063	437
245.127	2763
245.191	3456
245.255	2062
245.319	2844
245.383	1723
245.446	2307
245.510	889
245.574	1643
245.638	1867
245.702	840
245.766	5170
245.829	3385
245.893	1812
245.957	844
246.021	2083
246.085	1588
246.149	2445
246.212	6847
246.276	8565
246.340	3690
246.404	3401
246.467	3988
246.531	3989
246.595	3156
246.659	3168
246.722	2379
246.786	3886
246.850	4585
246.913	4354
246.977	1438
247.041	2611
247.104	2453
247.168	2114
247.232	6780
247.295	13361
247.359	5632
247.423	2613
247.486	6232
247.550	3408
247.614	2870
247.677	4650
247.741	2379
247.804	1577
247.868	2395
247.932	5016
247.995	12211
248.059	3685
248.122	1998
248.186	3923
248.249	5963
248.313	20824
248.376	20356
248.440	11729
248.503	3713
248.567	5651
248.630	6783
248.694	8891
248.757	11178
248.821	20942
248.884	13173
248.948	11965
249.011	16369
249.075	25431
249.138	20295
249.202	7952
249.265	6143
249.328	6698
249.392	4334
249.455	4191
249.519	3168
249.582	3439
249.645	7082
249.709	5055
249.772	2479
249.835	3141
249.899	3281
249.962	3544
250.025	2772
250.089	8113
250.152	11203
250.215	5298
250.279	3432
250.342	3718
250.405	3679
250.468	3197
250.532	4888
250.595	7854
250.658	27224
250.721	38408
250.785	14210
250.848	8409
250.911	4688
250.974	5532
251.038	6105
251.101	12994
251.164	7110
251.227	7800
251.290	6654
251.354	9128
251.417	35989
251.480	32831
251.543	24713
251.606	62601
251.669	43707
251.732	18330
251.795	19201
251.859	19896
251.922	40618
251.985	22496
252.048	9415
252.111	6481
252.174	6722
252.237	13090
252.300	26250
252.363	28385
252.426	50982
252.489	20901
252.552	12470
252.615	7320
252.678	8946
252.741	19717
252.804	25239
252.867	51818
252.930	31097
252.993	16975
253.056	11412
253.119	7722
253.182	6568
253.245	10380
253.308	8512
253.371	7328
253.434	6623
253.497	7372
253.559	12690
253.622	8304
253.685	12637
253.748	11346
253.811	5078
253.874	7654
253.937	5863
254.000	5093
254.062	8437
254.125	12394
254.188	12379
254.251	9823
254.314	5324
254.376	9289
254.439	11058
254.502	9302
254.565	8825
254.628	16369
254.690	9556
254.753	5281
254.816	4351
254.878	4519
254.941	9092
255.004	8568
255.067	4173
255.129	3691
255.192	3328
255.255	1898
255.317	3451
255.380	1422
255.443	1207
255.505	1368
255.568	1202
255.631	1851
255.693	1810
255.756	689
255.819	1173
255.881	1385
255.944	446
256.006	1088
256.069	1648
256.132	1135
256.194	2742
256.257	6052
256.319	4817
256.382	3810
256.444	3246
256.507	1934
256.569	1836
256.632	1560
256.694	3702
256.757	12743
256.819	32227
256.882	11402
256.944	5022
257.007	5077
257.069	4128
257.132	3142
257.194	2734
257.257	2214
257.319	2279
257.381	2394
257.444	9073
257.506	38298
257.569	38802
257.631	20759
257.693	10016
257.756	4907
257.818	3396
257.880	2076
257.943	2816
258.005	1625
258.067	1738
258.130	1662
258.192	2959
258.254	6179
258.317	3133
258.379	3329
258.441	7290
258.503	6557
258.566	8463
258.628	10577
258.690	2877
258.753	2981
258.815	6691
258.877	2348
258.939	2226
259.001	2177
259.064	942
259.126	2006
259.188	3339
259.250	2455
259.312	3395
259.375	10130
259.437	5264
259.499	1971
259.561	2104
259.623	2650
259.685	1091
259.747	1675
259.809	8319
259.872	14297
259.934	22196
259.996	19164
260.058	4646
260.120	2109
260.182	1158
260.244	1624
260.306	377
260.368	1909
260.430	1116
260.492	5213
260.554	10072
260.616	6926
260.678	13341
260.740	15100
260.802	3403
260.864	3611
260.926	1250
260.988	2225
261.050	1754
261.112	6100
261.174	17297
261.236	11679
261.298	3523
261.359	6404
261.421	9791
261.483	2120
261.545	2616
261.607	1061
261.669	1384
261.731	4746
261.793	11056
261.854	3445
261.916	3259
261.978	2133
262.040	2824
262.102	2683
262.164	3853
262.225	2945
262.287	2252
262.349	6655
262.411	5293
262.472	2229
262.534	4032
262.596	8704
262.658	2709
262.719	676
262.781	3558
262.843	9038
262.904	3980
262.966	2003
263.028	3512
263.090	20089
263.151	44157
263.213	13546
263.275	7249
263.336	3398
263.398	3421
263.459	1523
263.521	1234
263.583	6314
263.644	3743
263.706	1621
263.767	848
263.829	1478
263.891	1037
263.952	794
264.014	-188
264.075	2351
264.137	6910
264.198	3860
264.260	778
264.321	448
264.383	4558
264.444	11810
264.506	2108
264.567	1335
264.629	4554
264.690	8084
264.752	3799
264.813	1967
264.875	1224
264.936	1026
264.998	1352
265.059	1042
265.120	706
265.182	3738
265.243	19114
265.305	15145
265.366	2994
265.427	1765
265.489	1776
265.550	635
265.611	1527
265.673	771
265.734	596
265.795	643
265.857	946
265.918	246
265.979	4628
266.040	29461
266.102	20810
266.163	6146
266.224	4280
266.286	2786
266.347	1017
266.408	2239
266.469	1488
266.530	1273
266.592	346
266.653	3876
266.714	6664
266.775	2304
266.836	753
266.898	-122
266.959	2398
267.020	1604
267.081	1803
267.142	787
267.203	1491
267.264	-209
267.326	2231
267.387	748
267.448	888
267.509	1559
267.570	1103
267.631	265
267.692	291
267.753	1252
267.814	164
267.875	3859
267.936	8513
267.997	3875
268.058	2427
268.119	1681
268.180	1069
268.241	751
268.302	944
268.363	412
268.424	811
268.485	1932
268.546	311
268.607	743
268.668	492
268.729	-16
268.790	1071
268.851	2033
268.912	4851
268.972	5978
269.033	2900
269.094	598
269.155	1221
269.216	357
269.277	193
269.338	314
269.398	726
269.459	499
269.520	2450
269.581	3601
269.642	4967
269.702	2248
269.763	1496
269.824	981
269.885	2639
269.945	4229
270.006	1972
270.067	1204
270.128	728
270.188	984
270.249	703
270.310	-20
270.370	1323
270.431	108
270.492	579
270.553	462
270.613	3665
270.674	8614
270.734	2907
270.795	667
270.856	3452
270.916	1894
270.977	1220
271.038	2767
271.098	1903
271.159	3959
271.219	2911
271.280	1678
271.340	1119
271.401	1112
271.462	4983
271.522	2679
271.583	747
271.643	1839
271.704	1061
271.764	1898
271.825	6465
271.885	21302
271.946	25479
272.006	8428
272.066	12809
272.127	18783
272.187	6334
272.248	3302
272.308	4215
272.369	14132
272.429	7573
272.489	6400
272.550	6584
272.610	7134
272.671	5186
272.731	3918
272.791	6789
272.852	4351
272.912	3761
272.972	1861
273.033	1494
273.093	3160
273.153	4118
273.214	2388
273.274	3335
273.334	12238
273.394	21993
273.455	9239
273.515	9612
273.575	19058
273.635	9208
273.696	12119
273.756	20181
273.816	8296
273.876	5290
273.936	11144
273.997	17596
274.057	4327
274.117	3599
274.177	6244
274.237	26803
274.297	20925
274.358	14743
274.418	17632
274.478	12543
274.538	4951
274.598	3187
274.658	15065
274.718	16813
274.778	5921
274.838	3502
274.898	8176
274.958	23515
275.018	20494
275.078	13113
275.138	5139
275.198	3475
275.258	2392
275.318	3420
275.378	6966
275.438	7513
275.498	4369
275.558	12292
275.618	22463
275.678	14277
275.738	9666
275.798	7060
275.858	3389
275.918	1857
275.978	2713
276.038	2540
276.098	1319
276.157	5819
276.217	16658
276.277	6926
276.337	5223
276.397	2795
276.457	4517
276.517	2181
276.576	2220
276.636	1503
276.696	4346
276.756	9845
276.815	6394
276.875	2384
276.935	3565
276.995	3458
277.055	2535
277.114	2347
277.174	3727
277.234	13431
277.293	4510
277.353	3021
277.413	2339
277.472	2654
277.532	2823
277.592	3365
277.651	15341
277.711	24675
277.771	8550
277.830	32294
277.890	23708
277.950	17074
278.009	45322
278.069	16943
278.128	20012
278.188	27468
278.248	11773
278.307	30594
278.367	15800
278.426	4698
278.486	3696
278.545	2602
278.605	2894
278.664	2470
278.724	3271
278.783	8466
278.843	21749
278.902	6370
278.962	3968
279.021	4976
279.081	7222
279.140	5795
279.199	4672
279.259	5496
279.318	4639
279.378	7609
279.437	13265
279.496	44442
279.556	117673
279.615	87508
279.675	26033
279.734	15517
279.793	22729
279.853	31320
279.912	12845
279.971	7108
280.031	6474
280.090	13054
280.149	22036
280.208	19095
280.268	81533
280.327	77373
280.386	20273
280.445	15743
280.505	13435
280.564	7604
280.623	6223
280.682	8245
280.742	13340
280.801	3637
280.860	3797
280.919	3137
280.978	2630
281.037	2496
281.097	2084
281.156	2551
281.215	1789
281.274	2901
281.333	15765
281.392	11511
281.451	2921
281.510	2305
281.569	2538
281.628	2181
281.688	1821
281.747	2606
281.806	1971
281.865	1869
281.924	1613
281.983	1652
282.042	1265
282.101	1776
282.160	2531
282.219	2055
282.278	2138
282.337	9395
282.396	6378
282.454	2571
282.513	3296
282.572	14997
282.631	7947
282.690	3182
282.749	1809
282.808	3202
282.867	2934
282.926	3728
282.985	2391
283.043	762
283.102	1463
283.161	2140
283.220	7194
283.279	15293
283.338	5233
283.396	2913
283.455	2942
283.514	3548
283.573	6065
283.631	4412
283.690	3592
283.749	2815
283.808	7856
283.866	8635
283.925	3135
283.984	3484
284.043	4465
284.101	5291
284.160	2973
284.219	5133
284.277	4182
284.336	7602
284.395	22338
284.453	17401
284.512	7559
284.570	10240
284.629	9532
284.688	9005
284.746	9586
284.805	12557
284.863	16431
284.922	19834
284.981	23777
285.039	34946
285.098	56989
285.156	113309
285.215	137581
285.273	138470
285.332	114969
285.390	67622
285.449	43896
285.507	30440
285.566	22776
285.624	17403
285.683	13638
285.741	10607
285.799	8908
285.858	7810
285.916	7376
285.975	5584
286.033	5365
286.091	4851
286.150	3457
286.208	4272
286.267	4719
286.325	4669
286.383	6712
286.442	6150
286.500	3622
286.558	2659
286.616	2545
286.675	5265
286.733	4419
286.791	3523
286.850	3963
286.908	5345
286.966	8159
287.024	4351
287.083	1934
287.141	2790
287.199	2298
287.257	4542
287.315	2936
287.374	4085
287.432	9352
287.490	5917
287.548	3637
287.606	1858
287.664	2759
287.723	4161
287.781	5264
287.839	2587
287.897	4350
287.955	4463
288.013	6297
288.071	15724
288.129	62491
288.187	151644
288.245	66635
288.303	21252
288.361	12378
288.419	9267
288.477	7308
288.535	4754
288.593	3735
288.651	2803
288.709	2467
288.767	3125
288.825	1619
288.883	2154
288.941	1937
288.999	1856
289.057	2191
289.115	1296
289.173	1618
289.231	1929
289.289	1449
289.346	1796
289.404	2533
289.462	4927
289.520	5506
289.578	2433
289.636	1151
289.694	1564
289.751	1119
289.809	1678
289.867	2261
289.925	2973
289.983	2988
290.040	1704
290.098	1261
290.156	1987
290.214	2769
290.271	1775
290.329	956
290.387	821
290.444	627
290.502	696
290.560	1854
290.617	1130
290.675	1261
290.733	2088
290.790	1615
290.848	1306
290.906	2687
290.963	1274
291.021	1087
291.078	1627
291.136	2254
291.194	9294
291.251	18113
291.309	5215
291.366	1801
291.424	1139
291.481	2466
291.539	2394
291.596	2004
291.654	956
291.711	427
291.769	2094
291.826	5198
291.884	2983
291.941	1920
291.999	1748
292.056	1698
292.114	2719
292.171	1656
292.228	1755
292.286	2934
292.343	5464
292.401	7325
292.458	4405
292.515	2565
292.573	3709
292.630	3078
292.687	3154
292.745	2304
292.802	3681
292.859	10288
292.917	18464
292.974	10304
293.031	4206
293.089	2415
293.146	1648
293.203	2007
293.260	2122
293.318	2188
293.375	4399
293.432	2143
293.489	1379
293.546	1268
293.604	3890
293.661	11119
293.718	27663
293.775	14562
293.832	7096
293.889	6304
293.947	6701
294.004	3854
294.061	4637
294.118	9259
294.175	19124
294.232	22350
294.289	8330
294.346	4644
294.403	3652
294.460	3210
294.517	2823
294.574	2265
294.631	2000
294.688	3836
294.745	9255
294.802	31942
294.859	33997
294.916	14083
294.973	8599
295.030	6433
295.087	5349
295.144	4616
295.201	3591
295.258	3619
295.315	3645
295.372	12631
295.429	23246
295.486	10676
295.542	6267
295.599	14979
295.656	24310
295.713	17797
295.770	23653
295.827	9628
295.883	4524
295.940	4504
295.997	7854
296.054	6889
296.111	4225
296.167	3641
296.224	2125
296.281	2189
296.338	3170
296.394	2338
296.451	3720
296.508	10403
296.564	19815
296.621	14653
296.678	26163
296.734	35788
296.791	14524
296.848	8018
296.904	7860
296.961	18665
297.018	27670
297.074	19119
297.131	8669
297.187	6328
297.244	8198
297.301	25284
297.357	42291
297.414	16712
297.470	6910
297.527	4967
297.583	4391
297.640	4754
297.696	3781
297.753	3252
297.809	2267
297.866	2558
297.922	1718
297.979	1540
298.035	3103
298.092	5608
298.148	15876
298.204	15238
298.261	7922
298.317	12762
298.374	29846
298.430	18969
298.486	9079
298.543	6650
298.599	7191
298.656	9295
298.712	13546
298.768	27219
298.824	18645
298.881	7485
298.937	4290
298.993	3558
299.050	4773
299.106	3664
299.162	4300
299.218	4250
299.275	3225
299.331	4715
299.387	9138
299.443	29290
299.500	32350
299.556	14557
299.612	7260
299.668	7738
299.724	10089
299.780	11451
299.837	6122
299.893	8819
299.949	26844
300.005	33003
300.061	27212
300.117	41930
300.173	21663
300.229	9582
300.285	11754
300.341	13833
300.397	7708
300.453	4984
300.510	4179
300.566	4654
300.622	6756
300.678	18818
300.734	33703
300.790	28708
300.845	30564
300.901	21705
300.957	30364
301.013	22640
301.069	9180
301.125	5849
301.181	6747
301.237	5214
301.293	4203
301.349	4177
301.405	4160
301.461	5259
301.516	7296
301.572	7019
301.628	9042
301.684	8521
301.740	13556
301.796	21763
301.851	14436
301.907	22028
301.963	22029
302.019	32013
302.074	77700
302.130	80339
302.186	41576
302.242	17635
302.297	10023
302.353	11604
302.409	20903
302.464	17941
302.520	15042
302.576	31239
302.631	35492
302.687	21599
302.743	10359
302.798	5896
302.854	4407
302.910	4602
302.965	6835
303.021	12374
303.076	11249
303.132	13745
303.187	17314
303.243	8870
303.299	5634
303.354	3683
303.410	4069
303.465	3212
303.521	3882
303.576	3395
303.632	4614
303.687	9475
303.743	25482
303.798	21783
303.853	10517
303.909	6000
303.964	5464
304.020	7777
304.075	12630
304.130	11810
304.186	19921
304.241	22290
304.297	18251
304.352	9383
304.358	9036
304.407	6216
304.449	5416
304.463	5154
304.518	5486
304.539	5573
304.573	5685
304.629	5355
304.630	5414
304.684	8330
304.720	16016
304.739	19898
304.794	29813
304.811	25649
304.850	15548
304.902	8026
304.905	7552
304.960	5670
304.992	4812
305.015	4207
305.071	5127
305.083	5117
305.126	4995
305.173	3432
305.181	3190
305.236	2864
305.264	3147
305.292	3448
305.347	4808
305.354	4965
305.402	5888
305.445	6076
305.457	6157
305.512	6893
305.535	6802
305.567	6519
305.622	6894
305.626	7124
305.678	12685
305.716	24393
305.733	28656
305.788	32169
305.807	28492
305.843	21820
305.897	25455
305.898	25491
305.953	25922
305.988	18758
306.008	14608
306.063	8999
306.078	8119
306.118	6224
306.168	4990
306.173	4883
306.228	3812
306.259	3132
306.283	2731
306.338	2989
306.349	2983
306.393	3085
306.440	4194
306.448	4326
306.503	4811
306.530	4938
306.558	6184
306.613	13113
306.620	14255
306.668	21642
306.711	28417
306.723	29232
306.778	24076
306.801	19200
306.833	13189
306.888	6995
306.892	6705
306.943	4504
306.982	4275
306.997	4269
307.052	4133
307.072	4125
307.107	4288
307.162	5264
307.163	5283
307.217	7784
307.253	9332
307.272	9686
307.327	10130
307.343	9588
307.381	8048
307.434	7183
307.436	7374
307.491	14215
307.524	21514
307.546	24236
307.600	26684
307.614	24374
307.655	15090
307.704	7791
307.710	7484
307.765	7326
307.795	9225
307.819	11628
307.874	18191
307.885	18567
307.929	15464
307.975	11494
307.984	11582
308.038	14804
308.065	18326
308.093	29721
308.148	62970
308.156	70773
308.202	120134
308.246	151736
308.257	147792
308.312	84488
308.336	59826
308.366	45649
308.421	29539
308.426	28111
308.475	17771
308.517	12405
308.530	11508
308.585	9538
308.607	9110
308.639	9337
308.694	9922
308.697	10066
308.748	16227
308.787	22687
308.803	23006
308.857	18950
308.877	16903
308.912	14451
308.967	13095
308.967	13099
309.021	18747
309.058	24174
309.076	29535
309.130	51122
309.148	59423
309.185	98192
309.238	165561
309.239	166295
309.293	196733
309.328	192784
309.348	168694
309.402	87751
309.418	66933
309.457	46590
309.508	28506
309.511	28039
309.566	26555
309.598	27279
309.620	32343
309.674	49760
309.688	54278
309.729	54306
309.778	46249
309.783	45038
309.837	29518
309.868	22404
309.892	23637
309.946	30326
309.959	32986
310.001	43888
310.049	53480
310.055	51837
310.109	32048
310.139	20576
310.163	16172
310.218	9454
310.229	8379
310.272	6798
310.319	5798
310.326	5643
310.381	4749
310.409	4399
310.435	4347
310.489	4026
310.499	4025
310.543	4117
310.589	4351
310.598	4386
310.652	4678
310.679	4732
310.706	4276
310.760	3318
310.769	3202
310.814	3041
310.859	2756
310.868	2778
310.923	3021
310.948	3129
310.977	3238
311.031	3711
311.038	3752
311.085	3642
311.128	3530
311.139	3588
311.193	3837
311.218	3988
311.247	3756
311.301	3370
311.308	3312
311.356	3326
311.398	3387
311.410	3299
311.464	2837
311.488	2651
311.518	2716
311.572	2879
311.578	2910
311.626	4384
311.668	5645
311.680	5556
311.734	5053
311.758	4884
311.788	4849
311.842	4698
311.847	4691
311.896	6197
311.937	7519
311.950	7421
312.004	6968
312.027	6742
312.058	5783
312.112	4110
312.117	3947
312.165	3903
312.207	3878
312.297	4454
312.386	4330
312.476	4496
312.566	8751
312.656	5401
312.745	2832
312.835	3592
312.925	3551
313.015	2930
313.104	3134
313.194	2731
313.284	2248
313.374	3998
313.463	4639
313.553	2931
313.643	3138
313.732	2764
313.822	2235
313.912	2909
314.001	4363
314.091	4621
314.180	6063
314.270	5372
314.360	5676
314.449	5577
314.539	3171
314.628	3284
314.718	4012
314.808	4994
314.897	3836
314.987	3495
315.076	4948
315.166	5649
315.255	5198
315.345	5659
315.434	4552
315.524	4290
315.613	5172
315.703	6418
315.792	8704
315.881	21344
315.971	8977
316.060	9647
316.150	12902
316.239	13440
316.328	5667
316.418	3857
316.507	3083
316.597	4975
316.686	4549
316.775	5950
316.865	14610
316.954	4562
317.043	2870
317.133	3370
317.222	2413
317.311	2824
317.400	2061
317.490	5319
317.579	5823
317.668	4131
317.757	5944
317.847	12803
317.936	37359
318.025	19226
318.114	9944
318.203	8098
318.293	9476
318.382	20818
318.471	15821
318.560	20343
318.649	40960
318.738	9544
318.828	5791
318.917	6762
319.006	7224
319.095	16553
319.184	47845
319.273	29425
319.362	14363
319.451	5103
319.540	4735
319.629	9689
319.718	18583
319.807	8147
319.896	14800
319.985	57143
320.074	25351
320.163	6764
320.252	8772
320.341	8267
320.430	7415
320.519	9132
320.608	6528
320.697	5370
320.786	4702
320.875	5755
320.964	8092
321.053	12343
321.142	16401
321.230	20294
321.319	13706
321.408	32469
321.497	14862
321.586	12717
321.675	13958
321.764	14851
321.852	9833
321.941	17457
322.030	12994
322.119	12303
322.207	32719
322.296	22953
322.385	12345
322.474	14027
322.562	37997
322.651	23604
322.740	13544
322.829	20848
322.917	19352
323.006	12966
323.095	11192
323.183	7513
323.272	10843
323.361	17471
323.449	54552
323.538	20472
323.626	36475
323.715	27572
323.804	9146
323.892	34150
323.981	22407
324.069	7057
324.158	16916
324.246	20590
324.335	6954
324.424	11681
324.512	5916
324.601	6650
324.689	12881
324.778	26434
324.866	15022
324.954	4881
325.043	3634
325.131	8288
325.220	14489
325.308	17362
325.397	12267
325.485	9390
325.574	2994
325.662	3109
325.750	4224
325.839	3680
325.927	2543
326.015	4420
326.104	5472
326.192	8864
326.280	2317
326.369	3262
326.457	5020
326.545	9789
326.634	4888
326.722	2471
326.810	2720
326.898	3269
326.987	3184
327.075	8451
327.163	9912
327.251	5263
327.340	9051
327.428	15672
327.516	3326
327.604	3165
327.692	3150
327.781	3989
327.869	6674
327.957	4135
328.045	4448
328.133	3110
328.221	2655
328.309	3535
328.397	2846
328.485	3817
328.574	6350
328.662	19628
328.750	11367
328.838	4962
328.926	3597
329.014	2482
329.102	4739
329.190	12018
329.278	9116
329.366	2965
329.454	1759
329.542	3255
329.630	1644
329.718	3242
329.806	3489
329.893	3480
329.981	3191
330.069	4839
330.157	17408
330.245	56940
330.333	34298
330.421	6593
330.509	5725
330.597	23967
330.684	17580
330.772	6209
330.860	7535
330.948	11096
331.036	5337
331.123	1832
331.211	2384
331.299	3855
331.387	7823
331.475	17628
331.562	5419
331.650	2316
331.738	3242
331.825	4715
331.913	2497
332.001	1939
332.089	4018
332.176	7716
332.264	17229
332.352	15960
332.439	5373
332.527	3812
332.614	2911
332.702	5003
332.790	2616
332.877	8249
332.965	19042
333.052	6740
333.140	6056
333.228	16477
333.315	5245
333.403	3799
333.490	10648
333.578	10750
333.665	20256
333.753	10167
333.840	2691
333.928	3818
334.015	10511
334.103	16816
334.190	59320
334.278	18241
334.365	7635
334.452	5924
334.540	3045
334.627	3991
334.715	6980
334.802	11129
334.889	57231
334.977	71769
335.064	13139
335.151	5200
335.239	4991
335.326	6982
335.413	27833
335.501	45550
335.588	5967
335.675	4574
335.762	4927
335.850	11007
335.937	7240
336.024	16510
336.111	71522
336.199	39199
336.286	8819
336.373	4835
336.460	2474
336.547	3973
336.635	4436
336.722	4307
336.809	3608
336.896	5870
336.983	16914
337.070	44622
337.157	65480
337.245	41604
337.332	33415
337.419	4892
337.506	3121
337.593	4560
337.680	12615
337.767	48099
337.854	13938
337.941	14030
338.028	16145
338.115	6800
338.202	5953
338.289	10906
338.376	42453
338.463	16203
338.550	24281
338.637	31142
338.724	8397
338.811	14769
338.898	3195
338.984	2705
339.071	3770
339.158	5067
339.245	11587
339.332	8193
339.419	8455
339.506	9824
339.593	1183
339.679	2515
339.766	2266
339.853	3194
339.940	9138
340.027	3647
340.113	2877
340.200	5234
340.287	2927
340.374	3959
340.460	8163
340.547	4308
340.634	5432
340.720	22505
340.807	15445
340.894	3259
340.980	3217
341.067	3409
341.154	3452
341.240	4142
341.327	12616
341.414	4046
341.500	4186
341.587	3401
341.674	2716
341.760	7828
341.847	9527
341.933	3090
342.020	1835
342.106	2395
342.193	2864
342.279	6327
342.366	4155
342.452	8018
342.539	3965
342.625	9065
342.712	25521
342.798	11528
342.885	4496
342.971	1595
343.058	1481
343.144	1794
343.230	2483
343.317	2157
343.403	2282
343.490	2038
343.576	1234
343.662	2599
343.749	3274
343.835	4725
343.921	6753
344.008	35039
344.094	96286
344.180	25019
344.267	8032
344.353	26117
344.439	33390
344.525	12527
344.612	5807
344.698	3990
344.784	3155
344.870	2229
344.957	2195
345.043	4891
345.129	3036
345.215	7189
345.301	3842
345.387	3418
345.474	1771
345.560	1772
345.646	2236
345.732	2984
345.818	3406
345.904	3062
345.990	3835
346.076	3429
346.162	6453
346.249	3318
346.335	1553
346.421	2416
346.507	8514
346.593	41661
346.679	10854
346.765	3343
346.851	2257
346.937	2363
347.023	3059
347.108	2795
347.194	2247
347.280	2603
347.366	3516
347.452	10431
347.538	46446
347.624	36684
347.710	30644
347.796	5381
347.882	3117
347.967	2912
348.053	3571
348.139	2910
348.225	2918
348.311	2276
348.397	2928
348.482	3193
348.568	4166
348.654	1310
348.740	4258
348.825	3614
348.911	5254
348.997	18535
349.083	45442
349.168	8277
349.254	3283
349.340	3299
349.425	2155
349.511	3343
349.597	3883
349.682	8346
349.768	28999
349.854	15759
349.939	3302
350.025	2522
350.110	2316
350.196	1684
350.282	1520
350.367	1982
350.453	3664
350.538	4951
350.624	3925
350.709	4297
350.795	1644
350.880	2406
350.966	3034
351.051	4774
351.137	3600
351.222	2342
351.308	7324
351.393	26735
351.479	7998
351.564	2506
351.649	1962
351.735	2215
351.820	2214
351.906	2720
351.991	3165
352.076	13937
352.162	26902
352.247	4899
352.332	3842
352.418	6430
352.503	8323
352.588	35276
352.673	33131
352.759	6822
352.844	3193
352.929	3057
353.014	5550
353.100	4283
353.185	7022
353.270	10394
353.355	10010
353.441	3283
353.526	3387
353.611	7312
353.696	9806
353.781	5773
353.866	3510
353.952	2796
354.037	6768
354.122	18471
354.207	16819
354.292	7267
354.377	2818
354.462	2133
354.547	4009
354.632	3842
354.717	5361
354.802	8123
354.887	3566
354.972	1873
355.057	1985
355.142	1615
355.227	3435
355.312	4806
355.397	11247
355.482	28807
355.567	15803
355.652	10327
355.737	10254
355.822	31653
355.907	31747
355.991	5412
356.076	2877
356.161	2722
356.246	1897
356.331	3227
356.416	6020
356.501	45493
356.585	57766
356.670	8635
356.755	5720
356.840	6583
356.924	29576
357.009	122684
357.094	51984
357.179	10464
357.263	7278
357.348	6397
357.433	7755
357.517	6687
357.602	5565
357.687	4231
357.771	7168
357.856	24059
357.941	15368
358.025	21390
358.110	108241
358.195	59569
358.279	9146
358.364	5835
358.448	20619
358.533	61932
358.617	47649
358.702	45486
358.787	17431
358.871	8333
358.956	8301
359.040	3435
359.125	2070
359.209	3398
359.294	11093
359.378	20396
359.462	8972
359.547	4975
359.631	2905
359.716	2387
359.800	2475
359.885	5243
359.969	3554
360.053	2322
360.138	3894
360.222	4829
360.306	8724
360.391	8713
360.475	11628
360.559	30334
360.644	23849
360.728	18635
360.812	23167
360.896	78305
360.981	34363
361.065	20056
361.149	5464
361.233	4857
361.318	4258
361.402	4907
361.486	5289
361.570	2884
361.654	4900
361.739	10733
361.823	42799
361.907	80694
361.991	15901
362.075	7692
362.159	17178
362.243	13292
362.327	12083
362.411	19607
362.495	10056
362.580	4920
362.664	3527
362.748	3033
362.832	4014
362.916	6280
363.000	24745
363.084	71555
363.168	98432
363.252	24716
363.336	8590
363.420	10535
363.503	38251
363.587	55139
363.671	9787
363.755	6245
363.839	9860
363.923	4716
364.007	9124
364.091	11760
364.175	13191
364.258	66888
364.342	51840
364.426	63860
364.510	39116
364.594	14630
364.677	13732
364.761	60974
364.845	52384
364.929	16688
365.013	14062
365.096	10136
365.180	13523
365.264	14576
365.347	67147
365.431	33198
365.515	8890
365.598	3971
365.682	4013
365.766	6822
365.849	10309
365.933	4449
366.017	6553
366.100	6301
366.184	1888
366.267	3688
366.351	2886
366.435	2247
366.518	2144
366.602	1779
366.685	3200
366.769	3115
366.852	5156
366.936	11473
367.019	6541
367.103	5387
367.186	11043
367.270	4164
367.353	1320
367.436	2709
367.520	1533
367.603	3945
367.687	4418
367.770	11739
367.853	5909
367.937	18385
368.020	37271
368.104	8830
368.187	7045
368.270	11874
368.353	10688
368.437	11948
368.520	28281
368.603	19592
368.687	22093
368.770	49784
368.853	12708
368.936	10942
369.020	11338
369.103	4126
369.186	2737
369.269	3391
369.352	7089
369.436	10362
369.519	6281
369.602	2663
369.685	3866
369.768	3864
369.851	3434
369.934	2518
370.018	3694
370.101	8622
370.184	7922
370.267	5534
370.350	8829
370.433	13039
370.516	33397
370.599	47674
370.682	13274
370.765	24102
370.848	28522
370.931	57689
371.014	25567
371.097	4658
371.180	3525
371.263	2848
371.346	1558
371.429	2741
371.511	3038
371.594	5392
371.677	9767
371.760	12431
371.843	8260
371.926	33761
372.009	94326
372.091	34541
372.174	18845
372.257	51454
372.340	22459
372.423	15576
372.505	20041
372.588	8564
372.671	14540
372.754	55090
372.836	32207
372.919	18755
373.002	44620
373.085	15262
373.167	8394
373.250	21531
373.332	51166
373.415	57237
373.498	127880
373.580	51706
373.663	53252
373.746	86397
373.828	21441
373.911	9302
373.993	9284
374.076	37243
374.159	41734
374.241	14534
374.324	44721
374.406	33972
374.489	30884
374.571	107254
374.654	51119
374.736	18802
374.819	61582
374.901	87484
374.983	99999
375.066	19888
375.148	6966
375.231	26752
375.313	65591
375.395	26115
375.478	6103
375.560	4078
375.643	5391
375.725	16705
375.807	77461
375.890	69779
375.972	28208
376.054	14361
376.136	22560
376.219	11459
376.301	19228
376.383	73020
376.465	31815
376.548	15837
376.630	18526
376.712	63010
376.794	33721
376.877	4343
376.959	2026
377.041	3490
377.123	6745
377.205	10848
377.287	2137
377.369	2596
377.452	2546
377.534	3073
377.616	2257
377.698	2983
377.780	1377
377.862	3001
377.944	3667
378.026	1588
378.108	2009
378.190	1103
378.272	2312
378.354	912
378.436	1898
378.518	3426
378.600	16492
378.682	14956
378.764	30140
378.846	28090
378.928	7998
379.010	9967
379.091	6781
379.173	3376
379.255	2250
379.337	4719
379.419	13353
379.501	46858
379.583	21874
379.664	5317
379.746	10132
379.828	31012
379.910	42646
379.991	41021
380.073	7914
380.155	3990
380.237	3217
380.318	2391
380.400	2414
380.482	6005
380.564	11796
380.645	10373
380.727	10890
380.809	6372
380.890	4127
380.972	3553
381.053	3567
381.135	4107
381.217	9233
381.298	34917
381.380	18421
381.461	11563
381.543	53130
381.624	79327
381.706	15855
381.787	7238
381.869	7720
381.951	20085
382.032	92928
382.113	69236
382.195	15108
382.276	10415
382.358	18413
382.439	55690
382.521	57225
382.602	96805
382.684	45178
382.765	77382
382.846	96531
382.928	161343
383.009	97496
383.090	51771
383.172	191036
383.253	333941
383.334	115489
383.416	93487
383.497	55728
383.578	25797
383.659	43985
383.741	151967
383.822	433524
383.903	253093
383.984	73245
384.066	110990
384.147	76399
384.228	17553
384.309	12118
384.390	10089
384.471	6866
384.553	7342
384.634	9456
384.715	11010
384.796	5522
384.877	6963
384.958	26803
385.039	40614
385.120	14252
385.201	7408
385.282	7937
385.363	9497
385.444	7434
385.525	11616
385.606	41753
385.687	41177
385.768	11086
385.849	9981
385.930	39228
386.011	78381
386.092	23608
386.173	5493
386.254	4827
386.335	5015
386.416	6273
386.496	16703
386.577	35508
386.658	13222
386.739	7737
386.820	7655
386.901	5431
386.981	6024
387.062	3717
387.143	7382
387.224	30458
387.304	34188
387.385	11580
387.466	6928
387.547	9708
387.627	6549
387.708	10253
387.789	51826
387.869	73097
387.950	22160
388.031	3918
388.111	2466
388.192	9692
388.273	16827
388.353	9853
388.434	5710
388.514	8104
388.595	43094
388.676	66795
388.756	33498
388.837	29294
388.917	20454
388.998	4514
389.078	4554
389.159	3336
389.239	2121
389.320	5702
389.400	5056
389.480	10015
389.561	35359
389.641	20214
389.722	5778
389.802	9028
389.883	12422
389.963	38954
390.043	28164
390.124	8495
390.204	10945
390.284	34933
390.365	26358
390.445	23473
390.525	61227
390.605	57906
390.686	21408
390.766	7790
390.846	5089
390.927	2764
391.007	3234
391.087	4284
391.167	5335
391.247	2652
391.328	5788
391.408	9646
391.488	8210
391.568	1599
391.648	4387
391.728	7490
391.808	6523
391.888	6935
391.969	16354
392.049	32715
392.129	14482
392.209	13114
392.289	40031
392.369	23406
392.449	19672
392.529	12511
392.609	9506
392.689	11374
392.769	36021
392.849	35503
392.929	22274
393.009	53930
393.089	46433
393.169	33595
393.248	91801
393.328	357489
393.408	442788
393.488	134872
393.568	37561
393.648	17692
393.728	11851
393.807	8972
393.887	8176
393.967	7206
394.047	8079
394.127	9680
394.206	14293
394.286	42808
394.366	212143
394.446	273132
394.525	67585
394.605	15953
394.685	11447
394.764	23923
394.844	44677
394.924	35401
395.003	10252
395.083	7194
395.163	6540
395.242	5045
395.322	6945
395.402	3182
395.481	6540
395.561	14583
395.640	49459
395.720	40929
395.799	52812
395.879	46904
395.958	22208
396.038	64835
396.117	282924
396.197	359729
396.276	113374
396.356	35254
396.435	25058
396.515	17810
396.594	17903
396.673	29996
396.753	97698
396.832	343219
396.912	297906
396.991	77983
397.070	20888
397.150	10672
397.229	9034
397.308	10864
397.388	20918
397.467	11087
397.546	5430
397.625	2591
397.705	5368
397.784	6207
397.863	3583
397.942	2837
398.022	2790
398.101	10954
398.180	45212
398.259	26174
398.338	6784
398.417	4808
398.497	3207
398.576	3672
398.655	1525
398.734	1693
398.813	2150
398.892	10280
398.971	48020
399.050	27454
399.129	3311
399.208	1847
399.287	1785
399.366	833
399.445	1740
399.524	2317
399.603	1405
399.682	3831
399.761	12440
399.840	48435
399.919	44746
399.998	5910
400.077	1333
400.156	156
400.235	4182
400.313	2068
400.392	2882
400.471	14702
400.550	28473
400.629	7873
400.708	2918
400.786	2872
400.865	9574
400.944	11463
401.023	6106
401.102	1044
401.180	948
401.259	708
401.338	2559
401.416	2891
401.495	2424
401.574	2790
401.652	1372
401.731	3232
401.810	2465
401.888	1552
401.967	885
402.046	2481
402.124	3019
402.203	4318
402.281	2902
402.360	4627
402.438	12407
402.517	9919
402.596	2644
402.674	2913
402.753	825
402.831	966
402.910	2110
402.988	8554
403.066	44496
403.145	29753
403.223	11981
403.302	35765
403.380	28938
403.459	27442
403.537	11514
403.615	3976
403.694	258
403.772	1276
403.850	948
403.929	247
404.007	476
404.085	4496
404.164	5512
404.242	1685
404.320	1500
404.398	4468
404.477	11317
404.555	67792
404.633	73144
404.711	11681
404.789	3023
404.868	2199
404.946	794
405.024	747
405.102	248
405.180	621
405.258	218
405.336	862
405.415	607
405.493	4602
405.571	4875
405.649	451
405.727	283
405.805	3244
405.883	2676
405.961	2429
406.039	4083
406.117	498
406.195	2699
406.273	12208
406.351	65393
406.429	47012
406.507	6986
406.585	1451
406.663	1826
406.740	2454
406.818	2382
406.896	595
406.974	2096
407.052	3258
407.130	32913
407.208	59570
407.285	13178
407.363	1474
407.441	1426
407.519	659
407.596	2148
407.674	6104
407.752	31028
407.830	31964
407.907	11235
407.985	2343
408.063	1678
408.141	345
408.218	3209
408.296	3476
408.373	2297
408.451	2942
408.529	2338
408.606	343
408.684	303
408.762	-20
408.839	-383
408.917	-474
408.994	273
409.072	227
409.149	633
409.227	2477
409.304	3167
409.382	2514
409.459	2830
409.537	5400
409.614	4600
409.692	2485
409.769	2609
409.846	4668
409.924	7733
410.001	4182
410.079	3295
410.156	1887
410.233	1923
410.311	908
410.388	396
410.465	1288
410.543	1925
410.620	1547
410.697	1388
410.775	1912
410.852	-188
410.929	1672
411.006	4109
411.083	2069
411.161	4668
411.238	5401
411.315	2745
411.392	1337
411.469	2394
411.547	3238
411.624	279
411.701	655
411.778	990
411.855	4016
411.932	2684
412.009	1233
412.086	830
412.163	1611
412.240	2090
412.317	2615
412.394	1863
412.471	355
412.548	-34
412.625	532
412.702	882
412.779	4287
412.856	2875
412.933	236
413.010	535
413.087	1543
413.164	12810
413.241	23995
413.318	5593
413.395	2659
413.471	4909
413.548	2201
413.625	1586
413.702	1259
413.779	1475
413.855	-121
413.932	-302
414.009	-747
414.086	569
414.162	427
414.239	1254
414.316	11919
414.393	35504
414.469	13075
414.546	926
414.623	796
414.699	-207
414.776	490
414.853	163
414.929	886
415.006	811
415.082	1133
415.159	1391
415.236	666
415.312	950
415.389	3042
415.465	3863
415.542	1969
415.618	-150
415.695	2786
415.771	915
415.848	1275
415.924	1924
416.000	974
416.077	802
416.153	-1045
416.230	-492
416.306	-466
416.383	-109
416.459	618
416.535	-918
416.612	367
416.688	50
416.764	468
416.841	-588
416.917	933
416.993	626
417.069	1609
417.146	1412
417.222	2131
417.298	1927
417.374	-443
417.451	1339
417.527	1067
417.603	1281
417.679	1079
417.755	1028
417.831	-1
417.908	959
417.984	-188
418.060	-665
418.136	2688
418.212	5315
418.288	1434
418.364	823
418.440	556
418.516	1936
418.592	2523
418.668	6627
418.744	10153
418.820	8218
418.896	2171
418.972	11
419.048	709
419.124	4737
419.200	2944
419.276	-7
419.352	-644
419.428	330
419.504	256
419.579	1733
419.655	-178
419.731	1783
419.807	5265
419.883	10796
419.959	8581
420.034	2716
420.110	3285
420.186	19589
420.262	18510
420.337	2368
420.413	1393
420.489	786
420.565	638
420.640	435
420.716	599
420.792	-307
420.867	1481
420.943	187
421.019	2827
421.094	2497
421.170	1231
421.245	860
421.321	1438
421.397	1446
421.472	4728
421.548	16159
421.623	14202
421.699	3968
421.774	3097
421.850	2081
421.925	4592
422.001	4500
422.076	4780
422.152	4709
422.227	7904
422.302	10525
422.378	13699
422.453	23720
422.529	57824
422.604	167289
422.679	279186
422.755	213627
422.830	87104
422.905	32766
422.981	18117
423.056	10912
423.131	8024
423.207	5946
423.282	5306
423.357	8835
423.432	6330
423.508	5550
423.583	10266
423.658	10608
423.733	3307
423.808	3104
423.883	4476
423.959	3818
424.034	3426
424.109	2939
424.184	539
424.259	1317
424.334	1242
424.409	314
424.484	825
424.559	1433
424.634	580
424.709	2165
424.784	3078
424.859	754
424.934	2600
425.009	12930
425.084	25730
425.159	11751
425.234	1901
425.309	511
425.384	5555
425.459	11601
425.534	4196
425.609	1376
425.683	608
425.758	282
425.833	783
425.908	1754
425.983	6209
426.058	26618
426.132	13266
426.207	2570
426.282	3640
426.357	3231
426.431	373
426.506	783
426.581	1667
426.655	1129
426.730	674
426.805	1044
426.879	1757
426.954	1374
427.029	2810
427.103	20153
427.178	60105
427.253	32392
427.327	3639
427.402	3221
427.476	13097
427.551	8023
427.625	2117
427.700	2328
427.774	-108
427.849	1582
427.923	-292
427.998	786
428.072	497
428.147	4128
428.221	17256
428.296	62827
428.370	40851
428.444	5036
428.519	4464
428.593	9465
428.667	9188
428.742	10061
428.816	10497
428.890	35235
428.965	73572
429.039	25969
429.113	13671
429.188	6445
429.262	1308
429.336	3162
429.410	11715
429.485	9602
429.559	8004
429.633	8151
429.707	1357
429.781	6301
429.855	39040
429.930	75073
430.004	36357
430.078	47533
430.152	48081
430.226	72685
430.300	91208
430.374	17256
430.448	4466
430.522	11868
430.596	45859
430.670	32237
430.744	58580
430.818	109414
430.892	27537
430.966	3438
431.040	2126
431.114	279
431.188	-768
431.262	1047
431.336	521
431.410	3758
431.484	13115
431.557	12133
431.631	1766
431.705	1410
431.779	7768
431.853	50979
431.927	48071
432.000	6162
432.074	1309
432.148	1431
432.222	1371
432.295	408
432.369	184
432.443	1510
432.516	18386
432.590	61691
432.664	29280
432.737	3059
432.811	132
432.885	48
432.958	26
433.032	-1327
433.106	26
433.179	-43
433.253	-230
433.326	-510
433.400	-391
433.473	-678
433.547	-509
433.620	373
433.694	1450
433.767	2743
433.841	25
433.914	-24
433.988	277
434.061	-340
434.134	-370
434.208	-726
434.281	-422
434.355	148
434.428	-99
434.501	265
434.575	-427
434.648	184
434.721	-1446
434.795	-414
434.868	-1195
434.941	-759
435.014	-834
435.088	-169
435.161	785
435.234	2897
435.307	3844
435.381	2129
435.454	898
435.527	2733
435.600	1854
435.673	2622
435.746	1276
435.819	230
435.892	342
435.966	359
436.039	-313
436.112	140
436.185	55
436.258	-392
436.331	-625
436.404	-852
436.477	-1151
436.550	-90
436.623	-340
436.696	-873
436.769	534
436.842	206
436.915	193
436.987	1543
437.060	501
437.133	-446
437.206	-797
437.279	377
437.352	-977
437.425	-473
437.498	-324
437.570	2918
437.643	3815
437.716	349
437.789	-690
437.861	1300
437.934	9455
438.007	6130
438.080	31
438.152	522
438.225	2408
438.298	22571
438.370	87634
438.443	48709
438.516	11780
438.588	2566
438.661	219
438.734	-500
438.806	314
438.879	1169
438.951	1065
439.024	5449
439.096	1569
439.169	80
439.241	-282
439.314	-644
439.386	246
439.459	2626
439.531	4754
439.604	1975
439.676	229
439.749	-346
439.821	-122
439.893	581
439.966	-204
440.038	226
440.110	1357
440.183	227
440.255	-4
440.327	1313
440.400	9454
440.472	54481
440.544	49787
440.617	6410
440.689	3158
440.761	4420
440.833	9183
440.905	7766
440.978	922
441.050	-559
441.122	-96
441.194	-790
441.266	439
441.338	-175
441.411	1939
441.483	15143
441.555	33188
441.627	9657
441.699	2872
441.771	3336
441.843	754
441.915	335
441.987	-789
442.059	306
442.131	976
442.203	2663
442.275	3083
442.347	3524
442.419	3827
442.491	23579
442.563	81786
442.635	49717
442.706	18556
442.778	16679
442.850	3708
442.922	1562
442.994	1027
443.066	3929
443.137	3367
443.209	1843
443.281	3389
443.353	8175
443.425	31103
443.496	127850
443.568	160023
443.640	73609
443.711	15339
443.783	5281
443.855	3523
443.926	1649
443.998	1526
444.070	2729
444.141	1836
444.213	3853
444.285	5429
444.356	3118
444.428	3047
444.499	2203
444.571	428
444.642	86
444.714	1251
444.785	3335
444.857	4416
444.928	10341
445.000	8464
445.071	6636
445.143	9994
445.214	7283
445.285	8569
445.357	25285
445.428	78236
445.500	214305
445.571	166025
445.642	93511
445.714	35049
445.785	25410
445.856	11102
445.928	5921
445.999	5212
446.070	4397
446.141	4298
446.213	5696
446.284	3434
446.355	2508
446.426	1614
446.497	883
446.569	2635
446.640	5305
446.711	5251
446.782	1600
446.853	1591
446.924	2956
446.995	1873
447.066	1679
447.138	3460
447.209	3780
447.280	386
447.351	46
447.422	-843
447.493	1097
447.564	2264
447.635	2816
447.706	841
447.777	-47
447.847	257
447.918	-171
447.989	1226
448.060	3174
448.131	7145
448.202	8108
448.273	5702
448.344	2148
448.414	362
448.485	516
448.556	899
448.627	403
448.698	648
448.768	-150
448.839	393
448.910	3349
448.981	3791
449.051	2306
449.122	660
449.193	216
449.263	-172
449.334	490
449.405	1713
449.475	4489
449.546	5083
449.616	5176
449.687	5262
449.758	1503
449.828	646
449.899	1100
449.969	1266
450.040	345
450.110	673
450.181	1504
450.251	504
450.322	616
450.392	672
450.463	1094
450.533	359
450.604	328
450.674	729
450.744	780
450.815	180
450.885	1181
450.955	287
451.026	232
451.096	177
451.166	1410
451.237	4359
451.307	13075
451.377	9540
451.447	867
451.518	1153
451.588	1030
451.658	513
451.728	2641
451.799	10799
451.869	20390
451.939	5878
452.009	925
452.079	891
452.149	923
452.219	1799
452.289	13448
452.360	16984
452.430	4519
452.500	1833
452.570	2685
452.640	4462
452.710	12398
452.780	23827
452.850	17719
452.920	15086
452.990	7223
453.060	1484
453.129	3679
453.199	4864
453.269	12325
453.339	44458
453.409	76644
453.479	54127
453.549	88061
453.619	101077
453.688	59764
453.758	9756
453.828	2552
453.898	1803
453.968	1733
454.037	971
454.087	1156
454.107	1212
454.168	1327
454.177	1323
454.247	284
454.249	320
454.316	577
454.330	731
454.386	1229
454.411	3168
454.456	6070
454.492	10303
454.525	14035
454.574	9200
454.595	7109
454.655	2574
454.665	1865
454.734	1995
454.736	2100
454.804	4286
454.817	6015
454.873	12031
454.898	15240
454.943	20916
454.979	14550
455.013	8935
455.060	4351
455.082	2469
455.141	2953
455.152	2950
455.221	9051
455.222	9292
455.291	21178
455.303	20196
455.360	15874
455.384	15503
455.430	14337
455.465	13664
455.499	12825
455.546	13674
455.569	13681
455.627	13510
455.638	13659
455.707	3843
455.708	3858
455.777	1745
455.789	1725
455.846	1586
455.869	1679
455.916	1907
455.950	2017
455.985	2013
456.031	2207
456.054	2192
456.112	1763
456.124	1714
456.193	2144
456.193	2124
456.262	1963
456.274	2242
456.332	3211
456.355	3338
456.401	3316
456.436	2982
456.470	2734
456.516	2330
456.540	2111
456.597	2225
456.609	2235
456.678	1884
456.678	1862
456.747	1227
456.759	1213
456.817	1126
456.840	1381
456.886	1764
456.920	1851
456.955	1945
457.001	2053
457.024	2310
457.082	3083
457.093	3105
457.162	4023
457.163	4054
457.232	4398
457.243	4213
457.301	3350
457.324	2916
457.370	2345
457.405	2428
457.439	2440
457.485	2425
457.508	2469
457.566	3190
457.577	3378
457.646	4029
457.647	4072
457.715	8354
457.727	9281
457.784	15526
457.808	19287
457.853	22977
457.889	27137
457.922	26418
457.969	19391
457.991	21092
458.050	25752
458.060	26572
458.129	39552
458.130	40082
458.198	37994
458.211	34968
458.267	23226
458.292	16401
458.336	11044
458.372	9753
458.405	12236
458.453	18251
458.474	23776
458.533	41847
458.543	43060
458.611	63703
458.614	64421
458.680	43092
458.694	34617
458.749	20550
458.775	14832
458.818	8449
458.855	6227
458.887	4817
458.936	4821
458.955	4719
459.016	4187
459.024	4189
459.093	4653
459.097	4692
459.162	4571
459.177	4596
459.230	5611
459.257	6385
459.299	6859
459.338	7012
459.368	7275
459.418	7697
459.437	7312
459.499	6468
459.505	6480
459.574	4597
459.579	4616
459.643	5052
459.659	4975
459.711	4676
459.740	4846
459.780	5034
459.820	4908
459.849	5003
459.900	6020
459.917	6285
459.981	6447
459.986	6441
460.054	6772
460.061	6785
460.123	6714
460.141	6781
460.191	7805
460.222	8510
460.260	9362
460.302	10618
460.328	9951
460.382	8666
460.397	8798
460.462	7889
460.465	8008
460.534	11296
460.543	11844
460.602	31802
460.623	39212
460.671	62519
460.703	82465
460.739	73261
460.783	61366
460.808	53150
460.864	15375
460.876	12840
460.944	7197
460.945	7122
461.013	6328
461.024	6175
461.081	6247
461.104	6551
461.150	6358
461.184	6142
461.218	6321
461.264	6325
461.286	6195
461.345	5762
461.355	5709
461.423	6199
461.425	6200
461.491	6478
461.505	6556
461.559	9663
461.585	11196
461.628	16257
461.665	21245
461.696	22885
461.745	28220
461.764	25681
461.825	13366
461.832	13392
461.901	7692
461.905	7670
461.969	6464
461.985	6250
462.037	6558
462.065	6662
462.105	7003
462.145	7332
462.173	9332
462.225	13376
462.241	14357
462.305	18942
462.310	18495
462.378	13296
462.385	12156
462.446	8874
462.465	7977
462.514	7424
462.545	7872
462.582	7723
462.625	7504
462.650	7126
462.705	6321
462.718	6425
462.785	6998
462.786	7029
462.854	8416
462.865	8738
462.922	10694
462.945	11667
462.990	10073
463.025	8003
463.058	7573
463.104	6954
463.126	6702
463.184	6298
463.194	6309
463.262	6554
463.264	6566
463.330	7494
463.344	7623
463.398	7303
463.424	7089
463.466	7257
463.504	7736
463.533	7913
463.583	7891
463.601	8080
463.663	8701
463.669	8860
463.737	10887
463.743	11040
463.805	14540
463.823	15699
463.873	22001
463.903	25754
463.940	26851
463.982	29116
464.008	24516
464.062	13118
464.076	12591
464.142	7590
464.144	7544
464.211	7271
464.221	7349
464.279	7731
464.301	7871
464.347	8457
464.381	8841
464.414	9545
464.461	10565
464.482	11505
464.540	14351
464.550	14302
464.617	13382
464.620	13332
464.685	12048
464.699	11718
464.753	14314
464.779	15654
464.820	16981
464.859	18296
464.888	17534
464.938	15875
464.956	15786
465.018	15485
465.023	15442
465.091	14689
465.098	14563
465.158	15336
465.177	15596
465.226	14305
465.257	13489
465.293	13748
465.336	13840
465.361	14492
465.416	16124
465.428	16866
465.495	20807
465.496	20896
465.563	29754
465.575	31296
465.631	36251
465.654	38676
465.698	27620
465.734	17626
465.765	16222
465.813	13270
465.833	13006
465.893	13197
465.900	13139
465.968	12564
465.972	12498
466.035	12380
466.052	12350
466.102	13178
466.131	13636
466.170	14034
466.210	14352
466.237	14718
466.290	15355
466.304	15497
466.369	16043
466.372	16080
466.439	16310
466.449	16311
466.506	17800
466.528	18318
466.573	21925
466.607	24600
466.641	33028
466.687	44709
466.708	48656
466.766	59515
466.775	55844
466.842	27689
466.845	26291
466.909	21611
466.925	20532
466.977	18982
467.004	18247
467.044	19129
467.083	19955
467.111	21686
467.163	24827
467.178	25543
467.242	28302
467.245	28162
467.312	24135
467.321	23557
467.379	22123
467.400	21534
467.446	22804
467.480	23649
467.559	21047
467.638	19489
467.717	19629
467.796	21101
467.875	22231
467.955	21303
468.034	27196
468.113	49599
468.192	69439
468.271	26012
468.350	22150
468.429	26091
468.508	26529
468.588	21418
468.667	18911
468.746	18089
468.825	17512
468.904	16039
468.983	18270
469.062	22971
469.141	28301
469.220	16218
469.299	16313
469.378	18242
469.456	23656
469.535	20582
469.614	19226
469.693	19334
469.772	22455
469.851	27286
469.930	21830
470.009	18788
470.088	19977
470.166	23972
470.245	33713
470.324	38740
470.403	27484
470.482	20538
470.560	17856
470.639	18478
470.718	20403
470.797	18275
470.875	19296
470.954	22836
471.033	24526
471.111	14797
471.190	15570
471.269	14731
471.347	15472
471.426	15878
471.505	17539
471.583	19934
471.662	18454
471.740	16517
471.819	17105
471.898	16652
471.976	16301
472.055	15771
472.133	17812
472.212	20615
472.290	20638
472.369	16186
472.447	15197
472.526	13315
472.604	15848
472.683	15319
472.761	17045
472.839	15797
472.918	16498
472.996	15431
473.075	16979
473.153	16694
473.231	15026
473.310	15850
473.388	16384
473.466	15940
473.545	18085
473.623	23042
473.701	21968
473.780	15958
473.858	14948
473.936	17100
474.014	15433
474.093	17392
474.171	20954
474.249	25563
474.327	19070
474.405	15284
474.484	14238
474.562	14861
474.640	14547
474.718	15016
474.796	15864
474.874	14154
474.952	13961
475.030	14067
475.108	15056
475.187	16936
475.265	16993
475.343	23314
475.421	26776
475.499	16087
475.577	15360
475.655	17938
475.733	26739
475.811	41860
475.889	39072
475.966	27334
476.044	14792
476.122	17804
476.200	22689
476.278	18325
476.356	13315
476.434	14738
476.512	17599
476.590	22493
476.667	19207
476.745	13227
476.823	13992
476.901	12703
476.979	14192
477.056	14760
477.134	14548
477.212	14156
477.290	13242
477.367	12088
477.445	12262
477.523	11804
477.601	12726
477.678	12347
477.756	14098
477.834	15374
477.911	12681
477.989	12821
478.066	12849
478.144	14647
478.222	16948
478.299	26376
478.377	25125
478.454	12974
478.532	11513
478.609	12506
478.687	14013
478.764	12102
478.842	13435
478.919	14474
478.997	13644
479.074	10618
479.152	12034
479.229	15580
479.307	11372
479.384	9901
479.461	11472
479.539	10918
479.616	12450
479.694	11463
479.771	11873
479.848	12306
479.926	15223
480.003	16633
480.080	11680
480.157	10724
480.235	10805
480.312	10431
480.389	11853
480.467	16657
480.544	20699
480.621	13551
480.698	12770
480.775	14669
480.853	13280
480.930	11886
481.007	12594
481.084	13951
481.161	16714
481.238	14722
481.315	10489
481.392	11979
481.470	11239
481.547	10694
481.624	12016
481.701	10632
481.778	10964
481.855	12315
481.932	15870
482.009	25097
482.086	19759
482.163	13858
482.240	19506
482.317	32644
482.393	24683
482.470	12490
482.547	11779
482.624	11542
482.701	12139
482.778	11735
482.855	10582
482.932	10634
483.009	10974
483.085	12561
483.162	16283
483.239	15633
483.316	12289
483.393	12833
483.469	11662
483.546	12791
483.623	12960
483.699	10413
483.776	11790
483.853	13536
483.930	16337
484.006	35399
484.083	62175
484.160	43458
484.236	67545
484.313	50293
484.389	37195
484.466	33338
484.543	32528
484.619	33939
484.696	36521
484.772	34791
484.849	35047
484.925	31235
485.002	30188
485.078	31638
485.155	32015
485.231	29474
485.308	29211
485.384	28827
485.461	33533
485.537	43902
485.614	50490
485.690	29099
485.766	27123
485.843	28481
485.919	36466
485.995	39720
486.072	26739
486.148	26615
486.224	25597
486.301	26024
486.377	29077
486.453	31993
486.530	29074
486.606	38744
486.682	42265
486.758	43467
486.835	47578
486.911	38970
486.987	57171
487.063	64782
487.139	83181
487.215	60445
487.292	34859
487.368	30820
487.444	34885
487.520	43677
487.596	43909
487.672	63835
487.748	160114
487.824	242857
487.900	79643
487.976	35897
488.052	34296
488.128	38516
488.204	32694
488.280	26569
488.356	30186
488.432	46407
488.508	66500
488.584	32321
488.660	25558
488.736	26020
488.812	26171
488.888	33340
488.964	40047
489.039	76095
489.115	113562
489.191	68112
489.267	26417
489.343	24938
489.418	22939
489.494	21306
489.570	20772
489.646	23011
489.722	21343
489.797	21365
489.873	27441
489.949	49495
490.024	44698
490.100	21221
490.176	20465
490.251	23247
490.327	31761
490.403	19642
490.478	19558
490.554	17206
490.629	18689
490.705	17356
490.781	19646
490.856	18715
490.932	21280
491.007	20534
491.083	20779
491.158	18355
491.234	22444
491.309	38754
491.385	39699
491.460	19525
491.536	19366
491.611	19440
491.686	20207
491.762	27382
491.837	46498
491.913	75677
491.988	101966
492.063	131869
492.139	35993
492.214	24801
492.289	16253
492.365	16876
492.440	17944
492.515	16664
492.590	18234
492.666	15426
492.741	18830
492.816	24151
492.891	17296
492.967	14727
493.042	13088
493.117	14807
493.192	15164
493.267	19101
493.342	35552
493.418	44422
493.493	16916
493.568	13144
493.643	14238
493.718	16469
493.793	23004
493.868	26519
493.943	18298
494.018	15955
494.093	13943
494.168	13811
494.243	13630
494.318	13108
494.393	12842
494.468	12703
494.543	12720
494.618	15419
494.693	13793
494.768	13395
494.842	14057
494.917	12257
494.992	13997
495.067	12666
495.142	11983
495.217	13770
495.292	13500
495.366	16219
495.441	19734
495.516	24453
495.591	31783
495.665	92661
495.740	227430
495.815	86605
495.890	20389
495.964	15459
496.039	18271
496.114	17235
496.188	20640
496.263	19907
496.338	15926
496.412	18085
496.487	19010
496.561	21380
496.636	21490
496.710	17119
496.785	18804
496.860	21673
496.934	16922
497.009	17930
497.083	18744
497.158	19207
497.232	21026
497.307	23815
497.381	23275
497.455	24328
497.530	29936
497.604	23205
497.679	23962
497.753	34800
497.827	46489
497.902	45366
497.976	48761
498.050	86673
498.125	295807
498.199	312494
498.273	69761
498.348	54281
498.422	43552
498.496	41397
498.570	37109
498.645	26498
498.719	24523
498.793	29013
498.867	38130
498.941	47597
499.016	112424
499.090	323768
499.164	112809
499.238	20040
499.312	18880
499.386	24284
499.460	21650
499.534	20170
499.609	24573
499.683	31102
499.757	27859
499.831	50803
499.905	202828
499.979	197218
500.053	33340
500.127	33724
500.201	27646
500.275	19912
500.349	18936
500.422	21438
500.496	30172
500.570	58196
500.644	118775
500.718	220230
500.792	49434
500.866	17104
500.940	21234
501.013	17993
501.087	18704
501.161	32678
501.235	39497
501.309	65066
501.382	182003
501.456	163602
501.530	36568
501.603	62659
501.677	26465
501.751	14398
501.825	16792
501.898	25436
501.972	75510
502.046	47740
502.119	16770
502.193	34284
502.266	82161
502.340	41032
502.413	34986
502.487	67685
502.561	39770
502.634	16063
502.708	13946
502.781	12582
502.855	11382
502.928	9956
503.002	10239
503.075	9477
503.149	10696
503.222	12274
503.295	11759
503.369	14670
503.442	18465
503.516	51065
503.589	133402
503.662	88240
503.736	29940
503.809	64906
503.882	55295
503.956	82856
504.029	83282
504.102	89308
504.175	125912
504.249	41113
504.322	21483
504.395	16976
504.468	12901
504.542	11950
504.615	9749
504.688	9315
504.761	8500
504.834	12701
504.907	14460
504.980	23118
505.053	13541
505.127	15668
505.200	18622
505.273	14835
505.346	10237
505.419	8730
505.492	8933
505.565	8270
505.638	7840
505.711	7493
505.784	8038
505.857	7189
505.930	10555
506.003	6784
506.076	10396
506.149	11151
506.221	13585
506.294	13544
506.367	28352
506.440	101040
506.513	54033
506.586	14748
506.659	9642
506.731	9586
506.804	10262
506.877	14868
506.950	10551
507.022	8872
507.095	9456
507.168	12449
507.241	9390
507.313	7496
507.386	9014
507.459	12471
507.531	9174
507.604	7656
507.677	8325
507.749	7944
507.822	11291
507.894	22810
507.967	28341
508.040	17257
508.112	14949
508.185	13914
508.257	12756
508.330	18971
508.402	12514
508.475	11528
508.547	12913
508.620	12762
508.692	17918
508.765	12644
508.837	10586
508.909	9986
508.982	11549
509.054	12363
509.127	10982
509.199	10136
509.271	10028
509.344	9174
509.416	9541
509.488	9945
509.560	9949
509.633	11564
509.705	12289
509.777	12441
509.849	16745
509.922	11742
509.994	9552
510.066	10456
510.138	11588
510.210	23826
510.283	21628
510.355	18425
510.427	15030
510.499	15034
510.571	13401
510.643	14711
510.715	22118
510.787	18559
510.859	14485
510.931	16176
511.003	21627
511.076	19401
511.148	12427
511.219	12279
511.291	17914
511.363	19240
511.435	12385
511.507	11475
511.579	12343
511.651	11429
511.723	12114
511.795	11382
511.867	12264
511.939	13881
512.010	21540
512.082	18618
512.154	12838
512.226	13543
512.298	19252
512.369	28266
512.441	20686
512.513	20208
512.585	15738
512.656	16178
512.728	18299
512.800	13862
512.871	13517
512.943	14241
513.015	12636
513.086	13867
513.158	14735
513.230	14574
513.301	19813
513.373	22447
513.444	15063
513.516	13351
513.588	12652
513.659	14592
513.731	17433
513.802	15459
513.874	27538
513.945	47774
514.016	17599
514.088	13296
514.159	15022
514.231	18862
514.302	25097
514.374	18602
514.445	16669
514.516	26700
514.588	21372
514.659	15510
514.730	25070
514.802	22474
514.873	18804
514.944	19898
515.016	17079
515.087	18512
515.158	20935
515.229	26035
515.301	20078
515.372	25473
515.443	17144
515.514	14293
515.585	11932
515.656	13646
515.728	13842
515.799	11497
515.870	14089
515.941	14288
516.012	13695
516.083	19121
516.154	20910
516.225	25485
516.296	24796
516.367	23008
516.438	26880
516.509	36570
516.580	51401
516.651	144746
516.722	539249
516.793	217020
516.864	47678
516.935	44790
517.006	53941
517.077	72503
517.148	155543
517.219	560512
517.289	885601
517.360	186627
517.431	59151
517.502	25230
517.573	22654
517.643	22424
517.714	23912
517.785	26256
517.856	26125
517.926	33664
517.997	38653
518.068	51548
518.138	70077
518.209	107952
518.280	346049
518.350	1291493
518.421	475456
518.492	63793
518.562	37529
518.633	34871
518.703	35007
518.774	57141
518.845	137466
518.915	136096
518.986	44205
519.056	32149
519.127	46445
519.197	60953
519.268	116218
519.338	73630
519.408	23909
519.479	29930
519.549	21761
519.620	16627
519.690	14061
519.760	14485
519.831	14963
519.901	14614
519.971	13938
520.042	12596
520.112	15102
520.182	18425
520.253	21140
520.323	17620
520.393	32867
520.463	54931
520.534	34034
520.604	81815
520.674	27907
520.744	28152
520.814	86699
520.885	65479
520.955	37018
521.025	126078
521.095	50827
521.165	15382
521.235	12439
521.305	11298
521.375	11778
521.445	12915
521.515	15785
521.585	19289
521.655	17604
521.725	15663
521.795	14290
521.865	9368
521.935	16804
522.005	14749
522.075	11388
522.145	12406
522.215	13096
522.285	16286
522.355	19822
522.424	33486
522.494	31138
522.564	20667
522.634	34408
522.704	104972
522.774	40405
522.843	12961
522.913	12444
522.983	14948
523.053	12507
523.122	13725
523.192	17581
523.262	54754
523.331	53519
523.401	13360
523.471	9273
523.540	11777
523.610	8498
523.680	9874
523.749	10007
523.819	11126
523.888	12380
523.958	8882
524.027	10524
524.097	11099
524.166	9178
524.236	10874
524.305	11796
524.375	9691
524.444	8776
524.514	11779
524.583	9376
524.653	12061
524.722	15127
524.791	10081
524.861	10704
524.930	8957
524.999	10555
525.069	14398
525.138	11804
525.207	12511
525.277	11024
525.346	11582
525.415	10366
525.484	11511
525.554	12780
525.623	13197
525.692	13166
525.761	14684
525.830	16761
525.900	20341
525.969	30384
526.038	48085
526.107	90053
526.176	271939
526.245	219476
526.314	70317
526.383	140515
526.452	191450
526.522	300130
526.591	302474
526.660	78145
526.729	45596
526.797	52774
526.867	91100
526.935	349829
527.004	656205
527.073	357516
527.142	37503
527.211	18843
527.280	17624
527.349	16302
527.418	10075
527.487	12142
527.555	10220
527.624	9558
527.693	7941
527.762	9919
527.831	7608
527.899	9308
527.968	8934
528.037	8305
528.106	11119
528.174	18649
528.243	15042
528.312	19146
528.380	25513
528.449	11093
528.518	9713
528.586	6610
528.655	8558
528.723	7804
528.792	8268
528.861	7607
528.929	6132
528.998	7152
529.066	7500
529.135	7821
529.203	6691
529.272	6543
529.340	8402
529.409	9173
529.477	7803
529.545	10159
529.614	12921
529.682	12495
529.751	13963
529.819	18053
529.887	10952
529.956	7993
530.024	10195
530.092	8053
530.161	10023
530.229	13725
530.297	8696
530.365	9067
530.434	8666
530.502	6846
530.570	7709
530.638	6389
530.707	8663
530.775	10445
530.843	7135
530.911	7904
530.979	7976
531.047	8561
531.115	7876
531.183	8418
531.252	8476
531.320	7792
531.388	7261
531.456	9344
531.524	6430
531.592	8521
531.660	10426
531.728	8488
531.796	7609
531.864	7552
531.932	8849
532.000	8290
532.067	8534
532.135	10101
532.203	11199
532.271	12232
532.339	17366
532.407	43917
532.475	27171
532.542	15960
532.610	17642
532.678	22710
532.746	76627
532.814	206692
532.881	50341
532.949	14132
533.017	10764
533.084	9850
533.152	8640
533.220	9816
533.287	10692
533.355	9580
533.423	9435
533.490	8387
533.558	8580
533.625	10224
533.693	9249
533.761	9318
533.828	11411
533.896	10580
533.963	18017
534.031	19824
534.098	30033
534.166	15459
534.233	9809
534.300	11934
534.368	11603
534.435	10953
534.503	11954
534.570	17641
534.637	15004
534.705	16364
534.772	18602
534.840	30664
534.907	116589
534.974	153687
535.041	20214
535.109	14063
535.176	10100
535.243	11630
535.310	10783
535.378	9409
535.445	9763
535.512	9447
535.579	10213
535.646	9358
535.714	10817
535.781	12447
535.848	12152
535.915	11488
535.982	10756
536.049	10056
536.116	11489
536.183	10302
536.250	10557
536.317	10536
536.384	12757
536.451	17037
536.518	17172
536.585	12924
536.652	16693
536.719	21476
536.786	16938
536.853	14693
536.920	19455
536.987	29846
537.053	29794
537.120	99937
537.187	88552
537.254	14612
537.321	11294
537.388	11847
537.454	10861
537.521	10582
537.588	9717
537.654	12782
537.721	14113
537.788	13811
537.855	11613
537.921	12772
537.988	12360
538.055	12411
538.121	10098
538.188	11662
538.254	16046
538.321	28816
538.388	19457
538.454	12946
538.521	12021
538.587	12646
538.654	10464
538.720	10668
538.787	11149
538.853	12223
538.920	13289
538.986	12610
539.053	11552
539.119	12575
539.185	12445
539.252	13582
539.318	19357
539.385	16651
539.451	15095
539.517	15880
539.583	18074
539.650	31320
539.716	79313
539.782	24226
539.849	12119
539.915	13582
539.981	12799
540.047	14285
540.114	13790
540.180	15779
540.246	13675
540.312	17371
540.378	29047
540.444	30951
540.510	32123
540.576	88156
540.643	29377
540.709	12362
540.775	12828
540.841	12746
540.907	16409
540.973	27017
541.039	20283
541.105	20709
541.171	13459
541.237	13746
541.303	13679
541.369	15653
541.435	17505
541.500	24994
541.566	16972
541.632	11828
541.698	11364
541.764	12613
541.830	11782
541.896	11316
541.961	12220
542.027	12643
542.093	13016
542.159	13559
542.224	13724
542.290	17997
542.356	24633
542.421	29221
542.487	15875
542.553	12676
542.618	14760
542.684	12749
542.750	13390
542.815	16804
542.881	23621
542.947	73335
543.012	56579
543.078	13233
543.143	12780
543.209	13997
543.274	13396
543.340	15984
543.405	30649
543.471	47169
543.536	14488
543.602	13173
543.667	11293
543.732	12635
543.798	11850
543.863	12341
543.928	11376
543.994	10981
544.059	11867
544.124	12430
544.190	12474
544.255	13208
544.320	13920
544.386	13835
544.451	16283
544.516	19520
544.581	19651
544.646	46584
544.712	75567
544.777	20044
544.842	15436
544.907	16123
544.972	14660
545.037	14692
545.102	15536
545.168	15889
545.233	16709
545.298	17214
545.363	18783
545.428	20289
545.493	30034
545.558	62284
545.623	29129
545.688	16079
545.753	15578
545.818	15551
545.883	17231
545.947	16664
546.012	17416
546.077	17551
546.142	18261
546.207	17911
546.272	21512
546.337	21896
546.401	20144
546.466	20138
546.531	17847
546.596	19845
546.661	20493
546.725	20772
546.790	20434
546.855	22914
546.919	22316
546.984	25439
547.049	26586
547.113	30355
547.178	31062
547.243	35172
547.307	39880
547.372	45038
547.436	45381
547.501	44526
547.565	46997
547.630	47203
547.695	44753
547.759	46283
547.823	44577
547.888	42872
547.952	44203
548.017	46909
548.081	48721
548.146	52049
548.210	49223
548.274	48971
548.339	48664
548.403	45441
548.468	42516
548.532	42055
548.596	42981
548.660	43858
548.725	47687
548.789	53136
548.853	52017
548.917	47474
548.982	50469
549.046	46556
549.110	38097
549.174	40084
549.238	44920
549.303	48483
549.367	51152
549.431	48006
549.495	45489
549.559	45372
549.623	52132
549.687	58860
549.751	61131
549.815	65900
549.879	65531
549.943	61825
550.007	66846
550.071	66342
550.135	64052
550.199	57059
550.263	55271
550.327	53987
550.391	58251
550.455	60247
550.519	62917
550.582	66431
550.646	79162
550.710	80134
550.774	72754
550.838	74464
550.901	74708
550.965	79742
551.029	83024
551.093	88595
551.156	97369
551.220	117694
551.284	133973
551.347	97676
551.411	99390
551.475	101543
551.538	80281
551.602	72929
551.666	68735
551.729	64201
551.793	63832
551.856	62886
551.920	61516
551.983	61700
552.047	61181
552.110	61041
552.174	62001
552.237	62762
552.301	59430
552.364	57392
552.428	55582
552.491	57399
552.554	58969
552.618	58988
552.681	60946
552.745	60027
552.808	75846
552.871	91658
552.934	68449
552.998	60113
553.061	58472
553.124	55152
553.187	54797
553.251	56317
553.314	57623
553.377	55926
553.440	63031
553.503	72423
553.567	85211
553.630	62705
553.693	58919
553.756	59697
553.819	56888
553.882	55973
553.945	56131
554.008	55162
554.071	56641
554.134	57380
554.197	53822
554.260	52108
554.323	55060
554.386	54413
554.449	56732
554.512	56495
554.575	53360
554.638	54591
554.701	51663
554.764	53069
554.827	51368
554.889	48902
554.952	46035
555.015	45386
555.078	44656
555.141	48314
555.203	45093
555.266	45264
555.329	46904
555.391	43910
555.454	43420
555.517	42491
555.580	41130
555.642	38237
555.705	37766
555.768	39057
555.830	38542
555.893	35693
555.955	35379
556.018	35027
556.080	35620
556.143	36301
556.206	36191
556.268	35597
556.330	34938
556.393	34082
556.455	32926
556.518	36265
556.580	36091
556.643	32156
556.705	30368
556.767	29115
556.830	30542
556.892	31583
556.955	34984
557.017	31923
557.079	28157
557.142	28499
557.204	29999
557.266	38933
557.328	35984
557.391	25241
557.453	23553
557.515	25234
557.577	27776
557.639	27543
557.701	25063
557.764	23981
557.826	25225
557.888	27729
557.950	28539
558.012	30872
558.074	38295
558.136	74306
558.198	181062
558.260	66617
558.322	29923
558.384	31231
558.446	35244
558.508	41107
558.570	49942
558.632	66262
558.694	93401
558.756	112130
558.818	292072
558.880	730844
558.942	238579
559.003	190810
559.065	95971
559.127	43997
559.189	43988
559.251	51118
559.312	68216
559.374	143449
559.436	484606
559.498	241797
559.559	47296
559.621	42648
559.683	50889
559.744	78163
559.806	226973
559.868	351484
559.929	71439
559.991	45892
560.052	63380
560.114	173220
560.176	113910
560.237	95323
560.299	160147
560.360	38348
560.422	21003
560.483	17846
560.545	16898
560.606	16609
560.667	17585
560.729	17049
560.790	15282
560.852	15501
560.913	15885
560.974	15730
561.036	15024
561.097	14569
561.158	14899
561.220	15601
561.281	15510
561.342	15875
561.403	18716
561.465	19801
561.526	36816
561.587	46779
561.648	18751
561.709	14972
561.771	15976
561.832	14397
561.893	13866
561.954	15140
562.015	13509
562.076	14173
562.137	14681
562.198	14336
562.259	14130
562.320	15228
562.381	16039
562.442	20462
562.503	17451
562.564	14331
562.625	13811
562.686	14130
562.747	14977
562.808	14165
562.869	14209
562.930	16117
562.991	16550
563.051	14864
563.112	12975
563.173	13678
563.234	12938
563.294	14378
563.355	12936
563.416	14021
563.477	13793
563.537	13473
563.598	13769
563.659	14321
563.720	14075
563.780	14054
563.841	14423
563.901	14586
563.962	14021
564.023	13985
564.083	14690
564.144	13044
564.204	13649
564.265	13912
564.325	14941
564.386	22317
564.446	21408
564.507	13734
564.567	13080
564.628	13035
564.688	13188
564.749	13953
564.809	14127
564.869	16485
564.930	13508
564.990	14186
565.050	12742
565.111	13031
565.171	13242
565.231	13789
565.292	14173
565.352	13126
565.412	14214
565.472	13877
565.532	13856
565.593	13462
565.653	13043
565.713	14938
565.773	15206
565.833	15627
565.893	19021
565.953	14539
566.013	13916
566.074	14147
566.134	16468
566.194	21777
566.254	23097
566.314	16791
566.374	15351
566.434	14313
566.494	14070
566.554	15801
566.614	15228
566.673	15870
566.733	16141
566.793	17086
566.853	17794
566.913	17654
566.973	17156
567.033	18094
567.092	18416
567.152	17816
567.212	17569
567.272	17257
567.331	18643
567.391	18988
567.451	20059
567.511	22295
567.570	22730
567.630	18533
567.690	18112
567.749	18360
567.809	20099
567.868	22334
567.928	23371
567.988	26506
568.047	30510
568.107	36482
568.166	49296
568.226	75623
568.285	103884
568.345	85224
568.404	64500
568.464	53540
568.523	50201
568.582	52435
568.642	59521
568.701	73945
568.761	107422
568.820	174836
568.879	163180
568.939	111546
568.998	79537
569.057	59814
569.116	47802
569.176	38562
569.235	33477
569.294	28511
569.353	25850
569.413	23839
569.472	22946
569.531	20863
569.590	19694
569.649	18420
569.708	17569
569.767	18254
569.827	20601
569.886	17931
569.945	16189
570.004	16330
570.063	15931
570.122	16647
570.181	16929
570.240	16716
570.299	16889
570.358	18126
570.417	14950
570.475	13721
570.534	15711
570.593	14553
570.652	14606
570.711	15388
570.770	14279
570.829	15305
570.887	14721
570.946	16000
571.005	12808
571.064	13868
571.122	15087
571.181	15700
571.240	12925
571.299	12911
571.357	13266
571.416	13710
571.475	14651
571.533	15943
571.592	12830
571.650	14109
571.709	13080
571.768	13424
571.826	13569
571.885	12351
571.943	12611
572.002	12141
572.060	12244
572.119	11849
572.177	12059
572.236	12297
572.294	11173
572.352	12331
572.411	12893
572.469	12328
572.528	11827
572.586	12174
572.644	12522
572.703	16537
572.761	13698
572.819	11503
572.877	11050
572.936	11034
572.994	11587
573.052	11082
573.110	11082
573.169	11849
573.227	11093
573.285	10992
573.343	11249
573.401	10982
573.459	11732
573.517	11213
573.576	11032
573.634	11642
573.692	11618
573.750	11421
573.808	10996
573.866	11615
573.924	13008
573.982	13174
574.040	11406
574.098	11045
574.155	10487
574.213	10208
574.271	10300
574.329	11372
574.387	9714
574.445	10594
574.503	10367
574.560	9420
574.618	9740
574.676	9467
574.734	10168
574.792	10026
574.849	9788
574.907	8952
574.965	8937
575.022	9423
575.080	9448
575.138	9583
575.195	9267
575.253	9884
575.311	10883
575.368	10843
575.426	9823
575.483	9436
575.541	9767
575.598	9133
575.656	9598
575.713	10106
575.771	9001
575.828	10252
575.886	9718
575.943	9828
576.001	10168
576.058	9854
576.115	10939
576.173	12318
576.230	12627
576.287	13217
576.345	13108
576.402	10804
576.459	10830
576.517	11078
576.574	11414
576.631	11106
576.688	10243
576.746	9867
576.803	10144
576.860	9550
576.917	9974
576.974	9915
577.031	11186
577.089	10330
577.146	9942
577.203	10079
577.260	10802
577.317	11220
577.374	11357
577.431	10820
577.488	10033
577.545	9538
577.602	10790
577.659	10363
577.716	9395
577.773	9824
577.830	10090
577.886	10118
577.943	9795
578.000	9429
578.057	10250
578.114	10121
578.171	10455
578.227	10219
578.284	10110
578.341	9520
578.398	10341
578.454	10587
578.511	10948
578.568	12728
578.625	10470
578.681	10340
578.738	9873
578.794	10397
578.851	11002
578.908	10768
578.964	11861
579.021	11340
579.077	10401
579.134	10919
579.190	10793
579.247	10199
579.303	9532
579.360	9828
579.416	9204
579.473	9451
579.529	9397
579.586	9871
579.642	10532
579.698	10079
579.755	9758
579.811	10155
579.867	10031
579.924	10140
579.980	9019
580.036	10549
580.093	10420
580.149	11483
580.205	11220
580.261	10746
580.317	11535
580.374	10886
580.430	12451
580.486	12190
580.542	10835
580.598	10869
580.619	11064
580.654	11414
580.692	11474
580.710	11515
580.765	10424
580.767	10396
580.823	11152
580.838	11025
580.879	10726
580.911	10895
580.935	11034
580.984	10354
580.991	10268
581.047	10932
581.057	10974
581.103	11183
581.130	11145
581.159	11105
581.203	10850
581.215	10794
581.270	11229
581.276	11158
581.326	10575
581.349	10839
581.382	11211
581.422	11730
581.438	11952
581.494	12314
581.494	12304
581.550	11672
581.567	11853
581.606	12243
581.640	11490
581.661	11058
581.713	11930
581.717	12004
581.773	11828
581.786	11896
581.829	12083
581.859	12408
581.885	12742
581.932	12399
581.940	12321
581.996	11591
582.004	11814
582.052	13059
582.077	12697
582.107	12322
582.150	12212
582.163	12163
582.219	11646
582.223	11702
582.274	12549
582.296	12705
582.330	12878
582.368	12667
582.386	12574
582.441	11992
582.441	11991
582.497	12615
582.514	12390
582.552	12128
582.587	12722
582.608	13046
582.659	12306
582.663	12229
582.719	12414
582.732	12339
582.774	12373
582.805	12904
582.830	13273
582.877	12804
582.885	12719
582.941	13317
582.950	13203
582.996	12719
583.023	13344
583.052	14060
583.095	13005
583.107	12703
583.162	13272
583.168	13318
583.218	13768
583.240	13573
583.273	13128
583.313	12974
583.328	13034
583.384	13867
583.385	13874
583.439	13778
583.458	13642
583.494	13315
583.531	13436
583.549	13583
583.603	13741
583.605	13747
583.660	13610
583.676	13654
583.715	13821
583.748	13884
583.770	13959
583.820	14803
583.825	14854
583.881	14395
583.893	14470
583.936	14837
583.965	14326
583.991	13864
584.038	14136
584.046	14205
584.101	14255
584.110	14275
584.156	14317
584.183	14479
584.211	14735
584.255	15034
584.266	15146
584.321	15599
584.328	15612
584.376	15476
584.400	15642
584.431	15799
584.472	15372
584.486	15310
584.541	15869
584.545	15857
584.596	15221
584.617	15437
584.651	16383
584.689	17199
584.706	17359
584.761	16798
584.762	16799
584.816	17796
584.834	17880
584.871	18115
584.906	18671
584.926	18871
584.978	18947
584.980	18962
585.035	18981
585.051	19590
585.090	21309
585.123	21923
585.145	22368
585.195	23313
585.200	23423
585.254	25179
585.267	25693
585.309	27716
585.340	29699
585.364	31178
585.412	33526
585.419	33851
585.473	37646
585.484	38754
585.528	45614
585.556	51792
585.583	63581
585.628	93025
585.637	104548
585.692	202967
585.700	222807
585.747	308898
585.772	275390
585.801	181735
585.845	70352
585.856	56350
585.910	36014
585.917	34090
585.965	30696
585.989	29172
586.019	28230
586.061	28140
586.074	28128
586.128	27231
586.133	27305
586.183	29009
586.205	29136
586.237	29041
586.277	29024
586.292	28933
586.346	28509
586.349	28485
586.401	29184
586.421	29495
586.455	30439
586.493	32254
586.509	33910
586.564	39324
586.565	39468
586.618	51259
586.637	53959
586.672	49253
586.709	41619
586.727	39585
586.781	37620
586.781	37648
586.835	36527
586.853	36252
586.889	35685
586.925	34817
586.944	34762
586.996	35900
586.998	35980
587.052	37575
587.068	38011
587.106	38709
587.140	38988
587.161	39483
587.212	40875
587.215	40966
587.269	42533
587.284	42704
587.323	43864
587.356	45401
587.377	46472
587.427	48407
587.431	48516
587.485	48926
587.499	49315
587.539	52450
587.571	54431
587.593	55550
587.643	57801
587.648	58129
587.702	61740
587.715	62559
587.755	65429
587.786	67674
587.810	69701
587.858	73070
587.864	73654
587.917	80438
587.930	81759
587.971	87103
588.001	91233
588.025	95126
588.073	103543
588.079	104914
588.133	115976
588.145	118618
588.187	130247
588.217	138884
588.241	147152
588.288	164687
588.295	167879
588.348	194049
588.360	200130
588.402	226197
588.431	245086
588.456	264900
588.503	304804
588.510	312241
588.564	375947
588.575	390021
588.617	464468
588.646	520335
588.671	590726
588.718	733130
588.725	768263
588.778	1055371
588.789	1117614
588.832	1447647
588.861	1673005
588.886	1764451
588.932	1858601
588.939	1835500
588.993	1541469
589.004	1514615
589.047	1771228
589.075	1875834
589.100	1701197
589.147	1307340
589.154	1263657
589.207	946851
589.218	886464
589.261	799345
589.290	750743
589.314	766551
589.361	810327
589.368	837318
589.421	1076465
589.433	1131062
589.475	1441272
589.504	1654390
589.528	1688050
589.576	1653093
589.582	1650018
589.635	1649149
589.647	1630042
589.689	1300861
589.718	1049320
589.742	880325
589.790	570440
589.795	554134
589.849	410702
589.861	378987
589.902	324850
589.932	285591
589.955	262296
590.004	214717
590.009	212118
590.062	182541
590.075	175113
590.115	159569
590.146	147509
590.168	141457
590.218	128177
590.222	127660
590.275	118694
590.289	116099
590.328	110006
590.360	104968
590.381	102501
590.431	96190
590.435	96035
590.488	90552
590.503	89020
590.541	86861
590.574	84450
590.594	82990
590.645	78870
590.647	78891
590.700	75470
590.716	74352
590.753	73030
590.787	71493
590.806	70831
590.859	68700
590.859	68803
590.912	66354
590.930	65530
590.965	65003
591.001	64111
591.018	63529
591.071	61350
591.072	61202
591.124	60652
591.143	60369
591.177	59812
591.214	58968
591.230	59280
591.283	60015
591.285	59900
591.336	58754
591.356	58293
591.389	58521
591.427	58233
591.442	57580
591.495	54757
591.498	54434
591.547	53091
591.569	52298
591.600	52301
591.640	52023
591.653	52132
591.706	52062
591.711	51949
591.759	51977
591.782	51802
591.811	53689
591.853	56235
591.864	55777
591.917	52596
591.924	52011
591.969	51128
591.995	50509
592.022	50705
592.066	50650
592.075	51092
592.127	53096
592.137	53370
592.180	56246
592.208	57824
592.233	55658
592.279	51041
592.285	51007
592.338	49814
592.350	49418
592.390	49279
592.421	48991
592.443	48938
592.491	48421
592.495	48569
592.548	49043
592.562	49055
592.600	48215
592.633	47275
592.653	47659
592.704	48095
592.705	48341
592.775	46722
592.846	48220
592.916	49440
592.987	50820
593.058	48796
593.128	47419
593.199	47353
593.270	46585
593.341	46019
593.411	46553
593.482	47441
593.553	47702
593.623	46051
593.694	47600
593.764	48915
593.835	46782
593.906	47344
593.976	47075
594.047	48418
594.117	53171
594.188	54254
594.258	48343
594.329	46465
594.399	48466
594.470	49050
594.540	48308
594.611	49068
594.681	49613
594.751	50339
594.822	50637
594.892	52508
594.963	53336
595.033	52306
595.103	55405
595.174	55508
595.244	66003
595.314	77313
595.384	59005
595.455	57410
595.525	59530
595.595	59106
595.665	60627
595.736	58039
595.806	59541
595.876	58336
595.946	57784
596.016	59981
596.087	61587
596.157	61604
596.227	60589
596.297	63739
596.367	68161
596.437	73069
596.507	79213
596.577	86551
596.647	73469
596.717	72018
596.787	73889
596.857	73662
596.927	73719
596.997	73281
597.067	74907
597.137	76369
597.207	76963
597.277	77845
597.347	74549
597.417	72905
597.487	74413
597.557	75088
597.626	77337
597.696	78364
597.766	81318
597.836	87596
597.906	74029
597.975	68038
598.045	67692
598.115	70344
598.185	73634
598.254	81661
598.324	87004
598.394	90101
598.464	88133
598.533	85600
598.603	79733
598.672	77748
598.742	79698
598.812	79852
598.881	82432
598.951	79566
599.020	80630
599.090	82465
599.159	85152
599.229	81939
599.299	79676
599.368	81795
599.437	81087
599.507	75542
599.576	74438
599.646	73569
599.715	74296
599.785	72123
599.854	72388
599.924	72417
599.993	70614
600.062	71246
600.132	71192
600.201	75701
600.270	85902
600.340	89893
600.409	85134
600.478	86912
600.547	87156
600.617	82945
600.686	69268
600.755	63065
600.824	63083
600.894	60805
600.963	59658
601.032	58310
601.101	58369
601.170	56410
601.239	55260
601.308	56281
601.378	57373
601.447	55389
601.516	54241
601.585	56900
601.654	59007
601.723	57405
601.792	57354
601.861	59135
601.930	62437
601.999	64586
602.068	61397
602.137	64857
602.206	64034
602.275	62661
602.343	66874
602.412	68033
602.481	64439
602.550	63123
602.619	65244
602.688	64716
602.756	65782
602.825	65260
602.894	66807
602.963	67391
603.032	69382
603.100	68735
603.169	67600
603.238	70486
603.307	69962
603.375	69892
603.444	71768
603.513	71058
603.581	71614
603.650	73216
603.719	71360
603.787	72238
603.856	74357
603.924	77365
603.993	80032
604.061	79597
604.130	83797
604.198	85523
604.267	85663
604.335	87368
604.404	88835
604.472	89535
604.541	90666
604.609	91052
604.678	92499
604.746	90942
604.815	94283
604.883	96516
604.951	97182
605.020	96418
605.088	96960
605.156	100890
605.225	100756
605.293	100536
605.361	102101
605.429	103323
605.498	103622
605.566	107642
605.634	111644
605.702	114249
605.771	118064
605.839	118953
605.907	115860
605.975	113312
606.043	111056
606.111	110041
606.180	110686
606.248	108870
606.316	110555
606.384	110131
606.452	115036
606.520	118457
606.588	117460
606.656	112824
606.724	111800
606.792	105470
606.860	95233
606.928	86871
606.996	84468
607.064	82275
607.132	85185
607.200	89019
607.267	94602
607.335	93349
607.403	95883
607.471	93750
607.539	91195
607.607	92847
607.674	81506
607.742	80740
607.810	81738
607.878	81655
607.946	81448
608.013	85330
608.081	88109
608.149	88200
608.216	89993
608.284	94766
608.352	92749
608.419	94353
608.487	98690
608.555	94266
608.622	92192
608.690	95411
608.757	107653
608.825	109604
608.893	107894
608.960	105508
609.028	105826
609.095	106500
609.163	99786
609.230	89151
609.298	80591
609.365	82131
609.432	89840
609.500	95938
609.567	110238
609.635	126472
609.702	133377
609.769	130855
609.837	107779
609.904	89040
609.971	90260
610.039	100531
610.106	128321
610.173	237017
610.241	547747
610.308	432688
610.375	201161
610.442	109997
610.509	91986
610.577	91590
610.644	92138
610.711	93973
610.778	96967
610.845	100209
610.912	105453
610.980	110613
611.047	111931
611.114	110196
611.181	105491
611.248	102395
611.315	107779
611.382	111385
611.449	114591
611.516	117740
611.583	115349
611.650	116063
611.717	117072
611.784	119705
611.851	125350
611.918	133566
611.984	154472
612.051	213377
612.118	423901
612.185	1048807
612.252	773025
612.319	196071
612.386	154294
612.452	139970
612.519	135282
612.586	137867
612.653	137078
612.719	137148
612.786	133557
612.853	121954
612.919	118490
612.986	121639
613.053	114544
613.120	108916
613.186	104082
613.253	104274
613.319	104243
613.386	105026
613.453	108429
613.519	110851
613.586	113915
613.652	127689
613.719	117610
613.785	116076
613.852	108725
613.918	107265
613.985	108843
614.051	116733
614.118	128040
614.184	126088
614.250	108844
614.317	109606
614.383	107202
614.449	108554
614.516	108488
614.582	110800
614.648	109283
614.715	105994
614.781	105269
614.847	105322
614.914	106069
614.980	104004
615.046	102815
615.112	106316
615.179	107877
615.245	109925
615.311	115306
615.377	134729
615.443	144643
615.509	117560
615.575	116397
615.642	113551
615.708	117063
615.774	122564
615.840	132836
615.906	146980
615.972	185558
616.038	302618
616.104	566475
616.170	1251022
616.236	1231655
616.302	284905
616.368	193911
616.434	149133
616.500	135429
616.565	144633
616.631	176261
616.697	148628
616.763	147830
616.829	205428
616.895	359286
616.961	365642
617.026	169100
617.092	120088
617.158	115553
617.224	112449
617.289	105259
617.355	99991
617.421	101392
617.487	100744
617.552	94507
617.618	92752
617.684	92179
617.749	94598
617.815	91329
617.880	88256
617.946	87908
618.012	90172
618.077	91506
618.143	89619
618.208	89765
618.274	96895
618.339	98234
618.405	82902
618.470	82104
618.536	82614
618.601	83819
618.667	79783
618.732	74377
618.798	72394
618.863	72795
618.928	71131
618.994	74864
619.059	76876
619.124	85809
619.190	78357
619.255	71801
619.320	71799
619.386	73300
619.451	70503
619.516	69862
619.581	70357
619.647	72409
619.712	70967
619.777	69875
619.842	70745
619.907	72413
619.972	73146
620.038	72455
620.103	69313
620.168	68809
620.233	70977
620.298	70640
620.363	70036
620.428	73370
620.493	74969
620.558	73300
620.623	75567
620.688	75341
620.753	74604
620.818	75979
620.883	77180
620.948	76991
621.013	77257
621.078	76644
621.143	75809
621.207	79520
621.272	77726
621.337	76548
621.402	78067
621.467	83386
621.532	84040
621.596	79017
621.661	75796
621.726	72983
621.791	73803
621.855	75139
621.920	76593
621.985	77438
622.049	81401
622.114	80574
622.179	77784
622.243	80322
622.308	81067
622.373	85579
622.437	85060
622.502	79304
622.566	77452
622.631	78757
622.695	79904
622.760	80069
622.824	78959
622.889	79960
622.953	83112
623.018	96360
623.082	97352
623.147	83899
623.211	80762
623.276	83125
623.340	77542
623.404	74995
623.469	75040
623.533	76823
623.597	74250
623.662	73575
623.726	69999
623.790	66909
623.854	65138
623.919	66583
623.983	66005
624.047	68749
624.111	67234
624.176	69775
624.240	71004
624.304	77048
624.368	69821
624.432	69867
624.496	70918
624.560	75073
624.625	79514
624.689	73953
624.753	74967
624.817	73917
624.881	70215
624.945	65447
625.009	63207
625.073	64771
625.137	67822
625.201	75453
625.265	75865
625.329	67348
625.393	68786
625.456	68247
625.520	69839
625.584	74370
625.648	79183
625.712	92810
625.776	141838
625.839	160275
625.903	90112
625.967	63106
626.031	77441
626.095	110581
626.158	73556
626.222	53179
626.286	49926
626.349	49074
626.413	46808
626.477	49434
626.540	47045
626.604	46620
626.668	45578
626.731	46020
626.795	46179
626.858	48362
626.922	44201
626.986	45646
627.049	43410
627.113	46171
627.176	44904
627.240	43994
627.303	43576
627.366	43756
627.430	44464
627.493	44739
627.557	43412
627.620	43918
627.684	44383
627.747	44760
627.810	42067
627.874	40134
627.937	37489
628.000	41486
628.064	39600
628.127	35107
628.190	35917
628.253	35766
628.317	34243
628.380	33809
628.443	32266
628.506	34076
628.569	31722
628.632	30014
628.696	29923
628.759	30148
628.822	27792
628.885	28623
628.948	28720
629.011	28620
629.074	28166
629.137	26282
629.200	26881
629.263	29621
629.326	25793
629.389	26647
629.452	27146
629.515	27480
629.578	25873
629.641	27440
629.704	27100
629.767	28236
629.830	26066
629.892	25775
629.955	24575
630.018	27972
630.081	26799
630.144	31436
630.207	26722
630.269	28516
630.332	27320
630.395	25838
630.458	23081
630.520	24496
630.583	23761
630.646	23415
630.708	23749
630.771	23368
630.834	24873
630.896	23539
630.959	23064
631.021	23248
631.084	23850
631.146	25519
631.209	26652
631.272	23829
631.334	23835
631.397	24358
631.459	22176
631.522	24737
631.584	25256
631.646	26421
631.709	27160
631.771	30654
631.834	27857
631.896	24920
631.958	22437
632.021	23384
632.083	21693
632.145	23253
632.208	22358
632.270	23420
632.332	21508
632.395	21611
632.457	22015
632.519	21763
632.581	20986
632.643	21629
632.706	21780
632.768	20482
632.830	20491
632.892	21266
632.954	21146
633.016	23341
633.078	21073
633.141	21272
633.203	21208
633.265	21880
633.327	20191
633.389	20807
633.451	22427
633.513	25354
633.575	24914
633.637	24413
633.698	23753
633.760	22799
633.822	23263
633.884	22849
633.946	22823
634.008	21910
634.070	22827
634.132	25532
634.193	25566
634.255	27080
634.317	26488
634.379	28374
634.441	24605
634.502	23508
634.564	22403
634.626	21305
634.687	20965
634.749	20415
634.811	19907
634.873	19351
634.934	19757
634.996	20650
635.057	19271
635.119	19273
635.181	20120
635.242	20650
635.304	19152
635.365	21231
635.427	18928
635.488	20139
635.550	19374
635.611	20099
635.673	19148
635.734	22362
635.796	21315
635.857	24458
635.918	23119
635.980	25674
636.041	25723
636.102	27552
636.164	27272
636.225	27836
636.286	24368
636.348	23273
636.409	20514
636.470	19058
636.531	18828
636.593	21581
636.654	20961
636.715	18821
636.776	17750
636.838	17133
636.899	19097
636.960	18465
637.021	16849
637.082	16342
637.143	16566
637.204	15958
637.265	15989
637.326	17117
637.387	16541
637.448	15023
637.509	16730
637.570	16643
637.631	16290
637.692	15421
637.753	14022
637.814	15566
637.875	15713
637.936	16585
637.997	15373
638.058	16427
638.119	16771
638.179	16058
638.240	15768
638.301	16119
638.362	14492
638.423	15053
638.483	16059
638.544	14987
638.605	15473
638.666	14823
638.726	15335
638.787	14544
638.848	15449
638.908	14772
638.969	14963
639.030	15035
639.090	13317
639.151	14300
639.211	15494
639.272	18625
639.332	26009
639.393	18440
639.453	14800
639.514	16431
639.574	14033
639.635	13914
639.695	13648
639.756	12855
639.816	14146
639.877	15659
639.937	22072
639.997	27836
640.058	15142
640.118	13749
640.178	13224
640.239	12477
640.299	13039
640.359	13320
640.420	13895
640.480	14287
640.540	15013
640.600	16216
640.661	16141
640.721	15294
640.781	18911
640.841	16820
640.901	14759
640.961	13640
641.021	13777
641.082	15976
641.142	19236
641.202	15865
641.262	11027
641.322	13438
641.382	12387
641.442	13337
641.502	12844
641.562	13437
641.622	12036
641.682	13718
641.742	14158
641.802	13922
641.861	13725
641.921	14285
641.981	14290
642.041	15017
642.101	15885
642.161	13569
642.221	11769
642.280	11595
642.340	11869
642.400	11411
642.460	12938
642.519	12836
642.579	12265
642.639	12976
642.698	11218
642.758	14550
642.818	12960
642.877	12722
642.937	13017
642.997	14342
643.056	18315
643.116	13584
643.175	13827
643.235	13183
643.294	12922
643.354	14014
643.414	14530
643.473	16753
643.532	19552
643.592	25940
643.651	39650
643.711	69624
643.770	136015
643.830	324385
643.889	803788
643.948	228424
644.008	34986
644.067	22611
644.126	17144
644.186	16162
644.245	14645
644.304	12220
644.363	12915
644.423	11729
644.482	12389
644.541	13450
644.600	11654
644.659	16495
644.719	17987
644.778	25693
644.837	39818
644.896	80074
644.955	199195
645.014	80216
645.073	18861
645.132	14611
645.191	13900
645.250	13195
645.309	13699
645.368	13733
645.427	16908
645.486	22830
645.545	42918
645.604	17926
645.663	12121
645.722	12588
645.781	13539
645.840	14601
645.898	17363
645.957	24794
646.016	35171
646.075	66315
646.134	131309
646.192	334081
646.251	600814
646.310	100494
646.369	25051
646.427	20246
646.486	15646
646.545	13692
646.603	12042
646.662	12181
646.721	10491
646.779	11093
646.838	9927
646.896	13996
646.955	17083
647.014	25562
647.072	43543
647.131	118714
647.189	72731
647.248	12513
647.306	10846
647.365	10226
647.423	8371
647.481	10672
647.540	8161
647.598	9241
647.657	8138
647.715	10190
647.773	8202
647.832	10757
647.890	7724
647.948	8967
648.007	8467
648.065	8113
648.123	8516
648.181	9625
648.240	8742
648.298	8079
648.356	7855
648.414	8933
648.472	8831
648.531	8360
648.589	7882
648.647	7803
648.705	7960
648.763	8740
648.821	7637
648.879	8302
648.937	9522
648.995	11239
649.053	12619
649.111	18805
649.169	31904
649.227	52543
649.285	105300
649.343	329309
649.401	195219
649.459	37930
649.516	25313
649.574	13977
649.632	18464
649.690	21961
649.748	16640
649.806	18329
649.863	32801
649.921	82172
649.979	67350
650.037	13018
650.094	7032
650.152	8518
650.210	7068
650.268	7824
650.325	8569
650.383	8677
650.440	6341
650.498	7840
650.556	6683
650.613	5747
650.671	6720
650.728	7262
650.786	7488
650.843	8290
650.901	5806
650.958	6842
651.016	5971
651.073	6013
651.131	6014
651.188	6064
651.246	5563
651.303	5885
651.360	6246
651.418	5978
651.475	6474
651.532	4524
651.590	6443
651.647	4697
651.704	5291
651.762	5637
651.819	5492
651.876	6312
651.933	5650
651.990	5693
652.048	4021
652.105	5066
652.162	6620
652.219	5104
652.276	5229
652.333	5099
652.390	3382
652.448	5665
652.505	5016
652.562	4469
652.619	4360
652.676	6805
652.733	7077
652.790	5408
652.847	3417
652.904	5823
652.961	3389
653.017	4500
653.074	4905
653.131	4953
653.188	3321
653.245	4825
653.302	4331
653.359	4548
653.415	4951
653.472	4621
653.529	4791
653.586	4911
653.642	4328
653.699	4354
653.756	3549
653.813	4177
653.869	5237
653.926	4183
653.983	3542
654.039	4982
654.096	4366
654.152	5952
654.209	3821
654.266	5941
654.322	3928
654.379	5928
654.435	5553
654.492	6096
654.548	7004
654.605	12117
654.661	7316
654.717	4202
654.774	5781
654.830	5445
654.887	5147
654.943	5323
655.000	6066
655.056	5833
655.112	5551
655.168	4392
655.225	4939
655.281	5621
655.337	5971
655.394	11006
655.450	7965
655.506	7165
655.562	10404
655.618	10323
655.675	3784
655.731	5614
655.787	4212
655.843	5454
655.899	3918
655.955	4698
656.011	4908
656.067	3536
656.123	4133
656.179	4766
656.235	5194
656.291	3292
656.347	5116
656.403	5726
656.459	4824
656.515	5576
656.571	4663
656.627	5529
656.683	4044
656.739	5970
656.795	5000
656.850	5028
656.906	5661
656.962	5662
657.018	4813
657.074	5406
657.129	6224
657.185	7690
657.241	14556
657.297	10220
657.352	4931
657.408	4392
657.464	6136
657.519	5449
657.575	3064
657.630	4750
657.686	3528
657.742	3748
657.797	5029
657.853	4331
657.908	4910
657.964	4139
658.019	4461
658.075	5484
658.130	4127
658.186	3286
658.241	4641
658.297	4565
658.352	3996
658.407	5689
658.463	3354
658.518	4320
658.573	4371
658.629	3786
658.684	3716
658.739	4526
658.795	3936
658.850	4010
658.905	3645
658.960	5952
659.016	4987
659.071	4667
659.126	3988
659.181	5766
659.236	9174
659.291	9488
659.346	6230
659.401	5673
659.457	5343
659.512	4594
659.567	5754
659.622	4670
659.677	4243
659.732	4120
659.787	4412
659.842	4482
659.897	6030
659.952	5587
660.007	4276
660.061	4670
660.116	3725
660.171	4692
660.226	4049
660.281	5252
660.336	3904
660.391	4673
660.445	3461
660.500	4876
660.555	4420
660.610	3811
660.664	4749
660.719	3926
660.774	4245
660.828	4901
660.883	4587
660.938	5718
660.992	3462
661.047	4093
661.101	3846
661.156	4483
661.211	3210
661.265	3540
661.320	4184
661.374	4364
661.429	3453
661.483	4913
661.538	4358
661.592	3750
661.647	4309
661.701	5698
661.755	4551
661.810	4356
661.864	4267
661.919	3612
661.973	3792
662.027	3948
662.081	3337
662.136	3755
662.190	4183
662.244	4352
662.299	4456
662.353	4113
662.407	3509
662.461	4642
662.515	4731
662.569	4236
662.624	4699
662.678	4027
662.732	3920
662.786	3863
662.840	4616
662.894	4660
662.948	3649
663.002	4443
663.056	3307
663.110	3165
663.164	3850
663.218	4821
663.272	4135
663.326	4451
663.380	4617
663.434	4789
663.488	3297
663.542	4558
663.595	4359
663.649	3600
663.703	4622
663.757	4145
663.811	3789
663.864	4114
663.918	3732
663.972	3832
664.026	3415
664.079	3970
664.133	4278
664.187	4017
664.240	3071
664.294	4110
664.348	3955
664.401	5030
664.455	3976
664.508	3317
664.562	4078
664.615	4182
664.669	3672
664.722	3795
664.776	3496
664.829	3719
664.883	3920
664.936	3640
664.990	3849
665.043	4904
665.097	5143
665.150	5863
665.203	4133
665.257	4368
665.310	4494
665.363	4278
665.417	3959
665.470	4234
665.523	3774
665.576	4367
665.630	3770
665.683	4408
665.736	4256
665.789	4398
665.842	3255
665.895	4105
665.949	3632
666.002	4109
666.055	3819
666.108	5396
666.161	3744
666.214	4738
666.267	4205
666.320	5810
666.373	3969
666.426	4019
666.479	3955
666.532	4707
666.585	4205
666.638	5830
666.691	4316
666.744	5446
666.796	4654
666.849	4802
666.902	4757
666.955	4160
667.008	3965
667.060	3279
667.113	2962
667.166	3972
667.219	4222
667.271	4314
667.324	3983
667.377	4329
667.430	3767
667.482	4106
667.535	4125
667.587	3958
667.640	4251
667.693	6120
667.745	6950
667.798	9595
667.850	5211
667.903	3631
667.955	4258
668.008	4188
668.060	4963
668.113	4848
668.165	4843
668.218	4678
668.270	4622
668.322	4401
668.375	3887
668.427	5470
668.479	3689
668.532	4969
668.584	4499
668.636	4263
668.689	3988
668.741	3971
668.793	4553
668.845	4417
668.898	4328
668.950	3966
669.002	4273
669.054	4149
669.106	4529
669.158	4791
669.211	4236
669.263	4106
669.315	5611
669.367	5473
669.419	4810
669.471	5780
669.523	5413
669.575	6960
669.627	6032
669.679	4660
669.731	4717
669.783	6128
669.835	5761
669.886	4680
669.938	5704
669.990	4631
670.042	4573
670.094	4503
670.146	5288
670.197	5603
670.249	7221
670.301	7834
670.353	10797
670.404	15743
670.456	21952
670.508	34807
670.560	59088
670.611	105577
670.663	188500
670.715	427056
670.766	739920
670.818	273575
670.869	48117
670.921	23372
670.972	16467
671.024	13139
671.075	9812
671.127	8090
671.178	7157
671.230	7163
671.281	6411
671.333	6830
671.384	5848
671.436	7518
671.487	7428
671.538	9264
671.590	12128
671.641	18074
671.692	29309
671.744	57245
671.795	40959
671.846	13778
671.897	8733
671.949	7625
672.000	5745
672.051	6068
672.102	5488
672.153	5116
672.204	5320
672.256	4467
672.307	4640
672.358	4119
672.409	4385
672.460	4637
672.511	3719
672.562	4373
672.613	3976
672.664	5248
672.715	3320
672.766	4454
672.817	2951
672.868	4123
672.919	4171
672.970	4753
673.021	4016
673.071	3288
673.122	3305
673.173	4101
673.224	3967
673.275	4099
673.326	3792
673.376	4173
673.427	3090
673.478	4039
673.528	4034
673.579	4433
673.630	3322
673.680	4444
673.731	3863
673.782	3473
673.832	3843
673.883	4302
673.934	3343
673.984	3981
674.035	3619
674.085	3218
674.136	3887
674.186	4053
674.237	4600
674.287	6527
674.338	4759
674.388	3994
674.438	3435
674.489	3988
674.539	3491
674.589	4085
674.640	3945
674.690	3583
674.740	3673
674.791	4278
674.841	4536
674.891	4633
674.942	3541
674.992	4043
675.042	3292
675.092	3842
675.142	2759
675.193	3553
675.243	2802
675.293	3596
675.343	3998
675.393	3132
675.443	3468
675.493	3898
675.543	3338
675.593	3691
675.643	4055
675.693	3978
675.743	3585
675.793	3514
675.843	3684
675.893	3951
675.943	2985
675.993	3580
676.043	3627
676.093	3925
676.142	2125
676.192	3983
676.242	2994
676.292	3013
676.341	2884
676.391	3231
676.441	2771
676.491	2852
676.540	2534
676.590	2924
676.640	2962
676.689	3963
676.739	3219
676.789	3204
676.838	1658
676.888	3157
676.937	2756
676.987	2630
677.037	2549
677.086	2364
677.136	2336
677.185	2926
677.235	2427
677.284	2466
677.333	2239
677.383	2284
677.432	2499
677.482	2283
677.531	2506
677.580	2550
677.630	2491
677.679	2695
677.728	2122
677.778	2961
677.827	2621
677.876	2590
677.925	2065
677.975	3460
678.024	2462
678.073	2502
678.122	2832
678.171	2736
678.220	2334
678.269	2735
678.319	3993
678.368	3414
678.417	3439
678.466	3103
678.515	2899
678.564	3512
678.613	2388
678.662	2399
678.711	3158
678.760	2409
678.809	1916
678.857	2928
678.906	2172
678.955	3088
679.004	1784
679.053	2629
679.102	3602
679.151	2783
679.199	2274
679.248	2056
679.297	1834
679.346	3527
679.394	2353
679.443	1934
679.492	2364
679.540	2424
679.589	2697
679.638	3005
679.686	2057
679.735	2458
679.784	3196
679.832	3265
679.881	1373
679.929	2732
679.978	2179
680.026	1940
680.075	1544
680.123	1929
680.172	2042
680.220	1503
680.268	2219
680.317	2284
680.365	1093
680.414	2423
680.462	2011
680.510	2982
680.559	1601
680.607	2027
680.655	1283
680.703	2531
680.752	1873
680.800	2105
680.848	1337
680.896	992
680.945	1825
680.993	1804
681.041	1644
681.089	2653
681.137	1402
681.185	1716
681.233	1218
681.258	1445
681.281	1623
681.329	1657
681.377	1660
681.380	1705
681.425	1876
681.473	2650
681.502	2506
681.521	2340
681.569	2492
681.617	2507
681.624	2508
681.665	2227
681.713	1975
681.745	2488
681.761	2686
681.809	2525
681.857	3180
681.867	3001
681.904	2258
681.952	3763
681.989	2974
682.000	2695
682.048	3372
682.096	3161
682.111	3212
682.143	3186
682.191	2773
682.233	3537
682.239	3613
682.286	3552
682.334	2788
682.354	2966
682.382	3144
682.430	3648
682.476	3264
682.477	3225
682.525	3299
682.572	3154
682.598	3081
682.620	2954
682.667	3555
682.715	4468
682.720	4510
682.763	4634
682.810	3424
682.841	3881
682.857	4052
682.905	3867
682.952	4284
682.963	4412
683.000	4740
683.047	4244
683.085	4671
683.095	4757
683.142	3700
683.190	4998
683.206	4456
683.237	3396
683.284	4603
683.328	3923
683.332	3836
683.379	4370
683.426	4320
683.449	4608
683.473	4891
683.521	4850
683.568	4909
683.571	4925
683.615	4659
683.662	4820
683.693	4487
683.709	4323
683.757	5256
683.804	4912
683.814	5146
683.851	5759
683.898	5471
683.936	5687
683.945	5742
683.992	6120
684.039	5947
684.057	6218
684.086	6584
684.133	6834
684.179	5784
684.180	5721
684.227	7103
684.274	5919
684.300	6371
684.321	6741
684.368	6345
684.415	6867
684.422	6763
684.462	5903
684.509	6530
684.543	6604
684.556	6631
684.603	6124
684.649	5883
684.665	5895
684.696	5940
684.743	5549
684.786	6502
684.790	6568
684.837	6916
684.883	7193
684.908	7516
684.930	7813
684.977	7875
685.023	7517
685.029	7610
685.070	7750
685.117	6947
685.150	7225
685.164	7468
685.210	7835
685.257	8503
685.272	8503
685.303	8212
685.350	8318
685.393	8023
685.396	8002
685.443	8640
685.490	7962
685.514	8462
685.536	8804
685.583	8806
685.629	8854
685.636	8883
685.675	8932
685.722	8391
685.757	8567
685.768	8611
685.815	9139
685.861	8734
685.878	8948
685.908	9364
685.954	8610
686.000	9526
686.000	9540
686.047	9727
686.093	11275
686.121	11815
686.139	11765
686.185	11359
686.232	9973
686.242	10072
686.278	10392
686.324	9155
686.363	9403
686.370	9485
686.416	9025
686.463	9427
686.484	9324
686.509	9256
686.555	9359
686.601	9283
686.606	9314
686.647	9369
686.693	9201
686.727	9100
686.739	9098
686.785	9255
686.831	9671
686.848	9487
686.877	9260
686.923	9549
686.969	9579
686.969	9577
687.015	9187
687.061	9888
687.090	10235
687.107	10398
687.153	10398
687.199	10031
687.211	9843
687.245	9248
687.291	9581
687.332	9667
687.336	9728
687.382	10394
687.428	11558
687.453	11366
687.474	10753
687.520	10306
687.565	9704
687.574	9601
687.611	9851
687.657	9846
687.695	10434
687.702	10621
687.748	11681
687.794	13005
687.816	13146
687.839	12604
687.885	11568
687.931	11425
687.937	11259
687.976	10825
688.022	11180
688.058	10926
688.067	10867
688.113	10839
688.158	10830
688.179	10998
688.204	11226
688.249	11178
688.295	11222
688.300	11218
688.340	11553
688.386	11889
688.421	11723
688.431	11558
688.477	11603
688.522	11173
688.542	11324
688.567	11781
688.613	11538
688.658	11662
688.663	11680
688.703	11634
688.749	11634
688.784	11503
688.794	11500
688.839	11659
688.884	11581
688.905	11641
688.930	11694
688.975	11256
689.020	11270
689.026	11260
689.065	11489
689.110	11841
689.146	12161
689.155	12181
689.201	11693
689.246	11595
689.267	11573
689.291	11712
689.336	11662
689.381	12146
689.388	12089
689.426	11797
689.471	11700
689.509	11569
689.516	11565
689.561	11851
689.606	11483
689.630	11444
689.651	11437
689.696	11642
689.741	11772
689.750	11747
689.785	11776
689.830	12299
689.871	11875
689.875	11817
689.920	11854
689.965	11665
689.992	11534
690.010	11670
690.054	11580
690.099	11897
690.112	11953
690.144	11917
690.189	11619
690.233	11385
690.233	11401
690.278	11799
690.323	11759
690.354	11692
690.367	11723
690.412	11977
690.457	11715
690.474	12001
690.501	12389
690.546	11827
690.590	12351
690.595	12290
690.635	11988
690.680	12062
690.716	12230
690.724	12315
690.769	12664
690.813	12692
690.836	12528
690.857	12380
690.902	12696
690.946	12873
690.957	12831
690.991	13504
691.035	14578
691.077	15891
691.080	15943
691.124	15815
691.168	16412
691.198	16275
691.213	16093
691.257	16091
691.301	15247
691.318	15240
691.346	14876
691.390	13880
691.434	12609
691.439	12468
691.478	12748
691.522	13854
691.559	13904
691.567	13906
691.611	13947
691.655	13906
691.680	14125
691.699	14272
691.743	14002
691.787	14347
691.800	14200
691.831	13934
691.875	14127
691.919	13982
691.921	13967
691.964	14637
692.008	14770
692.041	14848
692.052	14823
692.096	14729
692.139	14827
692.162	14437
692.183	14075
692.227	14405
692.271	14290
692.282	14241
692.315	14349
692.359	14068
692.402	14214
692.403	14244
692.447	13944
692.490	14336
692.523	14342
692.534	14458
692.578	14856
692.622	14949
692.643	15255
692.666	15306
692.709	14516
692.753	14302
692.763	14169
692.797	13954
692.840	13881
692.884	13352
692.884	13383
692.928	14249
692.971	14669
693.004	15009
693.015	14954
693.059	14967
693.102	14416
693.124	14315
693.146	14554
693.189	14565
693.233	15090
693.245	15147
693.276	15252
693.320	15516
693.363	15240
693.365	15206
693.407	15200
693.450	15620
693.485	15336
693.493	15368
693.537	15875
693.580	16153
693.605	16439
693.624	16750
693.667	17281
693.710	17333
693.725	17522
693.753	18494
693.797	19742
693.840	21024
693.845	21148
693.883	21470
693.926	21546
693.966	21637
693.970	21497
694.013	19458
694.056	17614
694.086	16180
694.099	16188
694.142	16323
694.185	16187
694.206	16207
694.229	16274
694.272	15970
694.315	16178
694.326	16086
694.358	16455
694.401	17175
694.444	17914
694.446	17901
694.487	17646
694.530	17009
694.566	17051
694.573	17026
694.616	16217
694.659	15436
694.686	14829
694.702	14750
694.745	14731
694.787	14270
694.806	14239
694.830	14430
694.873	14294
694.916	14543
694.926	14486
694.959	14422
695.002	14457
695.044	14336
695.046	14314
695.087	15247
695.130	15748
695.166	16190
695.172	16197
695.215	15818
695.258	15837
695.286	15597
695.301	15637
695.343	15921
695.386	16073
695.406	16002
695.428	15883
695.471	15869
695.514	15689
695.526	15603
695.556	15849
695.599	16410
695.641	16586
695.646	16592
695.684	16424
695.726	16035
695.766	15609
695.769	15653
695.811	15642
695.854	16018
695.886	16018
695.896	15956
695.938	15642
695.981	15329
696.005	15049
696.023	15352
696.065	16001
696.108	16693
696.125	17006
696.150	17172
696.192	17206
696.235	17153
696.245	17136
696.277	17139
696.319	17031
696.361	16873
696.365	16818
696.404	16731
696.446	16608
696.485	16462
696.488	16532
696.530	16934
696.572	17125
696.604	17452
696.614	17447
696.656	16922
696.698	16567
696.724	16259
696.740	16128
696.783	15759
696.825	15358
696.844	15085
696.867	15338
696.909	15865
696.951	16369
696.964	16471
696.992	16356
697.034	16168
697.076	15955
697.083	15861
697.118	16321
697.160	16907
697.202	17494
697.203	17464
697.244	17282
697.286	17092
697.323	16702
697.327	16711
697.369	16485
697.411	16275
697.442	16094
697.453	16273
697.494	16783
697.536	17290
697.562	17535
697.578	17585
697.620	17742
697.661	17786
697.682	17742
697.703	18069
697.744	18603
697.786	19336
697.801	19479
697.828	19533
697.869	19590
697.911	19610
697.921	19582
697.952	19105
697.994	18379
698.035	17629
698.040	17491
698.077	17678
698.118	17841
698.160	18013
698.160	17964
698.201	17903
698.243	17801
698.279	17707
698.284	17763
698.325	17770
698.367	17826
698.399	17813
698.408	17805
698.449	17524
698.491	17252
698.518	17042
698.532	17174
698.573	17418
698.614	17639
698.638	17724
698.656	17818
698.697	17944
698.738	18050
698.757	18050
698.779	18253
698.820	18552
698.862	18839
698.877	18899
698.903	19069
698.944	19250
698.985	19443
698.996	19443
699.026	19192
699.067	18774
699.116	18226
699.235	19035
699.354	17869
699.474	19741
699.593	19353
699.713	20071
699.832	16871
699.951	18509
700.070	18811
700.190	17471
700.309	18112
700.428	18674
700.547	17596
700.667	17187
700.786	19141
700.905	17654
701.024	18128
701.143	18091
701.262	15423
701.381	16270
701.500	16477
701.619	18843
701.738	16368
701.857	15933
701.976	16077
702.095	15798
702.214	17054
702.333	18029
702.452	16212
702.571	15701
702.690	15978
702.809	16159
702.928	16101
703.047	16418
703.165	15071
703.284	15114
703.403	14629
703.522	16971
703.640	15971
703.759	18809
703.878	25213
703.997	16991
704.115	14138
704.234	15449
704.353	14422
704.471	13323
704.590	13840
704.708	13089
704.827	13435
704.946	13709
705.064	16224
705.183	14946
705.301	17083
705.420	22160
705.538	20836
705.656	18397
705.775	16864
705.893	20610
706.012	25655
706.130	17913
706.249	18289
706.367	18659
706.485	18626
706.604	18621
706.722	18789
706.840	21889
706.958	24547
707.077	20836
707.195	17169
707.313	16584
707.431	15196
707.549	16090
707.668	16413
707.786	16856
707.904	16164
708.022	15669
708.140	14734
708.258	16045
708.376	15236
708.494	15917
708.612	17362
708.730	22652
708.848	22361
708.966	20313
709.084	20117
709.202	18519
709.320	18724
709.438	18728
709.556	18644
709.674	18788
709.791	19022
709.909	18882
710.027	17906
710.145	18154
710.263	18507
710.380	18197
710.498	17468
710.616	18707
710.733	16792
710.851	18966
710.969	19253
711.086	18278
711.204	17551
711.322	17665
711.439	16556
711.557	18682
711.674	17329
711.792	17057
711.909	16445
712.027	17478
712.144	16491
712.262	16097
712.379	17080
712.497	23525
712.614	25014
712.732	22877
712.849	20517
712.966	21852
713.084	26110
713.201	23043
713.318	20791
713.436	21567
713.553	20730
713.670	22003
713.787	22329
713.905	24369
714.022	20784
714.139	20628
714.256	23684
714.373	28390
714.490	43041
714.608	87118
714.725	369252
714.842	578105
714.959	53434
715.076	24131
715.193	20295
715.310	20140
715.427	18696
715.544	18447
715.661	17473
715.778	17591
715.895	20007
716.011	20416
716.128	19091
716.245	17991
716.362	19278
716.479	21028
716.596	17553
716.713	18304
716.829	16999
716.946	18257
717.063	14939
717.180	16733
717.296	14982
717.413	15299
717.530	15328
717.646	15120
717.763	14944
717.880	14547
717.996	15189
718.113	15615
718.229	14919
718.346	15290
718.462	14216
718.579	17912
718.695	28674
718.812	24901
718.928	20846
719.045	17538
719.161	13312
719.277	14061
719.394	14181
719.510	14921
719.626	14601
719.743	18865
719.859	21275
719.975	34313
720.092	104073
720.208	317015
720.324	57353
720.440	18040
720.557	17503
720.673	23890
720.789	32686
720.905	63800
721.021	30979
721.137	13958
721.253	14116
721.369	13748
721.486	15294
721.602	22209
721.718	14665
721.834	12510
721.950	12061
722.066	12578
722.181	12036
722.297	12799
722.413	12140
722.529	12157
722.645	12830
722.761	11779
722.877	11406
722.993	12252
723.108	13254
723.224	12788
723.340	11900
723.456	11408
723.571	11107
723.687	10515
723.803	10460
723.918	11360
724.034	11256
724.150	10916
724.265	12523
724.381	22127
724.497	35760
724.612	11498
724.728	9766
724.843	9815
724.959	11712
725.074	21244
725.190	31819
725.305	12084
725.421	11177
725.536	10039
725.651	9063
725.767	9839
725.882	9448
725.997	9761
726.113	9649
726.228	10052
726.343	8984
726.459	9096
726.574	9957
726.689	9111
726.804	8389
726.920	9794
727.035	10002
727.150	10848
727.265	8693
727.380	9774
727.495	9140
727.610	8477
727.725	8664
727.841	8287
727.956	10605
728.071	12015
728.186	9247
728.301	8093
728.416	9011
728.531	9511
728.645	8500
728.760	9013
728.875	9899
728.990	8044
729.105	8181
729.220	9314
729.335	9925
729.449	8474
729.564	8069
729.679	7894
729.794	7429
729.908	8935
730.023	8492
730.138	7333
730.253	6920
730.367	7472
730.482	7332
730.596	7478
730.711	8252
730.826	9259
730.940	9248
731.055	9273
731.169	7873
731.284	8073
731.398	8352
731.513	9063
731.627	8756
731.742	10484
731.856	11151
731.970	8766
732.085	10843
732.199	13626
732.313	20349
732.428	44783
732.542	142368
732.656	119589
732.771	21135
732.885	11707
732.999	10113
733.113	11521
733.227	10170
733.342	9524
733.456	9284
733.570	8526
733.684	8390
733.798	8644
733.912	7935
734.026	7529
734.140	7481
734.254	8923
734.368	12106
734.482	21163
734.596	8487
734.710	8130
734.824	7185
734.938	7201
735.052	7028
735.166	8945
735.280	8308
735.393	7696
735.507	7354
735.621	9295
735.735	16441
735.849	10762
735.962	7503
736.076	7763
736.190	7976
736.303	9819
736.417	15715
736.531	7770
736.644	6945
736.758	6949
736.872	7159
736.985	6573
737.099	6642
737.212	6855
737.326	6176
737.439	7271
737.553	6366
737.666	6503
737.780	5889
737.893	6721
738.007	5463
738.120	6900
738.233	5703
738.347	6795
738.460	6054
738.573	7079
738.687	6988
738.800	7049
738.913	7556
739.026	7729
739.140	5756
739.253	5979
739.366	6281
739.479	5617
739.592	5607
739.705	6217
739.818	6131
739.932	5834
740.045	6087
740.158	5958
740.271	6902
740.384	5506
740.497	5620
740.610	7648
740.723	6498
740.836	6583
740.949	7164
741.062	8259
741.174	8349
741.287	6012
741.400	5945
741.513	6274
741.626	6715
741.739	5914
741.851	5360
741.964	5848
742.077	6102
742.189	4731
742.302	6782
742.415	6314
742.527	5190
742.640	5640
742.753	4992
742.865	4596
742.978	5200
743.090	5365
743.203	5396
743.316	5452
743.428	5098
743.541	5828
743.653	4882
743.766	4819
743.878	5478
743.990	6528
744.103	7515
744.215	5384
744.327	5422
744.440	6502
744.552	10122
744.664	7800
744.777	4468
744.889	4653
745.001	4259
745.113	4801
745.226	4290
745.338	4917
745.450	4922
745.562	5554
745.674	4736
745.786	4261
745.898	4045
746.010	5245
746.122	3858
746.234	5458
746.347	4542
746.459	4967
746.570	3708
746.682	4783
746.794	4508
746.906	4098
747.018	3944
747.130	4149
747.242	4026
747.354	4636
747.466	4807
747.577	4330
747.689	4365
747.801	4877
747.913	3787
748.024	4323
748.136	3985
748.248	5142
748.359	4475
748.471	4216
748.583	3883
748.694	4556
748.806	4971
748.918	5006
749.029	5294
749.141	5656
749.252	5647
749.364	5487
749.475	10449
749.587	9588
749.698	4116
749.809	4533
749.921	4358
750.032	3543
750.144	3429
750.255	3201
750.366	3537
750.478	3507
750.589	3994
750.700	4070
750.811	4436
750.923	5866
751.034	10169
751.145	14354
751.256	4313
751.367	3136
751.479	4358
751.590	3024
751.701	3349
751.812	4524
751.923	3625
752.034	4252
752.145	3579
752.256	3693
752.367	3110
752.478	3410
752.589	4246
752.700	3578
752.811	3544
752.922	3459
753.032	3757
753.143	5532
753.254	3093
753.365	3707
753.476	3183
753.586	3813
753.697	4497
753.808	3012
753.919	3772
754.029	3898
754.140	3743
754.251	3261
754.361	3141
754.472	4070
754.582	3667
754.693	3731
754.804	4084
754.914	3432
755.025	2709
755.135	3971
755.246	2664
755.356	2760
755.466	3261
755.577	3215
755.687	3248
755.798	3081
755.908	3707
756.018	3363
756.129	3130
756.239	3272
756.349	3503
756.460	3122
756.570	4077
756.680	3610
756.790	3607
756.900	4796
757.011	2932
757.121	3391
757.231	2778
757.341	3498
757.451	2758
757.561	3878
757.671	2724
757.781	2600
757.891	3930
758.001	3734
758.111	3840
758.221	3723
758.331	4320
758.441	4740
758.551	4909
758.661	6232
758.771	4262
758.880	3735
758.990	3621
759.100	3452
759.210	4087
759.320	4310
759.429	3514
759.539	3741
759.649	4106
759.758	4539
759.868	5211
759.978	4731
760.087	5124
760.197	5419
760.307	3694
760.416	4467
760.526	3438
760.635	4298
760.745	4104
760.854	5615
760.964	5308
761.073	5687
761.182	4428
761.292	5195
761.401	5309
761.511	5085
761.620	2678
761.729	3698
761.839	3294
761.948	4223
762.057	4430
762.166	3742
762.276	2838
762.385	3660
762.494	3619
762.603	4033
762.712	3209
762.822	3550
762.931	3699
763.040	3627
763.149	3195
763.258	3730
763.367	3752
763.476	4244
763.585	3931
763.694	3976
763.803	3648
763.912	4882
764.021	3837
764.130	3520
764.238	3437
764.347	3530
764.456	4570
764.565	4485
764.674	4037
764.783	4423
764.891	3477
765.000	4010
765.109	3951
765.217	5096
765.326	5622
765.435	7471
765.543	6147
765.652	6954
765.761	8253
765.869	11100
765.978	16463
766.086	29199
766.195	56216
766.303	138186
766.412	410139
766.520	470579
766.629	136051
766.737	43428
766.846	23520
766.954	15869
767.062	13097
767.171	10838
767.279	9258
767.387	7244
767.496	6808
767.604	6128
767.712	6306
767.820	4899
767.928	5189
768.037	4739
768.145	5372
768.253	5944
768.361	4789
768.469	4799
768.577	4054
768.685	5158
768.793	4892
768.901	6060
769.009	5013
769.117	5582
769.225	6075
769.333	9345
769.441	12239
769.549	23305
769.657	47965
769.765	152132
769.873	401712
769.981	189667
770.088	35376
770.196	16110
770.304	11237
770.412	9494
770.519	7227
770.627	7248
770.735	5230
770.842	6048
770.950	4788
771.058	5282
771.165	4587
771.273	5479
771.380	4879
771.488	5445
771.595	4677
771.703	4739
771.810	5351
771.918	3869
772.025	4784
772.133	4448
772.240	4517
772.348	5119
772.455	4376
772.562	4879
772.670	4090
772.777	4549
772.884	4259
772.991	5456
773.099	4058
773.206	4922
773.313	4392
773.420	4281
773.528	4045
773.635	2670
773.742	4583
773.849	4595
773.956	3854
774.063	3939
774.170	3100
774.277	5025
774.384	3735
774.491	4898
774.598	4412
774.705	4896
774.812	5610
774.919	5441
775.026	4153
775.133	4164
775.239	5276
775.346	4229
775.453	3483
775.560	4380
775.667	3490
775.773	4364
775.880	4815
775.987	4423
776.093	4286
776.200	4301
776.307	3174
776.413	3617
776.520	3297
776.627	4570
776.733	3330
776.840	2661
776.946	3965
777.053	4312
777.159	4228
777.266	2932
777.372	3863
777.478	3301
777.585	3985
777.691	3733
777.798	3669
777.904	4967
778.010	6071
778.117	5672
778.223	4155
778.329	3964
778.435	4100
778.542	4265
778.648	2523
778.754	3072
778.860	3646
778.966	3521
779.072	4243
779.178	3585
779.284	3189
779.391	3885
779.497	2665
779.603	4654
779.708	2935
779.815	5560
779.920	5761
780.026	12129
780.132	4408
780.238	3223
780.344	2566
780.450	3710
780.556	2712
780.661	2928
780.767	3120
780.873	3381
780.979	4105
781.085	3511
781.190	2703
781.296	3235
781.402	3193
781.507	2380
781.613	2600
781.719	2493
781.824	3462
781.930	4230
782.035	2376
782.141	3352
782.246	3141
782.352	3281
782.457	2638
782.563	3113
782.668	3353
782.773	3611
782.879	2749
782.984	3693
783.090	3472
783.195	6582
783.300	4741
783.405	3014
783.511	2352
783.616	3729
783.721	3686
783.826	2960
783.932	3199
784.037	3377
784.142	2750
784.247	3017
784.352	2995
784.457	3153
784.562	2809
784.667	3846
784.772	3046
784.877	3361
784.982	3550
785.087	2540
785.192	3314
785.297	4005
785.402	2831
785.507	2770
785.611	3052
785.716	2329
785.821	2592
785.926	2479
786.031	2434
786.135	2965
786.240	2486
786.345	2340
786.450	2902
786.554	2409
786.659	2344
786.763	2110
786.868	2464
786.973	2676
787.077	2879
787.182	3391
787.286	2864
787.391	2145
787.495	2183
787.600	1710
787.704	2149
787.809	2643
787.913	1877
788.017	2693
788.122	2788
788.226	2522
788.330	1563
788.435	1426
788.539	3111
788.643	1505
788.747	1143
788.852	1704
788.956	1368
789.060	2521
789.164	2651
789.268	2663
789.372	2085
789.476	2840
789.580	1560
789.684	1607
789.788	2228
789.892	1597
789.996	2088
790.100	2393
790.204	1325
790.308	2761
790.412	2491
790.516	2582
790.620	2254
790.724	2511
790.828	1787
790.931	1943
791.035	3149
791.139	1678
791.242	1609
791.346	3161
791.450	1799
791.554	2434
791.657	1122
791.761	2662
791.864	2865
791.968	2165
792.072	2818
792.175	2548
792.279	1553
792.382	2582
792.486	1788
792.589	2574
792.693	2478
792.796	1610
792.899	3065
793.003	1819
793.106	905
793.209	2522
793.313	2926
793.416	1634
793.519	2982
793.623	3677
793.726	5955
793.829	3646
793.932	1939
794.035	1276
794.138	2203
794.242	2208
794.345	2298
794.448	4156
794.551	3996
794.654	7153
794.757	6940
794.860	4220
794.963	2570
795.066	1519
795.169	2075
795.272	1720
795.375	1615
795.477	1804
795.580	1963
795.683	542
795.786	1834
795.889	1830
795.991	1891
796.094	2225
796.197	1590
796.300	2192
796.402	1531
796.505	1106
796.608	1324
796.710	2210
796.813	1330
796.915	974
797.018	2420
797.120	1853
797.223	1143
797.326	2328
797.428	2085
797.530	1511
797.633	1700
797.735	3450
797.838	3573
797.940	5088
798.042	1730
798.145	1884
798.247	2331
798.349	1286
798.452	1740
798.554	1544
798.656	612
798.758	3687
798.860	1598
798.962	2014
799.065	1112
799.167	629
799.269	2316
799.371	2238
799.473	2715
799.575	1591
799.677	3208
799.779	3663
799.881	2716
799.983	3296
800.085	1404
800.187	1573
800.289	958
800.390	1470
800.492	2205
800.594	2369
800.696	1224
800.798	1632
800.899	1578
801.001	880
801.103	1296
801.205	1671
801.306	1541
801.408	1754
801.509	968
801.611	1823
801.713	1040
801.814	992
801.916	558
802.017	901
802.119	881
802.220	2311
802.322	519
802.423	3406
802.525	1738
802.626	2177
802.727	968
802.829	2268
802.930	-416
803.031	2932
803.133	557
803.234	1443
803.335	1242
803.436	432
803.538	895
803.639	465
803.740	2181
803.841	1557
803.942	630
804.043	1473
804.144	957
804.245	1468
804.346	459
804.447	1250
804.548	2196
804.649	4018
804.750	1199
804.851	995
804.952	680
805.053	1447
805.154	519
805.255	1231
805.355	1725
805.456	934
805.557	604
805.658	994
805.758	1152
805.859	1596
805.960	817
806.061	671
806.161	587
806.262	1199
806.362	916
806.463	1491
806.564	1384
806.664	1356
806.765	1036
806.865	2848
806.966	483
807.066	1330
807.166	1552
807.267	2043
807.367	-26
807.468	1478
807.568	216
807.668	1952
807.769	1247
807.869	220
807.969	486
808.069	1219
808.170	203
808.270	1228
808.370	1219
808.470	2147
808.570	1515
808.670	1433
808.770	861
808.870	795
808.970	705
809.070	1005
809.170	-19
809.271	1185
809.370	956
809.470	1235
809.570	1004
809.670	7
809.770	871
809.870	1883
809.970	711
810.070	335
810.169	1122
810.269	-637
810.369	1773
810.469	789
810.568	862
810.668	345
810.768	903
810.867	1147
810.967	176
811.066	363
811.166	92
811.265	1729
811.365	182
811.464	817
811.564	1595
811.663	1627
811.763	439
811.862	1918
811.962	1518
812.061	554
812.160	1008
812.260	1175
812.359	1349
812.458	2161
812.557	6804
812.657	12080
812.756	4549
812.855	2329
812.954	1106
813.053	1472
813.153	721
813.252	911
813.351	1123
813.450	1332
813.549	865
813.648	2384
813.747	962
813.846	1478
813.945	932
814.044	1688
814.143	707
814.242	1994
814.341	476
814.439	1530
814.538	1471
814.637	1390
814.736	875
814.835	2382
814.933	1360
815.032	2218
815.131	1702
815.229	1416
815.328	2930
815.427	2394
815.525	2669
815.624	3098
815.722	2714
815.821	2768
815.919	1952
816.018	2416
816.116	2874
816.215	2927
816.313	3097
816.412	3491
816.510	3266
816.609	5288
816.707	3763
816.805	3949
816.904	3611
817.002	4766
817.100	5148
817.198	7266
817.296	5788
817.395	7697
817.493	7782
817.591	10865
817.689	12467
817.787	16439
817.885	25692
817.983	44052
818.081	84050
818.179	187425
818.277	430622
818.375	499906
818.473	194119
818.571	74310
818.669	43891
818.767	35782
818.865	34998
818.963	39412
819.061	51703
819.158	82782
819.256	153791
819.354	322848
819.452	623774
819.549	569184
819.647	244132
819.745	104346
819.842	58588
819.940	39204
820.038	28635
820.135	22024
820.233	17309
820.330	12816
820.428	10084
820.525	10811
820.623	7438
820.720	7531
820.818	7367
820.915	6614
821.012	6060
821.110	4486
821.207	5421
821.304	3825
821.402	3857
821.499	4760
821.596	3400
821.693	3842
821.791	4534
821.888	4015
821.985	7264
822.082	6761
822.179	3273
822.276	4047
822.373	2061
822.470	2632
822.567	3002
822.664	2201
822.761	2474
822.858	2514
822.955	1504
823.052	2613
823.149	1427
823.246	3164
823.343	1931
823.440	2136
823.536	1229
823.633	1402
823.730	775
823.827	2560
823.923	1604
824.020	2192
824.117	1444
824.213	1454
824.310	3028
824.407	1720
824.503	1522
824.600	1412
824.696	1241
824.793	1937
824.889	1482
824.986	1093
825.082	1271
825.179	1688
825.275	557
825.371	823
825.468	1584
825.564	536
825.660	1483
825.757	2006
825.853	1379
825.949	1094
826.045	40
826.142	1024
826.238	1174
826.334	1261
826.430	556
826.526	1435
826.622	1266
826.718	747
826.814	817
826.910	1854
827.006	444
827.102	1051
827.198	870
827.294	1291
827.390	664
827.486	915
827.582	-404
827.678	74
827.774	978
827.869	1043
827.965	1677
828.061	730
828.157	138
828.252	1190
828.348	564
828.444	1076
828.539	318
828.635	272
828.731	473
828.826	316
828.922	1376
829.017	645
829.113	1269
829.208	547
829.304	404
829.399	2748
829.495	923
829.590	1136
829.685	501
829.781	1837
829.876	299
829.971	252
830.066	-321
830.162	905
830.257	335
830.352	1280
830.447	1268
830.543	785
830.638	22
830.733	2329
830.828	-89
830.923	1669
831.018	354
831.113	1841
831.208	169
831.303	422
831.398	431
831.493	346
831.588	1382
831.683	507
831.778	623
831.873	1215
831.967	821
832.062	200
832.157	204
832.252	1433
832.346	335
832.441	1482
832.536	1771
832.631	4579
832.725	5420
832.820	420
832.914	-192
833.009	70
833.104	1255
833.198	2269
833.293	646
833.387	655
833.482	158
833.576	288
833.670	900
833.765	669
833.859	681
833.954	2856
834.048	290
834.142	1202
834.237	145
834.331	503
834.425	855
834.519	847
834.613	542
834.708	497
834.802	424
834.896	-134
834.990	629
835.084	969
835.178	127
835.272	1174
835.366	646
835.460	361
835.554	45
835.648	1187
835.742	-461
835.836	462
835.930	-557
836.024	1377
836.117	1247
836.211	850
836.305	1497
836.399	2436
836.493	811
836.586	1059
836.680	-95
836.774	-99
836.867	1297
836.961	-779
837.055	38
837.148	78
837.242	-27
837.335	876
837.429	793
837.522	661
837.616	933
837.709	3134
837.803	2150
837.896	1260
837.989	842
838.083	1911
838.176	3063
838.269	4824
838.363	1304
838.456	-10
838.549	1809
838.642	2211
838.735	6683
838.829	5011
838.922	216
839.015	431
839.108	-173
839.201	276
839.294	770
839.387	717
839.480	425
839.573	961
839.666	1911
839.759	700
839.852	-193
839.945	1006
840.038	-136
840.131	654
840.223	85
840.316	1399
840.409	-103
840.502	356
840.594	691
840.687	-400
840.780	-153
840.873	707
840.965	749
841.058	1297
841.150	2266
841.243	2741
841.336	1181
841.428	1419
841.521	-293
841.613	-432
841.706	890
841.798	292
841.890	272
841.983	-102
842.075	1270
842.167	104
842.260	7
842.352	1638
842.444	2147
842.537	3634
842.629	5806
842.721	2838
842.813	543
842.905	-271
842.997	-245
843.090	763
843.182	1465
843.274	3525
843.366	7614
843.458	18560
843.550	15370
843.642	2340
843.734	-19
843.826	44
843.918	1334
844.009	661
844.101	508
844.193	319
844.285	-19
844.377	159
844.469	1235
844.560	-546
844.652	164
844.744	618
844.835	-61
844.927	736
845.019	19
845.110	863
845.202	774
845.293	319
845.385	-687
845.476	250
845.568	421
845.659	743
845.751	711
845.842	417
845.934	-34
846.025	613
846.116	-52
846.208	898
846.299	-630
846.390	770
846.482	204
846.573	206
846.664	1425
846.755	2210
846.846	2749
846.937	21
847.029	-3
847.120	-347
847.211	-428
847.302	679
847.393	-894
847.484	329
847.575	-984
847.666	-119
847.757	-265
847.847	509
847.938	735
848.029	-21
848.120	-557
848.211	907
848.302	-193
848.392	631
848.483	232
848.574	-651
848.664	-223
848.755	419
848.846	257
848.936	-573
849.027	597
849.118	-97
849.208	259
849.299	603
849.389	1681
849.480	4164
849.570	8723
849.661	15558
849.751	34590
849.841	17280
849.932	2270
850.022	215
850.112	622
850.203	653
850.293	-348
850.383	335
850.474	-243
850.564	385
850.654	-316
850.744	374
850.834	376
850.924	733
851.014	290
851.104	-77
851.194	670
851.284	287
851.374	1136
851.464	1454
851.554	94
851.644	206
851.734	1520
851.824	1878
851.914	380
852.004	1084
852.094	-508
852.183	164
852.273	245
852.363	208
852.452	502
852.542	-222
852.632	193
852.721	68
852.811	395
852.901	-202
852.990	-20
853.080	254
853.169	475
853.259	628
853.348	609
853.438	1535
853.527	2293
853.617	2541
853.706	6086
853.795	11217
853.885	25736
853.974	54051
854.063	91522
854.152	174405
854.242	93779
854.331	15769
854.420	4926
854.509	3590
854.598	2449
854.687	1999
854.777	1571
854.866	1292
854.955	1016
855.044	174
855.133	123
855.222	-399
855.311	-29
855.400	195
855.488	797
855.577	395
855.666	575
855.755	413
855.844	11
855.933	-14
856.021	53
856.110	344
856.199	-318
856.288	-232
856.376	-643
856.465	-518
856.554	-36
856.642	-70
856.731	-385
856.819	724
856.908	-755
856.996	434
857.085	-111
857.173	-42
857.262	-65
857.350	419
857.438	-558
857.527	27
857.615	-598
857.703	259
857.792	-356
857.880	-310
857.968	-652
858.056	-12
858.145	-440
858.233	-496
858.321	-707
858.409	321
858.497	-1306
858.585	-752
858.673	-33
858.761	-229
858.849	-103
858.937	-344
859.025	-111
859.113	884
859.201	-915
859.289	429
859.377	-122
859.465	-209
859.552	-651
859.640	-204
859.728	1
859.816	913
859.903	257
859.991	-325
860.079	-206
860.166	655
860.254	-345
860.342	562
860.429	-686
860.517	52
860.604	-218
860.692	-516
860.779	-567
860.867	-112
860.954	-1166
861.042	940
861.129	461
861.216	-77
861.304	-504
861.391	745
861.478	-194
861.565	185
861.653	226
861.740	-429
861.827	-801
861.914	549
862.001	147
862.089	251
862.176	-164
862.263	-443
862.350	-685
862.437	-728
862.524	-582
862.611	-135
862.698	-761
862.785	129
862.871	354
862.958	-614
863.045	-229
863.132	468
863.219	-262
863.306	-135
863.392	-363
863.479	258
863.566	-399
863.652	-64
863.739	-160
863.826	44
863.912	-708
863.999	-757
864.086	519
864.172	-155
864.259	586
864.345	41
864.432	-93
864.518	333
864.604	-513
864.691	-716
864.777	107
864.863	674
864.950	610
865.036	45
865.122	1222
865.209	1157
865.295	1623
865.381	1497
865.467	1374
865.553	2284
865.639	3436
865.726	6242
865.812	13372
865.898	27152
865.984	42469
866.070	73278
866.156	104809
866.242	38165
866.328	6572
866.414	3068
866.499	2070
866.585	2818
866.671	1046
866.757	1420
866.843	1484
866.928	1221
867.014	-30
867.100	2164
867.186	1348
867.271	1466
867.357	2173
867.442	2332
867.528	787
867.614	585
867.699	522
867.785	1159
867.870	261
867.956	733
868.041	1011
868.127	1121
868.212	1482
868.297	1338
868.383	635
868.468	1969
868.553	2978
868.639	3839
868.724	6012
868.809	9238
868.894	2252
868.979	1735
869.065	965
869.150	-305
869.235	313
869.320	807
869.405	377
869.490	79
869.575	-174
869.660	467
869.745	284
869.830	136
869.915	-32
870.000	227
870.085	295
870.169	226
870.254	206
870.339	-84
870.424	-452
870.509	1175
870.593	715
870.678	1169
870.763	-271
870.847	-92
870.932	-215
871.016	1364
871.101	-300
871.186	345
871.270	1186
871.355	619
871.439	-335
871.523	-549
871.608	287
871.692	539
871.777	267
871.861	878
871.945	-167
872.030	401
872.114	-473
872.198	132
872.282	-800
872.367	560
872.451	325
872.535	492
872.619	862
872.703	176
872.787	-406
872.871	112
872.955	142
873.039	-429
873.123	-258
873.207	1634
873.291	-866
873.375	52
873.459	-46
873.543	-207
873.627	-488
873.711	-82
873.794	-286
873.878	363
873.962	-995
874.045	106
874.129	215
874.137	251
874.213	610
874.245	169
874.296	-544
874.352	-525
874.380	-519
874.460	-338
874.464	-331
874.547	-632
874.568	-482
874.631	-54
874.676	-56
874.714	-45
874.784	-240
874.798	-279
874.881	1234
874.892	960
874.965	-967
874.999	-317
875.048	604
875.107	26
875.131	-213
875.215	278
875.215	279
875.298	344
875.323	235
875.381	42
875.430	9
875.465	-17
875.538	468
875.548	529
875.631	475
875.646	497
875.714	540
875.753	1
875.798	-483
875.861	-202
875.881	-173
875.964	-448
875.968	-438
876.047	-173
876.076	-68
876.130	183
876.183	671
876.213	896
876.291	-123
876.296	-190
876.379	46
876.398	-40
876.462	-352
876.506	-106
876.545	191
876.613	0
876.628	-54
876.711	196
876.721	214
876.794	244
876.828	363
876.877	596
876.935	-66
876.960	-322
877.043	645
877.043	645
877.125	564
877.150	808
877.208	1404
877.258	231
877.291	-560
877.365	735
877.374	891
877.456	582
877.472	613
877.539	695
877.579	435
877.622	196
877.687	669
877.704	768
877.787	517
877.794	498
877.869	448
877.901	396
877.952	266
878.008	385
878.034	459
878.115	86
878.117	81
878.199	738
878.222	515
878.282	-164
878.329	571
878.364	1141
878.437	1059
878.447	1008
878.529	-243
878.544	-300
878.611	-207
878.651	251
878.694	662
878.758	415
878.776	358
878.858	642
878.865	621
878.941	235
878.972	45
879.023	-166
879.078	11
879.105	128
879.185	238
879.187	240
879.269	191
879.292	281
879.351	203
879.399	-256
879.433	-382
879.506	-68
879.516	-45
879.598	83
879.613	52
879.680	118
879.720	276
879.762	356
879.827	308
879.844	266
879.926	226
879.933	256
880.007	473
880.040	354
880.089	393
880.147	995
880.171	1175
880.253	2156
880.254	2169
880.335	4275
880.360	4633
880.417	5924
880.467	8348
880.499	10171
880.574	15496
880.580	15644
880.662	6604
880.680	5258
880.744	1497
880.787	989
880.825	701
880.893	208
880.907	227
880.989	145
881.000	148
881.070	40
881.106	348
881.152	665
881.213	284
881.233	146
881.315	237
881.319	242
881.396	382
881.426	277
881.478	153
881.532	269
881.559	372
881.639	201
881.641	191
881.722	-134
881.745	13
881.803	638
881.852	338
881.885	93
881.958	821
881.966	870
882.047	323
882.064	278
882.129	525
882.171	705
882.210	787
882.277	2105
882.291	2403
882.372	1278
882.383	1226
882.454	259
882.489	78
882.535	343
882.596	686
882.616	749
882.697	129
882.702	163
882.778	213
882.808	-114
882.859	-299
882.914	-8
882.940	36
883.020	-353
883.021	-352
883.102	-153
883.127	-222
883.183	-125
883.233	248
883.264	320
883.339	114
883.345	69
883.426	-159
883.445	-275
883.507	-90
883.551	154
883.587	174
883.657	-189
883.668	-163
883.749	538
883.763	532
883.830	212
883.869	498
883.910	630
883.975	172
883.991	40
884.072	-339
884.081	-376
884.152	213
884.187	517
884.233	566
884.292	361
884.314	209
884.394	180
884.398	138
884.475	-205
884.504	-115
884.555	-27
884.610	-61
884.636	-73
884.716	14
884.716	19
884.797	416
884.821	574
884.877	496
884.927	225
884.958	83
885.033	150
885.038	189
885.118	426
885.139	591
885.199	372
885.244	-11
885.279	118
885.350	234
885.359	173
885.439	56
885.456	4
885.520	353
885.561	405
885.600	223
885.667	70
885.680	60
885.760	225
885.773	197
885.840	207
885.878	251
885.920	220
885.984	316
886.000	372
886.080	438
886.089	436
886.160	189
886.195	21
886.240	22
886.300	217
886.320	285
886.400	540
886.406	561
886.480	328
886.511	177
886.560	464
886.616	707
886.640	763
886.720	884
886.722	887
886.800	655
886.827	485
886.879	199
886.932	71
886.959	206
887.038	501
887.039	501
887.119	294
887.143	186
887.198	171
887.248	162
887.278	72
887.354	-210
887.358	-178
887.437	501
887.459	683
887.517	590
887.564	566
887.596	655
887.669	686
887.676	640
887.755	161
887.774	-7
887.835	582
887.880	1186
887.914	1128
887.985	662
887.994	612
888.073	398
888.090	330
888.153	594
888.195	791
888.232	539
888.300	-56
888.311	-68
888.391	-31
888.405	-37
888.470	303
888.510	537
888.549	548
888.615	508
888.628	532
888.708	714
888.720	728
888.787	392
888.825	222
888.866	376
888.930	607
888.945	597
889.024	536
889.035	524
889.103	425
889.140	366
889.182	-1
889.245	-519
889.261	-441
889.340	-91
889.349	-48
889.419	401
889.454	634
889.498	125
889.559	-586
889.577	-304
889.656	952
889.664	1075
889.735	777
889.768	636
889.814	482
889.873	276
889.978	548
890.083	1342
890.187	654
890.292	610
890.397	1037
890.501	271
890.606	289
890.710	423
890.815	410
890.919	1379
891.024	612
891.128	1084
891.233	169
891.337	873
891.442	421
891.546	380
891.650	750
891.755	304
891.859	1484
891.963	302
892.068	226
892.172	275
892.276	567
892.380	755
892.484	675
892.589	473
892.693	324
892.797	92
892.901	610
893.005	-149
893.109	446
893.213	731
893.317	88
893.421	505
893.525	1141
893.629	626
893.733	506
893.837	44
893.941	-42
894.045	1112
894.148	495
894.252	-253
894.356	125
894.460	920
894.564	128
894.667	-104
894.771	421
894.875	-29
894.978	108
895.082	-254
895.186	238
895.289	1336
895.393	531
895.496	558
895.600	252
895.703	1020
895.807	-315
895.910	465
896.014	774
896.117	288
896.221	1337
896.324	131
896.427	-1196
896.531	120
896.634	336
896.737	114
896.840	-270
896.944	404
897.047	-162
897.150	194
897.253	71
897.356	656
897.460	190
897.563	773
897.666	-224
897.769	73
897.872	701
897.975	348
898.078	-750
898.181	840
898.284	151
898.387	950
898.490	851
898.593	154
898.695	869
898.798	514
898.901	174
899.004	797
899.107	-21
899.209	657
899.312	427
899.415	849
899.518	1174
899.620	871
899.723	317
899.826	595
899.928	1065
900.031	270
900.133	47
900.236	555
900.338	-300
900.441	322
900.543	-182
900.646	175
900.748	-174
900.851	392
900.953	114
901.055	-264
901.158	69
901.260	251
901.362	-712
901.465	382
901.567	-495
901.669	145
901.771	-196
901.873	-99
901.976	-259
902.078	-274
902.180	767
902.282	-130
902.384	161
902.486	425
902.588	359
902.690	-440
902.792	30
902.894	344
902.996	125
903.098	-417
903.200	292
903.302	-59
903.404	-240
903.505	-234
903.607	-75
903.709	-436
903.811	-797
903.913	360
904.014	-597
904.116	-555
904.218	215
904.319	685
904.421	345
904.523	-32
904.624	-332
904.726	-457
904.827	0
904.929	-236
905.030	232
905.132	-190
905.233	-480
905.335	-328
905.436	-227
905.537	-187
905.639	214
905.740	-609
905.841	-281
905.943	-483
906.044	208
906.145	296
906.247	-316
906.348	-271
906.449	-12
906.550	-633
906.651	117
906.752	282
906.854	-756
906.955	-77
907.056	-225
907.157	-49
907.258	-20
907.359	-967
907.460	181
907.561	141
907.662	-554
907.762	80
907.863	-743
907.964	-311
908.065	859
908.166	-450
908.267	-860
908.367	-214
908.468	-762
908.569	-588
908.670	7
908.770	370
908.871	-67
908.971	-349
909.072	-274
909.173	353
909.273	132
909.374	-308
909.474	-620
909.575	483
909.675	1
909.776	-370
909.876	-74
909.977	-296
910.077	453
910.177	-190
910.278	-408
910.378	234
910.478	-376
910.579	-318
910.679	-91
910.779	241
910.879	386
910.980	-171
911.080	-492
911.180	-287
911.280	-67
911.380	-59
911.480	-130
911.580	-745
911.680	522
911.780	254
911.880	-420
911.980	-109
912.080	-824
912.180	-396
912.280	-404
912.380	-439
912.480	-417
912.580	-20
912.679	-297
912.779	-305
912.879	-244
912.979	-294
913.078	-631
913.178	-299
913.278	170
913.377	-912
913.477	-243
913.577	-1082
913.676	-42
913.776	-103
913.875	504
913.975	-175
914.074	-416
914.174	-384
914.273	-981
914.373	-113
914.472	186
914.572	-550
914.671	-736
914.770	-657
914.870	507
914.969	-1031
915.068	-887
915.167	156
915.267	-449
915.366	-414
915.465	-159
915.564	-406
915.663	207
915.763	39
915.862	-283
915.961	-809
916.060	-533
916.159	-420
916.258	-780
916.357	171
916.456	-433
916.555	-312
916.654	29
916.752	-524
916.851	-222
916.950	-532
917.049	-388
917.148	-580
917.247	-191
917.345	-588
917.444	-981
917.543	-34
917.642	-56
917.740	-384
917.839	-150
917.937	-367
918.036	-246
918.135	-953
918.233	-271
918.332	-196
918.430	-400
918.529	-617
918.627	344
918.726	-547
918.824	31
918.923	-152
919.021	-865
919.119	-198
919.218	-573
919.316	-145
919.414	-216
919.512	-783
919.611	154
919.709	-320
919.807	-707
919.905	-66
920.003	-293
920.102	-64
920.200	-371
920.298	-800
920.396	-225
920.494	-255
920.592	-84
920.690	-761
920.788	-951
920.886	-176
920.984	-177
921.082	-369
921.180	911
921.277	-336
921.375	-4
921.473	-143
921.571	343
921.669	-3
921.766	-92
921.864	-525
921.962	-309
922.060	115
922.157	58
922.255	-820
922.352	376
922.450	318
922.548	376
922.645	-141
922.743	195
922.840	741
922.938	1411
923.035	1341
923.133	499
923.230	1651
923.327	1732
923.425	1820
923.522	1042
923.619	855
923.717	90
923.814	720
923.911	1430
924.008	2059
924.106	1281
924.203	694
924.300	1150
924.397	1434
924.494	1260
924.591	907
924.688	659
924.786	1426
924.883	396
924.979	740
925.077	1215
925.173	975
925.270	837
925.367	1049
925.464	1404
925.561	1520
925.658	1148
925.755	660
925.852	1297
925.948	1585
926.045	1442
926.142	894
926.239	820
926.335	273
926.432	1534
926.529	846
926.625	1447
926.722	912
926.818	524
926.915	1237
927.011	1836
927.108	1064
927.204	600
927.301	988
927.397	76
927.494	1101
927.590	1422
927.687	862
927.783	998
927.879	365
927.976	402
928.072	1160
928.168	989
928.264	844
928.361	600
928.457	1052
928.553	869
928.649	657
928.745	1495
928.841	1257
928.937	1205
929.033	969
929.129	909
929.225	1027
929.321	50
929.417	753
929.513	1109
929.609	588
929.705	629
929.801	993
929.897	408
929.993	-158
930.089	1475
930.184	541
930.280	743
930.376	1521
930.471	85
930.567	-30
930.663	1120
930.758	20
930.854	584
930.950	679
931.045	549
931.141	327
931.236	757
931.332	1695
931.427	-270
931.523	1053
931.618	763
931.714	103
931.809	593
931.905	369
932.000	1113
932.095	114
932.191	869
932.286	854
932.381	950
932.476	219
932.572	1377
932.667	652
932.762	424
932.857	630
932.952	-153
933.047	992
933.142	316
933.237	536
933.332	1223
933.427	1517
933.522	222
933.617	747
933.712	933
933.807	24
933.902	697
933.997	685
934.092	251
934.187	638
934.282	901
934.376	588
934.471	649
934.566	541
934.661	306
934.755	121
934.850	324
934.945	728
935.039	352
935.134	343
935.228	149
935.323	1464
935.417	796
935.512	490
935.606	329
935.701	939
935.795	557
935.890	333
935.984	87
936.079	-37
936.173	402
936.267	364
936.362	271
936.456	396
936.550	448
936.644	1231
936.738	275
936.833	7
936.927	-374
937.021	-453
937.115	62
937.209	-304
937.303	1290
937.397	-143
937.491	580
937.585	1204
937.679	396
937.773	998
937.867	-330
937.961	-361
938.055	189
938.149	1131
938.243	386
938.337	154
938.430	405
938.524	-7
938.618	649
938.712	-291
938.805	1174
938.899	704
938.993	688
939.086	35
939.180	16
939.274	337
939.367	270
939.461	462
939.554	149
939.648	243
939.741	628
939.835	-31
939.928	759
940.022	1216
940.115	338
940.208	902
940.302	1108
940.395	1218
940.488	-185
940.582	644
940.675	704
940.768	263
940.861	116
940.954	886
941.048	154
941.141	418
941.234	-605
941.327	408
941.420	802
941.513	769
941.606	559
941.699	752
941.792	649
941.885	-53
941.978	69
942.071	-579
942.164	-428
942.257	384
942.349	231
942.442	-5
942.535	186
942.628	99
942.721	165
942.813	-831
942.906	441
942.999	-295
943.091	28
943.184	55
943.277	672
943.369	429
943.462	-39
943.554	389
943.647	-56
943.739	327
943.832	207
943.924	-1021
944.017	-80
944.109	-297
944.201	470
944.294	-124
944.386	-1321
944.478	508
944.571	-769
944.663	5
944.755	197
944.847	212
944.940	135
945.032	-751
945.124	130
945.216	-23
945.308	808
945.400	74
945.492	-641
945.584	-232
945.676	-116
945.768	619
945.860	15
945.952	660
946.044	414
946.136	-669
946.228	26
946.320	-97
946.412	-583
946.503	-189
946.595	618
946.687	-501
946.779	-182
946.870	-536
946.962	-547
947.054	-255
947.145	183
947.237	519
947.329	450
947.420	-145
947.512	333
947.603	-779
947.695	-89
947.786	-761
947.878	-82
947.969	49
948.061	-614
948.152	183
948.243	11
948.335	-762
948.426	-165
948.517	-224
948.609	-252
948.700	-549
948.791	-26
948.882	-679
948.973	-39
949.065	-554
949.156	-574
949.247	-393
949.338	166
949.429	-491
949.520	-381
949.611	-792
949.702	-29
949.793	-311
949.884	-262
949.975	-285
950.066	-612
950.157	-1048
950.247	-267
950.338	-337
950.429	-865
950.520	-822
950.611	-743
950.701	-15
950.792	-545
950.883	90
950.973	-105
951.064	-583
951.155	-1054
951.245	635
951.336	-227
951.427	-430
951.517	-191
951.608	-561
951.698	201
951.788	59
951.879	-645
951.969	-843
952.060	-1094
952.150	465
952.240	-317
952.331	-834
952.421	18
952.511	-1168
952.602	-855
952.692	-715
952.782	-72
952.872	-334
952.962	-25
953.052	493
953.143	-385
953.233	287
953.323	-97
953.413	-1069
953.503	-513
953.593	99
953.683	-720
953.773	-1007
953.863	-951
953.953	-645
954.042	396
954.132	-577
954.222	-173
954.312	-467
954.402	-238
954.492	-460
954.581	-110
954.671	-556
954.761	-479
954.850	338
954.940	-959
955.030	28
955.119	-516
955.209	-99
955.298	-613
955.388	-627
955.477	103
955.567	-1047
955.656	-740
955.746	-603
955.835	-579
955.925	-336
956.014	-462
956.103	-101
956.193	-1083
956.282	24
956.371	-170
956.461	-604
956.550	-1258
956.639	-435
956.728	-668
956.817	-29
956.906	-604
956.995	298
957.085	-113
957.174	-389
957.263	-932
957.352	234
957.441	-259
957.530	-253
957.619	-164
957.708	-721
957.796	-1293
957.885	-147
957.974	-784
958.063	-409
958.152	-464
958.241	-319
958.329	-978
958.418	-240
958.507	-1015
958.596	-74
958.684	-1245
958.773	-276
958.861	-372
958.950	-21
959.039	-923
959.127	-652
959.216	-153
959.304	-258
959.393	39
959.481	228
959.570	-567
959.658	-889
959.746	-605
959.835	-1150
959.923	512
960.011	-59
960.100	278
960.188	-948
960.276	-874
960.365	-781
960.453	-775
960.541	-895
960.629	-1502
960.717	-1038
960.805	-813
960.893	-1351
960.981	-578
961.069	-531
961.158	-597
961.245	712
961.333	-82
961.421	-1084
961.509	-944
961.597	-613
961.685	-422
961.773	-656
961.861	-702
961.949	-171
962.036	-873
962.124	-1075
962.212	-478
962.299	-868
962.387	-788
962.475	-606
962.562	-1288
962.650	-362
962.738	-1017
962.825	-900
962.913	-597
963.000	-933
963.088	-1189
963.175	-301
963.263	46
963.350	-514
963.438	-1013
963.525	-392
963.612	-73
963.700	-219
963.787	2532
963.874	2164
963.962	-1276
964.049	-524
964.136	-898
964.223	-688
964.310	-354
964.398	-525
964.485	-1575
964.572	-669
964.659	-270
964.746	-479
964.833	-1200
964.920	-715
965.007	-1532
965.094	-849
965.181	-1564
965.268	-504
965.355	-739
965.441	-1197
965.528	-642
965.615	-23
965.702	-245
965.789	-804
965.875	-170
965.962	-637
966.049	-977
966.136	-435
966.222	-1071
966.309	-452
966.395	-1824
966.482	-542
966.569	-802
966.655	-885
966.742	-784
966.828	-328
966.915	-1370
967.001	-522
967.087	-418
967.174	-1083
967.260	-457
967.347	-978
967.433	75
967.519	1507
967.605	261
967.692	-791
967.778	-1078
967.864	-867
967.950	-942
968.036	-1506
968.123	-225
968.209	-1622
968.295	-1292
968.381	848
968.467	-101
968.553	-1238
968.639	-549
968.725	-1193
968.811	170
968.897	-123
968.983	-1433
969.069	-978
969.154	-364
969.240	-25
969.326	-1311
969.412	-1233
969.497	-900
969.583	-1541
969.669	-338
969.755	-941
969.840	-1210
969.926	-243
970.012	-547
970.097	-489
970.183	-645
970.268	-540
970.354	-356
970.439	-683
970.525	1382
970.610	-589
970.696	-469
970.781	-911
970.866	-947
970.952	437
971.037	-892
971.122	-717
971.208	-138
971.293	-434
971.378	-1436
971.463	-171
971.549	-956
971.634	-136
971.719	-828
971.804	-864
971.889	-497
971.974	-978
972.059	-977
972.144	-970
972.229	-1376
972.314	-195
972.399	-635
972.484	-1410
972.569	-771
972.654	-770
972.739	-273
972.824	-491
972.908	-878
972.993	-1365
973.078	-1950
973.163	-677
973.247	-680
973.332	-2132
973.417	-377
973.501	-1293
973.586	-784
973.671	-679
973.755	-618
973.840	-505
973.924	-1492
974.009	-608
974.093	-725
974.178	1113
974.262	-798
974.346	-1251
974.431	-805
974.515	-832
974.600	-664
974.684	-1099
974.768	-1419
974.852	-423
974.937	-1488
975.021	-422
975.105	-600
975.189	-1177
975.273	-1443
975.358	-1124
975.442	-1583
975.526	-1053
975.610	-710
975.694	-1818
975.778	-614
975.862	-535
975.946	-1851
976.030	-322
976.114	-1127
976.198	-957
976.281	-417
976.365	-901
976.449	-1092
976.533	-1269
976.617	-1840
976.700	-922
976.784	-1670
976.868	-1668
976.951	-452
977.035	-512
977.119	-944
977.202	-843
977.286	-793
977.369	-1155
977.453	-469
977.536	-680
977.620	-1582
977.703	-688
977.787	-1658
977.870	343
977.953	-71
978.037	-1017
978.120	-986
978.203	-1029
978.287	-352
978.370	-515
978.453	-1300
978.536	-1303
978.620	-554
978.703	-1621
978.786	-1739
978.869	-1637
978.952	-1817
979.035	-122
979.118	-1180
979.201	-2012
979.284	-903
979.367	-1462
979.450	-542
979.533	-1180
979.616	-797
979.699	-1474
979.782	-1212
979.865	-1220
979.948	-998
980.030	-1615
980.113	-924
980.196	-1898
980.279	-1266
980.361	-1526
980.444	-1442
980.526	-1014
980.609	-573
980.692	-1426
980.774	-109
980.857	-2424
980.939	-1160
981.022	-882
981.104	-1244
981.187	-475
981.269	-669
981.352	-1334
981.434	-1416
981.516	-1065
981.599	-1075
981.681	-810
981.763	-1597
981.846	-1236
981.928	-887
982.010	-699
982.092	-768
982.174	-195
982.256	-1037
982.339	-979
982.421	-1866
982.503	-985
982.585	-1356
982.667	-1690
982.749	-1577
982.831	-1838
982.913	-1973
982.995	-196
983.077	-1982
983.158	145
983.240	-1730
983.322	-1203
983.404	-456
983.486	-695
983.568	-931
983.649	-1476
983.731	134
983.813	-1185
983.894	-1075
983.976	-931
984.058	-933
984.139	-900
984.221	-1342
984.302	-815
984.384	-1362
984.465	-1491
984.547	-1411
984.628	-1801
984.710	-816
984.791	-1150
984.872	-845
984.954	-1233
985.035	-771
985.116	-738
985.198	-1486
985.279	-120
985.360	-1053
985.441	-1237
985.522	-1184
985.604	-1359
985.685	-1780
985.766	268
985.847	103
985.928	-1960
986.009	-1312
986.090	-907
986.171	-697
986.252	-1344
986.333	-1469
986.414	-1324
986.495	-1008
986.576	-972
986.656	-1377
986.737	-974
986.818	-394
986.899	-1152
986.980	-778
987.060	-282
987.141	-1612
987.222	-290
987.302	-1017
987.383	-627
987.464	-1622
987.544	-189
987.625	-653
987.705	-971
987.786	-245
987.866	-705
987.947	-1100
988.027	-877
988.108	-509
988.188	-896
988.268	-1193
988.349	-1254
988.429	-430
988.509	-227
988.589	-987
988.670	-2652
988.750	-187
988.830	-1333
988.910	-737
988.990	-1083
989.070	-1334
989.151	-588
989.231	-1941
989.311	-807
989.391	-705
989.471	-1598
989.551	-1393
989.631	-1565
989.711	-924
989.791	-1261
989.870	-1495
989.950	-831
990.030	-1435
990.110	-1660
990.190	-1265
990.269	-1361
990.349	-1474
990.429	-1053
990.509	-233
990.588	-2027
990.668	-1320
990.747	-795
990.827	-2222
990.907	-758
990.986	-1049
991.066	-1070
991.145	-518
991.225	-570
991.304	-1231
991.383	-1183
991.463	-2147
991.542	-1475
991.622	-1095
991.701	-1280
991.780	-1279
991.859	-908
991.939	-1089
992.018	-1037
992.097	-1639
992.176	-1105
992.256	-1683
992.335	-1258
992.414	-568
992.493	-1621
992.572	-1732
992.651	-1555
992.730	-1249
992.809	-1441
992.888	-1469
992.967	-1850
993.046	-882
993.125	-2274
993.203	-1748
993.282	-881
993.361	-1189
993.440	-1108
993.519	-1269
993.597	-1450
993.676	-1566
993.755	-319
993.834	-1136
993.912	-2279
993.991	-1089
994.069	-1552
994.148	-1910
994.226	-1033
994.305	-1315
994.384	-2016
994.462	-1183
994.540	-1846
994.619	-1159
994.697	-998
994.776	-856
994.854	-1104
994.932	-1293
995.011	-650
995.089	-1904
995.167	-2327
995.245	-1125
995.324	-1506
995.402	-945
995.480	-941
995.558	-1361
995.636	-2186
995.714	-1461
995.792	-1125
995.870	-2344
995.948	-1809
996.026	-786
996.104	-2809
996.182	-1137
996.260	-1582
996.338	-1730
996.416	-1234
996.494	-1429
996.572	-452
996.649	-1850
996.727	-1463
996.805	-1235
996.883	-1655
996.960	-1578
997.038	-1873
997.116	-965
997.193	-1931
997.271	-778
997.348	-916
997.426	-1557
997.504	-2145
997.581	-1619
997.658	-655
997.736	-2242
997.813	-2412
997.891	-1413
997.968	-1721
998.046	-1104
998.123	-1954
998.200	-1078
998.277	-1877
998.355	-521
998.432	-2207
998.509	-1682
998.586	-588
998.663	-188
998.741	-1791
998.818	-1515
998.895	-1506
998.972	-716
999.049	-1118
999.126	-1861
999.203	-852
999.280	-1052
999.357	-2299
999.434	-1654
999.511	-1104
999.587	-909
999.664	-1674
999.741	-1521
999.818	-852
999.895	-2316
999.971	-1938
1000.048	-1548
1000.125	-682
1000.202	-792
1000.278	-1574
1000.355	-1722
1000.431	-1828
1000.508	-1832
1000.584	-1439
1000.661	-642
1000.738	-1710
1000.814	-1878
1000.890	-1713
1000.967	-2011
1001.043	-1839
1001.120	-2387
1001.196	-1045
1001.272	-2063
1001.349	-1407
1001.425	-938
1001.501	-1012
1001.577	-1761
1001.654	-1308
1001.730	-973
1001.806	-1635
1001.882	-2195
1001.958	-749
1002.034	-1287
1002.110	-1181
1002.186	-1491
1002.262	-1552
1002.338	-1731
1002.414	-1485
1002.490	-1712
1002.566	-1684
1002.642	-2420
1002.718	-1572
1002.794	-1407
1002.870	-2659
1002.945	-2093
1003.021	-1539
1003.097	-956
1003.173	-792
1003.248	-1263
1003.324	-1623
1003.400	-814
1003.475	-1835
1003.551	-1796
1003.626	-1723
1003.702	-1417
1003.777	-1583
1003.853	-2299
1003.928	-2116
1004.004	-1377
1004.079	-1675
1004.155	-1431
1004.230	-1532
1004.305	-1274
1004.381	-1597
1004.456	-1356
1004.531	-1108
1004.607	-1464
1004.682	-1815
1004.757	-1688
1004.832	-2128
1004.907	-2171
1004.982	-1916
1005.057	-1773
1005.133	-1565
1005.208	-2404
1005.283	-2278
1005.358	-1671
1005.433	-1778
1005.508	-1445
1005.583	-2312
1005.657	-1291
1005.732	-929
1005.807	-1832
1005.882	-1862
1005.957	-1654
1006.032	-1187
1006.106	-1671
1006.181	-1395
1006.256	-1520
1006.331	-1854
1006.405	-2171
1006.480	-1557
1006.554	-1153
1006.629	-1733
1006.704	-1890
1006.778	-1329
1006.853	-1963
1006.927	-1912
1007.002	-1685
1007.076	-1597
1007.150	-2030
1007.225	-1520
1007.299	-1752
1007.373	-2459
1007.448	-1539
1007.522	-1480
1007.596	-1438
1007.671	-2340
1007.745	-1672
1007.819	-1530
1007.893	-1500
1007.967	-1336
1008.041	-2443
1008.115	-764
1008.190	-2048
1008.264	-983
1008.338	-1762
1008.412	-2091
1008.486	-1227
1008.560	-1257
1008.633	-2011
1008.707	-1951
1008.781	-757
1008.855	-1996
1008.929	-2336
1009.003	-2128
1009.076	-1670
1009.150	-1435
1009.224	-1446
1009.298	-1152
1009.371	-2119
1009.445	-1841
1009.519	-2093
1009.592	-2013
1009.666	-2242
1009.739	-1539
1009.813	-1991
1009.886	-1275
1009.960	-2707
1010.033	-1514
1010.107	-1619
1010.180	-2400
1010.253	-2763
1010.327	-2293
1010.400	-1991
1010.473	-1540
1010.547	-1034
1010.620	-1806
1010.693	-1441
1010.766	-2012
1010.840	-1291
1010.913	-2255
1010.986	-1675
1011.059	-1760
1011.132	-2314
1011.205	-1753
1011.278	-1860
1011.351	-2561
1011.424	-2015
1011.497	-2032
1011.570	-1281
1011.643	-1822
1011.716	-2189
1011.789	-2438
1011.862	-1842
1011.934	-1005
1012.007	-2492
1012.080	-1448
1012.153	-1850
1012.225	-700
1012.298	-2092
1012.371	-1709
1012.443	-1220
1012.516	-1789
1012.588	-1686
1012.661	-2154
1012.733	-2300
1012.806	-1615
1012.879	-1821
1012.951	-1512
1013.023	-1795
1013.096	-1679
1013.168	-2283
1013.241	-1906
1013.313	-2184
1013.385	-2516
1013.458	-1679
1013.530	-1459
1013.602	-2837
1013.674	-959
1013.746	-1380
1013.819	-2113
1013.891	-1727
1013.963	-2026
1014.035	-1975
1014.107	-1502
1014.179	-1550
1014.251	-1915
1014.323	-1312
1014.395	-2562
1014.467	-1314
1014.539	-1373
1014.611	-1999
1014.683	-2445
1014.754	-2180
1014.826	-2064
1014.898	-2096
1014.970	-2504
1015.042	-1770
1015.113	-1862
1015.185	-2282
1015.257	-2333
1015.328	-1766
1015.400	-1801
1015.471	-1427
1015.543	-2913
1015.615	-1953
1015.686	-2320
1015.757	-2619
1015.829	-1949
1015.901	-2153
1015.972	-1851
1016.043	-2686
1016.115	-1818
1016.186	-2014
1016.257	-2244
1016.328	-2406
1016.400	-1654
1016.471	-2116
1016.542	-1793
1016.613	-1547
1016.685	-1863
1016.756	-1181
1016.827	-2162
1016.898	-2195
1016.969	-1380
1017.040	-3059
1017.111	-1786
1017.182	-2193
1017.253	-1760
1017.324	-2193
1017.395	-1847
1017.466	-1804
1017.537	-2437
1017.608	-1842
1017.678	-2666
1017.749	-1902
1017.820	-2133
1017.891	-2393
1017.961	-2339
1018.032	-1877
1018.103	-2314
1018.173	-1532
1018.244	-2640
1018.315	-2607
1018.385	-1796
1018.456	-1939
1018.526	-2644
1018.597	-2116
1018.667	-2514
1018.738	-2458
1018.808	-2646
1018.878	-1784
1018.949	-1995
1019.019	-1971
1019.089	-2021
1019.160	-1480
1019.230	-2561
1019.300	-1794
1019.371	-2716
1019.441	-1676
1019.511	-1522
1019.581	-1999
1019.651	-2296
1019.721	-2298
1019.791	-2574
1019.861	-2334
1019.931	-2191
1020.001	-1708
1020.071	-2142
1020.141	-2067
1020.211	-2250
1020.281	-2345
1020.351	-1927
1020.421	-2077
1020.491	-1874
1020.560	-2846
1020.630	-2078
1020.700	-2186
1020.770	-2511
1020.839	-1842
1020.909	-3031
1020.979	-1890
1021.048	-2281
1021.118	-2960
1021.187	-2319
1021.257	-1927
1021.326	-2190
1021.396	-2455
1021.465	-2582
1021.535	-2691
1021.604	-3161
1021.674	-2233
1021.743	-1863
1021.812	-2356
1021.882	-2009
1021.951	-2268
1022.020	-3094
1022.089	-2008
1022.159	-2848
1022.228	-2109
1022.297	-2582
1022.366	-2305
1022.435	-2688
1022.504	-2096
1022.573	-2912
1022.642	-1714
1022.711	-2850
1022.781	-2403
1022.849	-1775
1022.918	-1883
1022.987	-2390
1023.056	-1786
1023.125	-2311
1023.194	-2250
1023.263	-2765
1023.331	-2464
1023.400	-2463
1023.469	-2934
1023.538	-1633
1023.606	-3032
1023.675	-1589
1023.744	-2538
1023.812	-2713
1023.881	-2548
1023.949	-2052
1024.018	-2971
1024.086	-2562
1024.155	-2375
1024.223	-2647
1024.292	-1320
1024.360	-2354
1024.429	-1652
1024.497	-2786
1024.565	-2180
1024.634	-2597
1024.702	-2067
1024.770	-2294
1024.838	-2550
1024.907	-1592
1024.975	-2910
1025.043	-1750
1025.111	-2448
1025.179	-2388
1025.247	-2264
1025.315	-1804
1025.383	-1786
1025.451	-2905
1025.519	-2421
1025.587	-2441
1025.655	-2046
1025.723	-1693
1025.791	-2947
1025.859	-2108
1025.927	-1518
1025.995	-2367
1026.062	-2371
1026.130	-2094
1026.198	-2652
1026.266	-2829
1026.333	-1604
1026.401	-1714
1026.469	-1999
1026.536	-1879
1026.604	-2409
1026.671	-2497
1026.739	-2843
1026.806	-2557
1026.874	-3093
1026.941	-2042
1027.009	-2210
1027.076	-2414
1027.144	-1714
1027.211	-2289
1027.278	-2633
1027.345	-2093
1027.413	-2040
1027.480	-2673
1027.547	-3090
1027.614	-2367
1027.682	-2314
1027.749	-3075
1027.816	-2341
1027.883	-2447
1027.950	-2213
1028.017	-1782
1028.084	-2532
1028.151	-2245
1028.218	-2263
1028.285	-2325
1028.352	-2779
1028.419	-2658
1028.486	-2656
1028.553	-2090
1028.619	-2849
1028.686	-3076
1028.753	-3134
1028.820	-2398
1028.886	-2036
1028.953	-1903
1029.020	-1926
1029.086	-2454
1029.153	-1924
1029.220	-2904
1029.286	-2417
1029.353	-1972
1029.419	-2353
1029.486	-2182
1029.552	-3506
1029.619	-2183
1029.685	-1764
1029.751	-2004
1029.818	-1927
1029.884	-2426
1029.951	-880
1030.017	-2454
1030.083	-2240
1030.149	-2289
1030.216	-2735
1030.282	-2178
1030.348	-2339
1030.414	-2782
1030.480	-2135
1030.546	-2537
1030.612	-1904
1030.678	-2863
1030.744	-2540
1030.810	-2453
1030.876	-2046
1030.942	-2570
1031.008	-2221
1031.074	-2555
1031.140	-2549
1031.206	-1689
1031.272	-2743
1031.337	-1957
1031.403	-1535
1031.469	-1722
1031.534	-3055
1031.600	-1616
1031.666	-2598
1031.731	-2031
1031.797	-2947
1031.863	-2704
1031.928	-2494
1031.994	-2333
1032.059	-2419
1032.125	-2637
1032.190	-2720
1032.256	-2368
1032.321	-2788
1032.386	-1921
1032.452	-2299
1032.517	-1970
1032.582	-2314
1032.647	-2555
1032.713	-2541
1032.778	-1869
1032.843	-2425
1032.908	-2338
1032.974	-2149
1033.039	-2752
1033.104	-1325
1033.169	-2463
1033.234	-2644
1033.299	-2303
1033.364	-1868
1033.429	-2037
1033.494	-1576
1033.559	-2572
1033.624	-2268
1033.688	-1684
1033.753	-3052
1033.818	-2056
1033.883	-2936
1033.948	-1235
1034.013	-2280
1034.077	-1543
1034.142	-1812
1034.207	-1932
1034.271	-2041
1034.336	-1066
1034.400	-675
1034.465	-1208
1034.530	-1810
1034.594	-2525
1034.658	-2989
1034.723	-1957
1034.787	-1754
1034.852	-2612
1034.916	-2232
1034.981	-2233
1035.045	-2182
1035.109	-2555
1035.173	-2407
1035.238	-2867
1035.302	-2071
1035.366	-3040
1035.430	-2301
1035.495	-2192
1035.559	-1742
1035.623	-2097
1035.687	-3095
1035.751	-2203
1035.815	-2910
1035.879	-2720
1035.943	-2705
1036.007	-2587
1036.071	-2642
1036.135	-2414
1036.198	-2480
1036.262	-2216
1036.326	-1696
1036.390	-2236
1036.454	-2805
1036.517	-2836
1036.581	-2725
1036.645	-1864
1036.709	-1055
1036.772	-2514
1036.836	-2221
1036.900	-2262
1036.963	-2003
1037.026	-2599
1037.090	-2698
1037.154	-2618
1037.217	-2346
1037.280	-2444
1037.344	-1957
1037.407	-2320
1037.471	-3001
1037.534	-2362
1037.597	-2690
1037.661	-3261
1037.724	-2603
1037.787	-2193
1037.850	-2712
1037.913	-3683
1037.977	-1944
1038.040	-2346
1038.103	-2674
1038.166	-2886
1038.229	-1634
1038.292	-2058
1038.355	-2260
1038.418	-2427
1038.481	-2457
1038.544	-2470
1038.607	-2442
1038.670	-2291
1038.732	-2470
1038.795	-3663
1038.858	-1852
1038.921	-2308
1038.984	-1963
1039.046	-2657
1039.109	-2846
1039.172	-1938
1039.234	-2678
1039.297	-1941
1039.360	-2558
1039.422	-2833
1039.485	-1824
1039.547	-3057
1039.610	-1933
1039.672	-2923
1039.734	-2549
1039.797	-2492
1039.859	-1410
1039.922	-2199
1039.984	-2870
1040.046	-2947
1040.109	-2195
1040.171	-2490
1040.233	-2368
1040.295	-2811
1040.358	-2093
1040.420	-1896
1040.482	-1453
1040.544	-3098
1040.606	-2166
1040.668	-2224
1040.730	-2707
1040.792	-2932
1040.854	-2930
1040.916	-2008
1040.978	-2473
1041.040	-1586
1041.102	-2187
1041.164	-2096
1041.225	-3248
1041.287	-1967
1041.349	-2701
1041.411	-3436
1041.472	-2057
1041.534	-2053
1041.596	-2604
1041.657	-2347
1041.719	-1850
1041.781	-1865
1041.842	-1829
1041.904	-2464
1041.965	-2643
1042.027	-2452
1042.088	-2734
1042.150	-3089
1042.211	-2173
1042.272	-2270
1042.334	-2368
1042.395	-2823
1042.456	-2674
1042.518	-2886
1042.579	-1973
1042.640	-2529
1042.701	-2528
1042.763	-3023
1042.824	-2243
1042.885	-2125
1042.946	-2823
1043.007	-2217
1043.068	-2966
1043.129	-2758
1043.190	-2237
1043.251	-2113
1043.312	-2647
1043.373	-2108
1043.434	-2281
1043.495	-2423
1043.556	-2432
1043.616	-2069
1043.677	-2162
1043.738	-2025
1043.799	-2981
1043.859	-2467
1043.920	-2907
1043.981	-2184
1044.041	-2089
1044.102	-2503
1044.162	-2215
1044.223	-2902
1044.284	-2623
1044.344	-2299
1044.405	-1892
1044.465	-2480
1044.525	-3123
1044.586	-2042
1044.646	-2652
1044.707	-2096
1044.767	-2037
1044.827	-2595
1044.887	-2665
1044.948	-2229
1045.008	-2330
1045.068	-3012
1045.128	-2665
1045.188	-2206
1045.249	-939
1045.309	-1976
1045.369	-3271
1045.429	-2205
1045.489	-2584
1045.549	-1896
1045.609	-2225
1045.669	-2231
1045.729	-2025
1045.789	-3292
1045.848	-2081
1045.908	-2937
1045.968	-2163
1046.028	-1776
1046.088	-1492
1046.147	-2176
1046.207	-1900
1046.267	-1611
1046.326	-2296
1046.386	-1706
1046.446	-1553
1046.505	-2141
1046.565	-1928
1046.624	-632
1046.684	-2016
1046.743	-1689
1046.803	-987
1046.862	-1406
1046.922	0
