'Start Wavelength	183.907
'End Wavelength	1046.922
'Gate Delay	5.000
'Gate Width (ms)	1.050
'Laser Output Level	0.000
'X Position	0.000
'Y Position	0.000
'Z Position	0.000
'Grid Point Number	1.000
'Shot Number	100.000
183.907	83.000
183.977	589.000
184.047	123
184.116	692
184.186	248
184.256	582
184.325	-37
184.395	152
184.465	285
184.534	251
184.604	-424
184.674	898
184.743	18
184.813	506
184.883	5
184.952	410
185.022	301
185.092	509
185.161	739
185.231	591
185.301	19
185.370	450
185.440	212
185.509	-712
185.579	-351
185.649	872
185.718	-407
185.788	-270
185.857	243
185.927	17
185.996	563
186.066	675
186.136	480
186.205	832
186.275	511
186.344	867
186.414	15
186.483	-401
186.553	1115
186.622	1339
186.692	9
186.761	457
186.831	-404
186.900	522
186.970	419
187.039	876
187.109	889
187.178	339
187.248	241
187.317	932
187.387	1099
187.456	1779
187.526	623
187.595	1145
187.664	627
187.734	618
187.803	404
187.873	1206
187.942	1249
188.012	1013
188.081	302
188.150	973
188.220	644
188.289	1641
188.358	479
188.428	926
188.497	728
188.567	1017
188.636	-31
188.705	411
188.775	503
188.844	602
188.913	1490
188.983	775
189.052	99
189.121	1053
189.191	-24
189.260	812
189.329	1523
189.399	800
189.468	453
189.537	-14
189.606	266
189.676	1469
189.745	771
189.814	1334
189.883	228
189.953	1249
190.022	931
190.091	2489
190.161	1747
190.230	1498
190.299	1034
190.368	698
190.437	335
190.507	973
190.576	809
190.645	1130
190.714	7
190.783	936
190.853	466
190.922	339
190.991	691
191.060	764
191.129	1100
191.198	1091
191.268	379
191.337	267
191.406	1037
191.475	315
191.544	293
191.613	618
191.682	834
191.752	134
191.821	651
191.890	1508
191.959	715
192.028	1316
192.097	789
192.166	764
192.235	352
192.304	1056
192.373	710
192.442	503
192.511	93
192.580	519
192.650	645
192.719	879
192.788	983
192.857	1010
192.926	1054
192.995	1075
193.064	640
193.133	1476
193.202	2619
193.271	2392
193.340	1769
193.409	1289
193.478	1737
193.547	3464
193.615	2657
193.684	3394
193.753	1766
193.822	1996
193.891	710
193.960	1760
194.029	1399
194.098	1124
194.167	-316
194.236	653
194.305	90
194.374	664
194.443	1029
194.512	1043
194.580	1202
194.649	1649
194.718	682
194.787	685
194.856	531
194.925	1649
194.994	1503
195.062	1828
195.131	1804
195.200	1664
195.269	1692
195.338	1190
195.407	1092
195.475	1047
195.544	665
195.613	1343
195.682	1258
195.751	1555
195.819	1364
195.888	1031
195.957	1452
196.026	1888
196.094	1822
196.163	2241
196.232	1737
196.301	1132
196.369	1612
196.438	1308
196.507	1386
196.576	1110
196.644	1279
196.713	1570
196.782	1146
196.850	1751
196.919	858
196.988	890
197.056	1107
197.125	1412
197.194	1637
197.262	515
197.331	821
197.400	1022
197.468	1053
197.537	1823
197.606	891
197.674	2270
197.743	1945
197.812	1879
197.880	2321
197.949	1862
198.017	2284
198.086	2157
198.155	1469
198.223	2635
198.292	2976
198.360	1351
198.429	658
198.497	1519
198.566	2150
198.635	3553
198.703	1963
198.772	1467
198.840	3487
198.909	3336
198.977	1038
199.046	1495
199.114	1571
199.183	2024
199.251	1706
199.320	1827
199.388	1199
199.457	1438
199.525	1741
199.594	1361
199.662	1269
199.731	2236
199.799	1995
199.867	1317
199.936	1957
200.004	1010
200.073	1359
200.141	750
200.210	1452
200.278	1252
200.346	1796
200.415	2650
200.483	1945
200.552	1527
200.620	1257
200.688	859
200.757	1213
200.825	1825
200.893	1131
200.962	1637
201.030	1392
201.098	1361
201.167	1715
201.235	1922
201.303	1200
201.372	2315
201.440	1219
201.508	2004
201.577	2002
201.645	2202
201.713	1386
201.781	1740
201.850	1814
201.918	2273
201.986	1781
202.055	1624
202.123	1293
202.191	1589
202.259	1654
202.327	2215
202.396	966
202.464	2435
202.532	2601
202.600	4319
202.669	3150
202.737	2077
202.805	1667
202.873	1919
202.941	1623
203.009	2075
203.078	1139
203.146	1714
203.214	1866
203.282	1309
203.350	2214
203.418	2152
203.487	1347
203.555	2243
203.623	2260
203.691	2337
203.759	900
203.827	1373
203.895	2201
203.963	1830
204.031	1458
204.099	1992
204.168	1887
204.236	2159
204.304	2300
204.372	1838
204.440	2244
204.508	1263
204.576	1004
204.644	1878
204.712	1891
204.780	2795
204.848	1740
204.916	2367
204.984	1460
205.052	2084
205.120	1990
205.188	2657
205.256	1861
205.324	2224
205.392	2152
205.460	2195
205.528	2355
205.596	2218
205.664	1655
205.732	2324
205.799	4760
205.867	5084
205.935	1635
206.003	2544
206.071	2116
206.139	1779
206.207	1772
206.275	2032
206.343	1986
206.411	2205
206.478	2581
206.546	2739
206.614	995
206.682	2026
206.750	2553
206.818	2419
206.885	2203
206.953	1423
207.021	2177
207.089	1425
207.157	1598
207.225	2328
207.292	2188
207.360	2570
207.428	2409
207.496	1641
207.563	2594
207.631	2281
207.699	2324
207.767	2767
207.834	1423
207.902	2694
207.970	1857
208.038	1784
208.105	2070
208.173	2620
208.241	3150
208.309	3723
208.376	2495
208.444	4741
208.512	2262
208.579	1887
208.647	2633
208.715	2942
208.782	2651
208.850	2875
208.918	2987
208.985	2772
209.053	2048
209.120	2887
209.188	2323
209.256	2264
209.323	2906
209.391	3075
209.459	2988
209.526	3074
209.594	2870
209.661	2322
209.729	3028
209.796	2380
209.864	3213
209.932	2464
209.999	3099
210.067	3001
210.134	2738
210.202	3657
210.269	3946
210.337	3711
210.404	2595
210.472	2936
210.539	3141
210.607	2575
210.674	2265
210.742	2673
210.809	3055
210.877	3403
210.944	2970
211.012	2267
211.079	3581
211.146	3109
211.214	2826
211.281	3819
211.349	3893
211.416	2779
211.484	3429
211.551	2823
211.618	3068
211.686	3801
211.753	2017
211.821	3110
211.888	3108
211.955	3319
212.023	2398
212.090	3329
212.157	2649
212.225	3539
212.292	4462
212.359	8597
212.427	11929
212.494	6977
212.561	4630
212.629	3600
212.696	3501
212.763	3921
212.831	2912
212.898	3764
212.965	2650
213.032	3665
213.100	3667
213.167	2951
213.234	3044
213.301	3501
213.369	3177
213.436	2859
213.503	3646
213.570	3356
213.638	3734
213.705	2834
213.772	2607
213.839	3103
213.906	4150
213.973	3444
214.041	3363
214.108	3908
214.175	3110
214.242	4192
214.309	3014
214.376	3490
214.444	2643
214.511	3590
214.578	3615
214.645	4328
214.712	3695
214.779	3449
214.846	3290
214.913	4968
214.980	5213
215.048	4826
215.115	4833
215.182	4621
215.249	3527
215.316	3568
215.383	3472
215.450	3490
215.517	3058
215.584	3837
215.651	2916
215.718	3432
215.785	3688
215.852	3165
215.919	4433
215.986	4315
216.053	3021
216.120	3104
216.187	2881
216.254	3889
216.321	3658
216.388	3824
216.455	3806
216.522	3707
216.589	4553
216.656	6867
216.722	6149
216.789	5562
216.856	5455
216.923	4236
216.990	4540
217.057	5308
217.124	5528
217.191	5635
217.258	6373
217.324	7132
217.391	7419
217.458	6952
217.525	4388
217.592	4856
217.659	3586
217.725	4949
217.792	4360
217.859	4476
217.926	3291
217.993	3460
218.059	2737
218.126	3242
218.193	2990
218.260	2688
218.327	2738
218.393	3122
218.460	2866
218.527	2474
218.594	2832
218.660	4982
218.727	5059
218.794	3243
218.860	3752
218.927	2438
218.994	2460
219.061	2998
219.127	3600
219.194	4848
219.261	2960
219.327	2013
219.394	1694
219.461	2203
219.527	2413
219.594	3252
219.661	2754
219.727	2502
219.794	3114
219.860	2545
219.927	2922
219.994	5071
220.060	5588
220.127	4657
220.193	4083
220.260	5214
220.326	6942
220.393	9334
220.460	10979
220.526	8183
220.593	6432
220.659	5781
220.726	6350
220.792	11000
220.859	10122
220.925	14794
220.992	16012
221.058	14527
221.125	11749
221.191	9406
221.258	5968
221.324	5146
221.391	4318
221.457	4214
221.524	4007
221.590	5416
221.657	9354
221.723	7059
221.789	7227
221.856	6618
221.922	4371
221.989	4662
222.055	3530
222.121	3637
222.188	4653
222.254	3131
222.321	3433
222.387	2665
222.453	1840
222.520	3184
222.586	2759
222.652	3169
222.719	2985
222.785	3722
222.851	2536
222.918	2659
222.984	2917
223.050	4005
223.116	2102
223.183	3781
223.249	1719
223.315	2345
223.382	1654
223.448	2374
223.514	2618
223.580	2787
223.647	1973
223.713	1686
223.779	2766
223.845	2519
223.911	2149
223.978	2572
224.044	2770
224.110	2306
224.176	3457
224.242	2844
224.309	1939
224.375	2093
224.441	2203
224.507	2616
224.573	2055
224.639	2725
224.705	1742
224.772	1806
224.838	1671
224.904	3574
224.970	2637
225.036	2690
225.102	1969
225.168	2983
225.234	1633
225.300	2369
225.366	2087
225.432	2715
225.499	2725
225.565	3084
225.631	2939
225.697	3475
225.763	3527
225.829	4343
225.895	3835
225.961	5664
226.027	5378
226.093	5185
226.159	6212
226.225	9480
226.291	17966
226.357	23349
226.423	14403
226.489	9788
226.554	6045
226.620	6537
226.686	8131
226.752	11667
226.818	17618
226.884	28037
226.950	24350
227.016	13612
227.082	8170
227.148	6497
227.214	6273
227.279	5613
227.345	4868
227.411	5060
227.477	4247
227.543	8089
227.609	6692
227.674	6439
227.740	3955
227.806	3996
227.872	3973
227.938	4013
228.003	6256
228.069	3301
228.135	2591
228.201	3567
228.267	3417
228.332	4021
228.398	3739
228.464	3687
228.530	2589
228.595	3284
228.661	2525
228.727	4772
228.792	4069
228.858	3386
228.924	3080
228.990	4426
229.055	3598
229.121	4931
229.187	3130
229.252	3167
229.318	2530
229.384	3139
229.449	3994
229.515	1537
229.581	1456
229.646	4340
229.712	3286
229.777	6161
229.843	5954
229.909	5183
229.974	6456
230.040	6088
230.105	3932
230.171	4626
230.236	5999
230.302	7978
230.368	5884
230.433	4028
230.499	4644
230.564	5584
230.630	3602
230.695	3384
230.761	3373
230.826	3312
230.892	4225
230.957	2900
231.023	2727
231.088	3643
231.154	2441
231.219	3574
231.284	4106
231.350	4512
231.415	2491
231.481	3335
231.546	2419
231.612	3093
231.677	2287
231.742	2073
231.808	3548
231.873	2274
231.939	2602
232.004	4915
232.069	4474
232.135	3747
232.200	2825
232.265	2789
232.331	2633
232.396	2922
232.461	2027
232.527	2231
232.592	1891
232.657	3282
232.723	4541
232.788	3672
232.853	3357
232.918	2420
232.984	2357
233.049	2801
233.114	3588
233.179	4159
233.245	5031
233.310	5528
233.375	2679
233.440	2820
233.506	1976
233.571	2752
233.636	2490
233.701	2388
233.766	4086
233.832	4880
233.897	3144
233.962	3729
234.027	4807
234.092	4410
234.157	3616
234.222	3748
234.288	5491
234.353	11034
234.418	8969
234.483	7019
234.548	5804
234.613	5105
234.678	5778
234.743	4613
234.808	12462
234.873	7396
234.938	6008
235.004	4526
235.069	3600
235.134	4043
235.199	3798
235.264	3947
235.329	2828
235.394	4598
235.459	4897
235.524	5061
235.589	3159
235.654	3226
235.719	2891
235.784	3621
235.849	3877
235.913	6435
235.978	6934
236.043	7333
236.108	3821
236.173	4764
236.238	3769
236.303	3287
236.368	3555
236.433	6717
236.498	7776
236.563	7798
236.627	15184
236.692	35102
236.757	28657
236.822	14543
236.887	10954
236.952	9268
237.017	7661
237.081	9104
237.146	10600
237.211	21797
237.276	34829
237.341	44883
237.405	26809
237.470	13941
237.535	10372
237.600	7519
237.664	6012
237.729	5607
237.794	8533
237.859	14569
237.923	8169
237.988	6236
238.053	6787
238.118	6637
238.182	14327
238.247	12022
238.312	6558
238.376	5848
238.441	5030
238.506	6435
238.570	3020
238.635	4859
238.700	3787
238.764	3524
238.829	7008
238.893	7807
238.958	5723
239.023	5097
239.087	4183
239.152	5036
239.216	3278
239.281	4098
239.346	3718
239.410	4148
239.475	4038
239.539	13465
239.604	9207
239.668	5168
239.733	3697
239.797	5836
239.862	11924
239.926	12506
239.991	5784
240.055	4544
240.120	4400
240.184	4375
240.249	3219
240.313	3173
240.378	3505
240.442	9458
240.507	11918
240.571	5536
240.635	6829
240.700	8182
240.764	4126
240.829	3823
240.893	1604
240.957	3888
241.022	8299
241.086	13451
241.151	6350
241.215	3596
241.279	5118
241.344	7618
241.408	6106
241.472	4151
241.537	5428
241.601	5382
241.665	3591
241.730	4730
241.794	4624
241.858	5002
241.922	4441
241.987	4242
242.051	4293
242.115	4311
242.179	5052
242.244	3539
242.308	4370
242.372	5475
242.436	5292
242.501	4636
242.565	3348
242.629	4360
242.693	4219
242.757	3237
242.822	3786
242.886	4778
242.950	4738
243.014	4107
243.078	5088
243.142	5847
243.206	3800
243.271	5644
243.335	4677
243.399	7605
243.463	21933
243.527	42501
243.591	15164
243.655	8711
243.719	4799
243.783	6952
243.847	9677
243.911	12219
243.975	14029
244.040	9469
244.104	6649
244.168	4826
244.232	8476
244.296	10648
244.360	10243
244.424	6660
244.488	4928
244.552	5414
244.615	3117
244.679	4333
244.743	4968
244.807	4998
244.871	4491
244.935	3509
244.999	2963
245.063	4797
245.127	5854
245.191	8813
245.255	7672
245.319	6643
245.383	5983
245.446	5787
245.510	3272
245.574	4962
245.638	4813
245.702	4022
245.766	9221
245.829	7175
245.893	4730
245.957	4718
246.021	5899
246.085	5498
246.149	6360
246.212	14110
246.276	16286
246.340	9538
246.404	6757
246.467	7441
246.531	8989
246.595	7319
246.659	6253
246.722	6470
246.786	9074
246.850	9118
246.913	8773
246.977	5004
247.041	4746
247.104	5935
247.168	5709
247.232	13949
247.295	22980
247.359	12188
247.423	8102
247.486	11693
247.550	8274
247.614	7658
247.677	9112
247.741	6073
247.804	5259
247.868	6908
247.932	12915
247.995	21857
248.059	9606
248.122	6342
248.186	7439
248.249	13078
248.313	32837
248.376	34883
248.440	22872
248.503	10653
248.567	10111
248.630	13852
248.694	18793
248.757	23346
248.821	34717
248.884	25828
248.948	24070
249.011	30937
249.075	40779
249.138	34764
249.202	18651
249.265	12329
249.328	13874
249.392	12093
249.455	9576
249.519	9110
249.582	10018
249.645	15151
249.709	10367
249.772	6531
249.835	7496
249.899	9417
249.962	7282
250.025	6877
250.089	16532
250.152	21766
250.215	12021
250.279	9276
250.342	9362
250.405	9927
250.468	8283
250.532	11019
250.595	16550
250.658	45259
250.721	61932
250.785	28525
250.848	16907
250.911	11003
250.974	10519
251.038	13818
251.101	22737
251.164	14126
251.227	15957
251.290	13505
251.354	20585
251.417	58388
251.480	56383
251.543	48669
251.606	90766
251.669	74851
251.732	37698
251.795	36009
251.859	35873
251.922	66612
251.985	40543
252.048	19171
252.111	15447
252.174	14424
252.237	26216
252.300	43286
252.363	52804
252.426	73308
252.489	38416
252.552	23254
252.615	16021
252.678	18465
252.741	34853
252.804	47418
252.867	80454
252.930	54615
252.993	30864
253.056	21389
253.119	17229
253.182	13510
253.245	22448
253.308	16645
253.371	16630
253.434	15093
253.497	15505
253.559	24040
253.622	17697
253.685	26158
253.748	26178
253.811	11827
253.874	14262
253.937	14149
254.000	11573
254.062	18474
254.125	24255
254.188	25958
254.251	20045
254.314	11199
254.376	20040
254.439	22434
254.502	19342
254.565	19243
254.628	29947
254.690	21173
254.753	11888
254.816	10388
254.878	10720
254.941	17831
255.004	16528
255.067	9834
255.129	10510
255.192	6769
255.255	6332
255.317	8112
255.380	4990
255.443	4045
255.505	3692
255.568	4444
255.631	5297
255.693	6525
255.756	4418
255.819	5452
255.881	4171
255.944	4062
256.006	4715
256.069	4208
256.132	3901
256.194	6620
256.257	13397
256.319	9226
256.382	9218
256.444	7865
256.507	6591
256.569	5394
256.632	6162
256.694	10547
256.757	25473
256.819	59424
256.882	25362
256.944	12471
257.007	10944
257.069	12238
257.132	7740
257.194	6976
257.257	6402
257.319	6395
257.381	7355
257.444	19642
257.506	67635
257.569	73040
257.631	35125
257.693	20024
257.756	11174
257.818	9629
257.880	6765
257.943	7767
258.005	6287
258.067	6255
258.130	5505
258.192	7891
258.254	15235
258.317	8309
258.379	6402
258.441	13837
258.503	11955
258.566	14765
258.628	17812
258.690	6422
258.753	8445
258.815	16605
258.877	9652
258.939	6332
259.001	6437
259.064	5036
259.126	6932
259.188	8889
259.250	6367
259.312	7494
259.375	16438
259.437	11115
259.499	6334
259.561	6569
259.623	5750
259.685	5761
259.747	5867
259.809	15301
259.872	24832
259.934	37628
259.996	35143
260.058	12400
260.120	6226
260.182	6946
260.244	5492
260.306	4512
260.368	5346
260.430	4903
260.492	13568
260.554	19541
260.616	12057
260.678	21749
260.740	24559
260.802	8459
260.864	8026
260.926	6582
260.988	7031
261.050	7472
261.112	17142
261.174	33224
261.236	19881
261.298	8618
261.359	14264
261.421	16491
261.483	6494
261.545	6710
261.607	4010
261.669	4835
261.731	8896
261.793	21062
261.854	10194
261.916	8204
261.978	8264
262.040	8312
262.102	5388
262.164	7779
262.225	7151
262.287	6342
262.349	13774
262.411	9651
262.472	5592
262.534	9488
262.596	17245
262.658	6417
262.719	4272
262.781	6489
262.843	15646
262.904	7845
262.966	6967
263.028	7720
263.090	34454
263.151	74475
263.213	27235
263.275	18049
263.336	7552
263.398	6491
263.459	4600
263.521	5764
263.583	13295
263.644	9329
263.706	4309
263.767	3195
263.829	4280
263.891	3639
263.952	3342
264.014	3278
264.075	8370
264.137	20959
264.198	8771
264.260	4104
264.321	4464
264.383	14001
264.444	28779
264.506	9339
264.567	6201
264.629	13612
264.690	23089
264.752	9735
264.813	5947
264.875	4571
264.936	5028
264.998	4332
265.059	4069
265.120	4303
265.182	9231
265.243	37943
265.305	34937
265.366	10023
265.427	5999
265.489	6402
265.550	3493
265.611	6263
265.673	5531
265.734	5389
265.795	3237
265.857	4002
265.918	4578
265.979	12042
266.040	57344
266.102	43341
266.163	14373
266.224	13339
266.286	7695
266.347	5348
266.408	5382
266.469	5956
266.530	4893
266.592	4235
266.653	9694
266.714	15561
266.775	5068
266.836	4848
266.898	4368
266.959	8807
267.020	6303
267.081	4819
267.142	3146
267.203	3960
267.264	3597
267.326	5510
267.387	4144
267.448	3488
267.509	4205
267.570	4412
267.631	3894
267.692	3282
267.753	3699
267.814	3938
267.875	8929
267.936	16872
267.997	11034
268.058	10355
268.119	6461
268.180	6443
268.241	4207
268.302	4672
268.363	3977
268.424	5612
268.485	5049
268.546	3690
268.607	2880
268.668	3837
268.729	2656
268.790	4872
268.851	5313
268.912	13157
268.972	14050
269.033	9092
269.094	4761
269.155	3989
269.216	3655
269.277	4300
269.338	3778
269.398	4577
269.459	6273
269.520	8568
269.581	10894
269.642	11876
269.702	8260
269.763	6484
269.824	5847
269.885	8122
269.945	10000
270.006	5537
270.067	3762
270.128	3767
270.188	3588
270.249	4306
270.310	3636
270.370	3936
270.431	3484
270.492	3466
270.553	3267
270.613	11282
270.674	17537
270.734	7537
270.795	4849
270.856	8797
270.916	6095
270.977	5564
271.038	6898
271.098	7053
271.159	10811
271.219	9857
271.280	3942
271.340	4621
271.401	5240
271.462	11114
271.522	7275
271.583	5191
271.643	5207
271.704	4553
271.764	6956
271.825	15097
271.885	38955
271.946	45049
272.006	18721
272.066	24649
272.127	35925
272.187	13341
272.248	8280
272.308	9086
272.369	24023
272.429	14355
272.489	14265
272.550	14920
272.610	16139
272.671	12029
272.731	10043
272.791	15433
272.852	9990
272.912	10012
272.972	4699
273.033	5421
273.093	9025
273.153	9351
273.214	5926
273.274	7496
273.334	23992
273.394	35303
273.455	17698
273.515	17927
273.575	34841
273.635	14932
273.696	20140
273.756	33180
273.816	14693
273.876	10034
273.936	17616
273.997	27371
274.057	8689
274.117	8099
274.177	12985
274.237	47054
274.297	33768
274.358	26078
274.418	28155
274.478	22985
274.538	10095
274.598	8694
274.658	23573
274.718	28690
274.778	12000
274.838	7736
274.898	15050
274.958	39433
275.018	34797
275.078	22224
275.138	11303
275.198	6785
275.258	5474
275.318	7851
275.378	14801
275.438	14504
275.498	9560
275.558	20472
275.618	35911
275.678	23050
275.738	19807
275.798	16126
275.858	9713
275.918	6222
275.978	7946
276.038	7336
276.098	5598
276.157	12280
276.217	30528
276.277	13746
276.337	11383
276.397	6579
276.457	9020
276.517	5523
276.576	4740
276.636	3779
276.696	9050
276.756	20311
276.815	12969
276.875	7814
276.935	9111
276.995	7399
277.055	4761
277.114	5006
277.174	8025
277.234	23638
277.293	10360
277.353	6838
277.413	4414
277.472	6199
277.532	5568
277.592	5739
277.651	19505
277.711	29736
277.771	11478
277.830	42053
277.890	29971
277.950	22282
278.009	49459
278.069	19416
278.128	24484
278.188	31909
278.248	14304
278.307	36277
278.367	19799
278.426	8464
278.486	5592
278.545	5318
278.605	4660
278.664	4270
278.724	5238
278.783	15196
278.843	31610
278.902	10512
278.962	8252
279.021	8655
279.081	9167
279.140	8761
279.199	9041
279.259	8411
279.318	7602
279.378	9908
279.437	16506
279.496	51835
279.556	128494
279.615	89516
279.675	27040
279.734	19169
279.793	28717
279.853	35808
279.912	14758
279.971	9277
280.031	9436
280.090	16969
280.149	24990
280.208	22685
280.268	94130
280.327	81132
280.386	22401
280.445	21102
280.505	19168
280.564	10265
280.623	8927
280.682	14790
280.742	19135
280.801	7148
280.860	5276
280.919	5683
280.978	5295
281.037	5684
281.097	4263
281.156	5185
281.215	4825
281.274	6317
281.333	23246
281.392	15046
281.451	4401
281.510	4682
281.569	4241
281.628	4855
281.688	3416
281.747	5591
281.806	5686
281.865	4439
281.924	4677
281.983	4699
282.042	3338
282.101	3382
282.160	3772
282.219	3205
282.278	4975
282.337	15755
282.396	9772
282.454	4987
282.513	6731
282.572	24155
282.631	12405
282.690	5554
282.749	3752
282.808	7625
282.867	6041
282.926	7195
282.985	3810
283.043	3189
283.102	3377
283.161	5026
283.220	11454
283.279	22352
283.338	7119
283.396	5256
283.455	5919
283.514	6542
283.573	10587
283.631	7566
283.690	5591
283.749	5885
283.808	12780
283.866	12288
283.925	5332
283.984	5486
284.043	8101
284.101	7821
284.160	5385
284.219	7740
284.277	6455
284.336	11981
284.395	32230
284.453	21251
284.512	9825
284.570	14332
284.629	12673
284.688	11335
284.746	11597
284.805	13096
284.863	17137
284.922	21916
284.981	24273
285.039	34627
285.098	59462
285.156	113498
285.215	116949
285.273	124175
285.332	106525
285.390	66302
285.449	42237
285.507	30262
285.566	22854
285.624	18247
285.683	14208
285.741	11549
285.799	10020
285.858	10045
285.916	8976
285.975	7529
286.033	5839
286.091	6000
286.150	5020
286.208	6164
286.267	6569
286.325	7111
286.383	12174
286.442	9974
286.500	5288
286.558	5780
286.616	4397
286.675	7730
286.733	5768
286.791	6320
286.850	7720
286.908	9975
286.966	14064
287.024	6190
287.083	5287
287.141	4220
287.199	4483
287.257	8330
287.315	5520
287.374	7269
287.432	14983
287.490	9490
287.548	6501
287.606	5320
287.664	6058
287.723	8364
287.781	10673
287.839	6221
287.897	7275
287.955	8945
288.013	12848
288.071	29108
288.129	96074
288.187	193380
288.245	95608
288.303	35305
288.361	21040
288.419	16745
288.477	11527
288.535	9584
288.593	7286
288.651	6033
288.709	4685
288.767	6233
288.825	5246
288.883	4402
288.941	4710
288.999	3920
289.057	4261
289.115	3952
289.173	4287
289.231	4627
289.289	4961
289.346	4944
289.404	6029
289.462	10153
289.520	9450
289.578	5384
289.636	3736
289.694	3550
289.751	3604
289.809	3893
289.867	3951
289.925	5263
289.983	6627
290.040	3578
290.098	3015
290.156	5444
290.214	6847
290.271	3835
290.329	3113
290.387	3645
290.444	3763
290.502	2071
290.560	3301
290.617	3802
290.675	3332
290.733	4027
290.790	4828
290.848	3634
290.906	4791
290.963	4625
291.021	3612
291.078	4104
291.136	5203
291.194	15184
291.251	26054
291.309	8384
291.366	3802
291.424	4042
291.481	4721
291.539	3909
291.596	3843
291.654	2805
291.711	2228
291.769	4263
291.826	10222
291.884	5766
291.941	3289
291.999	3849
292.056	4820
292.114	6177
292.171	2856
292.228	4690
292.286	5576
292.343	11930
292.401	15162
292.458	8697
292.515	6432
292.573	6506
292.630	6000
292.687	6115
292.745	5053
292.802	8080
292.859	18507
292.917	26317
292.974	14289
293.031	5819
293.089	4363
293.146	4387
293.203	3484
293.260	3000
293.318	5074
293.375	8567
293.432	4645
293.489	4077
293.546	3549
293.604	6625
293.661	16634
293.718	35638
293.775	19774
293.832	10981
293.889	8219
293.947	8604
294.004	5625
294.061	7215
294.118	14394
294.175	27911
294.232	34511
294.289	13433
294.346	7638
294.403	7123
294.460	6075
294.517	4778
294.574	5349
294.631	4666
294.688	5359
294.745	14434
294.802	44922
294.859	48785
294.916	18389
294.973	11502
295.030	10903
295.087	9332
295.144	5987
295.201	5811
295.258	5168
295.315	7081
295.372	18120
295.429	28231
295.486	13742
295.542	9282
295.599	24963
295.656	37241
295.713	25730
295.770	28367
295.827	10420
295.883	7510
295.940	7581
295.997	14030
296.054	12644
296.111	5571
296.167	4525
296.224	4251
296.281	3616
296.338	5146
296.394	4013
296.451	5467
296.508	14746
296.564	26195
296.621	18627
296.678	36630
296.734	45621
296.791	18149
296.848	10982
296.904	12870
296.961	26804
297.018	34025
297.074	23015
297.131	11091
297.187	7736
297.244	11929
297.301	30964
297.357	46405
297.414	17507
297.470	8522
297.527	5983
297.583	5760
297.640	6298
297.696	5218
297.753	3890
297.809	3673
297.866	3232
297.922	3427
297.979	3654
298.035	4871
298.092	8464
298.148	19414
298.204	17887
298.261	10090
298.317	17567
298.374	39844
298.430	21613
298.486	11607
298.543	8913
298.599	8954
298.656	11712
298.712	18757
298.768	40478
298.824	25624
298.881	9214
298.937	6464
298.993	5560
299.050	9002
299.106	7708
299.162	6918
299.218	5997
299.275	5172
299.331	5931
299.387	11351
299.443	35010
299.500	35311
299.556	14557
299.612	8260
299.668	9019
299.724	10881
299.780	9943
299.837	7710
299.893	10437
299.949	32431
300.005	35068
300.061	32663
300.117	48677
300.173	22657
300.229	11626
300.285	15631
300.341	18132
300.397	9545
300.453	6075
300.510	5975
300.566	6613
300.622	7849
300.678	21784
300.734	36629
300.790	30000
300.845	32015
300.901	23594
300.957	35315
301.013	23187
301.069	10904
301.125	8300
301.181	9705
301.237	6474
301.293	5721
301.349	4880
301.405	5562
301.461	5853
301.516	7909
301.572	7897
301.628	13512
301.684	9952
301.740	15036
301.796	22348
301.851	16825
301.907	27281
301.963	25901
302.019	37443
302.074	83986
302.130	81149
302.186	38964
302.242	17726
302.297	12451
302.353	13173
302.409	22633
302.464	19248
302.520	17050
302.576	38769
302.631	40661
302.687	24980
302.743	11670
302.798	7049
302.854	6478
302.910	7483
302.965	9282
303.021	15976
303.076	15910
303.132	20691
303.187	23810
303.243	11064
303.299	6838
303.354	5620
303.410	5558
303.465	5014
303.521	4597
303.576	5149
303.632	7286
303.687	12199
303.743	30552
303.798	23740
303.853	11326
303.909	6774
303.964	7298
304.020	11834
304.075	17681
304.130	15355
304.186	29416
304.241	28212
304.297	22506
304.352	11347
304.358	10934
304.407	7572
304.449	7484
304.463	7459
304.518	8356
304.539	7586
304.573	6333
304.629	6676
304.630	6746
304.684	10193
304.720	19640
304.739	24434
304.794	33202
304.811	28430
304.850	16498
304.902	9329
304.905	8899
304.960	7863
304.992	7979
305.015	8074
305.071	7641
305.083	7394
305.126	6411
305.173	4582
305.181	4307
305.236	3524
305.264	4870
305.292	6367
305.347	8162
305.354	8314
305.402	8906
305.445	8409
305.457	8318
305.512	10177
305.535	10638
305.567	11169
305.622	11397
305.626	11658
305.678	18320
305.716	32313
305.733	37317
305.788	37885
305.807	33569
305.843	25838
305.897	32136
305.898	32201
305.953	30719
305.988	22395
306.008	17953
306.063	14366
306.078	13283
306.118	10186
306.168	6247
306.173	5971
306.228	5807
306.259	5267
306.283	4940
306.338	5342
306.349	5503
306.393	6402
306.440	6812
306.448	6797
306.503	7659
306.530	8427
306.558	11553
306.613	24722
306.620	26358
306.668	35655
306.711	40951
306.723	40720
306.778	30107
306.801	24134
306.833	17045
306.888	9461
306.892	9124
306.943	7714
306.982	6846
306.997	6551
307.052	6460
307.072	6268
307.107	6600
307.162	9264
307.163	9307
307.217	14725
307.253	17054
307.272	17549
307.327	19068
307.343	17975
307.381	14675
307.434	12457
307.436	12761
307.491	25049
307.524	35623
307.546	38862
307.600	37013
307.614	33820
307.655	20891
307.704	11477
307.710	11285
307.765	13233
307.795	16044
307.819	20163
307.874	33185
307.885	33517
307.929	26220
307.975	20006
307.984	20379
308.038	26301
308.065	32026
308.093	50896
308.148	102673
308.156	112632
308.202	173393
308.246	210979
308.257	203675
308.312	122864
308.336	91218
308.366	72116
308.421	46119
308.426	43714
308.475	28863
308.517	19886
308.530	18860
308.585	16604
308.607	15744
308.639	15610
308.694	16943
308.697	17159
308.748	28609
308.787	39462
308.803	39702
308.857	31967
308.877	28374
308.912	24782
308.967	23655
308.967	23633
309.021	31694
309.058	38936
309.076	48490
309.130	82905
309.148	96185
309.185	150137
309.238	237684
309.239	238737
309.293	261961
309.328	259461
309.348	229268
309.402	129883
309.418	103639
309.457	75509
309.508	45996
309.511	45429
309.566	39981
309.598	38032
309.620	43094
309.674	58244
309.688	62229
309.729	61672
309.778	55544
309.783	54329
309.837	38925
309.868	31382
309.892	35898
309.946	49710
309.959	53949
310.001	73505
310.049	91514
310.055	88359
310.109	52498
310.139	32957
310.163	26895
310.218	16718
310.229	14897
310.272	12708
310.319	10870
310.326	10682
310.381	9323
310.409	8557
310.435	8204
310.489	7764
310.499	7710
310.543	8343
310.589	8959
310.598	9002
310.652	9461
310.679	9494
310.706	8982
310.760	7703
310.769	7500
310.814	6610
310.859	5986
310.868	6070
310.923	6408
310.948	6642
310.977	7670
311.031	9649
311.038	9897
311.085	10032
311.128	9879
311.139	9744
311.193	9144
311.218	8783
311.247	8511
311.301	8135
311.308	8058
311.356	8070
311.398	8150
311.410	7988
311.464	6999
311.488	6550
311.518	6872
311.572	7498
311.578	7561
311.626	10749
311.668	13565
311.680	13432
311.734	12485
311.758	12080
311.788	12359
311.842	12794
311.847	12810
311.896	15380
311.937	17675
311.950	17788
312.004	18042
312.027	18075
312.058	15255
312.112	10187
312.117	9661
312.165	9359
312.207	9070
312.297	14185
312.386	12590
312.476	10674
312.566	23788
312.656	12703
312.745	7616
312.835	8906
312.925	11079
313.015	8841
313.104	9855
313.194	8426
313.284	9747
313.374	11648
313.463	12851
313.553	7734
313.643	7917
313.732	7644
313.822	7483
313.912	8735
314.001	10110
314.091	11408
314.180	15923
314.270	14059
314.360	14387
314.449	13529
314.539	9979
314.628	8330
314.718	9896
314.808	11735
314.897	9010
314.987	8790
315.076	10889
315.166	14274
315.255	12904
315.345	12604
315.434	12555
315.524	11080
315.613	13495
315.703	16814
315.792	19085
315.881	30927
315.971	18312
316.060	22238
316.150	28974
316.239	29816
316.328	14171
316.418	8651
316.507	9306
316.597	11988
316.686	11011
316.775	13605
316.865	30048
316.954	10387
317.043	6928
317.133	8865
317.222	7610
317.311	7658
317.400	7361
317.490	11217
317.579	15329
317.668	8940
317.757	13055
317.847	21689
317.936	54112
318.025	40548
318.114	22777
318.203	17987
318.293	29487
318.382	69454
318.471	47378
318.560	56440
318.649	78576
318.738	22756
318.828	14558
318.917	17275
319.006	16215
319.095	35498
319.184	92291
319.273	62079
319.362	38640
319.451	13138
319.540	12349
319.629	25298
319.718	50764
319.807	21845
319.896	31876
319.985	112480
320.074	55092
320.163	15452
320.252	21967
320.341	19742
320.430	20197
320.519	24494
320.608	16918
320.697	13209
320.786	13862
320.875	15140
320.964	19809
321.053	32653
321.142	44352
321.230	51915
321.319	32128
321.408	81906
321.497	37994
321.586	31157
321.675	31928
321.764	35045
321.852	23224
321.941	46527
322.030	34775
322.119	30491
322.207	81557
322.296	51787
322.385	27579
322.474	30174
322.562	93420
322.651	57773
322.740	32588
322.829	48617
322.917	43274
323.006	30348
323.095	26384
323.183	17971
323.272	26631
323.361	39177
323.449	103099
323.538	41434
323.626	72138
323.715	52870
323.804	21209
323.892	68236
323.981	51032
324.069	15238
324.158	35036
324.246	39965
324.335	18036
324.424	32372
324.512	13407
324.601	18349
324.689	35096
324.778	73076
324.866	36253
324.954	12753
325.043	11529
325.131	19254
325.220	30661
325.308	36782
325.397	26640
325.485	20616
325.574	9507
325.662	8750
325.750	11043
325.839	8851
325.927	7972
326.015	10958
326.104	12320
326.192	19988
326.280	9608
326.369	9049
326.457	14008
326.545	25920
326.634	13646
326.722	6044
326.810	8348
326.898	7998
326.987	10185
327.075	22720
327.163	24436
327.251	13914
327.340	30000
327.428	55762
327.516	11081
327.604	9049
327.692	9033
327.781	9207
327.869	14860
327.957	11354
328.045	12179
328.133	7593
328.221	8770
328.309	9438
328.397	7970
328.485	11653
328.574	14505
328.662	49039
328.750	30426
328.838	11585
328.926	8409
329.014	7607
329.102	12182
329.190	30178
329.278	24106
329.366	8263
329.454	6011
329.542	8236
329.630	7795
329.718	8561
329.806	13373
329.893	12654
329.981	15970
330.069	24584
330.157	77748
330.245	197676
330.333	133525
330.421	32926
330.509	21813
330.597	63422
330.684	47523
330.772	16661
330.860	20622
330.948	27820
331.036	14703
331.123	7124
331.211	7175
331.299	9428
331.387	19967
331.475	43173
331.562	13676
331.650	7637
331.738	8389
331.825	11728
331.913	6721
332.001	7486
332.089	8602
332.176	18349
332.264	34261
332.352	34217
332.439	13685
332.527	9426
332.614	7735
332.702	10031
332.790	8510
332.877	17494
332.965	37900
333.052	12953
333.140	12337
333.228	28250
333.315	10613
333.403	8679
333.490	21132
333.578	22683
333.665	31532
333.753	17849
333.840	8816
333.928	10094
334.015	24120
334.103	32633
334.190	105611
334.278	35082
334.365	14234
334.452	12528
334.540	8968
334.627	10177
334.715	14632
334.802	23076
334.889	104697
334.977	124208
335.064	20877
335.151	11735
335.239	11566
335.326	15491
335.413	49064
335.501	83321
335.588	15277
335.675	10766
335.762	13837
335.850	24339
335.937	16361
336.024	32014
336.111	130147
336.199	69791
336.286	16965
336.373	10056
336.460	7240
336.547	7570
336.635	10472
336.722	9445
336.809	7988
336.896	12165
336.983	37239
337.070	90351
337.157	114804
337.245	78175
337.332	62161
337.419	11250
337.506	8196
337.593	9491
337.680	26762
337.767	97227
337.854	31207
337.941	34892
338.028	35982
338.115	14779
338.202	14801
338.289	23962
338.376	83005
338.463	33018
338.550	48688
338.637	64372
338.724	18002
338.811	28986
338.898	8986
338.984	7558
339.071	9793
339.158	10697
339.245	31822
339.332	21639
339.419	19359
339.506	21963
339.593	5890
339.679	6648
339.766	7480
339.853	9847
339.940	25453
340.027	10421
340.113	9805
340.200	12161
340.287	10118
340.374	11002
340.460	23418
340.547	10070
340.634	14572
340.720	53295
340.807	37906
340.894	7491
340.980	8255
341.067	7248
341.154	8926
341.240	11813
341.327	32752
341.414	11192
341.500	12537
341.587	8602
341.674	7587
341.760	19334
341.847	26949
341.933	11204
342.020	5508
342.106	4979
342.193	7587
342.279	17782
342.366	12013
342.452	22315
342.539	12882
342.625	25046
342.712	64048
342.798	29024
342.885	12914
342.971	4971
343.058	5419
343.144	5675
343.230	6662
343.317	6785
343.403	6906
343.490	4615
343.576	5607
343.662	6916
343.749	8467
343.835	10346
343.921	15150
344.008	65933
344.094	172453
344.180	48801
344.267	20140
344.353	45481
344.439	59198
344.525	33044
344.612	14729
344.698	12137
344.784	9556
344.870	5976
344.957	6811
345.043	13590
345.129	10313
345.215	21793
345.301	13175
345.387	8116
345.474	4906
345.560	5427
345.646	7678
345.732	7500
345.818	9482
345.904	9435
345.990	8865
346.076	8044
346.162	16467
346.249	9595
346.335	5853
346.421	7167
346.507	17472
346.593	66676
346.679	23014
346.765	8164
346.851	7522
346.937	8587
347.023	7365
347.108	9493
347.194	8213
347.280	7100
347.366	9571
347.452	19477
347.538	78410
347.624	64413
347.710	59769
347.796	13098
347.882	7697
347.967	7007
348.053	10574
348.139	8439
348.225	7081
348.311	6511
348.397	6461
348.482	8770
348.568	12049
348.654	6601
348.740	7400
348.825	8956
348.911	11129
348.997	33198
349.083	75726
349.168	17286
349.254	8542
349.340	9245
349.425	6368
349.511	10033
349.597	12266
349.682	19305
349.768	54854
349.854	30947
349.939	8518
350.025	6007
350.110	6630
350.196	5470
350.282	4622
350.367	4282
350.453	9284
350.538	12343
350.624	10674
350.709	11126
350.795	6194
350.880	7351
350.966	8034
351.051	11224
351.137	8794
351.222	8682
351.308	18296
351.393	59438
351.479	19213
351.564	9136
351.649	8107
351.735	6242
351.820	5429
351.906	7580
351.991	9465
352.076	30461
352.162	58285
352.247	14591
352.332	9974
352.418	19300
352.503	21246
352.588	78377
352.673	82851
352.759	19484
352.844	11210
352.929	10647
353.014	15587
353.100	9843
353.185	14714
353.270	24311
353.355	28967
353.441	9341
353.526	9081
353.611	20554
353.696	28799
353.781	16296
353.866	9487
353.952	8693
354.037	21131
354.122	50219
354.207	47209
354.292	19834
354.377	8781
354.462	7624
354.547	11751
354.632	10611
354.717	13389
354.802	18827
354.887	9259
354.972	6976
355.057	5997
355.142	6017
355.227	8992
355.312	14836
355.397	30964
355.482	76434
355.567	42614
355.652	25530
355.737	28673
355.822	58743
355.907	59695
355.991	12415
356.076	8080
356.161	8122
356.246	7086
356.331	8348
356.416	14625
356.501	77947
356.585	102241
356.670	21679
356.755	14674
356.840	17396
356.924	59874
357.009	224165
357.094	111086
357.179	28624
357.263	20967
357.348	17901
357.433	20730
357.517	17191
357.602	14531
357.687	12110
357.771	16259
357.856	50449
357.941	35557
358.025	45732
358.110	202893
358.195	124363
358.279	25583
358.364	17012
358.448	46173
358.533	131971
358.617	107653
358.702	93526
358.787	42289
358.871	25730
358.956	25212
359.040	9873
359.125	7890
359.209	8336
359.294	21670
359.378	46783
359.462	23802
359.547	13871
359.631	8968
359.716	8043
359.800	8641
359.885	13884
359.969	9978
360.053	7739
360.138	8261
360.222	11950
360.306	25000
360.391	20779
360.475	29431
360.559	73926
360.644	57050
360.728	44974
360.812	44044
360.896	135717
360.981	75758
361.065	50349
361.149	13473
361.233	14206
361.318	11212
361.402	12766
361.486	11399
361.570	9962
361.654	12668
361.739	25813
361.823	84979
361.907	141527
361.991	35023
362.075	18601
362.159	46809
362.243	35305
362.327	29607
362.411	34513
362.495	20637
362.580	13424
362.664	9298
362.748	9384
362.832	10488
362.916	17262
363.000	45832
363.084	118693
363.168	173585
363.252	54674
363.336	20829
363.420	24825
363.503	72780
363.587	101535
363.671	22841
363.755	17066
363.839	26084
363.923	13309
364.007	24680
364.091	30147
364.175	28482
364.258	118971
364.342	99212
364.426	100860
364.510	62043
364.594	32674
364.677	30828
364.761	107511
364.845	95536
364.929	42408
365.013	38433
365.096	27393
365.180	35978
365.264	28095
365.347	117308
365.431	63697
365.515	22216
365.598	12511
365.682	10613
365.766	18263
365.849	26056
365.933	14318
366.017	16513
366.100	15326
366.184	7763
366.267	7909
366.351	9186
366.435	8149
366.518	7608
366.602	6967
366.685	8006
366.769	9971
366.852	16340
366.936	31500
367.019	19956
367.103	13525
367.186	27595
367.270	9634
367.353	7157
367.436	7906
367.520	7726
367.603	10460
367.687	15111
367.770	29820
367.853	17168
367.937	34251
368.020	66937
368.104	20573
368.187	20602
368.270	33337
368.353	31317
368.437	30064
368.520	56929
368.603	44720
368.687	45433
368.770	96673
368.853	31163
368.936	28122
369.020	32045
369.103	14831
369.186	10816
369.269	12392
369.352	17524
369.436	29426
369.519	20117
369.602	12969
369.685	10814
369.768	12355
369.851	10189
369.934	7572
370.018	10231
370.101	25727
370.184	20620
370.267	14957
370.350	29842
370.433	39006
370.516	66659
370.599	81991
370.682	30675
370.765	61048
370.848	66018
370.931	103109
371.014	49742
371.097	13324
371.180	10701
371.263	7611
371.346	6389
371.429	7474
371.511	8380
371.594	15877
371.677	27104
371.760	31177
371.843	22460
371.926	72223
372.009	190500
372.091	78587
372.174	42653
372.257	89893
372.340	44816
372.423	37562
372.505	49309
372.588	21704
372.671	31935
372.754	101353
372.836	61384
372.919	38665
373.002	88796
373.085	33294
373.167	22335
373.250	48790
373.332	93777
373.415	111191
373.498	241510
373.580	111988
373.663	104317
373.746	167100
373.828	51313
373.911	23726
373.993	21482
374.076	71316
374.159	80169
374.241	30238
374.324	91074
374.406	70365
374.489	60957
374.571	188329
374.654	95984
374.736	39467
374.819	111497
374.901	160779
374.983	185692
375.066	43473
375.148	15597
375.231	51123
375.313	119754
375.395	56656
375.478	14552
375.560	10421
375.643	13129
375.725	32410
375.807	136760
375.890	126708
375.972	59647
376.054	35365
376.136	48026
376.219	24413
376.301	35427
376.383	123404
376.465	58221
376.548	40537
376.630	41894
376.712	104848
376.794	60147
376.877	11307
376.959	7410
377.041	10216
377.123	19797
377.205	28456
377.287	8089
377.369	6358
377.452	7175
377.534	7623
377.616	7145
377.698	8414
377.780	6859
377.862	9160
377.944	8644
378.026	5275
378.108	7170
378.190	6031
378.272	5996
378.354	5313
378.436	5072
378.518	10300
378.600	44654
378.682	37756
378.764	64688
378.846	58760
378.928	19230
379.010	30501
379.091	18659
379.173	7972
379.255	6741
379.337	9913
379.419	27963
379.501	91634
379.583	44908
379.664	12718
379.746	25948
379.828	67333
379.910	90592
379.991	82882
380.073	18073
380.155	12026
380.237	10449
380.318	7605
380.400	9055
380.482	16401
380.564	30214
380.645	26651
380.727	29476
380.809	17228
380.890	12783
380.972	9851
381.053	9594
381.135	9915
381.217	21043
381.298	74064
381.380	45479
381.461	28608
381.543	97234
381.624	145798
381.706	35082
381.787	20477
381.869	21882
381.951	41749
382.032	172097
382.113	137439
382.195	39879
382.276	24777
382.358	37875
382.439	100771
382.521	104753
382.602	168087
382.684	85354
382.765	141164
382.846	171448
382.928	238679
383.009	147314
383.090	85391
383.172	280854
383.253	479454
383.334	182982
383.416	157820
383.497	94230
383.578	46036
383.659	77698
383.741	234772
383.822	618740
383.903	374978
383.984	127452
384.066	201083
384.147	147522
384.228	35433
384.309	26958
384.390	22161
384.471	16113
384.553	16918
384.634	23287
384.715	25918
384.796	13606
384.877	14766
384.958	53915
385.039	83451
385.120	36767
385.201	15547
385.282	19728
385.363	20627
385.444	17230
385.525	28631
385.606	83806
385.687	77003
385.768	22646
385.849	25562
385.930	82064
386.011	159488
386.092	54763
386.173	15534
386.254	12162
386.335	12781
386.416	15410
386.496	41646
386.577	76618
386.658	32206
386.739	20847
386.820	18704
386.901	15261
386.981	13691
387.062	9505
387.143	14709
387.224	62091
387.304	68634
387.385	28095
387.466	19776
387.547	26743
387.627	18219
387.708	21863
387.789	97983
387.869	134531
387.950	41413
388.031	9734
388.111	8757
388.192	24812
388.273	39805
388.353	26035
388.434	14099
388.514	20483
388.595	81929
388.676	129985
388.756	76817
388.837	70331
388.917	52481
388.998	12488
389.078	12312
389.159	10152
389.239	8822
389.320	16337
389.400	14137
389.480	22305
389.561	67029
389.641	38696
389.722	14729
389.802	27539
389.883	28091
389.963	69647
390.043	53282
390.124	21338
390.204	26986
390.284	83878
390.365	59197
390.445	54804
390.525	137341
390.605	132642
390.686	54299
390.766	19819
390.846	11280
390.927	8137
391.007	9971
391.087	10541
391.167	13272
391.247	10117
391.328	13881
391.408	23523
391.488	18617
391.568	6762
391.648	11172
391.728	19376
391.808	16426
391.888	19581
391.969	33626
392.049	64206
392.129	31862
392.209	27922
392.289	70752
392.369	45487
392.449	41412
392.529	29572
392.609	19997
392.689	21792
392.769	63443
392.849	64033
392.929	41044
393.009	99192
393.089	80361
393.169	52879
393.248	134859
393.328	502029
393.408	628674
393.488	201625
393.568	59003
393.648	31569
393.728	21115
393.807	16590
393.887	15862
393.967	14650
394.047	18189
394.127	23773
394.206	34443
394.286	90912
394.366	366535
394.446	471660
394.525	149040
394.605	41626
394.685	29401
394.764	55245
394.844	92475
394.924	74239
395.003	24962
395.083	17192
395.163	14810
395.242	15076
395.322	14943
395.402	10087
395.481	14135
395.561	32527
395.640	103266
395.720	84833
395.799	100880
395.879	92773
395.958	52162
396.038	139175
396.117	475047
396.197	600557
396.276	248901
396.356	90213
396.435	60314
396.515	39283
396.594	38036
396.673	56120
396.753	145530
396.832	493009
396.912	452950
396.991	133518
397.070	36936
397.150	22179
397.229	16498
397.308	20040
397.388	36206
397.467	21972
397.546	10692
397.625	8805
397.705	13270
397.784	16085
397.863	9651
397.942	6895
398.022	7257
398.101	23604
398.180	88824
398.259	55468
398.338	16150
398.417	11616
398.497	8762
398.576	9261
398.655	6003
398.734	5714
398.813	5988
398.892	21201
398.971	88941
399.050	54954
399.129	7996
399.208	4714
399.287	5801
399.366	5013
399.445	5257
399.524	5361
399.603	5447
399.682	11811
399.761	29653
399.840	89829
399.919	82486
399.998	13357
400.077	4261
400.156	4124
400.235	8347
400.313	6281
400.392	7742
400.471	33668
400.550	70882
400.629	22326
400.708	8990
400.786	7440
400.865	23644
400.944	31171
401.023	16172
401.102	3923
401.180	4142
401.259	4510
401.338	6379
401.416	9642
401.495	9449
401.574	8004
401.652	5958
401.731	9108
401.810	8325
401.888	5066
401.967	3369
402.046	6668
402.124	8907
402.203	13267
402.281	7524
402.360	10420
402.438	29943
402.517	26222
402.596	8981
402.674	8053
402.753	5617
402.831	4639
402.910	6314
402.988	18556
403.066	75543
403.145	51362
403.223	21984
403.302	63619
403.380	51133
403.459	50803
403.537	23442
403.615	9716
403.694	3836
403.772	3595
403.850	3304
403.929	2926
404.007	4335
404.085	10185
404.164	12341
404.242	6068
404.320	6184
404.398	15770
404.477	29914
404.555	124426
404.633	132820
404.711	26877
404.789	9623
404.868	7204
404.946	4387
405.024	3066
405.102	2960
405.180	4241
405.258	3570
405.336	4885
405.415	4364
405.493	11923
405.571	11821
405.649	4294
405.727	4035
405.805	7931
405.883	7786
405.961	7583
406.039	10422
406.117	5601
406.195	7593
406.273	27918
406.351	120377
406.429	87107
406.507	18192
406.585	7066
406.663	7377
406.740	9239
406.818	9275
406.896	5456
406.974	5543
407.052	10019
407.130	63454
407.208	113433
407.285	28053
407.363	5640
407.441	6029
407.519	5420
407.596	5503
407.674	12740
407.752	25980
407.830	35899
407.907	20601
407.985	8532
408.063	5461
408.141	3642
408.218	8887
408.296	10775
408.373	7043
408.451	7985
408.529	7854
408.606	4049
408.684	3369
408.762	2836
408.839	3601
408.917	2944
408.994	3855
409.072	5324
409.149	4793
409.227	8965
409.304	10924
409.382	7529
409.459	6423
409.537	10722
409.614	11100
409.692	7810
409.769	6877
409.846	10161
409.924	15362
410.001	15874
410.079	10028
410.156	7436
410.233	6746
410.311	5524
410.388	5475
410.465	8014
410.543	10795
410.620	6429
410.697	5952
410.775	8815
410.852	3760
410.929	8154
411.006	13367
411.083	7292
411.161	22385
411.238	25460
411.315	10686
411.392	5411
411.469	10540
411.547	15681
411.624	8173
411.701	7099
411.778	6630
411.855	14994
411.932	9709
412.009	5044
412.086	4148
412.163	5282
412.240	7976
412.317	10280
412.394	11413
412.471	4730
412.548	3054
412.625	4178
412.702	6131
412.779	15242
412.856	12616
412.933	4043
413.010	4107
413.087	6404
413.164	36889
413.241	65035
413.318	18159
413.395	9685
413.471	18082
413.548	8737
413.625	4559
413.702	6918
413.779	5975
413.855	3543
413.932	2757
414.009	3006
414.086	3586
414.162	3290
414.239	6045
414.316	29661
414.393	82370
414.469	35614
414.546	4745
414.623	3264
414.699	3682
414.776	6654
414.853	4305
414.929	3984
415.006	3632
415.082	6426
415.159	4648
415.236	4550
415.312	4559
415.389	8556
415.465	14275
415.542	8262
415.618	3920
415.695	10071
415.771	7050
415.848	6263
415.924	5710
416.000	4113
416.077	3669
416.153	1731
416.230	1279
416.306	1344
416.383	2313
416.459	3437
416.535	2192
416.612	1956
416.688	2341
416.764	2807
416.841	2627
416.917	3138
416.993	3438
417.069	4786
417.146	7152
417.222	12933
417.298	7529
417.374	3960
417.451	4397
417.527	6573
417.603	7570
417.679	6125
417.755	4323
417.831	2881
417.908	3327
417.984	2775
418.060	1711
418.136	10100
418.212	17681
418.288	7675
418.364	4231
418.440	3209
418.516	7632
418.592	9617
418.668	18710
418.744	29865
418.820	24073
418.896	5991
418.972	2530
419.048	4042
419.124	12961
419.200	12016
419.276	3687
419.352	1972
419.428	2413
419.504	3895
419.579	6941
419.655	5072
419.731	4389
419.807	16769
419.883	33785
419.959	25980
420.034	7396
420.110	10088
420.186	46870
420.262	45496
420.337	9102
420.413	7627
420.489	3725
420.565	3855
420.640	2928
420.716	5359
420.792	2533
420.867	4868
420.943	3986
421.019	8987
421.094	8592
421.170	4744
421.245	2964
421.321	4897
421.397	5583
421.472	6346
421.548	15148
421.623	16431
421.699	9160
421.774	8663
421.850	7623
421.925	13208
422.001	12707
422.076	10175
422.152	11024
422.227	19141
422.302	22528
422.378	27574
422.453	48983
422.529	108418
422.604	287342
422.679	453810
422.755	372891
422.830	160060
422.905	61802
422.981	34257
423.056	22416
423.131	17620
423.207	13344
423.282	12720
423.357	22199
423.432	17477
423.508	12507
423.583	29664
423.658	26755
423.733	8680
423.808	10613
423.883	11886
423.959	10688
424.034	7506
424.109	6675
424.184	4828
424.259	3655
424.334	4313
424.409	2472
424.484	3716
424.559	5385
424.634	4434
424.709	6299
424.784	8882
424.859	4928
424.934	7150
425.009	34090
425.084	64903
425.159	27438
425.234	5477
425.309	2937
425.384	12663
425.459	27870
425.534	10073
425.609	4629
425.683	4179
425.758	2672
425.833	4184
425.908	6074
425.983	18608
426.058	67059
426.132	34805
426.207	6605
426.282	9328
426.357	9242
426.431	4385
426.506	3401
426.581	3701
426.655	3749
426.730	4177
426.805	3805
426.879	5423
426.954	4789
427.029	8627
427.103	43900
427.178	115524
427.253	59043
427.327	8879
427.402	9882
427.476	30741
427.551	18604
427.625	6394
427.700	6354
427.774	3815
427.849	4546
427.923	3161
427.998	3266
428.072	4274
428.147	10012
428.221	33113
428.296	103913
428.370	63186
428.444	10267
428.519	11438
428.593	23645
428.667	21320
428.742	24620
428.816	21947
428.890	63129
428.965	121291
429.039	45917
429.113	30192
429.188	13396
429.262	5350
429.336	7576
429.410	30845
429.485	22481
429.559	19769
429.633	18328
429.707	5842
429.781	12140
429.855	73209
429.930	128804
430.004	67286
430.078	97093
430.152	88341
430.226	115022
430.300	139165
430.374	25879
430.448	8836
430.522	25130
430.596	88667
430.670	57381
430.744	95671
430.818	170518
430.892	41969
430.966	9059
431.040	5423
431.114	3014
431.188	2517
431.262	3614
431.336	3039
431.410	9848
431.484	30731
431.557	23653
431.631	5104
431.705	4397
431.779	13813
431.853	80203
431.927	71152
432.000	8117
432.074	3822
432.148	5166
432.222	4576
432.295	3174
432.369	2637
432.443	5190
432.516	34148
432.590	107249
432.664	48479
432.737	6916
432.811	2742
432.885	2740
432.958	2527
433.032	2210
433.106	1823
433.179	1479
433.253	1530
433.326	2829
433.400	1548
433.473	1768
433.547	99
433.620	2223
433.694	8069
433.767	8591
433.841	2807
433.914	2079
433.988	1937
434.061	2549
434.134	3290
434.208	1557
434.281	1301
434.355	1837
434.428	2669
434.501	2878
434.575	1115
434.648	2223
434.721	777
434.795	1673
434.868	1794
434.941	917
435.014	853
435.088	1151
435.161	3526
435.234	7352
435.307	11161
435.381	4661
435.454	3964
435.527	4923
435.600	4664
435.673	3489
435.746	3085
435.819	2033
435.892	2974
435.966	2192
436.039	1788
436.112	2188
436.185	1580
436.258	1687
436.331	265
436.404	815
436.477	561
436.550	1237
436.623	1834
436.696	1232
436.769	2791
436.842	2486
436.915	2228
436.987	4912
437.060	2468
437.133	1531
437.206	1343
437.279	2706
437.352	1628
437.425	1764
437.498	2423
437.570	8806
437.643	10677
437.716	3399
437.789	1816
437.861	8490
437.934	33459
438.007	17360
438.080	3270
438.152	3189
438.225	6651
438.298	39930
438.370	136134
438.443	73597
438.516	30554
438.588	6688
438.661	2208
438.734	2972
438.806	3091
438.879	4363
438.951	7557
439.024	18192
439.096	6483
439.169	2135
439.241	1891
439.314	2179
439.386	4886
439.459	7978
439.531	14816
439.604	6721
439.676	2114
439.749	1919
439.821	1307
439.893	1689
439.966	3331
440.038	4719
440.110	6738
440.183	2783
440.255	2051
440.327	3895
440.400	17995
440.472	89598
440.544	69807
440.617	11286
440.689	11476
440.761	15159
440.833	26591
440.905	17731
440.978	3205
441.050	1908
441.122	2877
441.194	1886
441.266	2140
441.338	2138
441.411	4742
441.483	30356
441.555	58250
441.627	14185
441.699	7891
441.771	7231
441.843	2848
441.915	1592
441.987	2202
442.059	2340
442.131	4120
442.203	7004
442.275	7704
442.347	6247
442.419	7365
442.491	32816
442.563	100820
442.635	49486
442.706	29984
442.778	27876
442.850	5614
442.922	2938
442.994	4344
443.066	7759
443.137	6808
443.209	4384
443.281	6161
443.353	12480
443.425	43495
443.496	166904
443.568	180407
443.640	67689
443.711	14378
443.783	7083
443.855	4518
443.926	3234
443.998	3439
444.070	5185
444.141	5687
444.213	8656
444.285	9324
444.356	7495
444.428	7150
444.499	3237
444.571	2466
444.642	2878
444.714	3210
444.785	6511
444.857	8308
444.928	19855
445.000	12831
445.071	11884
445.143	16217
445.214	10291
445.285	13306
445.357	39785
445.428	103649
445.500	268553
445.571	176360
445.642	90018
445.714	35053
445.785	35438
445.856	11539
445.928	11253
445.999	11468
446.070	10752
446.141	8347
446.213	11001
446.284	5981
446.355	5066
446.426	3772
446.497	3180
446.569	6382
446.640	10861
446.711	8864
446.782	2405
446.853	4084
446.924	5285
446.995	5076
447.066	4016
447.138	8093
447.209	4350
447.280	1664
447.351	1351
447.422	1467
447.493	3863
447.564	5680
447.635	7708
447.706	3708
447.777	2016
447.847	1965
447.918	1698
447.989	4391
448.060	5910
448.131	14008
448.202	12624
448.273	9438
448.344	4114
448.414	2901
448.485	2382
448.556	2707
448.627	1293
448.698	2208
448.768	1081
448.839	2610
448.910	6551
448.981	7789
449.051	4092
449.122	2931
449.193	2156
449.263	1951
449.334	2781
449.405	4213
449.475	12401
449.546	8267
449.616	8344
449.687	8174
449.758	4038
449.828	3016
449.899	3045
449.969	2659
450.040	2481
450.110	4271
450.181	4197
450.251	3054
450.322	2941
450.392	3737
450.463	2856
450.533	2302
450.604	2719
450.674	2260
450.744	2370
450.815	2031
450.885	2989
450.955	1927
451.026	1433
451.096	2280
451.166	3160
451.237	7377
451.307	23008
451.377	9454
451.447	1908
451.518	2051
451.588	3474
451.658	2702
451.728	4181
451.799	20629
451.869	25461
451.939	5832
452.009	2399
452.079	3355
452.149	2427
452.219	5108
452.289	24103
452.360	19790
452.430	4442
452.500	3675
452.570	4833
452.640	5843
452.710	16024
452.780	28998
452.850	18113
452.920	19260
452.990	5814
453.060	4827
453.129	6527
453.199	7650
453.269	19555
453.339	48334
453.409	77168
453.479	70741
453.549	110397
453.619	127094
453.688	49070
453.758	8195
453.828	4147
453.898	3997
453.968	3431
454.037	2956
454.087	3386
454.107	3558
454.168	2331
454.177	2141
454.247	2019
454.249	2026
454.316	1940
454.330	2245
454.386	3375
454.411	6191
454.456	10672
454.492	14763
454.525	18399
454.574	10203
454.595	6665
454.655	3747
454.665	3304
454.734	3937
454.736	4040
454.804	7133
454.817	9794
454.873	20113
454.898	21723
454.943	24292
454.979	16083
455.013	8855
455.060	5495
455.082	4238
455.141	4504
455.152	4415
455.221	12926
455.222	13157
455.291	27259
455.303	24210
455.360	10358
455.384	9631
455.430	8743
455.465	9089
455.499	9078
455.546	16166
455.569	19096
455.627	13886
455.638	13039
455.707	3761
455.708	3763
455.777	2819
455.789	2876
455.846	2850
455.869	2560
455.916	2099
455.950	2490
455.985	2843
456.031	2600
456.054	2430
456.112	2894
456.124	3006
456.193	2528
456.193	2514
456.262	2842
456.274	3100
456.332	4021
456.355	4189
456.401	4434
456.436	3273
456.470	2067
456.516	1948
456.540	1897
456.597	1669
456.609	1652
456.678	2236
456.678	2228
456.747	1821
456.759	1777
456.817	1733
456.840	1667
456.886	1421
456.920	1700
456.955	1966
457.001	2127
457.024	2374
457.082	2576
457.093	2546
457.162	4316
457.163	4334
457.232	5696
457.243	5375
457.301	3339
457.324	2758
457.370	2167
457.405	2366
457.439	2418
457.485	1959
457.508	1845
457.566	2963
457.577	3199
457.646	4241
457.647	4255
457.715	5241
457.727	5643
457.784	8208
457.808	9836
457.853	11950
457.889	15006
457.922	16348
457.969	11721
457.991	11042
458.050	12595
458.060	12953
458.129	19834
458.130	20064
458.198	22115
458.211	20166
458.267	11803
458.292	8517
458.336	5290
458.372	5267
458.405	6652
458.453	8955
458.474	10965
458.533	18750
458.543	19535
458.611	33839
458.614	34148
458.680	26637
458.694	21790
458.749	9454
458.775	6945
458.818	4739
458.855	4097
458.887	3366
458.936	2923
458.955	2924
459.016	3360
459.024	3374
459.093	3238
459.097	3243
459.162	3596
459.177	3808
459.230	4730
459.257	5201
459.299	5567
459.338	5472
459.368	5621
459.418	7245
459.437	7203
459.499	4828
459.505	4727
459.574	3518
459.579	3509
459.643	3656
459.659	3614
459.711	3312
459.740	3526
459.780	3926
459.820	3911
459.849	3825
459.900	4044
459.917	4146
459.981	4653
459.986	4650
460.054	3951
460.061	3955
460.123	4282
460.141	4310
460.191	5313
460.222	5940
460.260	6152
460.302	7051
460.328	7015
460.382	5750
460.397	5496
460.462	4360
460.465	4404
460.534	5691
460.543	5878
460.602	13117
460.623	16090
460.671	24586
460.703	33459
460.739	33518
460.783	31089
460.808	27831
460.864	8498
460.876	6620
460.944	4300
460.945	4270
461.013	4455
461.024	4377
461.081	4012
461.104	4437
461.150	4874
461.184	4429
461.218	4294
461.264	3814
461.286	3524
461.345	3883
461.355	3958
461.423	4103
461.425	4099
461.491	3717
461.505	3803
461.559	7277
461.585	8553
461.628	13407
461.665	19082
461.696	21804
461.745	29076
461.764	26727
461.825	9836
461.832	9303
461.901	5139
461.905	5103
461.969	4637
461.985	4429
462.037	4479
462.065	4539
462.105	4778
462.145	5107
462.173	7224
462.225	11090
462.241	11987
462.305	17752
462.310	17416
462.378	11745
462.385	10557
462.446	5934
462.465	5206
462.514	4594
462.545	4626
462.582	5056
462.625	5048
462.650	4609
462.705	4120
462.718	4249
462.785	4508
462.786	4538
462.854	6516
462.865	6922
462.922	9138
462.945	10158
462.990	8340
463.025	5889
463.058	4909
463.104	4065
463.126	4076
463.184	4268
463.194	4312
463.262	4258
463.264	4284
463.330	4936
463.344	4937
463.398	5156
463.424	5241
463.466	5027
463.504	5224
463.533	5473
463.583	5451
463.601	5603
463.663	6226
463.669	6339
463.737	7549
463.743	7698
463.805	12189
463.823	13460
463.873	19816
463.903	23833
463.940	26084
463.982	29954
464.008	25370
464.062	11856
464.076	10703
464.142	5034
464.144	4991
464.211	5213
464.221	5254
464.279	5164
464.301	5083
464.347	5634
464.381	6169
464.414	6441
464.461	6738
464.482	7508
464.540	9922
464.550	9633
464.617	7213
464.620	7115
464.685	7634
464.699	7784
464.753	9025
464.779	9704
464.820	10759
464.859	11722
464.888	11605
464.938	11177
464.956	11231
465.018	11283
465.023	11103
465.091	8905
465.098	8626
465.158	8883
465.177	9078
465.226	9041
465.257	8949
465.293	8930
465.336	8819
465.361	9511
465.416	11145
465.428	11918
465.495	16316
465.496	16392
465.563	24947
465.575	26493
465.631	33475
465.654	36828
465.698	25090
465.734	13872
465.765	11667
465.813	8696
465.833	8514
465.893	8484
465.900	8479
465.968	8521
465.972	8511
466.035	8314
466.052	8250
466.102	9140
466.131	9610
466.170	9397
466.210	9235
466.237	9726
466.290	10549
466.304	10444
466.369	10018
466.372	10095
466.439	11973
466.449	12235
466.506	13159
466.528	13491
466.573	16519
466.607	18727
466.641	27376
466.687	39456
466.708	43606
466.766	55189
466.775	51563
466.842	23543
466.845	22168
466.909	15721
466.925	14294
466.977	14303
467.004	14335
467.044	14280
467.083	14216
467.111	15288
467.163	17238
467.178	17849
467.242	20322
467.245	20207
467.312	17277
467.321	16868
467.379	15506
467.400	14977
467.446	15820
467.480	16392
467.559	15223
467.638	12666
467.717	12861
467.796	14722
467.875	15697
467.955	14111
468.034	19381
468.113	43179
468.192	62556
468.271	21496
468.350	12327
468.429	14101
468.508	14333
468.588	12202
468.667	12271
468.746	12512
468.825	11267
468.904	11066
468.983	12462
469.062	18267
469.141	22280
469.220	11641
469.299	10223
469.378	12274
469.456	14218
469.535	13500
469.614	11486
469.693	11531
469.772	16326
469.851	20855
469.930	16308
470.009	11702
470.088	11651
470.166	12616
470.245	15890
470.324	18904
470.403	14723
470.482	12036
470.560	11956
470.639	12050
470.718	13187
470.797	11945
470.875	12137
470.954	16956
471.033	19761
471.111	10199
471.190	8940
471.269	8672
471.347	8961
471.426	9414
471.505	11803
471.583	13114
471.662	12180
471.740	11005
471.819	10001
471.898	9711
471.976	10103
472.055	10292
472.133	10662
472.212	14041
472.290	15379
472.369	10790
472.447	8766
472.526	8256
472.604	9458
472.683	10348
472.761	9957
472.839	9611
472.918	9361
472.996	9820
473.075	10823
473.153	11775
473.231	9976
473.310	10544
473.388	11543
473.466	10435
473.545	11508
473.623	14210
473.701	14749
473.780	10890
473.858	8860
473.936	11293
474.014	10562
474.093	10497
474.171	14528
474.249	20836
474.327	15735
474.405	8431
474.484	9224
474.562	9462
474.640	9518
474.718	9708
474.796	11481
474.874	9455
474.952	8639
475.030	8978
475.108	10173
475.187	12024
475.265	11383
475.343	13374
475.421	15143
475.499	9843
475.577	10157
475.655	12571
475.733	22819
475.811	39640
475.889	37668
475.966	27925
476.044	10117
476.122	10496
476.200	12875
476.278	11024
476.356	8484
476.434	10045
476.512	10256
476.590	12358
476.667	12362
476.745	8992
476.823	9619
476.901	9666
476.979	8704
477.056	9224
477.134	9318
477.212	9933
477.290	9370
477.367	8815
477.445	7367
477.523	8118
477.601	7954
477.678	8433
477.756	9864
477.834	11843
477.911	8431
477.989	8740
478.066	8035
478.144	9783
478.222	9365
478.299	14141
478.377	13426
478.454	8467
478.532	7378
478.609	8367
478.687	9843
478.764	7478
478.842	9191
478.919	8738
478.997	8085
479.074	7216
479.152	9187
479.229	12225
479.307	9024
479.384	6877
479.461	6673
479.539	7660
479.616	9957
479.694	8959
479.771	8853
479.848	8933
479.926	12120
480.003	15329
480.080	7744
480.157	7065
480.235	6578
480.312	8034
480.389	8075
480.467	14055
480.544	18407
480.621	9972
480.698	8612
480.775	11162
480.853	10800
480.930	8603
481.007	9601
481.084	9279
481.161	11077
481.238	10965
481.315	7755
481.392	7549
481.470	8222
481.547	8841
481.624	8210
481.701	7667
481.778	7718
481.855	10050
481.932	13362
482.009	23043
482.086	19101
482.163	8514
482.240	10340
482.317	16498
482.393	15004
482.470	9328
482.547	9031
482.624	7826
482.701	8510
482.778	8536
482.855	6663
482.932	7439
483.009	6795
483.085	8551
483.162	10600
483.239	10109
483.316	7774
483.393	7524
483.469	7830
483.546	9709
483.623	9696
483.699	7398
483.776	8054
483.853	10039
483.930	13462
484.006	33778
484.083	61671
484.160	37281
484.236	46484
484.313	39773
484.389	29781
484.466	24790
484.543	23716
484.619	24736
484.696	25062
484.772	27095
484.849	27582
484.925	24329
485.002	21994
485.078	24971
485.155	26182
485.231	22128
485.308	20443
485.384	21055
485.461	24926
485.537	37782
485.614	50571
485.690	23343
485.766	19985
485.843	21776
485.919	27691
485.995	30819
486.072	20445
486.148	18895
486.224	18258
486.301	19352
486.377	23129
486.453	25024
486.530	22921
486.606	28706
486.682	32370
486.758	36916
486.835	42976
486.911	32645
486.987	50993
487.063	56352
487.139	66353
487.215	49468
487.292	27983
487.368	22374
487.444	24424
487.520	30868
487.596	30309
487.672	34095
487.748	75934
487.824	121125
487.900	55456
487.976	26118
488.052	25641
488.128	32377
488.204	27120
488.280	20864
488.356	22303
488.432	42298
488.508	71739
488.584	31322
488.660	18910
488.736	18973
488.812	19535
488.888	24860
488.964	30248
489.039	57550
489.115	95599
489.191	65410
489.267	21226
489.343	19828
489.418	16609
489.494	16687
489.570	15286
489.646	18189
489.722	16429
489.797	18234
489.873	23711
489.949	49658
490.024	50321
490.100	17061
490.176	15782
490.251	19066
490.327	24711
490.403	17759
490.478	15202
490.554	13699
490.629	14420
490.705	13420
490.781	14706
490.856	14211
490.932	16607
491.007	17138
491.083	16394
491.158	15114
491.234	18773
491.309	37023
491.385	46323
491.460	17439
491.536	16597
491.611	13808
491.686	15290
491.762	19819
491.837	37271
491.913	65048
491.988	86655
492.063	121312
492.139	39963
492.214	22867
492.289	13500
492.365	12277
492.440	14480
492.515	15164
492.590	15908
492.666	11785
492.741	15264
492.816	23738
492.891	15670
492.967	10676
493.042	9854
493.117	10949
493.192	11007
493.267	12930
493.342	19342
493.418	23395
493.493	12414
493.568	9551
493.643	10299
493.718	13984
493.793	20306
493.868	23889
493.943	15311
494.018	12101
494.093	10962
494.168	11623
494.243	10154
494.318	9390
494.393	9071
494.468	9787
494.543	9488
494.618	10989
494.693	10397
494.768	9900
494.842	11286
494.917	9331
494.992	9638
495.067	10513
495.142	8811
495.217	10886
495.292	9181
495.366	12137
495.441	14190
495.516	18269
495.591	24102
495.665	70114
495.740	190482
495.815	105349
495.890	17756
495.964	12781
496.039	13949
496.114	13420
496.188	14605
496.263	14621
496.338	13279
496.412	13903
496.487	18106
496.561	17967
496.636	20233
496.710	14776
496.785	16893
496.860	19653
496.934	15339
497.009	15433
497.083	15779
497.158	16561
497.232	19058
497.307	23703
497.381	21112
497.455	23912
497.530	30697
497.604	24414
497.679	23801
497.753	36149
497.827	50981
497.902	49163
497.976	50468
498.050	83785
498.125	282692
498.199	362487
498.273	83795
498.348	60131
498.422	47705
498.496	42067
498.570	38550
498.645	29513
498.719	26287
498.793	30099
498.867	38180
498.941	50231
499.016	109980
499.090	330823
499.164	163551
499.238	22197
499.312	16586
499.386	20007
499.460	19870
499.534	18325
499.609	20234
499.683	29849
499.757	29318
499.831	48372
499.905	201009
499.979	252784
500.053	42289
500.127	37221
500.201	27738
500.275	17853
500.349	15389
500.422	18494
500.496	23922
500.570	50839
500.644	117256
500.718	250154
500.792	79843
500.866	16076
500.940	20508
501.013	18441
501.087	16496
501.161	27792
501.235	39256
501.309	68288
501.382	199436
501.456	227365
501.530	47661
501.603	73463
501.677	39016
501.751	12819
501.825	16259
501.898	27493
501.972	83047
502.046	70311
502.119	16676
502.193	34317
502.266	93681
502.340	59557
502.413	36541
502.487	84623
502.561	55463
502.634	20031
502.708	12685
502.781	11795
502.855	11226
502.928	8485
503.002	9947
503.075	8304
503.149	10346
503.222	10908
503.295	12064
503.369	13453
503.442	18381
503.516	54742
503.589	160553
503.662	127757
503.736	35926
503.809	71093
503.882	72359
503.956	83502
504.029	99313
504.102	52571
504.175	70895
504.249	31639
504.322	16563
504.395	15613
504.468	11044
504.542	10189
504.615	8267
504.688	8381
504.761	7002
504.834	10748
504.907	12727
504.980	22134
505.053	13784
505.127	13395
505.200	17995
505.273	15567
505.346	10895
505.419	7729
505.492	7297
505.565	6307
505.638	6187
505.711	6427
505.784	7296
505.857	6755
505.930	8011
506.003	7303
506.076	9624
506.149	9853
506.221	14393
506.294	13536
506.367	27938
506.440	112274
506.513	84885
506.586	16341
506.659	11049
506.731	8727
506.804	9540
506.877	13728
506.950	11033
507.022	7391
507.095	9075
507.168	13277
507.241	8653
507.313	7509
507.386	6934
507.459	12009
507.531	8767
507.604	6428
507.677	6894
507.749	5929
507.822	9659
507.894	18161
507.967	25626
508.040	16046
508.112	12290
508.185	12516
508.257	10578
508.330	16383
508.402	12592
508.475	11096
508.547	10771
508.620	11054
508.692	17918
508.765	12973
508.837	9069
508.909	8355
508.982	9768
509.054	9887
509.127	9167
509.199	8383
509.271	8126
509.344	7413
509.416	7108
509.488	7972
509.560	8748
509.633	8876
509.705	10754
509.777	9131
509.849	15089
509.922	10658
509.994	9161
510.066	8989
510.138	9211
510.210	20203
510.283	20395
510.355	15903
510.427	13144
510.499	13520
510.571	13208
510.643	12423
510.715	17453
510.787	18400
510.859	12692
510.931	14419
511.003	19452
511.076	19215
511.148	11070
511.219	11835
511.291	16929
511.363	23124
511.435	11822
511.507	9825
511.579	10785
511.651	10351
511.723	9468
511.795	9611
511.867	10337
511.939	10925
512.010	22184
512.082	23192
512.154	11396
512.226	11256
512.298	15064
512.369	24863
512.441	19598
512.513	19015
512.585	14759
512.656	14986
512.728	15986
512.800	13286
512.871	11873
512.943	13335
513.015	10090
513.086	12033
513.158	13100
513.230	13610
513.301	17812
513.373	22053
513.444	13143
513.516	11168
513.588	11612
513.659	13010
513.731	15862
513.802	13725
513.874	24117
513.945	46376
514.016	20355
514.088	11516
514.159	12017
514.231	16281
514.302	23048
514.374	19394
514.445	15188
514.516	27840
514.588	26729
514.659	14793
514.730	26890
514.802	25859
514.873	19434
514.944	21308
515.016	16590
515.087	18337
515.158	21226
515.229	31682
515.301	22263
515.372	30106
515.443	19962
515.514	15413
515.585	12203
515.656	11440
515.728	11526
515.799	10579
515.870	11691
515.941	12720
516.012	12166
516.083	16837
516.154	17704
516.225	21500
516.296	20767
516.367	17947
516.438	18906
516.509	23389
516.580	31576
516.651	76544
516.722	294545
516.793	197729
516.864	35723
516.935	33517
517.006	33475
517.077	44183
517.148	90872
517.219	271949
517.289	545864
517.360	195837
517.431	77146
517.502	19359
517.573	18242
517.643	17399
517.714	20627
517.785	20683
517.856	18559
517.926	23746
517.997	26055
518.068	31289
518.138	40828
518.209	56227
518.280	170207
518.350	688806
518.421	384584
518.492	48245
518.562	26143
518.633	24769
518.703	23566
518.774	34355
518.845	73696
518.915	87954
518.986	35704
519.056	25802
519.127	39254
519.197	59596
519.268	130313
519.338	113176
519.408	26397
519.479	27332
519.549	23775
519.620	16703
519.690	11919
519.760	12873
519.831	12963
519.901	13541
519.971	11950
520.042	12227
520.112	14026
520.182	15604
520.253	19028
520.323	14097
520.393	16502
520.463	30443
520.534	18582
520.604	38747
520.674	23465
520.744	18117
520.814	39340
520.885	45125
520.955	37638
521.025	149202
521.095	88318
521.165	15599
521.235	12824
521.305	11521
521.375	11145
521.445	12301
521.515	14944
521.585	17421
521.655	19298
521.725	15169
521.795	15382
521.865	10000
521.935	16467
522.005	16796
522.075	10622
522.145	11088
522.215	12381
522.285	18628
522.355	22290
522.424	42021
522.494	42092
522.564	21813
522.634	31634
522.704	98002
522.774	55985
522.843	13802
522.913	11773
522.983	14536
523.053	12426
523.122	12865
523.192	15464
523.262	46724
523.331	63816
523.401	16111
523.471	9687
523.540	10109
523.610	7753
523.680	9466
523.749	8428
523.819	11631
523.888	12973
523.958	9035
524.027	10387
524.097	11796
524.166	10026
524.236	10153
524.305	12331
524.375	9589
524.444	8938
524.514	11504
524.583	10537
524.653	12601
524.722	14763
524.791	10561
524.861	10336
524.930	9170
524.999	10122
525.069	14658
525.138	11689
525.207	14192
525.277	11934
525.346	10609
525.415	10706
525.484	10168
525.554	11023
525.623	13764
525.692	10856
525.761	12121
525.830	12370
525.900	13980
525.969	19764
526.038	29522
526.107	46657
526.176	145266
526.245	148800
526.314	51127
526.383	76510
526.452	118842
526.522	159234
526.591	222683
526.660	75632
526.729	38285
526.797	36065
526.867	61905
526.935	254901
527.004	449229
527.073	303377
527.142	34429
527.211	15479
527.280	14389
527.349	15369
527.418	9687
527.487	8852
527.555	9167
527.624	7660
527.693	7279
527.762	8105
527.831	7287
527.899	8513
527.968	8801
528.037	8140
528.106	10868
528.174	18839
528.243	18054
528.312	19827
528.380	30984
528.449	11917
528.518	9603
528.586	6611
528.655	8363
528.723	7327
528.792	6385
528.861	8145
528.929	7843
528.998	8330
529.066	7507
529.135	7732
529.203	6396
529.272	6113
529.340	7692
529.409	8669
529.477	7287
529.545	9392
529.614	13590
529.682	10995
529.751	15101
529.819	14092
529.887	10820
529.956	8270
530.024	8815
530.092	7176
530.161	9025
530.229	14259
530.297	9699
530.365	8003
530.434	6795
530.502	6766
530.570	7113
530.638	5862
530.707	9081
530.775	10087
530.843	7537
530.911	7938
530.979	8135
531.047	6677
531.115	7896
531.183	7799
531.252	6994
531.320	7641
531.388	7006
531.456	8230
531.524	5924
531.592	8673
531.660	9846
531.728	7781
531.796	7672
531.864	7999
531.932	8549
532.000	7570
532.067	8567
532.135	9296
532.203	10544
532.271	10845
532.339	16028
532.407	42614
532.475	34205
532.542	14713
532.610	15653
532.678	19197
532.746	60128
532.814	202122
532.881	74656
532.949	13549
533.017	10260
533.084	7952
533.152	8709
533.220	8830
533.287	9532
533.355	8918
533.423	7989
533.490	7927
533.558	7933
533.625	9510
533.693	9313
533.761	9151
533.828	10827
533.896	9205
533.963	15439
534.031	21750
534.098	28758
534.166	18181
534.233	9860
534.300	9376
534.368	9080
534.435	8922
534.503	10073
534.570	10447
534.637	10395
534.705	10989
534.772	12701
534.840	17778
534.907	60152
534.974	109944
535.041	20940
535.109	12524
535.176	9595
535.243	9217
535.310	9484
535.378	9253
535.445	8433
535.512	7818
535.579	8896
535.646	8339
535.714	8893
535.781	10801
535.848	10992
535.915	11225
535.982	10206
536.049	9998
536.116	11650
536.183	9805
536.250	9577
536.317	9958
536.384	11382
536.451	16620
536.518	18881
536.585	12567
536.652	16398
536.719	21482
536.786	18861
536.853	15267
536.920	19853
536.987	30317
537.053	29026
537.120	89959
537.187	115256
537.254	15866
537.321	9986
537.388	11843
537.454	9874
537.521	10305
537.588	9482
537.654	11072
537.721	13232
537.788	13843
537.855	10340
537.921	11312
537.988	11060
538.055	10714
538.121	10243
538.188	11876
538.254	15661
538.321	30308
538.388	23960
538.454	12747
538.521	11950
538.587	10739
538.654	10122
538.720	10967
538.787	10608
538.853	10496
538.920	13557
538.986	14396
539.053	12634
539.119	12919
539.185	11824
539.252	14162
539.318	19977
539.385	17803
539.451	15726
539.517	15727
539.583	17280
539.650	27871
539.716	85146
539.782	37366
539.849	13581
539.915	13085
539.981	12473
540.047	14944
540.114	14984
540.180	14814
540.246	13858
540.312	17469
540.378	29511
540.444	36363
540.510	30623
540.576	90389
540.643	47169
540.709	12951
540.775	12955
540.841	12068
540.907	15993
540.973	24103
541.039	20594
541.105	22034
541.171	15490
541.237	12955
541.303	13571
541.369	16282
541.435	17022
541.500	27844
541.566	23100
541.632	12370
541.698	11153
541.764	12084
541.830	11544
541.896	11606
541.961	12253
542.027	11567
542.093	12397
542.159	13949
542.224	13447
542.290	18538
542.356	26501
542.421	34667
542.487	19149
542.553	13764
542.618	15700
542.684	14380
542.750	13310
542.815	17055
542.881	22330
542.947	72512
543.012	78343
543.078	16237
543.143	12336
543.209	14709
543.274	13727
543.340	15954
543.405	27932
543.471	58224
543.536	19844
543.602	13265
543.667	12259
543.732	13244
543.798	12299
543.863	12647
543.928	12286
543.994	11696
544.059	11590
544.124	12388
544.190	12289
544.255	12848
544.320	12969
544.386	13037
544.451	17679
544.516	19876
544.581	20117
544.646	42991
544.712	92023
544.777	26551
544.842	16878
544.907	16848
544.972	16957
545.037	15218
545.102	16132
545.168	16319
545.233	16873
545.298	18155
545.363	19663
545.428	22358
545.493	30530
545.558	67379
545.623	40242
545.688	17365
545.753	16308
545.818	15843
545.883	18104
545.947	16018
546.012	17415
546.077	18467
546.142	18422
546.207	17283
546.272	21728
546.337	23750
546.401	20237
546.466	18405
546.531	18159
546.596	20023
546.661	19732
546.725	20038
546.790	18183
546.855	19622
546.919	19244
546.984	20887
547.049	22397
547.113	26110
547.178	24684
547.243	26942
547.307	30026
547.372	33511
547.436	37329
547.501	32824
547.565	33897
547.630	35579
547.695	36248
547.759	36801
547.823	35075
547.888	30788
547.952	32056
548.017	32375
548.081	35428
548.146	41476
548.210	40187
548.274	34033
548.339	34995
548.403	32419
548.468	32066
548.532	30127
548.596	32288
548.660	31036
548.725	34465
548.789	38708
548.853	41678
548.917	35835
548.982	39313
549.046	42437
549.110	30379
549.174	29611
549.238	32483
549.303	33161
549.367	36920
549.431	33891
549.495	32065
549.559	32481
549.623	36315
549.687	40496
549.751	49344
549.815	46977
549.879	46868
549.943	41043
550.007	44720
550.071	45363
550.135	48565
550.199	43145
550.263	40899
550.327	40131
550.391	44728
550.455	44294
550.519	43611
550.582	46905
550.646	53711
550.710	59175
550.774	51848
550.838	50037
550.901	52305
550.965	54816
551.029	56219
551.093	60508
551.156	68894
551.220	91283
551.284	115087
551.347	77142
551.411	86720
551.475	106730
551.538	60665
551.602	52082
551.666	49753
551.729	45363
551.793	46830
551.856	44608
551.920	43261
551.983	45026
552.047	44052
552.110	44791
552.174	43940
552.237	46337
552.301	43745
552.364	42259
552.428	41153
552.491	41254
552.554	43469
552.618	43583
552.681	45134
552.745	45049
552.808	51686
552.871	62408
552.934	53052
552.998	45007
553.061	44170
553.124	43661
553.187	42353
553.251	43318
553.314	44913
553.377	41831
553.440	46107
553.503	52161
553.567	60729
553.630	46822
553.693	44905
553.756	45448
553.819	44467
553.882	44496
553.945	43887
554.008	43877
554.071	43117
554.134	45239
554.197	42364
554.260	42395
554.323	44410
554.386	43322
554.449	44871
554.512	44548
554.575	43085
554.638	42441
554.701	43065
554.764	42667
554.827	41468
554.889	39611
554.952	37621
555.015	37474
555.078	37381
555.141	38824
555.203	37996
555.266	37224
555.329	37982
555.391	36619
555.454	36544
555.517	36723
555.580	33166
555.642	32979
555.705	32136
555.768	33525
555.830	33705
555.893	30991
555.955	30942
556.018	30321
556.080	29834
556.143	30735
556.206	30744
556.268	31705
556.330	31081
556.393	30741
556.455	30327
556.518	34076
556.580	37839
556.643	28146
556.705	26779
556.767	26568
556.830	27121
556.892	27904
556.955	34922
557.017	33026
557.079	27020
557.142	24408
557.204	26569
557.266	39546
557.328	40392
557.391	23073
557.453	22806
557.515	22792
557.577	25394
557.639	27388
557.701	23691
557.764	21772
557.826	23107
557.888	25656
557.950	25181
558.012	25926
558.074	29968
558.136	48898
558.198	125732
558.260	70126
558.322	28725
558.384	28120
558.446	31891
558.508	34047
558.570	41702
558.632	55319
558.694	83565
558.756	84253
558.818	181447
558.880	549757
558.942	247170
559.003	133549
559.065	92306
559.127	36093
559.189	35582
559.251	39224
559.312	49678
559.374	93266
559.436	329307
559.498	244384
559.559	45069
559.621	35329
559.683	40156
559.744	55395
559.806	144744
559.868	288577
559.929	79213
559.991	38513
560.052	46609
560.114	114740
560.176	102637
560.237	64267
560.299	127478
560.360	46963
560.422	22112
560.483	21382
560.545	19436
560.606	19023
560.667	19110
560.729	18113
560.790	17688
560.852	19073
560.913	18198
560.974	17729
561.036	17931
561.097	17667
561.158	18668
561.220	18708
561.281	18241
561.342	19658
561.403	21667
561.465	24014
561.526	42137
561.587	65173
561.648	26241
561.709	19547
561.771	18594
561.832	18317
561.893	18446
561.954	18664
562.015	17807
562.076	17262
562.137	19252
562.198	18284
562.259	18274
562.320	18354
562.381	20051
562.442	24396
562.503	24340
562.564	18924
562.625	18419
562.686	18403
562.747	20598
562.808	20942
562.869	17946
562.930	21349
562.991	20770
563.051	18813
563.112	18336
563.173	18753
563.234	17036
563.294	18239
563.355	17875
563.416	19481
563.477	18049
563.537	17234
563.598	18733
563.659	18203
563.720	17780
563.780	18959
563.841	20281
563.901	19890
563.962	17976
564.023	17632
564.083	19301
564.144	19170
564.204	18002
564.265	18396
564.325	20741
564.386	31478
564.446	33904
564.507	19450
564.567	17438
564.628	18258
564.688	18615
564.749	18524
564.809	20063
564.869	23874
564.930	20075
564.990	18437
565.050	17985
565.111	17843
565.171	18643
565.231	18835
565.292	19862
565.352	17200
565.412	19090
565.472	19521
565.532	19533
565.593	19620
565.653	18114
565.713	20131
565.773	20793
565.833	21652
565.893	25983
565.953	21125
566.013	20116
566.074	20685
566.134	23156
566.194	32116
566.254	36036
566.314	28013
566.374	21070
566.434	21261
566.494	21723
566.554	23021
566.614	22742
566.673	24400
566.733	24984
566.793	25568
566.853	27028
566.913	26673
566.973	27000
567.033	28385
567.092	28434
567.152	27691
567.212	27971
567.272	27695
567.331	28901
567.391	29017
567.451	30530
567.511	35653
567.570	37984
567.630	29968
567.690	27703
567.749	28128
567.809	30429
567.868	33724
567.928	37248
567.988	42946
568.047	48790
568.107	58911
568.166	76959
568.226	119056
568.285	177187
568.345	155578
568.404	119340
568.464	100878
568.523	91367
568.582	92416
568.642	100857
568.701	123471
568.761	175620
568.820	283573
568.879	294980
568.939	213933
568.998	155989
569.057	116717
569.116	91546
569.176	73734
569.235	60521
569.294	54046
569.353	45635
569.413	41166
569.472	37776
569.531	33839
569.590	32567
569.649	30574
569.708	28879
569.767	28754
569.827	31742
569.886	29213
569.945	24130
570.004	23883
570.063	24165
570.122	24295
570.181	23868
570.240	24270
570.299	25821
570.358	26566
570.417	22790
570.475	20584
570.534	20523
570.593	21737
570.652	21864
570.711	22894
570.770	20595
570.829	21359
570.887	20390
570.946	21619
571.005	19703
571.064	18614
571.122	20145
571.181	21019
571.240	18939
571.299	17576
571.357	18339
571.416	19432
571.475	19414
571.533	22688
571.592	19367
571.650	18951
571.709	18369
571.768	16962
571.826	17932
571.885	17546
571.943	16737
572.002	16570
572.060	18237
572.119	17058
572.177	16225
572.236	15721
572.294	16033
572.352	17015
572.411	16107
572.469	16171
572.528	16278
572.586	17504
572.644	17841
572.703	22980
572.761	19227
572.819	16682
572.877	16052
572.936	15084
572.994	16268
573.052	15554
573.110	17492
573.169	16400
573.227	15106
573.285	14395
573.343	14820
573.401	16580
573.459	16082
573.517	14703
573.576	15470
573.634	15349
573.692	17225
573.750	15995
573.808	15858
573.866	15770
573.924	18229
573.982	19005
574.040	16320
574.098	15282
574.155	14211
574.213	14932
574.271	14827
574.329	15065
574.387	14089
574.445	14587
574.503	13931
574.560	12820
574.618	14249
574.676	14139
574.734	14250
574.792	14738
574.849	14497
574.907	13418
574.965	13545
575.022	12722
575.080	14194
575.138	14764
575.195	15041
575.253	13746
575.311	14811
575.368	14496
575.426	12689
575.483	14481
575.541	14106
575.598	13271
575.656	14506
575.713	14313
575.771	14311
575.828	14468
575.886	14269
575.943	15207
576.001	15461
576.058	14650
576.115	15477
576.173	16977
576.230	18044
576.287	19014
576.345	17659
576.402	14938
576.459	15866
576.517	15237
576.574	16320
576.631	16886
576.688	16444
576.746	14449
576.803	15823
576.860	13815
576.917	15402
576.974	14720
577.031	14829
577.089	15647
577.146	14959
577.203	15487
577.260	16144
577.317	15930
577.374	17021
577.431	17031
577.488	15651
577.545	14754
577.602	15095
577.659	14931
577.716	14385
577.773	14421
577.830	15173
577.886	15451
577.943	14034
578.000	15030
578.057	15236
578.114	14810
578.171	14436
578.227	14756
578.284	14597
578.341	15158
578.398	15326
578.454	15961
578.511	16594
578.568	18582
578.625	17533
578.681	16320
578.738	14898
578.794	16558
578.851	15709
578.908	16179
578.964	18040
579.021	18831
579.077	16903
579.134	16361
579.190	16216
579.247	15552
579.303	15674
579.360	14895
579.416	14935
579.473	15941
579.529	14974
579.586	15899
579.642	16439
579.698	16243
579.755	16613
579.811	17065
579.867	16093
579.924	15333
579.980	15509
580.036	15958
580.093	17470
580.149	17034
580.205	16885
580.261	16641
580.317	16651
580.374	18682
580.430	19462
580.486	19270
580.542	17942
580.598	17418
580.619	17549
580.654	17781
580.692	17419
580.710	17238
580.765	17515
580.767	17522
580.823	18828
580.838	18411
580.879	17288
580.911	17504
580.935	17648
580.984	18287
580.991	18376
581.047	17585
581.057	17607
581.103	17673
581.130	18018
581.159	18359
581.203	18642
581.215	18716
581.270	18938
581.276	18827
581.326	17675
581.349	18342
581.382	19359
581.422	19363
581.438	19335
581.494	19768
581.494	19772
581.550	19331
581.567	19706
581.606	20485
581.640	20154
581.661	19923
581.713	21025
581.717	21109
581.773	20949
581.786	21049
581.829	21398
581.859	21789
581.885	22018
581.932	21675
581.940	21614
581.996	21865
582.004	21981
582.052	22506
582.077	22063
582.107	21622
582.150	22344
582.163	22517
582.219	22957
582.223	22938
582.274	22582
582.296	22451
582.330	22240
582.368	23308
582.386	23820
582.441	23464
582.441	23453
582.497	23895
582.514	24004
582.552	24445
582.587	24691
582.608	24874
582.659	24396
582.663	24318
582.719	25527
582.732	25377
582.774	25138
582.805	25537
582.830	25772
582.877	25243
582.885	25184
582.941	26066
582.950	26147
582.996	26374
583.023	26910
583.052	27560
583.095	27714
583.107	27706
583.162	27478
583.168	27624
583.218	29114
583.240	29146
583.273	29083
583.313	29003
583.328	28985
583.384	29674
583.385	29676
583.439	29854
583.458	29951
583.494	29838
583.531	30012
583.549	30344
583.603	30720
583.605	30723
583.660	31728
583.676	31687
583.715	31932
583.748	32822
583.770	33172
583.820	33251
583.825	33325
583.881	34081
583.893	34192
583.936	34505
583.965	34475
583.991	34189
584.038	34482
584.046	34700
584.101	36505
584.110	36628
584.156	37010
584.183	36995
584.211	37016
584.255	37973
584.266	38190
584.321	37812
584.328	37923
584.376	39613
584.400	40048
584.431	40506
584.472	40657
584.486	40800
584.541	42104
584.545	42117
584.596	42998
584.617	43369
584.651	44026
584.689	44759
584.706	45215
584.761	46337
584.762	46304
584.816	47624
584.834	47853
584.871	48412
584.906	49141
584.926	49773
584.978	51541
584.980	51675
585.035	53355
585.051	53929
585.090	55598
585.123	56521
585.145	57001
585.195	57839
585.200	58112
585.254	61262
585.267	61991
585.309	64474
585.340	65748
585.364	66761
585.412	69978
585.419	70575
585.473	73884
585.484	74598
585.528	80337
585.556	85667
585.583	95298
585.628	115223
585.637	124087
585.692	193925
585.700	208952
585.747	277128
585.772	265372
585.801	204186
585.845	116360
585.856	105255
585.910	87507
585.917	85575
585.965	83968
585.989	83279
586.019	83597
586.061	84282
586.074	84835
586.128	87096
586.133	87162
586.183	90652
586.205	91532
586.237	93077
586.277	94845
586.292	95660
586.346	97733
586.349	97677
586.401	100526
586.421	101362
586.455	104274
586.493	107523
586.509	110060
586.564	118802
586.565	118858
586.618	136891
586.637	140528
586.672	137676
586.709	130103
586.727	128575
586.781	129680
586.781	129981
586.835	133195
586.853	133866
586.889	136476
586.925	138704
586.944	140939
586.996	145973
586.998	146495
587.052	153424
587.068	155208
587.106	160894
587.140	164695
587.161	167535
587.212	174024
587.215	174876
587.269	183236
587.284	185274
587.323	192816
587.356	198519
587.377	203501
587.427	212280
587.431	213549
587.485	225267
587.499	227663
587.539	238890
587.571	247441
587.593	254593
587.643	267489
587.648	269701
587.702	287814
587.715	291648
587.755	309904
587.786	322152
587.810	332818
587.858	352417
587.864	356384
587.917	387770
587.930	394167
587.971	424071
588.001	443968
588.025	463689
588.073	500452
588.079	507494
588.133	559779
588.145	570176
588.187	622434
588.217	657492
588.241	693549
588.288	759801
588.295	773443
588.348	873527
588.360	893155
588.402	995901
588.431	1064210
588.456	1139842
588.503	1279608
588.510	1309051
588.564	1524814
588.575	1566637
588.617	1788642
588.646	1936627
588.671	2090032
588.718	2373761
588.725	2414374
588.778	2678363
588.789	2722293
588.832	2696324
588.861	2641694
588.886	2398453
588.932	1849868
588.939	1812232
588.993	1501197
589.004	1469023
589.047	2103045
589.075	2521870
589.100	2725421
589.147	3005658
589.154	2999870
589.207	2855912
589.218	2819704
589.261	2702362
589.290	2617447
589.314	2631840
589.361	2655824
589.368	2679018
589.421	2817746
589.433	2838951
589.475	2724064
589.504	2604544
589.528	2351920
589.576	1782638
589.582	1827230
589.635	2301155
589.647	2400198
589.689	2699593
589.718	2851496
589.742	2705639
589.790	2373098
589.795	2338029
589.849	1944177
589.861	1848811
589.902	1634757
589.932	1468586
589.955	1382066
590.004	1188119
590.009	1178362
590.062	1032184
590.075	993214
590.115	915304
590.146	849757
590.168	818652
590.218	741170
590.222	738998
590.275	676631
590.289	658228
590.328	621925
590.360	588365
590.381	573733
590.431	532555
590.435	532402
590.488	496696
590.503	484973
590.541	467057
590.574	448643
590.594	441462
590.645	416897
590.647	417570
590.700	394106
590.716	385510
590.753	375202
590.787	363200
590.806	358827
590.859	341572
590.859	342653
590.912	328554
590.930	322717
590.965	316489
591.001	307931
591.018	306004
591.071	296434
591.072	295184
591.124	288847
591.143	285047
591.177	280333
591.214	273000
591.230	271995
591.283	265206
591.285	263881
591.336	258944
591.356	255576
591.389	251969
591.427	245317
591.442	244127
591.495	236035
591.498	234509
591.547	230244
591.569	226968
591.600	225298
591.640	220952
591.653	220834
591.706	216660
591.711	215320
591.759	213507
591.782	211364
591.811	213408
591.853	214353
591.864	213984
591.917	207553
591.924	205765
591.969	202639
591.995	199595
592.022	199389
592.066	196865
592.075	197602
592.127	197118
592.137	196250
592.180	197990
592.208	197709
592.233	194976
592.279	187341
592.285	187602
592.338	183367
592.350	181651
592.390	180652
592.421	178586
592.443	178471
592.491	175826
592.495	176393
592.548	174101
592.562	172746
592.600	172954
592.633	171780
592.653	171382
592.704	167511
592.705	168404
592.775	164330
592.846	165531
592.916	164541
592.987	162446
593.058	160908
593.128	154325
593.199	153019
593.270	152080
593.341	147648
593.411	147222
593.482	146386
593.553	143846
593.623	143335
593.694	141468
593.764	142574
593.835	140749
593.906	138233
593.976	136767
594.047	134954
594.117	142717
594.188	140234
594.258	133822
594.329	130389
594.399	130770
594.470	128418
594.540	128137
594.611	128503
594.681	128297
594.751	125121
594.822	126345
594.892	129749
594.963	127148
595.033	127690
595.103	129493
595.174	129627
595.244	139109
595.314	149860
595.384	129401
595.455	125509
595.525	128136
595.595	128255
595.665	128257
595.736	126987
595.806	125367
595.876	125202
595.946	124423
596.016	124726
596.087	127349
596.157	126839
596.227	126478
596.297	127798
596.367	131655
596.437	135826
596.507	141310
596.577	150337
596.647	137387
596.717	134025
596.787	134970
596.857	133197
596.927	133501
596.997	133782
597.067	133159
597.137	136038
597.207	138367
597.277	137131
597.347	133019
597.417	131899
597.487	134469
597.557	134955
597.626	135164
597.696	136642
597.766	139249
597.836	147633
597.906	131721
597.975	123190
598.045	124577
598.115	125534
598.185	130418
598.254	137089
598.324	143876
598.394	143232
598.464	142775
598.533	139330
598.603	133571
598.672	132689
598.742	132380
598.812	130936
598.881	132944
598.951	132050
599.020	129467
599.090	133686
599.159	135922
599.229	134903
599.299	129801
599.368	133675
599.437	131856
599.507	124885
599.576	125261
599.646	122289
599.715	122133
599.785	120582
599.854	120625
599.924	121914
599.993	120653
600.062	120086
600.132	119872
600.201	122976
600.270	134675
600.340	137161
600.409	134880
600.478	134974
600.547	135624
600.617	131342
600.686	119369
600.755	112208
600.824	109504
600.894	107589
600.963	106290
601.032	105552
601.101	104103
601.170	102723
601.239	103179
601.308	102185
601.378	103643
601.447	102787
601.516	103646
601.585	105047
601.654	107017
601.723	103987
601.792	104600
601.861	105183
601.930	110645
601.999	112149
602.068	108520
602.137	112714
602.206	112432
602.275	111882
602.343	115837
602.412	117110
602.481	108861
602.550	109714
602.619	110711
602.688	111737
602.756	112962
602.825	111652
602.894	112623
602.963	113596
603.032	114348
603.100	114440
603.169	114009
603.238	115485
603.307	114558
603.375	114122
603.444	116281
603.513	115671
603.581	115398
603.650	117903
603.719	115038
603.787	114012
603.856	117560
603.924	119406
603.993	123924
604.061	123409
604.130	126852
604.198	127730
604.267	129121
604.335	130213
604.404	130931
604.472	132218
604.541	132707
604.609	133517
604.678	133914
604.746	135325
604.815	138563
604.883	139593
604.951	138803
605.020	138737
605.088	139221
605.156	140326
605.225	141950
605.293	141758
605.361	141778
605.429	144086
605.498	146087
605.566	148785
605.634	152267
605.702	156856
605.771	158503
605.839	159471
605.907	156334
605.975	153971
606.043	150617
606.111	149982
606.180	150059
606.248	149722
606.316	149345
606.384	150953
606.452	154113
606.520	159820
606.588	154263
606.656	150221
606.724	149604
606.792	142147
606.860	132727
606.928	121520
606.996	119268
607.064	116779
607.132	119330
607.200	123963
607.267	128245
607.335	128772
607.403	131707
607.471	129292
607.539	125131
607.607	126660
607.674	115247
607.742	116763
607.810	117096
607.878	116222
607.946	115714
608.013	119535
608.081	124767
608.149	127078
608.216	125275
608.284	128718
608.352	128183
608.419	129514
608.487	135884
608.555	128638
608.622	126485
608.690	130003
608.757	140473
608.825	145636
608.893	144953
608.960	147861
609.028	148904
609.095	145971
609.163	135784
609.230	123980
609.298	117519
609.365	118791
609.432	126832
609.500	136643
609.567	148902
609.635	165636
609.702	173343
609.769	169335
609.837	144764
609.904	125933
609.971	129201
610.039	140485
610.106	171218
610.173	282877
610.241	602548
610.308	611649
610.375	350977
610.442	171450
610.509	137065
610.577	130974
610.644	129612
610.711	132640
610.778	135699
610.845	137163
610.912	143619
610.980	144274
611.047	146166
611.114	145158
611.181	140345
611.248	138861
611.315	143747
611.382	146342
611.449	151515
611.516	151821
611.583	152006
611.650	152984
611.717	153526
611.784	155715
611.851	163149
611.918	175390
611.984	194039
612.051	244283
612.118	432913
612.185	989651
612.252	811804
612.319	243471
612.386	191668
612.452	177197
612.519	172086
612.586	178107
612.653	173210
612.719	173747
612.786	169376
612.853	158261
612.919	154729
612.986	156474
613.053	148565
613.120	143395
613.186	137474
613.253	141055
613.319	139848
613.386	140106
613.453	141759
613.519	148692
613.586	150980
613.652	169870
613.719	159788
613.785	155144
613.852	143478
613.918	143151
613.985	143824
614.051	149329
614.118	151514
614.184	147243
614.250	140624
614.317	143481
614.383	142279
614.449	146216
614.516	143661
614.582	145610
614.648	144859
614.715	140392
614.781	139826
614.847	141514
614.914	143189
614.980	140776
615.046	140727
615.112	145103
615.179	148555
615.245	158726
615.311	183267
615.377	249149
615.443	290295
615.509	202757
615.575	169924
615.642	160729
615.708	162058
615.774	170353
615.840	184331
615.906	213446
615.972	288019
616.038	500395
616.104	772030
616.170	1257107
616.236	1270193
616.302	356295
616.368	242010
616.434	196720
616.500	179556
616.565	183372
616.631	206470
616.697	190735
616.763	187763
616.829	228862
616.895	356854
616.961	377622
617.026	217262
617.092	162814
617.158	154176
617.224	152743
617.289	145623
617.355	139832
617.421	140807
617.487	140926
617.552	134241
617.618	131070
617.684	132693
617.749	133373
617.815	129002
617.880	126823
617.946	127706
618.012	130622
618.077	134407
618.143	129975
618.208	130542
618.274	136254
618.339	142014
618.405	125525
618.470	122801
618.536	123908
618.601	127053
618.667	123239
618.732	117770
618.798	114586
618.863	115723
618.928	113799
618.994	117774
619.059	120529
619.124	133192
619.190	122244
619.255	114773
619.320	113036
619.386	114512
619.451	111848
619.516	110279
619.581	112745
619.647	114695
619.712	115567
619.777	113850
619.842	114475
619.907	116126
619.972	116146
620.038	115467
620.103	112100
620.168	111025
620.233	114091
620.298	113657
620.363	111827
620.428	115737
620.493	117752
620.558	117094
620.623	118214
620.688	117941
620.753	116394
620.818	118629
620.883	117423
620.948	118508
621.013	117689
621.078	118186
621.143	118128
621.207	121468
621.272	120644
621.337	123280
621.402	122454
621.467	129381
621.532	132752
621.596	126488
621.661	122664
621.726	117962
621.791	118132
621.855	123101
621.920	122753
621.985	123312
622.049	126149
622.114	126658
622.179	124742
622.243	129338
622.308	129654
622.373	131511
622.437	133018
622.502	126432
622.566	124752
622.631	124652
622.695	127340
622.760	126557
622.824	126132
622.889	128602
622.953	132400
623.018	150369
623.082	154617
623.147	131791
623.211	127796
623.276	129618
623.340	125063
623.404	120465
623.469	121528
623.533	122232
623.597	118918
623.662	121492
623.726	116738
623.790	112400
623.854	110174
623.919	113027
623.983	112301
624.047	114895
624.111	111886
624.176	116338
624.240	120942
624.304	129797
624.368	116265
624.432	114034
624.496	115245
624.560	121196
624.625	122943
624.689	118028
624.753	118564
624.817	114858
624.881	113106
624.945	107986
625.009	106193
625.073	109109
625.137	115554
625.201	123635
625.265	124260
625.329	110418
625.393	112567
625.456	110934
625.520	111267
625.584	114404
625.648	122161
625.712	137306
625.776	192279
625.839	210755
625.903	134878
625.967	101676
626.031	119669
626.095	155450
626.158	114036
626.222	91788
626.286	87130
626.349	86225
626.413	83147
626.477	86104
626.540	83164
626.604	83207
626.668	81439
626.731	80495
626.795	84364
626.858	84237
626.922	81345
626.986	79248
627.049	80229
627.113	81128
627.176	79053
627.240	77477
627.303	77202
627.366	78110
627.430	79710
627.493	79169
627.557	78516
627.620	78794
627.684	78516
627.747	78664
627.810	75083
627.874	72329
627.937	69689
628.000	72687
628.064	73193
628.127	67202
628.190	66883
628.253	66599
628.317	64906
628.380	63163
628.443	64028
628.506	65842
628.569	61761
628.632	60493
628.696	60924
628.759	60698
628.822	58559
628.885	57310
628.948	57788
629.011	58673
629.074	58107
629.137	56441
629.200	56243
629.263	60304
629.326	54755
629.389	54537
629.452	55656
629.515	54968
629.578	55732
629.641	56981
629.704	56102
629.767	56915
629.830	53187
629.892	53295
629.955	53672
630.018	54986
630.081	55080
630.144	60478
630.207	55450
630.269	55495
630.332	52952
630.395	52785
630.458	50483
630.520	50130
630.583	51220
630.646	50122
630.708	48574
630.771	49837
630.834	50144
630.896	49734
630.959	49517
631.021	49222
631.084	49420
631.146	50228
631.209	52732
631.272	48342
631.334	47641
631.397	48602
631.459	47935
631.522	49233
631.584	48618
631.646	50302
631.709	50502
631.771	55780
631.834	50708
631.896	49199
631.958	45701
632.021	47666
632.083	47348
632.145	48118
632.208	46394
632.270	47051
632.332	44688
632.395	45667
632.457	45498
632.519	45802
632.581	45200
632.643	44923
632.706	45601
632.768	42847
632.830	45263
632.892	45263
632.954	44744
633.016	46450
633.078	43785
633.141	44345
633.203	43872
633.265	45038
633.327	42939
633.389	44413
633.451	45927
633.513	49698
633.575	48128
633.637	47940
633.698	47258
633.760	45072
633.822	44083
633.884	44653
633.946	44317
634.008	43852
634.070	44571
634.132	45288
634.193	46736
634.255	47233
634.317	47189
634.379	48106
634.441	46212
634.502	45394
634.564	43176
634.626	41754
634.687	41024
634.749	42386
634.811	40671
634.873	40068
634.934	40729
634.996	41470
635.057	40316
635.119	40355
635.181	39943
635.242	42226
635.304	40065
635.365	42632
635.427	40878
635.488	40746
635.550	39862
635.611	40773
635.673	40195
635.734	43209
635.796	41715
635.857	44280
635.918	43102
635.980	44961
636.041	44260
636.102	45559
636.164	45143
636.225	45613
636.286	43007
636.348	41878
636.409	39440
636.470	39691
636.531	39321
636.593	40577
636.654	41410
636.715	37884
636.776	37342
636.838	37642
636.899	37244
636.960	37052
637.021	36385
637.082	36452
637.143	36722
637.204	36568
637.265	34943
637.326	36779
637.387	34972
637.448	35624
637.509	35532
637.570	35826
637.631	35486
637.692	34690
637.753	33653
637.814	34085
637.875	34225
637.936	35854
637.997	34675
638.058	35424
638.119	35317
638.179	34599
638.240	33794
638.301	35043
638.362	34071
638.423	34873
638.483	34244
638.544	32350
638.605	33641
638.666	32498
638.726	34258
638.787	32916
638.848	32923
638.908	33113
638.969	32720
639.030	32895
639.090	31831
639.151	32498
639.211	33797
639.272	37086
639.332	47852
639.393	38608
639.453	31733
639.514	32967
639.574	32430
639.635	31501
639.695	30526
639.756	30296
639.816	31805
639.877	34110
639.937	41936
639.997	50053
640.058	33960
640.118	30604
640.178	30247
640.239	29626
640.299	29912
640.359	28503
640.420	31004
640.480	30709
640.540	31790
640.600	31362
640.661	30954
640.721	31322
640.781	34809
640.841	32092
640.901	30850
640.961	30487
641.021	31797
641.082	32581
641.142	38366
641.202	33405
641.262	28642
641.322	29067
641.382	27554
641.442	28953
641.502	28388
641.562	29519
641.622	28452
641.682	29103
641.742	29854
641.802	30680
641.861	30205
641.921	29211
641.981	30377
642.041	30251
642.101	34827
642.161	30687
642.221	26962
642.280	27393
642.340	26415
642.400	26566
642.460	28043
642.519	28989
642.579	28137
642.639	29988
642.698	26879
642.758	29326
642.818	28269
642.877	29082
642.937	28921
642.997	32234
643.056	37635
643.116	31021
643.175	28694
643.235	27674
643.294	29341
643.354	30017
643.414	29960
643.473	31371
643.532	34595
643.592	39843
643.651	53932
643.711	80049
643.770	139228
643.830	306261
643.889	729271
643.948	239028
644.008	50740
644.067	38280
644.126	31775
644.186	30038
644.245	28817
644.304	25164
644.363	28153
644.423	26095
644.482	26368
644.541	26900
644.600	26422
644.659	29794
644.719	31416
644.778	39081
644.837	50184
644.896	84764
644.955	190175
645.014	91949
645.073	33521
645.132	29354
645.191	29032
645.250	26991
645.309	28043
645.368	27484
645.427	30997
645.486	35265
645.545	53173
645.604	30280
645.663	25747
645.722	26593
645.781	26438
645.840	28944
645.898	30877
645.957	37863
646.016	46980
646.075	75358
646.134	132868
646.192	311569
646.251	557624
646.310	116684
646.369	38907
646.427	32924
646.486	27685
646.545	26975
646.603	26209
646.662	25231
646.721	23498
646.779	23863
646.838	24093
646.896	27128
646.955	28922
647.014	36873
647.072	52502
647.131	120658
647.189	83154
647.248	26434
647.306	23634
647.365	23782
647.423	20601
647.481	23572
647.540	20578
647.598	21733
647.657	20858
647.715	22681
647.773	20623
647.832	22519
647.890	20725
647.948	21161
648.007	21239
648.065	20031
648.123	21422
648.181	21865
648.240	21237
648.298	20055
648.356	20834
648.414	21565
648.472	21477
648.531	21385
648.589	20070
648.647	20033
648.705	19763
648.763	20909
648.821	20676
648.879	20439
648.937	20726
648.995	22170
649.053	24684
649.111	29820
649.169	40906
649.227	60687
649.285	106670
649.343	306381
649.401	201229
649.459	58021
649.516	42534
649.574	23250
649.632	25555
649.690	26473
649.748	27214
649.806	29708
649.863	41645
649.921	84927
649.979	75058
650.037	24174
650.094	19319
650.152	19723
650.210	18611
650.268	19483
650.325	18701
650.383	18931
650.440	17690
650.498	18964
650.556	18146
650.613	16836
650.671	17652
650.728	17944
650.786	18239
650.843	18952
650.901	16628
650.958	17246
651.016	16600
651.073	16440
651.131	16006
651.188	15574
651.246	17044
651.303	16590
651.360	16870
651.418	16322
651.475	17419
651.532	15811
651.590	16132
651.647	15509
651.704	16189
651.762	16140
651.819	15865
651.876	15991
651.933	15428
651.990	16551
652.048	15231
652.105	15729
652.162	16828
652.219	15048
652.276	15776
652.333	16245
652.390	15090
652.448	15727
652.505	16310
652.562	15331
652.619	15410
652.676	15613
652.733	17419
652.790	15688
652.847	14126
652.904	16177
652.961	14786
653.017	14181
653.074	16868
653.131	16607
653.188	14248
653.245	14973
653.302	14626
653.359	14604
653.415	15453
653.472	14872
653.529	15661
653.586	14500
653.642	13760
653.699	14500
653.756	14133
653.813	14332
653.869	14309
653.926	13964
653.983	14238
654.039	14259
654.096	14585
654.152	15343
654.209	13212
654.266	14834
654.322	13523
654.379	15964
654.435	16237
654.492	15970
654.548	18315
654.605	23721
654.661	17432
654.717	14709
654.774	13899
654.830	14290
654.887	14722
654.943	14748
655.000	15357
655.056	14837
655.112	15413
655.168	14274
655.225	14388
655.281	15951
655.337	15963
655.394	21474
655.450	18233
655.506	17898
655.562	20764
655.618	21099
655.675	13515
655.731	14146
655.787	14099
655.843	15285
655.899	13262
655.955	14515
656.011	14548
656.067	12271
656.123	15001
656.179	15208
656.235	15125
656.291	13700
656.347	14933
656.403	13956
656.459	14877
656.515	15839
656.571	14523
656.627	14223
656.683	15180
656.739	14396
656.795	13110
656.850	15101
656.906	16051
656.962	15497
657.018	14106
657.074	14911
657.129	15374
657.185	16819
657.241	22991
657.297	19434
657.352	14654
657.408	13827
657.464	15962
657.519	15022
657.575	12663
657.630	13646
657.686	13909
657.742	13193
657.797	13943
657.853	13339
657.908	14449
657.964	13134
658.019	14089
658.075	14000
658.130	13881
658.186	12788
658.241	13249
658.297	12189
658.352	13859
658.407	14726
658.463	12104
658.518	13739
658.573	13763
658.629	12931
658.684	13266
658.739	14047
658.795	12252
658.850	14033
658.905	11999
658.960	13525
659.016	13005
659.071	13179
659.126	13728
659.181	13834
659.236	18074
659.291	20550
659.346	14841
659.401	14504
659.457	14091
659.512	13433
659.567	14249
659.622	13296
659.677	13529
659.732	12585
659.787	13575
659.842	14242
659.897	15321
659.952	14221
660.007	13283
660.061	13864
660.116	13136
660.171	13132
660.226	12164
660.281	13775
660.336	12457
660.391	12158
660.445	13559
660.500	13625
660.555	13297
660.610	12617
660.664	13751
660.719	13299
660.774	13763
660.828	13426
660.883	14158
660.938	13369
660.992	12263
661.047	12848
661.101	12786
661.156	12267
661.211	12523
661.265	12712
661.320	11445
661.374	13460
661.429	12756
661.483	13726
661.538	12679
661.592	11943
661.647	12480
661.701	13741
661.755	12717
661.810	14029
661.864	12556
661.919	11837
661.973	13996
662.027	12892
662.081	11617
662.136	12215
662.190	13277
662.244	14029
662.299	12715
662.353	12435
662.407	12551
662.461	14123
662.515	14070
662.569	13504
662.624	14234
662.678	12654
662.732	11597
662.786	13314
662.840	12716
662.894	12403
662.948	11904
663.002	12498
663.056	12527
663.110	11331
663.164	12799
663.218	11897
663.272	12580
663.326	13798
663.380	13083
663.434	12901
663.488	11930
663.542	12653
663.595	12618
663.649	11985
663.703	13819
663.757	13102
663.811	11817
663.864	11859
663.918	12241
663.972	11991
664.026	12068
664.079	11883
664.133	12858
664.187	11929
664.240	12046
664.294	12490
664.348	12061
664.401	12821
664.455	12283
664.508	10896
664.562	11978
664.615	11328
664.669	11380
664.722	12155
664.776	10995
664.829	11960
664.883	12018
664.936	12557
664.990	13076
665.043	12705
665.097	13275
665.150	13355
665.203	12837
665.257	13695
665.310	13221
665.363	12578
665.417	11825
665.470	12781
665.523	12538
665.576	11828
665.630	12705
665.683	13296
665.736	11523
665.789	13128
665.842	12704
665.895	12420
665.949	12517
666.002	11849
666.055	12077
666.108	13113
666.161	12332
666.214	13448
666.267	13450
666.320	14706
666.373	13152
666.426	13079
666.479	12880
666.532	12544
666.585	13458
666.638	14059
666.691	13322
666.744	13794
666.796	12672
666.849	13309
666.902	12705
666.955	12398
667.008	11766
667.060	12050
667.113	11095
667.166	12326
667.219	12089
667.271	12439
667.324	13049
667.377	11954
667.430	11565
667.482	12609
667.535	12702
667.587	12888
667.640	13238
667.693	13507
667.745	17121
667.798	19448
667.850	12528
667.903	12817
667.955	12085
668.008	12996
668.060	13669
668.113	13613
668.165	13445
668.218	13304
668.270	12779
668.322	13395
668.375	12419
668.427	13279
668.479	12043
668.532	12760
668.584	12670
668.636	12269
668.689	11944
668.741	13386
668.793	12579
668.845	12418
668.898	13131
668.950	12577
669.002	13249
669.054	12545
669.106	12319
669.158	13507
669.211	12454
669.263	12867
669.315	13813
669.367	12780
669.419	12634
669.471	14977
669.523	14547
669.575	14899
669.627	14898
669.679	13716
669.731	14157
669.783	13795
669.835	14748
669.886	14505
669.938	14022
669.990	13867
670.042	14353
670.094	15853
670.146	15797
670.197	18135
670.249	19892
670.301	22627
670.353	28349
670.404	37209
670.456	50762
670.508	75885
670.560	119475
670.611	198433
670.663	340135
670.715	686680
670.766	1028139
670.818	524008
670.869	129292
670.921	61690
670.972	41790
671.024	32509
671.075	26373
671.127	22538
671.178	20104
671.230	18486
671.281	17350
671.333	16831
671.384	16141
671.436	17175
671.487	17552
671.538	18086
671.590	20523
671.641	25483
671.692	33464
671.744	54252
671.795	47702
671.846	24378
671.897	18006
671.949	16534
672.000	14352
672.051	13996
672.102	13916
672.153	12820
672.204	13141
672.256	13051
672.307	12847
672.358	13380
672.409	12934
672.460	13082
672.511	11747
672.562	12554
672.613	11419
672.664	11428
672.715	11826
672.766	11750
672.817	11000
672.868	11576
672.919	11451
672.970	11683
673.021	11268
673.071	10631
673.122	11872
673.173	10783
673.224	11922
673.275	11091
673.326	11463
673.376	11426
673.427	10345
673.478	10412
673.528	11363
673.579	11124
673.630	11179
673.680	11511
673.731	10335
673.782	9804
673.832	11208
673.883	11926
673.934	10670
673.984	10321
674.035	10403
674.085	11164
674.136	11692
674.186	10979
674.237	11947
674.287	14988
674.338	12115
674.388	10460
674.438	9936
674.489	10937
674.539	11218
674.589	10956
674.640	11065
674.690	11232
674.740	11277
674.791	11999
674.841	11593
674.891	12020
674.942	10267
674.992	9556
675.042	10612
675.092	9052
675.142	9249
675.193	10039
675.243	9047
675.293	10467
675.343	10463
675.393	10299
675.443	10272
675.493	9820
675.543	9208
675.593	10095
675.643	10348
675.693	9963
675.743	10396
675.793	9935
675.843	8431
675.893	9373
675.943	9897
675.993	8680
676.043	9608
676.093	10330
676.142	9078
676.192	9988
676.242	9347
676.292	9208
676.341	9273
676.391	9911
676.441	8516
676.491	9281
676.540	8761
676.590	8764
676.640	9001
676.689	9590
676.739	8032
676.789	8350
676.838	8145
676.888	9836
676.937	8880
676.987	8268
677.037	8742
677.086	7894
677.136	8539
677.185	9110
677.235	7702
677.284	8363
677.333	8339
677.383	8135
677.432	7629
677.482	8947
677.531	8264
677.580	8833
677.630	8310
677.679	8037
677.728	8796
677.778	9394
677.827	8396
677.876	7856
677.925	8447
677.975	7993
678.024	7636
678.073	8338
678.122	9034
678.171	8379
678.220	8357
678.269	9259
678.319	9834
678.368	9151
678.417	9101
678.466	9284
678.515	9054
678.564	9045
678.613	9269
678.662	8569
678.711	9301
678.760	9022
678.809	8509
678.857	9061
678.906	9183
678.955	8501
679.004	7931
679.053	8972
679.102	8534
679.151	8898
679.199	8371
679.248	8134
679.297	8521
679.346	7490
679.394	7811
679.443	8223
679.492	7728
679.540	7643
679.589	8745
679.638	8251
679.686	7923
679.735	8086
679.784	8724
679.832	8854
679.881	7620
679.929	7539
679.978	7411
680.026	7691
680.075	7860
680.123	7728
680.172	7273
680.220	6382
680.268	7467
680.317	8177
680.365	7453
680.414	6798
680.462	8233
680.510	7787
680.559	6592
680.607	7263
680.655	6982
680.703	7214
680.752	7804
680.800	6826
680.848	6861
680.896	7242
680.945	7334
680.993	7132
681.041	7475
681.089	6900
681.137	6755
681.185	6816
681.233	7498
681.258	7300
681.281	7075
681.329	6689
681.377	6882
681.380	6947
681.425	7420
681.473	8727
681.502	8308
681.521	7951
681.569	8273
681.617	7664
681.624	7733
681.665	7889
681.713	7944
681.745	8119
681.761	8151
681.809	7845
681.857	8634
681.867	8430
681.904	7569
681.952	8420
681.989	7816
682.000	7584
682.048	7892
682.096	7996
682.111	8249
682.143	8684
682.191	8858
682.233	9147
682.239	9147
682.286	8599
682.334	7953
682.354	8061
682.382	8125
682.430	9851
682.476	8358
682.477	8292
682.525	8963
682.572	8691
682.598	8866
682.620	8991
682.667	8614
682.715	9146
682.720	9197
682.763	9275
682.810	9490
682.841	9324
682.857	9206
682.905	9065
682.952	8752
682.963	8941
683.000	9418
683.047	10125
683.085	10535
683.095	10615
683.142	9701
683.190	9543
683.206	9340
683.237	8870
683.284	9127
683.328	9911
683.332	9945
683.379	10222
683.426	10275
683.449	10495
683.473	10725
683.521	10364
683.568	10668
683.571	10728
683.615	10921
683.662	10694
683.693	10512
683.709	10397
683.757	10332
683.804	10619
683.814	10394
683.851	9542
683.898	11200
683.936	10789
683.945	10647
683.992	11033
684.039	11407
684.057	11338
684.086	11114
684.133	10823
684.179	10785
684.180	10763
684.227	11374
684.274	11693
684.300	11773
684.321	11742
684.368	10580
684.415	11904
684.422	11855
684.462	11476
684.509	11331
684.543	11459
684.556	11452
684.603	11634
684.649	11724
684.665	11807
684.696	11996
684.743	12374
684.786	12389
684.790	12375
684.837	12315
684.883	12798
684.908	13153
684.930	13398
684.977	13626
685.023	13113
685.029	13108
685.070	12761
685.117	12580
685.150	13228
685.164	13556
685.210	13619
685.257	14001
685.272	13977
685.303	13732
685.350	13660
685.393	13069
685.396	13004
685.443	13770
685.490	14430
685.514	14274
685.536	14100
685.583	13853
685.629	14151
685.636	14130
685.675	13962
685.722	14130
685.757	14311
685.768	14357
685.815	14239
685.861	14273
685.878	14270
685.908	14276
685.954	14838
686.000	15541
686.000	15541
686.047	15427
686.093	15642
686.121	15407
686.139	15225
686.185	14926
686.232	15654
686.242	15487
686.278	14832
686.324	15104
686.363	14655
686.370	14581
686.416	14665
686.463	15115
686.484	15245
686.509	15337
686.555	14806
686.601	15267
686.606	15229
686.647	14819
686.693	14827
686.727	15143
686.739	15279
686.785	15225
686.831	15033
686.848	15155
686.877	15272
686.923	15657
686.969	15170
686.969	15167
687.015	14991
687.061	15980
687.090	16379
687.107	16466
687.153	15728
687.199	15647
687.211	15485
687.245	15261
687.291	15728
687.332	16309
687.336	16367
687.382	17058
687.428	17199
687.453	16744
687.474	16124
687.520	15942
687.565	15309
687.574	15234
687.611	15408
687.657	16100
687.695	16211
687.702	16245
687.748	16783
687.794	17394
687.816	17137
687.839	16689
687.885	16809
687.931	16663
687.937	16619
687.976	16643
688.022	16727
688.058	17127
688.067	17196
688.113	17167
688.158	16966
688.179	16828
688.204	16683
688.249	17405
688.295	17019
688.300	17031
688.340	17369
688.386	18026
688.421	17834
688.431	17739
688.477	17419
688.522	17980
688.542	18018
688.567	18198
688.613	18031
688.658	18084
688.663	18030
688.703	17558
688.749	18180
688.784	18046
688.794	18037
688.839	18453
688.884	18171
688.905	18086
688.930	17958
688.975	17834
689.020	17971
689.026	17947
689.065	18141
689.110	18283
689.146	18750
689.155	18799
689.201	18493
689.246	17898
689.267	18029
689.291	18272
689.336	18598
689.381	18006
689.388	18026
689.426	18272
689.471	18675
689.509	18593
689.516	18601
689.561	17767
689.606	18334
689.630	18257
689.651	18322
689.696	18147
689.741	19101
689.750	19088
689.785	18916
689.830	18755
689.871	18615
689.875	18606
689.920	18675
689.965	18245
689.992	18305
690.010	18546
690.054	18610
690.099	19012
690.112	19065
690.144	19142
690.189	19335
690.233	18757
690.233	18775
690.278	19074
690.323	18653
690.354	19060
690.367	19263
690.412	18763
690.457	18824
690.474	18975
690.501	19303
690.546	19563
690.590	18999
690.595	18945
690.635	18754
690.680	18683
690.716	18760
690.724	18822
690.769	19342
690.813	19681
690.836	19584
690.857	19544
690.902	19683
690.946	20287
690.957	20302
690.991	21210
691.035	22437
691.077	23966
691.080	24023
691.124	23338
691.168	23296
691.198	23154
691.213	22821
691.257	22442
691.301	21168
691.318	20718
691.346	20578
691.390	20440
691.434	20279
691.439	20251
691.478	20489
691.522	20660
691.559	20701
691.567	20784
691.611	21104
691.655	21511
691.680	21607
691.699	21523
691.743	21581
691.787	21031
691.800	20997
691.831	21352
691.875	22035
691.919	22191
691.921	22161
691.964	22291
692.008	22569
692.041	22641
692.052	22558
692.096	22274
692.139	22419
692.162	21875
692.183	21516
692.227	21468
692.271	21520
692.282	21395
692.315	21484
692.359	21717
692.402	22012
692.403	22049
692.447	21853
692.490	22042
692.523	21891
692.534	21908
692.578	22399
692.622	22007
692.643	22069
692.666	22103
692.709	22231
692.753	21953
692.763	21842
692.797	21792
692.840	22276
692.884	22023
692.884	22062
692.928	22610
692.971	22983
693.004	23161
693.015	23117
693.059	22966
693.102	22434
693.124	22132
693.146	22124
693.189	22496
693.233	22586
693.245	22628
693.276	23017
693.320	22932
693.363	23332
693.365	23298
693.407	23510
693.450	23738
693.485	23906
693.493	23933
693.537	23927
693.580	23724
693.605	23664
693.624	23985
693.667	24459
693.710	24898
693.725	25126
693.753	26832
693.797	29473
693.840	31794
693.845	32037
693.883	32039
693.926	31684
693.966	31507
693.970	31326
694.013	28428
694.056	26038
694.086	24131
694.099	24174
694.142	24531
694.185	24286
694.206	24312
694.229	24209
694.272	23950
694.315	23883
694.326	23684
694.358	23746
694.401	24141
694.444	24447
694.446	24405
694.487	24516
694.530	24807
694.566	24951
694.573	24901
694.616	23940
694.659	23326
694.686	23105
694.702	23320
694.745	23195
694.787	23290
694.806	23277
694.830	23488
694.873	23779
694.916	23919
694.926	23945
694.959	23950
695.002	23874
695.044	23732
695.046	23682
695.087	24033
695.130	24019
695.166	24307
695.172	24381
695.215	24259
695.258	24173
695.286	24026
695.301	24162
695.343	24475
695.386	24792
695.406	24910
695.428	24998
695.471	24966
695.514	25162
695.526	25119
695.556	25240
695.599	25431
695.641	25466
695.646	25418
695.684	25403
695.726	25234
695.766	25183
695.769	25241
695.811	25232
695.854	25179
695.886	25185
695.896	25240
695.938	25010
695.981	24912
696.005	24799
696.023	25041
696.065	25397
696.108	25973
696.125	26067
696.150	26061
696.192	26092
696.235	25940
696.245	25888
696.277	25978
696.319	25959
696.361	25917
696.365	25858
696.404	25901
696.446	25811
696.485	25653
696.488	25713
696.530	25720
696.572	25783
696.604	25766
696.614	25779
696.656	25519
696.698	25436
696.724	25168
696.740	25182
696.783	25131
696.825	25228
696.844	25186
696.867	25403
696.909	25700
696.951	25909
696.964	25916
696.992	26057
697.034	26255
697.076	26310
697.083	26287
697.118	26488
697.160	26537
697.202	26561
697.203	26501
697.244	26693
697.286	26783
697.323	26579
697.327	26619
697.369	26597
697.411	26585
697.442	26441
697.453	26505
697.494	26507
697.536	26541
697.562	26548
697.578	26718
697.620	26930
697.661	27081
697.682	27155
697.703	27507
697.744	27980
697.786	28560
697.801	28643
697.828	28650
697.869	28647
697.911	28610
697.921	28523
697.952	28304
697.994	28021
698.035	27675
698.040	27562
698.077	27137
698.118	26630
698.160	26042
698.160	25972
698.201	26730
698.243	27376
698.279	27892
698.284	27962
698.325	27997
698.367	28004
698.399	27929
698.408	27999
698.449	28026
698.491	28033
698.518	27978
698.532	28024
698.573	27956
698.614	27861
698.638	27740
698.656	27881
698.697	28063
698.738	28249
698.757	28263
698.779	28277
698.820	28162
698.862	28045
698.877	27935
698.903	28549
698.944	29417
698.985	30282
698.996	30447
699.026	30167
699.067	29678
699.116	29022
699.235	28225
699.354	27571
699.474	28808
699.593	28741
699.713	28978
699.832	28886
699.951	28239
700.070	27655
700.190	27938
700.309	28360
700.428	26688
700.547	27561
700.667	26233
700.786	27241
700.905	27002
701.024	27456
701.143	27494
701.262	25756
701.381	25921
701.500	26153
701.619	27060
701.738	26397
701.857	26677
701.976	25380
702.095	26279
702.214	26681
702.333	26204
702.452	26583
702.571	26621
702.690	26280
702.809	25783
702.928	25096
703.047	25236
703.165	24552
703.284	25542
703.403	24548
703.522	25572
703.640	25954
703.759	26366
703.878	27001
703.997	25360
704.115	24590
704.234	24363
704.353	23551
704.471	23863
704.590	24061
704.708	24489
704.827	23609
704.946	24093
705.064	23799
705.183	24235
705.301	26161
705.420	30941
705.538	29646
705.656	28179
705.775	25908
705.893	27045
706.012	29287
706.130	27281
706.249	27951
706.367	26951
706.485	27374
706.604	26723
706.722	26977
706.840	27489
706.958	28598
707.077	27988
707.195	26431
707.313	26073
707.431	25809
707.549	25391
707.668	24205
707.786	25827
707.904	25071
708.022	25287
708.140	24588
708.258	23491
708.376	24972
708.494	24718
708.612	26009
708.730	31492
708.848	31107
708.966	28913
709.084	27624
709.202	27499
709.320	26961
709.438	28408
709.556	27054
709.674	27740
709.791	27381
709.909	27498
710.027	27246
710.145	25711
710.263	27077
710.380	25319
710.498	26269
710.616	25675
710.733	25500
710.851	26293
710.969	27188
711.086	25701
711.204	25523
711.322	25599
711.439	25098
711.557	25391
711.674	24293
711.792	25163
711.909	23877
712.027	23741
712.144	24640
712.262	24528
712.379	25052
712.497	31705
712.614	32887
712.732	28725
712.849	28208
712.966	27228
713.084	30997
713.201	28617
713.318	28416
713.436	27981
713.553	27910
713.670	28316
713.787	28623
713.905	28168
714.022	27450
714.139	26945
714.256	28705
714.373	30816
714.490	35305
714.608	53597
714.725	167910
714.842	235466
714.959	37634
715.076	27186
715.193	26020
715.310	26792
715.427	25182
715.544	25600
715.661	24867
715.778	25140
715.895	26249
716.011	26505
716.128	24540
716.245	24893
716.362	26121
716.479	26311
716.596	24321
716.713	24341
716.829	23840
716.946	23685
717.063	23217
717.180	23463
717.296	23495
717.413	24008
717.530	21860
717.646	22125
717.763	23187
717.880	22993
717.996	22049
718.113	21777
718.229	21594
718.346	21743
718.462	22156
718.579	24091
718.695	26025
718.812	25333
718.928	23673
719.045	22894
719.161	20743
719.277	20891
719.394	20518
719.510	21141
719.626	20587
719.743	23826
719.859	23845
719.975	27734
720.092	55530
720.208	126991
720.324	36210
720.440	22432
720.557	21913
720.673	24585
720.789	27936
720.905	38107
721.021	26804
721.137	20900
721.253	19501
721.369	20808
721.486	21391
721.602	23590
721.718	20391
721.834	19283
721.950	19573
722.066	19375
722.181	18807
722.297	19293
722.413	20229
722.529	18074
722.645	18721
722.761	18629
722.877	18425
722.993	19019
723.108	19309
723.224	18802
723.340	18759
723.456	18959
723.571	18572
723.687	18337
723.803	18427
723.918	17607
724.034	17586
724.150	17978
724.265	18034
724.381	22365
724.497	26084
724.612	18273
724.728	17349
724.843	16483
724.959	17215
725.074	21060
725.190	23835
725.305	18175
725.421	17012
725.536	16085
725.651	17557
725.767	16470
725.882	17375
725.997	16833
726.113	17213
726.228	16599
726.343	16087
726.459	17088
726.574	17042
726.689	16152
726.804	16394
726.920	17288
727.035	15865
727.150	16524
727.265	16029
727.380	16864
727.495	15461
727.610	15420
727.725	15809
727.841	16001
727.956	15833
728.071	15327
728.186	16259
728.301	15381
728.416	15449
728.531	15475
728.645	14640
728.760	15515
728.875	14819
728.990	14196
729.105	15340
729.220	14616
729.335	15641
729.449	14589
729.564	14440
729.679	14365
729.794	14100
729.908	15278
730.023	15174
730.138	14230
730.253	14614
730.367	14167
730.482	14502
730.596	14295
730.711	14673
730.826	15727
730.940	15017
731.055	14709
731.169	13696
731.284	14193
731.398	14219
731.513	14713
731.627	14352
731.742	15292
731.856	15664
731.970	14608
732.085	15071
732.199	16311
732.313	17958
732.428	27751
732.542	60960
732.656	50047
732.771	18843
732.885	15584
732.999	14827
733.113	16030
733.227	15479
733.342	14974
733.456	14983
733.570	15133
733.684	13876
733.798	14427
733.912	14237
734.026	15260
734.140	15126
734.254	14808
734.368	16044
734.482	19241
734.596	14232
734.710	14440
734.824	13823
734.938	14083
735.052	13334
735.166	14750
735.280	13905
735.393	13297
735.507	13681
735.621	16366
735.735	16732
735.849	14806
735.962	13582
736.076	14169
736.190	13849
736.303	14615
736.417	16547
736.531	13863
736.644	13602
736.758	13128
736.872	13553
736.985	13014
737.099	12417
737.212	13153
737.326	13217
737.439	12976
737.553	13893
737.666	12316
737.780	11735
737.893	12174
738.007	12608
738.120	13228
738.233	12766
738.347	13190
738.460	12125
738.573	13308
738.687	12934
738.800	12922
738.913	12819
739.026	13135
739.140	12532
739.253	12212
739.366	12361
739.479	11923
739.592	12450
739.705	12479
739.818	12818
739.932	12460
740.045	12409
740.158	13114
740.271	11326
740.384	12020
740.497	12107
740.610	13026
740.723	11723
740.836	11591
740.949	12066
741.062	13095
741.174	13147
741.287	12222
741.400	11956
741.513	11308
741.626	12209
741.739	11596
741.851	11473
741.964	11334
742.077	11459
742.189	11753
742.302	11498
742.415	12235
742.527	10771
742.640	11793
742.753	11941
742.865	11168
742.978	10842
743.090	11665
743.203	11234
743.316	12075
743.428	11111
743.541	10525
743.653	10443
743.766	10633
743.878	10936
743.990	11708
744.103	11968
744.215	10761
744.327	10786
744.440	12280
744.552	13188
744.664	11545
744.777	10897
744.889	10555
745.001	11029
745.113	11066
745.226	10445
745.338	11278
745.450	10750
745.562	10343
745.674	9689
745.786	10188
745.898	10129
746.010	10652
746.122	10143
746.234	11047
746.347	10468
746.459	10498
746.570	9278
746.682	10566
746.794	10127
746.906	9675
747.018	9504
747.130	10590
747.242	10094
747.354	10102
747.466	10279
747.577	11218
747.689	11575
747.801	10010
747.913	9569
748.024	9895
748.136	9360
748.248	10005
748.359	9575
748.471	10280
748.583	9964
748.694	9607
748.806	10163
748.918	10786
749.029	10518
749.141	9315
749.252	10208
749.364	10246
749.475	11985
749.587	11590
749.698	8804
749.809	9827
749.921	9618
750.032	9635
750.144	9444
750.255	9904
750.366	9064
750.478	9841
750.589	9027
750.700	9493
750.811	10235
750.923	10129
751.034	12554
751.145	14173
751.256	9084
751.367	9917
751.479	9802
751.590	8925
751.701	9453
751.812	8955
751.923	8973
752.034	9467
752.145	9367
752.256	9315
752.367	8691
752.478	9042
752.589	8898
752.700	9225
752.811	9210
752.922	7958
753.032	9188
753.143	9934
753.254	9869
753.365	8735
753.476	9644
753.586	9481
753.697	9368
753.808	9242
753.919	8240
754.029	9186
754.140	9141
754.251	8888
754.361	8125
754.472	9513
754.582	8887
754.693	9185
754.804	9519
754.914	8842
755.025	8078
755.135	8239
755.246	9299
755.356	8429
755.466	8262
755.577	8815
755.687	8728
755.798	8608
755.908	8447
756.018	9523
756.129	8464
756.239	8817
756.349	7580
756.460	8453
756.570	8072
756.680	9659
756.790	8712
756.900	9273
757.011	8264
757.121	8315
757.231	7699
757.341	8156
757.451	8310
757.561	8381
757.671	7818
757.781	8852
757.891	7984
758.001	8429
758.111	8514
758.221	8071
758.331	8247
758.441	8960
758.551	9639
758.661	9119
758.771	8292
758.880	7792
758.990	9024
759.100	8958
759.210	9036
759.320	9982
759.429	9210
759.539	9138
759.649	9169
759.758	8669
759.868	9190
759.978	8559
760.087	8571
760.197	8783
760.307	9666
760.416	9158
760.526	8243
760.635	9310
760.745	8943
760.854	8559
760.964	8555
761.073	9731
761.182	8561
761.292	9014
761.401	9546
761.511	9747
761.620	7977
761.729	9731
761.839	8599
761.948	9631
762.057	8324
762.166	9162
762.276	7963
762.385	9001
762.494	8603
762.603	8888
762.712	8720
762.822	9256
762.931	9351
763.040	8431
763.149	9266
763.258	8551
763.367	9296
763.476	9291
763.585	9469
763.694	9586
763.803	9110
763.912	9639
764.021	9576
764.130	8766
764.238	10233
764.347	9997
764.456	9334
764.565	10516
764.674	9797
764.783	11046
764.891	9970
765.000	11564
765.109	11182
765.217	12148
765.326	13348
765.435	16258
765.543	16407
765.652	17569
765.761	20562
765.869	28756
765.978	40927
766.086	70191
766.195	138532
766.303	344077
766.412	909649
766.520	830097
766.629	285057
766.737	100594
766.846	57223
766.954	39242
767.062	30509
767.171	23687
767.279	20787
767.387	16990
767.496	15889
767.604	14693
767.712	13727
767.820	12813
767.928	13074
768.037	11608
768.145	12507
768.253	11800
768.361	11189
768.469	12000
768.577	11631
768.685	12587
768.793	12201
768.901	13216
769.009	13775
769.117	13924
769.225	16529
769.333	22760
769.441	31362
769.549	58931
769.657	125682
769.765	387832
769.873	814751
769.981	352245
770.088	85930
770.196	41121
770.304	28502
770.412	22324
770.519	18231
770.627	15351
770.735	13374
770.842	13226
770.950	11850
771.058	11379
771.165	11770
771.273	11656
771.380	9995
771.488	10548
771.595	10724
771.703	10864
771.810	10617
771.918	10293
772.025	10663
772.133	10873
772.240	9149
772.348	9746
772.455	10247
772.562	10147
772.670	9792
772.777	10323
772.884	9079
772.991	9034
773.099	9353
773.206	9276
773.313	9306
773.420	9466
773.528	8315
773.635	8925
773.742	9327
773.849	8891
773.956	9115
774.063	8366
774.170	8844
774.277	9660
774.384	8444
774.491	9081
774.598	8721
774.705	9620
774.812	9627
774.919	9111
775.026	9111
775.133	9119
775.239	8093
775.346	8411
775.453	8289
775.560	8704
775.667	8601
775.773	9144
775.880	8428
775.987	8464
776.093	8990
776.200	8593
776.307	8111
776.413	8930
776.520	6936
776.627	8364
776.733	8197
776.840	7796
776.946	8996
777.053	8389
777.159	8461
777.266	7569
777.372	7972
777.478	8441
777.585	7245
777.691	7717
777.798	8227
777.904	8726
778.010	8405
778.117	8542
778.223	8409
778.329	8164
778.435	7795
778.542	8324
778.648	8350
778.754	7183
778.860	7748
778.966	7796
779.072	7024
779.178	7961
779.284	7005
779.391	7819
779.497	7290
779.603	9158
779.708	7490
779.815	9495
779.920	20481
780.026	41988
780.132	13395
780.238	7004
780.344	7459
780.450	8082
780.556	7180
780.661	6928
780.767	7610
780.873	6834
780.979	7661
781.085	7095
781.190	6809
781.296	6903
781.402	6844
781.507	6558
781.613	7238
781.719	7450
781.824	7672
781.930	7816
782.035	7478
782.141	7332
782.246	6458
782.352	7135
782.457	6769
782.563	6366
782.668	5854
782.773	6170
782.879	6863
782.984	6956
783.090	7703
783.195	8233
783.300	7162
783.405	6700
783.511	6834
783.616	5917
783.721	6576
783.826	6140
783.932	7090
784.037	7077
784.142	6647
784.247	6369
784.352	7037
784.457	6619
784.562	7033
784.667	6628
784.772	5984
784.877	6793
784.982	7152
785.087	6312
785.192	6172
785.297	6051
785.402	6808
785.507	6027
785.611	6537
785.716	6568
785.821	6874
785.926	6446
786.031	5539
786.135	7009
786.240	6552
786.345	5980
786.450	6362
786.554	6450
786.659	5805
786.763	5103
786.868	6461
786.973	6242
787.077	5748
787.182	6721
787.286	6241
787.391	6229
787.495	6002
787.600	6566
787.704	6055
787.809	5882
787.913	5843
788.017	6573
788.122	5636
788.226	6096
788.330	5710
788.435	5286
788.539	6831
788.643	5446
788.747	5492
788.852	6223
788.956	5266
789.060	6988
789.164	6116
789.268	5870
789.372	6038
789.476	5591
789.580	5522
789.684	5426
789.788	5626
789.892	5932
789.996	6543
790.100	5701
790.204	4972
790.308	6255
790.412	6125
790.516	5838
790.620	5468
790.724	5959
790.828	5604
790.931	5683
791.035	6731
791.139	5233
791.242	5327
791.346	6619
791.450	5694
791.554	5291
791.657	5279
791.761	6690
791.864	5997
791.968	6031
792.072	5370
792.175	5317
792.279	5228
792.382	5834
792.486	5651
792.589	4889
792.693	5633
792.796	5417
792.899	5854
793.003	5627
793.106	4699
793.209	5534
793.313	5813
793.416	4786
793.519	5409
793.623	7067
793.726	7192
793.829	5895
793.932	5437
794.035	5589
794.138	5517
794.242	5841
794.345	5657
794.448	6117
794.551	7224
794.654	13683
794.757	20807
794.860	8310
794.963	5722
795.066	4385
795.169	5450
795.272	5301
795.375	5297
795.477	5051
795.580	5201
795.683	4340
795.786	4574
795.889	4205
795.991	5565
796.094	5287
796.197	4283
796.300	5000
796.402	3935
796.505	4757
796.608	4197
796.710	5265
796.813	5190
796.915	5063
797.018	4639
797.120	6011
797.223	3398
797.326	4927
797.428	5033
797.530	4444
797.633	4209
797.735	5712
797.838	5449
797.940	5954
798.042	4206
798.145	4997
798.247	4818
798.349	4610
798.452	5373
798.554	4524
798.656	3867
798.758	5185
798.860	5242
798.962	4477
799.065	4080
799.167	3631
799.269	4641
799.371	5746
799.473	5092
799.575	4939
799.677	4985
799.779	5273
799.881	4417
799.983	6390
800.085	4722
800.187	4156
800.289	3795
800.390	4415
800.492	4525
800.594	5079
800.696	3817
800.798	4193
800.899	3766
801.001	4185
801.103	4219
801.205	4283
801.306	4442
801.408	4062
801.509	4123
801.611	5141
801.713	4232
801.814	3273
801.916	3998
802.017	4034
802.119	3511
802.220	3682
802.322	2868
802.423	6164
802.525	4246
802.626	4530
802.727	3648
802.829	4341
802.930	3175
803.031	4515
803.133	3692
803.234	4243
803.335	3699
803.436	2532
803.538	3690
803.639	3456
803.740	5079
803.841	3778
803.942	4249
804.043	4603
804.144	2888
804.245	4105
804.346	3195
804.447	3659
804.548	4797
804.649	5002
804.750	3853
804.851	3751
804.952	3949
805.053	4008
805.154	2626
805.255	4802
805.355	2970
805.456	4389
805.557	3187
805.658	4191
805.758	3850
805.859	4128
805.960	2958
806.061	3567
806.161	2702
806.262	3919
806.362	3655
806.463	4195
806.564	3715
806.664	4198
806.765	3647
806.865	3426
806.966	3655
807.066	3399
807.166	4122
807.267	4466
807.367	4086
807.468	3404
807.568	2767
807.668	4156
807.769	4374
807.869	4002
807.969	3572
808.069	3836
808.170	3208
808.270	3792
808.370	4153
808.470	4338
808.570	3001
808.670	3952
808.770	2845
808.870	4172
808.970	3709
809.070	3072
809.170	2722
809.271	4171
809.370	3505
809.470	3766
809.570	3998
809.670	3455
809.770	4010
809.870	4317
809.970	3423
810.070	3408
810.169	4327
810.269	2959
810.369	4397
810.469	3961
810.568	3818
810.668	3645
810.768	3352
810.867	4442
810.967	3486
811.066	3704
811.166	3886
811.265	4136
811.365	3757
811.464	3539
811.564	4074
811.663	4285
811.763	2734
811.862	3881
811.962	3961
812.061	3804
812.160	2631
812.260	3971
812.359	4215
812.458	4817
812.557	8676
812.657	12433
812.756	6422
812.855	4477
812.954	3982
813.053	4199
813.153	3906
813.252	3513
813.351	4087
813.450	4067
813.549	4256
813.648	3246
813.747	4789
813.846	3805
813.945	3482
814.044	3326
814.143	3759
814.242	4513
814.341	3491
814.439	3719
814.538	4400
814.637	4263
814.736	4190
814.835	4897
814.933	4656
815.032	4528
815.131	4778
815.229	5436
815.328	6186
815.427	5384
815.525	5661
815.624	5544
815.722	4632
815.821	5232
815.919	5707
816.018	5038
816.116	6549
816.215	5466
816.313	6741
816.412	6486
816.510	6672
816.609	7793
816.707	7702
816.805	7319
816.904	6860
817.002	8248
817.100	9508
817.198	9339
817.296	10528
817.395	12125
817.493	12995
817.591	14737
817.689	19948
817.787	24725
817.885	36907
817.983	63358
818.081	116480
818.179	242739
818.277	499994
818.375	473596
818.473	214884
818.571	95306
818.669	60201
818.767	49789
818.865	47151
818.963	54078
819.061	74184
819.158	112745
819.256	205732
819.354	393768
819.452	654715
819.549	502640
819.647	264973
819.745	133402
819.842	79406
819.940	53367
820.038	39111
820.135	30479
820.233	25468
820.330	19827
820.428	16813
820.525	16317
820.623	13964
820.720	12095
820.818	10994
820.915	10532
821.012	9374
821.110	8984
821.207	9266
821.304	8299
821.402	7467
821.499	7625
821.596	7209
821.693	6887
821.791	6836
821.888	6690
821.985	8293
822.082	6813
822.179	6722
822.276	5620
822.373	4530
822.470	5225
822.567	5827
822.664	5346
822.761	4346
822.858	5015
822.955	4638
823.052	4617
823.149	4838
823.246	4817
823.343	4247
823.440	4854
823.536	4286
823.633	4904
823.730	4447
823.827	4751
823.923	3932
824.020	4644
824.117	4345
824.213	3550
824.310	4231
824.407	4346
824.503	3958
824.600	4476
824.696	3160
824.793	5193
824.889	4180
824.986	3181
825.082	3749
825.179	4578
825.275	3760
825.371	4156
825.468	3715
825.564	3245
825.660	3934
825.757	3976
825.853	3592
825.949	3844
826.045	3059
826.142	2722
826.238	2883
826.334	3441
826.430	2848
826.526	3632
826.622	3275
826.718	4236
826.814	3125
826.910	3642
827.006	2781
827.102	2106
827.198	3423
827.294	3405
827.390	4108
827.486	3738
827.582	2768
827.678	2514
827.774	4349
827.869	2178
827.965	3144
828.061	2611
828.157	2756
828.252	3209
828.348	2868
828.444	4091
828.539	2809
828.635	3608
828.731	3039
828.826	2145
828.922	4166
829.017	2970
829.113	3420
829.208	2300
829.304	2004
829.399	4133
829.495	1921
829.590	3938
829.685	2032
829.781	3299
829.876	2724
829.971	2891
830.066	2337
830.162	2633
830.257	3397
830.352	2132
830.447	4062
830.543	3472
830.638	1345
830.733	3457
830.828	2689
830.923	2719
831.018	3045
831.113	3732
831.208	2302
831.303	2371
831.398	3023
831.493	3402
831.588	2770
831.683	2173
831.778	2540
831.873	2435
831.967	3303
832.062	2608
832.157	2133
832.252	2786
832.346	2749
832.441	3626
832.536	3076
832.631	4768
832.725	5134
832.820	3026
832.914	2476
833.009	3141
833.104	2635
833.198	2838
833.293	2178
833.387	2995
833.482	1910
833.576	2999
833.670	2750
833.765	2765
833.859	2677
833.954	3138
834.048	2431
834.142	2887
834.237	1945
834.331	2158
834.425	2106
834.519	2604
834.613	3377
834.708	2256
834.802	2313
834.896	2357
834.990	2895
835.084	3064
835.178	2608
835.272	2301
835.366	2584
835.460	2945
835.554	2697
835.648	2720
835.742	2472
835.836	2762
835.930	1807
836.024	2633
836.117	2569
836.211	2481
836.305	2700
836.399	3480
836.493	2026
836.586	3110
836.680	1802
836.774	3021
836.867	2516
836.961	1355
837.055	2068
837.148	2660
837.242	2642
837.335	2431
837.429	2373
837.522	3158
837.616	2287
837.709	3429
837.803	2482
837.896	2918
837.989	2216
838.083	3364
838.176	3232
838.269	3415
838.363	2654
838.456	2868
838.549	2366
838.642	3841
838.735	4935
838.829	3798
838.922	2357
839.015	2054
839.108	1264
839.201	3167
839.294	1534
839.387	2980
839.480	2302
839.573	3415
839.666	3045
839.759	3401
839.852	1525
839.945	2692
840.038	2322
840.131	2463
840.223	1729
840.316	2758
840.409	2407
840.502	2271
840.594	3478
840.687	1056
840.780	2730
840.873	1949
840.965	1887
841.058	2558
841.150	3553
841.243	3295
841.336	2059
841.428	2485
841.521	1954
841.613	1004
841.706	2580
841.798	2412
841.890	2509
841.983	1888
842.075	1940
842.167	2267
842.260	1706
842.352	3145
842.444	2903
842.537	3411
842.629	4697
842.721	2642
842.813	2198
842.905	1252
842.997	2728
843.090	2549
843.182	2531
843.274	3675
843.366	5352
843.458	9751
843.550	8188
843.642	2664
843.734	2148
843.826	2789
843.918	3250
844.009	2697
844.101	1997
844.193	2015
844.285	1687
844.377	1872
844.469	2191
844.560	2318
844.652	2333
844.744	2584
844.835	2198
844.927	2102
845.019	1923
845.110	1590
845.202	1738
845.293	1626
845.385	1392
845.476	2253
845.568	2222
845.659	1567
845.751	2582
845.842	2036
845.934	1437
846.025	2672
846.116	2013
846.208	2754
846.299	1837
846.390	2460
846.482	1775
846.573	1896
846.664	2714
846.755	2932
846.846	3005
846.937	2118
847.029	1554
847.120	2409
847.211	1311
847.302	2248
847.393	1783
847.484	3044
847.575	2013
847.666	1868
847.757	1856
847.847	2099
847.938	2721
848.029	1861
848.120	1856
848.211	2674
848.302	1594
848.392	1562
848.483	2058
848.574	688
848.664	1391
848.755	1410
848.846	2004
848.936	1969
849.027	1799
849.118	2041
849.208	1498
849.299	2457
849.389	2573
849.480	2144
849.570	3844
849.661	5416
849.751	8455
849.841	4147
849.932	2138
850.022	1702
850.112	2026
850.203	1634
850.293	2218
850.383	1565
850.474	1005
850.564	2829
850.654	1800
850.744	2451
850.834	1465
850.924	1323
851.014	1394
851.104	2048
851.194	1986
851.284	1653
851.374	2613
851.464	1601
851.554	1482
851.644	2134
851.734	3198
851.824	2158
851.914	1257
852.004	2118
852.094	1748
852.183	1673
852.273	1671
852.363	1312
852.452	1464
852.542	2338
852.632	2500
852.721	1499
852.811	609
852.901	1228
852.990	2282
853.080	1468
853.169	1448
853.259	1700
853.348	2000
853.438	2040
853.527	2076
853.617	2284
853.706	4010
853.795	5593
853.885	10170
853.974	16933
854.063	28931
854.152	51293
854.242	25282
854.331	5659
854.420	1956
854.509	2274
854.598	1985
854.687	1902
854.777	1838
854.866	1497
854.955	2636
855.044	1838
855.133	1903
855.222	2217
855.311	1235
855.400	1711
855.488	1397
855.577	1323
855.666	1289
855.755	1964
855.844	1967
855.933	2016
856.021	1503
856.110	1292
856.199	1510
856.288	1689
856.376	1104
856.465	1839
856.554	1529
856.642	401
856.731	1643
856.819	1717
856.908	491
856.996	1653
857.085	669
857.173	2162
857.262	1114
857.350	2685
857.438	1743
857.527	1873
857.615	1481
857.703	2290
857.792	1237
857.880	1456
857.968	1630
858.056	2196
858.145	1345
858.233	1057
858.321	1407
858.409	2142
858.497	1655
858.585	1616
858.673	1717
858.761	1579
858.849	1509
858.937	1597
859.025	1983
859.113	1998
859.201	1528
859.289	2221
859.377	1674
859.465	1420
859.552	2345
859.640	2030
859.728	1507
859.816	1368
859.903	1633
859.991	902
860.079	2100
860.166	1548
860.254	1704
860.342	1326
860.429	1255
860.517	2448
860.604	2120
860.692	1343
860.779	1032
860.867	1495
860.954	1187
861.042	2020
861.129	1780
861.216	1735
861.304	1159
861.391	1295
861.478	1239
861.565	1947
861.653	1692
861.740	642
861.827	1898
861.914	2396
862.001	1191
862.089	2548
862.176	1613
862.263	1763
862.350	1938
862.437	1813
862.524	931
862.611	627
862.698	1169
862.785	1214
862.871	1875
862.958	1183
863.045	1854
863.132	2127
863.219	914
863.306	886
863.392	1907
863.479	1781
863.566	1438
863.652	1486
863.739	1298
863.826	1549
863.912	810
863.999	1215
864.086	684
864.172	2097
864.259	1013
864.345	1721
864.432	1721
864.518	1516
864.604	1677
864.691	1258
864.777	1499
864.863	2475
864.950	2195
865.036	1615
865.122	2532
865.209	2485
865.295	2305
865.381	2692
865.467	1787
865.553	2894
865.639	2478
865.726	3824
865.812	5613
865.898	10116
865.984	14484
866.070	23160
866.156	29487
866.242	10156
866.328	3157
866.414	2496
866.499	2627
866.585	2738
866.671	1774
866.757	2705
866.843	2546
866.928	2379
867.014	2696
867.100	2573
867.186	1745
867.271	3087
867.357	2697
867.442	2732
867.528	1979
867.614	2290
867.699	1376
867.785	2713
867.870	1977
867.956	1624
868.041	2164
868.127	2297
868.212	2330
868.297	1950
868.383	2196
868.468	2266
868.553	3231
868.639	2845
868.724	5329
868.809	5696
868.894	2296
868.979	1852
869.065	2201
869.150	1420
869.235	1573
869.320	1388
869.405	2211
869.490	1072
869.575	2343
869.660	1563
869.745	1790
869.830	1009
869.915	1482
870.000	1947
870.085	2083
870.169	2473
870.254	1992
870.339	1049
870.424	846
870.509	1714
870.593	1672
870.678	1104
870.763	1142
870.847	1638
870.932	1322
871.016	2351
871.101	1154
871.186	1510
871.270	2130
871.355	1776
871.439	1310
871.523	1833
871.608	1133
871.692	1985
871.777	1080
871.861	1742
871.945	869
872.030	1792
872.114	740
872.198	1187
872.282	714
872.367	1995
872.451	1020
872.535	1345
872.619	1705
872.703	1085
872.787	1539
872.871	1312
872.955	1595
873.039	845
873.123	1688
873.207	2551
873.291	1161
873.375	80
873.459	1112
873.543	1408
873.627	856
873.711	1224
873.794	913
873.878	1701
873.962	523
874.045	1539
874.129	1245
874.137	1194
874.213	675
874.245	836
874.296	1103
874.352	928
874.380	839
874.460	1322
874.464	1343
874.547	1317
874.568	1167
874.631	713
874.676	1088
874.714	1407
874.784	1765
874.798	1832
874.881	1640
874.892	1553
874.965	1043
874.999	1435
875.048	1924
875.107	1630
875.131	1506
875.215	765
875.215	765
875.298	411
875.323	642
875.381	1219
875.430	1061
875.465	901
875.538	1302
875.548	1366
875.631	787
875.646	750
875.714	569
875.753	820
875.798	1138
875.861	1282
875.881	1276
875.964	988
875.968	963
876.047	853
876.076	1124
876.130	1437
876.183	1218
876.213	1202
876.291	1770
876.296	1788
876.379	417
876.398	557
876.462	1161
876.506	1389
876.545	1542
876.613	930
876.628	829
876.711	838
876.721	864
876.794	909
876.828	993
876.877	1228
876.935	1276
876.960	1247
877.043	1618
877.043	1616
877.125	1214
877.150	1346
877.208	1640
877.258	1478
877.291	1458
877.365	1391
877.374	1340
877.456	1176
877.472	1181
877.539	1504
877.579	1428
877.622	1181
877.687	1590
877.704	1726
877.787	667
877.794	720
877.869	1439
877.901	1277
877.952	927
878.008	844
878.034	794
878.115	1166
878.117	1177
878.199	716
878.222	812
878.282	1053
878.329	1192
878.364	1198
878.437	1242
878.447	1250
878.529	868
878.544	864
878.611	945
878.651	1078
878.694	1262
878.758	855
878.776	740
878.858	1418
878.865	1403
878.941	923
878.972	917
879.023	1197
879.078	910
879.105	713
879.185	853
879.187	856
879.269	1265
879.292	1209
879.351	932
879.399	756
879.433	764
879.506	1305
879.516	1331
879.598	897
879.613	859
879.680	1060
879.720	1023
879.762	765
879.827	571
879.844	593
879.926	1231
879.933	1255
880.007	1335
880.040	1008
880.089	619
880.147	966
880.171	1045
880.253	1778
880.254	1780
880.335	2221
880.360	2554
880.417	3104
880.467	3482
880.499	4314
880.574	6590
880.580	6537
880.662	2845
880.680	2336
880.744	1388
880.787	1079
880.825	959
880.893	559
880.907	546
880.989	1416
881.000	1423
881.070	1187
881.106	1089
881.152	939
881.213	931
881.233	935
881.315	780
881.319	783
881.396	1020
881.426	1024
881.478	937
881.532	739
881.559	664
881.639	819
881.641	818
881.722	692
881.745	648
881.803	1272
881.852	1766
881.885	1462
881.958	781
881.966	804
882.047	969
882.064	1032
882.129	1083
882.171	1307
882.210	1739
882.277	2522
882.291	2519
882.372	1108
882.383	1051
882.454	1242
882.489	1154
882.535	745
882.596	862
882.616	1052
882.697	934
882.702	939
882.778	631
882.808	593
882.859	810
882.914	1174
882.940	1238
883.020	1003
883.021	1002
883.102	1046
883.127	1053
883.183	775
883.233	553
883.264	699
883.339	844
883.345	815
883.426	742
883.445	662
883.507	613
883.551	811
883.587	786
883.657	477
883.668	566
883.749	994
883.763	1124
883.830	898
883.869	755
883.910	848
883.975	771
883.991	604
884.072	-94
884.081	-132
884.152	497
884.187	609
884.233	432
884.292	354
884.314	499
884.394	953
884.398	985
884.475	978
884.504	838
884.555	834
884.610	1049
884.636	1042
884.716	890
884.716	893
884.797	1060
884.821	1137
884.877	823
884.927	389
884.958	514
885.033	1253
885.038	1249
885.118	728
885.139	582
885.199	600
885.244	918
885.279	730
885.350	160
885.359	248
885.439	911
885.456	1022
885.520	454
885.561	185
885.600	521
885.667	956
885.680	935
885.760	985
885.773	964
885.840	893
885.878	863
885.920	828
885.984	970
886.000	978
886.080	955
886.089	918
886.160	953
886.195	1005
886.240	942
886.300	1140
886.320	1082
886.400	319
886.406	305
886.480	1330
886.511	1619
886.560	1233
886.616	723
886.640	828
886.720	1374
886.722	1385
886.800	1081
886.827	915
886.879	936
886.932	1079
886.959	1102
887.038	1091
887.039	1091
887.119	916
887.143	867
887.198	697
887.248	604
887.278	776
887.354	1016
887.358	989
887.437	749
887.459	607
887.517	1051
887.564	1427
887.596	921
887.669	-238
887.676	-158
887.755	838
887.774	1086
887.835	958
887.880	950
887.914	965
887.985	750
887.994	666
888.073	174
888.090	37
888.153	849
888.195	1442
888.232	986
888.300	105
888.311	156
888.391	550
888.405	622
888.470	252
888.510	21
888.549	295
888.615	828
888.628	778
888.708	416
888.720	367
888.787	754
888.825	977
888.866	744
888.930	311
888.945	386
889.024	914
889.035	974
889.103	1160
889.140	1279
889.182	1157
889.245	965
889.261	802
889.340	47
889.349	-35
889.419	191
889.454	303
889.498	246
889.559	182
889.577	324
889.656	980
889.664	1048
889.735	1008
889.768	989
889.814	1173
889.873	1418
889.978	670
890.083	572
890.187	732
890.292	941
890.397	692
890.501	759
890.606	211
890.710	1272
890.815	776
890.919	827
891.024	-136
891.128	1497
891.233	547
891.337	419
891.442	464
891.546	459
891.650	-294
891.755	1115
891.859	1770
891.963	1054
892.068	467
892.172	807
892.276	490
892.380	1057
892.484	553
892.589	695
892.693	395
892.797	1005
892.901	-155
893.005	706
893.109	266
893.213	1072
893.317	809
893.421	1127
893.525	-227
893.629	627
893.733	-588
893.837	624
893.941	-520
894.045	1505
894.148	480
894.252	962
894.356	361
894.460	1065
894.564	149
894.667	510
894.771	921
894.875	741
894.978	9
895.082	1172
895.186	739
895.289	985
895.393	322
895.496	247
895.600	-354
895.703	577
895.807	638
895.910	1448
896.014	378
896.117	675
896.221	374
896.324	633
896.427	85
896.531	998
896.634	451
896.737	1209
896.840	326
896.944	707
897.047	307
897.150	772
897.253	340
897.356	1107
897.460	-489
897.563	450
897.666	107
897.769	778
897.872	394
897.975	589
898.078	302
898.181	834
898.284	440
898.387	625
898.490	-327
898.593	771
898.695	121
898.798	58
898.901	89
899.004	846
899.107	191
899.209	698
899.312	-337
899.415	1528
899.518	696
899.620	424
899.723	-104
899.826	202
899.928	1681
900.031	871
900.133	469
900.236	796
900.338	71
900.441	1136
900.543	78
900.646	799
900.748	-174
900.851	347
900.953	-231
901.055	1113
901.158	63
901.260	1273
901.362	718
901.465	199
901.567	192
901.669	671
901.771	-37
901.873	1281
901.976	131
902.078	422
902.180	492
902.282	907
902.384	62
902.486	351
902.588	-311
902.690	1449
902.792	-33
902.894	1142
902.996	987
903.098	1045
903.200	-407
903.302	1007
903.404	-505
903.505	714
903.607	-134
903.709	948
903.811	-212
903.913	53
904.014	-291
904.116	357
904.218	17
904.319	693
904.421	572
904.523	746
904.624	-363
904.726	389
904.827	-135
904.929	889
905.030	-597
905.132	153
905.233	243
905.335	412
905.436	262
905.537	-42
905.639	401
905.740	513
905.841	354
905.943	1301
906.044	-597
906.145	685
906.247	-38
906.348	975
906.449	-307
906.550	-194
906.651	66
906.752	921
906.854	31
906.955	-165
907.056	730
907.157	-46
907.258	611
907.359	516
907.460	129
907.561	1069
907.662	-190
907.762	451
907.863	124
907.964	621
908.065	69
908.166	-16
908.267	507
908.367	465
908.468	298
908.569	194
908.670	43
908.770	1152
908.871	72
908.971	782
909.072	514
909.173	573
909.273	-506
909.374	489
909.474	-105
909.575	438
909.675	-32
909.776	998
909.876	25
909.977	100
910.077	546
910.177	113
910.278	-237
910.378	670
910.478	-667
910.579	504
910.679	87
910.779	711
910.879	-229
910.980	422
911.080	575
911.180	37
911.280	-335
911.380	707
911.480	-415
911.580	737
911.680	135
911.780	474
911.880	324
911.980	511
912.080	-166
912.180	908
912.280	-57
912.380	710
912.480	-252
912.580	814
912.679	-111
912.779	1229
912.879	-66
912.979	984
913.078	-610
913.178	1023
913.278	-197
913.377	486
913.477	-354
913.577	-230
913.676	497
913.776	586
913.875	-101
913.975	-131
914.074	128
914.174	258
914.273	449
914.373	1154
914.472	-755
914.572	826
914.671	117
914.770	-257
914.870	-540
914.969	283
915.068	-5
915.167	715
915.267	-16
915.366	779
915.465	518
915.564	10
915.663	174
915.763	911
915.862	520
915.961	276
916.060	-686
916.159	-432
916.258	-595
916.357	699
916.456	-297
916.555	1460
916.654	-304
916.752	1339
916.851	72
916.950	1178
917.049	165
917.148	638
917.247	769
917.345	565
917.444	102
917.543	348
917.642	-568
917.740	326
917.839	-84
917.937	63
918.036	41
918.135	232
918.233	228
918.332	246
918.430	140
918.529	577
918.627	-276
918.726	1051
918.824	-116
918.923	122
919.021	115
919.119	434
919.218	-377
919.316	560
919.414	-252
919.512	384
919.611	-281
919.709	153
919.807	30
919.905	634
920.003	-825
920.102	625
920.200	-220
920.298	252
920.396	368
920.494	815
920.592	9
920.690	775
920.788	-133
920.886	-23
920.984	530
921.082	818
921.180	1
921.277	342
921.375	74
921.473	1153
921.571	-299
921.669	1167
921.766	466
921.864	917
921.962	139
922.060	335
922.157	141
922.255	199
922.352	381
922.450	705
922.548	-62
922.645	-85
922.743	808
922.840	1549
922.938	67
923.035	1078
923.133	996
923.230	2217
923.327	707
923.425	1888
923.522	795
923.619	1102
923.717	-82
923.814	807
923.911	1208
924.008	1580
924.106	749
924.203	1437
924.300	125
924.397	500
924.494	785
924.591	1418
924.688	326
924.786	1188
924.883	480
924.979	1091
925.077	953
925.173	946
925.270	900
925.367	1068
925.464	258
925.561	1762
925.658	1469
925.755	1575
925.852	1385
925.948	2080
926.045	1355
926.142	1328
926.239	951
926.335	835
926.432	1514
926.529	1637
926.625	587
926.722	1353
926.818	935
926.915	1099
927.011	1257
927.108	1799
927.204	692
927.301	1348
927.397	456
927.494	1001
927.590	673
927.687	1212
927.783	478
927.879	905
927.976	648
928.072	809
928.168	807
928.264	1905
928.361	946
928.457	2312
928.553	515
928.649	784
928.745	-177
928.841	1589
928.937	-353
929.033	1160
929.129	625
929.225	958
929.321	858
929.417	741
929.513	44
929.609	867
929.705	534
929.801	1330
929.897	666
929.993	1308
930.089	611
930.184	1159
930.280	435
930.376	1917
930.471	52
930.567	1579
930.663	337
930.758	1326
930.854	164
930.950	1084
931.045	396
931.141	1169
931.236	1141
931.332	1097
931.427	547
931.523	196
931.618	613
931.714	1311
931.809	650
931.905	1188
932.000	66
932.095	1048
932.191	1204
932.286	1583
932.381	804
932.476	820
932.572	-228
932.667	560
932.762	519
932.857	1590
932.952	812
933.047	963
933.142	41
933.237	433
933.332	684
933.427	1503
933.522	919
933.617	357
933.712	637
933.807	1064
933.902	385
933.997	715
934.092	-516
934.187	248
934.282	405
934.376	837
934.471	773
934.566	560
934.661	556
934.755	174
934.850	106
934.945	838
935.039	723
935.134	980
935.228	282
935.323	817
935.417	-38
935.512	1054
935.606	843
935.701	961
935.795	799
935.890	943
935.984	-297
936.079	342
936.173	663
936.267	1571
936.362	629
936.456	1021
936.550	348
936.644	1171
936.738	8
936.833	-301
936.927	227
937.021	486
937.115	702
937.209	720
937.303	1365
937.397	214
937.491	599
937.585	972
937.679	1025
937.773	-453
937.867	352
937.961	454
938.055	-63
938.149	1079
938.243	525
938.337	696
938.430	-230
938.524	698
938.618	-214
938.712	1388
938.805	-104
938.899	757
938.993	745
939.086	664
939.180	536
939.274	499
939.367	640
939.461	796
939.554	446
939.648	521
939.741	-136
939.835	980
939.928	251
940.022	1273
940.115	231
940.208	453
940.302	-336
940.395	775
940.488	-608
940.582	1141
940.675	89
940.768	780
940.861	635
940.954	937
941.048	98
941.141	388
941.234	270
941.327	864
941.420	571
941.513	1532
941.606	28
941.699	1695
941.792	367
941.885	1444
941.978	-107
942.071	1393
942.164	-250
942.257	1020
942.349	236
942.442	440
942.535	-148
942.628	861
942.721	-9
942.813	364
942.906	555
942.999	96
943.091	15
943.184	379
943.277	-536
943.369	646
943.462	376
943.554	804
943.647	-345
943.739	258
943.832	332
943.924	-142
944.017	429
944.109	1102
944.201	-101
944.294	757
944.386	-160
944.478	452
944.571	513
944.663	673
944.755	-334
944.847	568
944.940	781
945.032	265
945.124	362
945.216	482
945.308	-169
945.400	1029
945.492	252
945.584	-38
945.676	418
945.768	346
945.860	539
945.952	473
946.044	426
946.136	614
946.228	-262
946.320	-8
946.412	261
946.503	491
946.595	1185
946.687	-5
946.779	-725
946.870	583
946.962	225
947.054	527
947.145	359
947.237	541
947.329	253
947.420	299
947.512	-549
947.603	999
947.695	382
947.786	296
947.878	-82
947.969	685
948.061	-427
948.152	395
948.243	-362
948.335	52
948.426	-154
948.517	987
948.609	-500
948.700	824
948.791	657
948.882	552
948.973	63
949.065	-472
949.156	-273
949.247	186
949.338	35
949.429	124
949.520	-645
949.611	376
949.702	304
949.793	445
949.884	-310
949.975	685
950.066	160
950.157	755
950.247	-130
950.338	113
950.429	-416
950.520	455
950.611	527
950.701	774
950.792	673
950.883	640
950.973	178
951.064	1125
951.155	-220
951.245	403
951.336	88
951.427	-131
951.517	254
951.608	1171
951.698	-223
951.788	682
951.879	-387
951.969	645
952.060	-176
952.150	469
952.240	608
952.331	-549
952.421	468
952.511	263
952.602	-517
952.692	872
952.782	107
952.872	-359
952.962	-349
953.052	-76
953.143	-627
953.233	515
953.323	362
953.413	889
953.503	186
953.593	-131
953.683	63
953.773	-460
953.863	-559
953.953	74
954.042	437
954.132	846
954.222	516
954.312	361
954.402	-218
954.492	221
954.581	303
954.671	1460
954.761	-373
954.850	1242
954.940	-8
955.030	-269
955.119	-697
955.209	-44
955.298	-117
955.388	228
955.477	1224
955.567	321
955.656	425
955.746	994
955.835	-705
955.925	165
956.014	-52
956.103	-87
956.193	-445
956.282	510
956.371	-45
956.461	185
956.550	-673
956.639	14
956.728	-745
956.817	1063
956.906	-505
956.995	864
957.085	-370
957.174	264
957.263	-71
957.352	437
957.441	-433
957.530	222
957.619	-338
957.708	124
957.796	-115
957.885	22
957.974	487
958.063	656
958.152	-169
958.241	640
958.329	-811
958.418	-328
958.507	-252
958.596	705
958.684	-471
958.773	470
958.861	-438
958.950	111
959.039	-868
959.127	-47
959.216	-726
959.304	-403
959.393	-512
959.481	599
959.570	-516
959.658	145
959.746	-514
959.835	228
959.923	344
960.011	1267
960.100	48
960.188	-239
960.276	-562
960.365	283
960.453	-1235
960.541	2
960.629	-782
960.717	-174
960.805	-1150
960.893	342
960.981	511
961.069	281
961.158	-734
961.245	611
961.333	-526
961.421	309
961.509	-232
961.597	-355
961.685	-1304
961.773	-438
961.861	-642
961.949	-21
962.036	-701
962.124	335
962.212	-1020
962.299	-105
962.387	-1479
962.475	-542
962.562	-1176
962.650	-277
962.738	-177
962.825	-632
962.913	-962
963.000	-369
963.088	-777
963.175	240
963.263	-338
963.350	-845
963.438	-680
963.525	-265
963.612	360
963.700	2086
963.787	6362
963.874	3745
963.962	98
964.049	255
964.136	-556
964.223	-668
964.310	-863
964.398	378
964.485	-418
964.572	-150
964.659	564
964.746	852
964.833	-274
964.920	-384
965.007	-218
965.094	216
965.181	-838
965.268	-130
965.355	-89
965.441	211
965.528	-478
965.615	354
965.702	50
965.789	-853
965.875	559
965.962	-145
966.049	-1482
966.136	1274
966.222	-1125
966.309	-68
966.395	-417
966.482	315
966.569	-627
966.655	-160
966.742	-871
966.828	470
966.915	-653
967.001	586
967.087	-519
967.174	-294
967.260	-366
967.347	305
967.433	755
967.519	3575
967.605	1242
967.692	-379
967.778	-444
967.864	15
967.950	-802
968.036	-603
968.123	-801
968.209	558
968.295	-1412
968.381	588
968.467	-882
968.553	-915
968.639	-189
968.725	31
968.811	722
968.897	653
968.983	-1022
969.069	-591
969.154	-681
969.240	266
969.326	-1642
969.412	-509
969.497	-792
969.583	-406
969.669	-480
969.755	-431
969.840	-428
969.926	547
970.012	-1213
970.097	-176
970.183	-768
970.268	281
970.354	-397
970.439	87
970.525	2014
970.610	287
970.696	-588
970.781	80
970.866	-656
970.952	-303
971.037	-1283
971.122	-580
971.208	-592
971.293	216
971.378	-1181
971.463	-234
971.549	-502
971.634	-965
971.719	145
971.804	-683
971.889	-145
971.974	-466
972.059	-1006
972.144	-608
972.229	-312
972.314	207
972.399	-522
972.484	130
972.569	-934
972.654	-156
972.739	732
972.824	615
972.908	-1008
972.993	-286
973.078	-628
973.163	-95
973.247	-626
973.332	-504
973.417	-87
973.501	-196
973.586	-1310
973.671	-811
973.755	-1153
973.840	169
973.924	208
974.009	-921
974.093	-533
974.178	515
974.262	-471
974.346	1208
974.431	-330
974.515	-436
974.600	-1063
974.684	-191
974.768	-1791
974.852	-8
974.937	-1918
975.021	-65
975.105	-749
975.189	-184
975.273	-323
975.358	-1536
975.442	-1611
975.526	132
975.610	-1286
975.694	-1215
975.778	-1032
975.862	-432
975.946	-1187
976.030	-151
976.114	-1379
976.198	-529
976.281	-778
976.365	337
976.449	-906
976.533	-607
976.617	-1264
976.700	-289
976.784	-952
976.868	84
976.951	-124
977.035	-560
977.119	-617
977.202	-529
977.286	-636
977.369	-135
977.453	-861
977.536	-454
977.620	-849
977.703	-546
977.787	-1855
977.870	399
977.953	-600
978.037	-1358
978.120	-202
978.203	-114
978.287	-28
978.370	-133
978.453	-1292
978.536	-891
978.620	226
978.703	344
978.786	-678
978.869	-878
978.952	-1596
979.035	351
979.118	-1153
979.201	-906
979.284	-1135
979.367	-258
979.450	-1119
979.533	-629
979.616	-616
979.699	-356
979.782	-813
979.865	-909
979.948	-1238
980.030	-1170
980.113	-983
980.196	-1073
980.279	-703
980.361	-767
980.444	-1066
980.526	286
980.609	-166
980.692	-646
980.774	-739
980.857	-1277
980.939	-586
981.022	-236
981.104	-1275
981.187	-513
981.269	-890
981.352	-1050
981.434	-1185
981.516	-541
981.599	51
981.681	-1081
981.763	-1135
981.846	-871
981.928	-1169
982.010	-791
982.092	-1566
982.174	-114
982.256	-868
982.339	-131
982.421	-1568
982.503	-6
982.585	-1222
982.667	-709
982.749	-897
982.831	-343
982.913	-1907
982.995	-585
983.077	-1019
983.158	-239
983.240	-1669
983.322	-35
983.404	-462
983.486	-672
983.568	-763
983.649	-1248
983.731	-427
983.813	-596
983.894	-802
983.976	-1161
984.058	-1340
984.139	-195
984.221	-1333
984.302	-738
984.384	-1216
984.465	-815
984.547	-736
984.628	-725
984.710	-969
984.791	-894
984.872	-1301
984.954	-780
985.035	-1105
985.116	-606
985.198	-1550
985.279	-249
985.360	-2059
985.441	-1400
985.522	-478
985.604	-643
985.685	-2899
985.766	-312
985.847	-781
985.928	-1149
986.009	-1261
986.090	-408
986.171	-898
986.252	-712
986.333	-1239
986.414	-769
986.495	-669
986.576	-726
986.656	-727
986.737	-37
986.818	-1348
986.899	-1229
986.980	-1041
987.060	-474
987.141	-1768
987.222	-996
987.302	-1072
987.383	-850
987.464	-1752
987.544	-354
987.625	-1495
987.705	10
987.786	-750
987.866	477
987.947	-1144
988.027	-1137
988.108	-1522
988.188	-473
988.268	-1126
988.349	-141
988.429	-1383
988.509	-418
988.589	-1387
988.670	-1108
988.750	-863
988.830	-884
988.910	-926
988.990	-791
989.070	-1179
989.151	-608
989.231	-1749
989.311	380
989.391	-204
989.471	-926
989.551	-1167
989.631	-1068
989.711	-757
989.791	-1441
989.870	-1344
989.950	-169
990.030	-2254
990.110	-1043
990.190	-927
990.269	-94
990.349	-1429
990.429	-453
990.509	-750
990.588	-1439
990.668	-741
990.747	-46
990.827	-1332
990.907	-328
990.986	-1501
991.066	-409
991.145	-813
991.225	-411
991.304	-1426
991.383	-582
991.463	-1186
991.542	-130
991.622	-1153
991.701	-900
991.780	-1144
991.859	-1009
991.939	-575
992.018	-366
992.097	-425
992.176	-658
992.256	-1797
992.335	-1064
992.414	-717
992.493	-1020
992.572	-1444
992.651	-159
992.730	-1044
992.809	-853
992.888	-1968
992.967	-472
993.046	-1354
993.125	-931
993.203	-1334
993.282	-582
993.361	-990
993.440	-202
993.519	-1643
993.597	-916
993.676	-1574
993.755	-486
993.834	-577
993.912	-1253
993.991	-780
994.069	-201
994.148	-492
994.226	-1215
994.305	-1137
994.384	-1106
994.462	255
994.540	-1917
994.619	-1192
994.697	-372
994.776	-1660
994.854	37
994.932	-2041
995.011	-868
995.089	-1470
995.167	-1004
995.245	-764
995.324	-1230
995.402	-719
995.480	-773
995.558	-1534
995.636	-1769
995.714	-2117
995.792	484
995.870	-662
995.948	9
996.026	-987
996.104	-954
996.182	-975
996.260	-570
996.338	-843
996.416	-1495
996.494	-1056
996.572	-313
996.649	-1784
996.727	-1534
996.805	-640
996.883	-1129
996.960	-2035
997.038	44
997.116	-892
997.193	-1665
997.271	-1053
997.348	-912
997.426	-1055
997.504	-1096
997.581	-1456
997.658	-562
997.736	-1004
997.813	-1598
997.891	-631
997.968	-1157
998.046	-1030
998.123	-1692
998.200	-1109
998.277	-1444
998.355	-840
998.432	-862
998.509	-1412
998.586	99
998.663	-938
998.741	248
998.818	-2152
998.895	-1060
998.972	-850
999.049	-600
999.126	-1709
999.203	-169
999.280	-1285
999.357	-1227
999.434	-1265
999.511	-474
999.587	-978
999.664	-665
999.741	-1243
999.818	-761
999.895	-1113
999.971	-652
1000.048	-1397
1000.125	-217
1000.202	-1937
1000.278	-415
1000.355	-887
1000.431	-862
1000.508	-1708
1000.584	-376
1000.661	-1299
1000.738	-956
1000.814	-1568
1000.890	-953
1000.967	-1592
1001.043	-24
1001.120	-2263
1001.196	-167
1001.272	-1816
1001.349	-1270
1001.425	-556
1001.501	-31
1001.577	-1527
1001.654	-821
1001.730	-1743
1001.806	-460
1001.882	-1672
1001.958	-498
1002.034	-1005
1002.110	-137
1002.186	-1446
1002.262	-319
1002.338	-2258
1002.414	-540
1002.490	-929
1002.566	-1600
1002.642	-1821
1002.718	-140
1002.794	-1149
1002.870	-983
1002.945	-1977
1003.021	-715
1003.097	-1932
1003.173	-557
1003.248	-2072
1003.324	-1063
1003.400	-1335
1003.475	-1709
1003.551	-1576
1003.626	-745
1003.702	-1594
1003.777	241
1003.853	-1529
1003.928	-1388
1004.004	-1352
1004.079	-276
1004.155	-1421
1004.230	-1374
1004.305	-584
1004.381	-1327
1004.456	-1406
1004.531	-608
1004.607	-1200
1004.682	-596
1004.757	-1074
1004.832	-826
1004.907	-1740
1004.982	-637
1005.057	-1325
1005.133	-193
1005.208	-1908
1005.283	-436
1005.358	-1980
1005.433	-743
1005.508	-1511
1005.583	-1412
1005.657	-954
1005.732	-855
1005.807	-2752
1005.882	-1232
1005.957	-1271
1006.032	-1062
1006.106	-1469
1006.181	-352
1006.256	-1688
1006.331	-1402
1006.405	-1809
1006.480	-776
1006.554	-1287
1006.629	-505
1006.704	-1294
1006.778	-1833
1006.853	-868
1006.927	-1505
1007.002	-2278
1007.076	-871
1007.150	-1762
1007.225	-242
1007.299	-1326
1007.373	-1408
1007.448	-921
1007.522	-980
1007.596	-1427
1007.671	-828
1007.745	-1240
1007.819	-1575
1007.893	-669
1007.967	-985
1008.041	-3062
1008.115	-1840
1008.190	-2510
1008.264	-1026
1008.338	-2015
1008.412	-1120
1008.486	-1660
1008.560	-1027
1008.633	-1920
1008.707	-1753
1008.781	-1208
1008.855	-1264
1008.929	-1364
1009.003	-1226
1009.076	-1838
1009.150	-1148
1009.224	-1270
1009.298	-1337
1009.371	-2663
1009.445	-1076
1009.519	-1716
1009.592	-1273
1009.666	-1638
1009.739	-951
1009.813	-2004
1009.886	-236
1009.960	-2736
1010.033	-634
1010.107	-1435
1010.180	-440
1010.253	-1585
1010.327	-1577
1010.400	-2358
1010.473	-1034
1010.547	-1216
1010.620	-634
1010.693	-2281
1010.766	-740
1010.840	-2161
1010.913	-1947
1010.986	-1836
1011.059	-544
1011.132	-1570
1011.205	-1210
1011.278	-1881
1011.351	-939
1011.424	-1604
1011.497	-1666
1011.570	-1844
1011.643	-778
1011.716	-2172
1011.789	-1342
1011.862	-1366
1011.934	-1144
1012.007	-2617
1012.080	-547
1012.153	-1900
1012.225	-144
1012.298	-2270
1012.371	-2414
1012.443	-1446
1012.516	-1148
1012.588	-1323
1012.661	-1041
1012.733	-1712
1012.806	-1188
1012.879	-1674
1012.951	-1447
1013.023	-1987
1013.096	-351
1013.168	-1982
1013.241	-592
1013.313	-2323
1013.385	-1342
1013.458	-2709
1013.530	-448
1013.602	-2302
1013.674	-899
1013.746	-2693
1013.819	-1137
1013.891	-2010
1013.963	-1554
1014.035	-1971
1014.107	-1306
1014.179	-2166
1014.251	-1197
1014.323	-2229
1014.395	-1145
1014.467	-1432
1014.539	-1331
1014.611	-2846
1014.683	-1229
1014.754	-2444
1014.826	-2125
1014.898	-2129
1014.970	-1878
1015.042	-1746
1015.113	-1327
1015.185	-2025
1015.257	-1558
1015.328	-2338
1015.400	-1891
1015.471	-1682
1015.543	-1935
1015.615	-2243
1015.686	-2330
1015.757	-2547
1015.829	-1058
1015.901	-1968
1015.972	-729
1016.043	-2262
1016.115	-1432
1016.186	-1996
1016.257	-2109
1016.328	-2094
1016.400	-1859
1016.471	-2691
1016.542	-1328
1016.613	-1538
1016.685	-1320
1016.756	-1812
1016.827	-1690
1016.898	-2364
1016.969	-1478
1017.040	-2183
1017.111	-1259
1017.182	-1567
1017.253	-2306
1017.324	-2361
1017.395	-1603
1017.466	-1773
1017.537	-1208
1017.608	-1855
1017.678	-2160
1017.749	-2082
1017.820	-1727
1017.891	-2359
1017.961	-1935
1018.032	-1863
1018.103	-1716
1018.173	-1262
1018.244	-2061
1018.315	-2551
1018.385	-1312
1018.456	-2353
1018.526	-1932
1018.597	-2398
1018.667	-1569
1018.738	-2608
1018.808	-1837
1018.878	-2609
1018.949	-1676
1019.019	-2190
1019.089	-1771
1019.160	-2283
1019.230	-2359
1019.300	-1717
1019.371	-2064
1019.441	-1844
1019.511	-1437
1019.581	-3265
1019.651	-1801
1019.721	-1836
1019.791	-540
1019.861	-2488
1019.931	-1892
1020.001	-3209
1020.071	-903
1020.141	-2551
1020.211	-2592
1020.281	-3043
1020.351	-2435
1020.421	-2169
1020.491	-610
1020.560	-2896
1020.630	-1550
1020.700	-2316
1020.770	-2573
1020.839	-2223
1020.909	-1781
1020.979	-2596
1021.048	-1860
1021.118	-2072
1021.187	-1749
1021.257	-2584
1021.326	-1763
1021.396	-2160
1021.465	-2164
1021.535	-2030
1021.604	-2963
1021.674	-1706
1021.743	-1931
1021.812	-1621
1021.882	-1868
1021.951	-2612
1022.020	-1679
1022.089	-2828
1022.159	-2085
1022.228	-2263
1022.297	-2211
1022.366	-2520
1022.435	-2695
1022.504	-2410
1022.573	-2537
1022.642	-2148
1022.711	-2095
1022.781	-2247
1022.849	-1841
1022.918	-2714
1022.987	-1520
1023.056	-2890
1023.125	-2009
1023.194	-2369
1023.263	-1471
1023.331	-2121
1023.400	-2306
1023.469	-2400
1023.538	-1838
1023.606	-3515
1023.675	-2049
1023.744	-2631
1023.812	-2107
1023.881	-2078
1023.949	-2292
1024.018	-2160
1024.086	-2043
1024.155	-2520
1024.223	-2393
1024.292	-1637
1024.360	-1671
1024.429	-1836
1024.497	-2205
1024.565	-1984
1024.634	-1741
1024.702	-3028
1024.770	-2235
1024.838	-2631
1024.907	-1369
1024.975	-3174
1025.043	-1309
1025.111	-2778
1025.179	-2395
1025.247	-3140
1025.315	-2446
1025.383	-2920
1025.451	-1259
1025.519	-2122
1025.587	-2573
1025.655	-2077
1025.723	-2151
1025.791	-2373
1025.859	-1989
1025.927	-2366
1025.995	-1592
1026.062	-2838
1026.130	-2211
1026.198	-2752
1026.266	-2297
1026.333	-1521
1026.401	-1043
1026.469	-2690
1026.536	-1456
1026.604	-3098
1026.671	-1765
1026.739	-2480
1026.806	-2750
1026.874	-2048
1026.941	-2317
1027.009	-1517
1027.076	-1973
1027.144	-2551
1027.211	-2715
1027.278	-2513
1027.345	-1856
1027.413	-2596
1027.480	-1585
1027.547	-2380
1027.614	-1669
1027.682	-1887
1027.749	-1811
1027.816	-2461
1027.883	-1625
1027.950	-1744
1028.017	-2461
1028.084	-1752
1028.151	-3059
1028.218	-2295
1028.285	-1280
1028.352	-3026
1028.419	-2145
1028.486	-2290
1028.553	-2719
1028.619	-2469
1028.686	-1906
1028.753	-2963
1028.820	-2233
1028.886	-2420
1028.953	-2434
1029.020	-2203
1029.086	-2295
1029.153	-2639
1029.220	-1779
1029.286	-2683
1029.353	-1482
1029.419	-3190
1029.486	-2382
1029.552	-2740
1029.619	-1697
1029.685	-2451
1029.751	-2454
1029.818	-1772
1029.884	-1748
1029.951	-1699
1030.017	-2235
1030.083	-2469
1030.149	-1524
1030.216	-2461
1030.282	-2190
1030.348	-2689
1030.414	-2113
1030.480	-2309
1030.546	-2275
1030.612	-2076
1030.678	-1850
1030.744	-2497
1030.810	-2105
1030.876	-3120
1030.942	-1905
1031.008	-2001
1031.074	-2275
1031.140	-2570
1031.206	-2180
1031.272	-2454
1031.337	-1941
1031.403	-1864
1031.469	-1831
1031.534	-2788
1031.600	-1173
1031.666	-2855
1031.731	-1935
1031.797	-2452
1031.863	-1562
1031.928	-2032
1031.994	-1824
1032.059	-2494
1032.125	-1559
1032.190	-2075
1032.256	-2539
1032.321	-2875
1032.386	-1958
1032.452	-1631
1032.517	-1541
1032.582	-2618
1032.647	-923
1032.713	-2824
1032.778	-1119
1032.843	-2435
1032.908	-2441
1032.974	-2188
1033.039	-2099
1033.104	-2799
1033.169	-1493
1033.234	-2542
1033.299	-989
1033.364	-2652
1033.429	-1864
1033.494	-3149
1033.559	-2957
1033.624	-1952
1033.688	-1083
1033.753	-2897
1033.818	-1929
1033.883	-2745
1033.948	-1232
1034.013	-2793
1034.077	-1376
1034.142	-2140
1034.207	-1057
1034.271	-1659
1034.336	-1147
1034.400	-2002
1034.465	-1438
1034.530	-2227
1034.594	-1655
1034.658	-2312
1034.723	-1988
1034.787	-2536
1034.852	-1902
1034.916	-2111
1034.981	-2321
1035.045	-2167
1035.109	-2360
1035.173	-2365
1035.238	-2357
1035.302	-2131
1035.366	-2129
1035.430	-2543
1035.495	-2413
1035.559	-1729
1035.623	-1938
1035.687	-2676
1035.751	-1765
1035.815	-1886
1035.879	-2267
1035.943	-2437
1036.007	-1845
1036.071	-2831
1036.135	-1519
1036.198	-2214
1036.262	-1988
1036.326	-1620
1036.390	-1485
1036.454	-2124
1036.517	-1731
1036.581	-2135
1036.645	-836
1036.709	-2018
1036.772	-2070
1036.836	-2325
1036.900	-1548
1036.963	-3085
1037.026	-2203
1037.090	-2018
1037.154	-1564
1037.217	-2795
1037.280	-1823
1037.344	-2565
1037.407	-2109
1037.471	-2553
1037.534	-1580
1037.597	-2586
1037.661	-2289
1037.724	-2678
1037.787	-1765
1037.850	-2125
1037.913	-1899
1037.977	-1695
1038.040	-2618
1038.103	-2300
1038.166	-2671
1038.229	-1656
1038.292	-2052
1038.355	-1900
1038.418	-1498
1038.481	-2087
1038.544	-1765
1038.607	-2841
1038.670	-2441
1038.732	-2838
1038.795	-2332
1038.858	-1983
1038.921	-1589
1038.984	-2090
1039.046	-2206
1039.109	-2543
1039.172	-1175
1039.234	-1755
1039.297	-2151
1039.360	-2225
1039.422	-1347
1039.485	-1308
1039.547	-2504
1039.610	-2531
1039.672	-1568
1039.734	-2400
1039.797	-2576
1039.859	-2654
1039.922	-2235
1039.984	-2956
1040.046	-1254
1040.109	-2006
1040.171	-2121
1040.233	-1641
1040.295	-1513
1040.358	-2749
1040.420	-1883
1040.482	-1861
1040.544	-1889
1040.606	-1450
1040.668	-1590
1040.730	-2807
1040.792	-556
1040.854	-1730
1040.916	-1069
1040.978	-2733
1041.040	-952
1041.102	-2439
1041.164	-1875
1041.225	-2011
1041.287	-2219
1041.349	-2229
1041.411	-1418
1041.472	-1742
1041.534	-1619
1041.596	-2278
1041.657	-1341
1041.719	-2315
1041.781	-2498
1041.842	-2019
1041.904	-2312
1041.965	-2414
1042.027	-2205
1042.088	-1833
1042.150	-2812
1042.211	-2583
1042.272	-2070
1042.334	-2712
1042.395	-1268
1042.456	-2475
1042.518	-1290
1042.579	-2354
1042.640	-2012
1042.701	-2287
1042.763	-2025
1042.824	-2584
1042.885	-1936
1042.946	-1973
1043.007	-2263
1043.068	-2835
1043.129	-2042
1043.190	-2823
1043.251	-449
1043.312	-2505
1043.373	-1770
1043.434	-2004
1043.495	-1992
1043.556	-1725
1043.616	-2275
1043.677	-2063
1043.738	-1125
1043.799	-1996
1043.859	-1330
1043.920	-3049
1043.981	-1485
1044.041	-2586
1044.102	-1697
1044.162	-2017
1044.223	-1475
1044.284	-2301
1044.344	-1593
1044.405	-1722
1044.465	-1375
1044.525	-2509
1044.586	-1356
1044.646	-1948
1044.707	-2101
1044.767	-2010
1044.827	-2071
1044.887	-2712
1044.948	-843
1045.008	-2532
1045.068	-1034
1045.128	-1414
1045.188	-1175
1045.249	-1945
1045.309	-1243
1045.369	-1583
1045.429	-1492
1045.489	-1635
1045.549	-1395
1045.609	-1487
1045.669	-1744
1045.729	-1924
1045.789	-1622
1045.848	-2561
1045.908	-2032
1045.968	-2310
1046.028	-1840
1046.088	-1487
1046.147	-939
1046.207	-1906
1046.267	-1047
1046.326	-1704
1046.386	-1316
1046.446	-1590
1046.505	-1001
1046.565	-2676
1046.624	-479
1046.684	-1297
1046.743	-1143
1046.803	-1077
1046.862	386
1046.922	0
