'Start Wavelength	183.907
'End Wavelength	1046.922
'Gate Delay	5.000
'Gate Width (ms)	1.050
'Laser Output Level	0.000
'X Position	0.000
'Y Position	0.000
'Z Position	0.000
'Grid Point Number	1.000
'Shot Number	100.000
183.907	525.000
183.977	-14.000
184.047	-109
184.116	391
184.186	281
184.256	-480
184.325	-296
184.395	-399
184.465	248
184.534	-607
184.604	-286
184.674	-612
184.743	-456
184.813	195
184.883	59
184.952	-414
185.022	806
185.092	388
185.161	-488
185.231	-356
185.301	25
185.370	-119
185.440	231
185.509	-703
185.579	16
185.649	-158
185.718	27
185.788	-19
185.857	-127
185.927	-538
185.996	-58
186.066	-921
186.136	-111
186.205	-730
186.275	-213
186.344	-53
186.414	43
186.483	-866
186.553	265
186.622	209
186.692	-92
186.761	-470
186.831	-165
186.900	-761
186.970	449
187.039	-304
187.109	507
187.178	39
187.248	482
187.317	89
187.387	-565
187.456	-75
187.526	-75
187.595	296
187.664	-377
187.734	420
187.803	108
187.873	-778
187.942	-5
188.012	307
188.081	48
188.150	150
188.220	460
188.289	195
188.358	542
188.428	93
188.497	111
188.567	111
188.636	356
188.705	-428
188.775	228
188.844	-908
188.913	450
188.983	-281
189.052	-306
189.121	-535
189.191	156
189.260	-111
189.329	748
189.399	-441
189.468	259
189.537	-523
189.606	50
189.676	487
189.745	-145
189.814	-77
189.883	-242
189.953	-939
190.022	-158
190.091	1253
190.161	2365
190.230	731
190.299	-465
190.368	-412
190.437	-196
190.507	-235
190.576	612
190.645	85
190.714	-333
190.783	765
190.853	57
190.922	363
190.991	-352
191.060	277
191.129	131
191.198	432
191.268	400
191.337	373
191.406	1
191.475	-224
191.544	529
191.613	-861
191.682	-174
191.752	-149
191.821	-276
191.890	343
191.959	725
192.028	384
192.097	198
192.166	367
192.235	-780
192.304	-133
192.373	226
192.442	-950
192.511	-19
192.580	-156
192.650	250
192.719	190
192.788	95
192.857	-110
192.926	127
192.995	162
193.064	470
193.133	714
193.202	1074
193.271	444
193.340	661
193.409	247
193.478	640
193.547	520
193.615	1479
193.684	1096
193.753	870
193.822	1669
193.891	15
193.960	-488
194.029	-466
194.098	58
194.167	6
194.236	-5
194.305	411
194.374	-426
194.443	255
194.512	-443
194.580	310
194.649	-121
194.718	602
194.787	-192
194.856	457
194.925	317
194.994	650
195.062	427
195.131	306
195.200	36
195.269	1482
195.338	-208
195.407	909
195.475	-298
195.544	539
195.613	383
195.682	794
195.751	723
195.819	305
195.888	26
195.957	1032
196.026	580
196.094	210
196.163	122
196.232	279
196.301	282
196.369	344
196.438	343
196.507	802
196.576	-384
196.644	443
196.713	486
196.782	211
196.850	394
196.919	31
196.988	106
197.056	-117
197.125	292
197.194	550
197.262	-294
197.331	220
197.400	-140
197.468	-37
197.537	193
197.606	354
197.674	1284
197.743	2807
197.812	560
197.880	1584
197.949	506
198.017	2170
198.086	950
198.155	798
198.223	184
198.292	2277
198.360	275
198.429	175
198.497	227
198.566	1555
198.635	2339
198.703	834
198.772	823
198.840	2350
198.909	1960
198.977	591
199.046	767
199.114	1406
199.183	481
199.251	-348
199.320	-172
199.388	-620
199.457	75
199.525	224
199.594	134
199.662	-302
199.731	740
199.799	493
199.867	-745
199.936	227
200.004	956
200.073	324
200.141	412
200.210	-121
200.278	116
200.346	95
200.415	798
200.483	444
200.552	901
200.620	-470
200.688	-202
200.757	339
200.825	-62
200.893	-173
200.962	425
201.030	616
201.098	-272
201.167	285
201.235	224
201.303	419
201.372	987
201.440	415
201.508	1181
201.577	83
201.645	35
201.713	891
201.781	-190
201.850	135
201.918	673
201.986	10
202.055	692
202.123	-618
202.191	280
202.259	766
202.327	188
202.396	41
202.464	202
202.532	-382
202.600	2313
202.669	1422
202.737	442
202.805	-199
202.873	602
202.941	325
203.009	132
203.078	300
203.146	160
203.214	516
203.282	291
203.350	1184
203.418	-168
203.487	262
203.555	125
203.623	595
203.691	280
203.759	670
203.827	-154
203.895	863
203.963	136
204.031	854
204.099	222
204.168	438
204.236	656
204.304	614
204.372	410
204.440	435
204.508	-17
204.576	-208
204.644	371
204.712	544
204.780	-323
204.848	28
204.916	48
204.984	531
205.052	535
205.120	869
205.188	-156
205.256	203
205.324	357
205.392	719
205.460	262
205.528	582
205.596	75
205.664	578
205.732	698
205.799	3466
205.867	3652
205.935	415
206.003	1043
206.071	710
206.139	426
206.207	17
206.275	157
206.343	139
206.411	422
206.478	1032
206.546	1133
206.614	335
206.682	1
206.750	150
206.818	362
206.885	525
206.953	-175
207.021	1051
207.089	846
207.157	-6
207.225	474
207.292	331
207.360	584
207.428	-143
207.496	427
207.563	-316
207.631	-83
207.699	948
207.767	85
207.834	667
207.902	593
207.970	679
208.038	328
208.105	453
208.173	531
208.241	951
208.309	477
208.376	918
208.444	1671
208.512	887
208.579	111
208.647	1295
208.715	801
208.782	631
208.850	1174
208.918	503
208.985	226
209.053	418
209.120	632
209.188	279
209.256	597
209.323	196
209.391	1165
209.459	1188
209.526	171
209.594	470
209.661	260
209.729	787
209.796	-8
209.864	451
209.932	-416
209.999	1354
210.067	1127
210.134	678
210.202	366
210.269	788
210.337	801
210.404	1134
210.472	265
210.539	716
210.607	811
210.674	1659
210.742	929
210.809	540
210.877	586
210.944	1529
211.012	-31
211.079	1501
211.146	254
211.214	874
211.281	1160
211.349	939
211.416	785
211.484	950
211.551	646
211.618	1444
211.686	-360
211.753	1065
211.821	881
211.888	830
211.955	587
212.023	927
212.090	1401
212.157	-90
212.225	711
212.292	1825
212.359	4559
212.427	13324
212.494	5097
212.561	1911
212.629	905
212.696	1305
212.763	1461
212.831	1181
212.898	629
212.965	780
213.032	841
213.100	763
213.167	1484
213.234	949
213.301	907
213.369	1602
213.436	740
213.503	1598
213.570	1155
213.638	1187
213.705	-124
213.772	450
213.839	669
213.906	1929
213.973	1994
214.041	380
214.108	495
214.175	950
214.242	570
214.309	1414
214.376	562
214.444	457
214.511	1552
214.578	1384
214.645	1476
214.712	1234
214.779	1228
214.846	970
214.913	1005
214.980	1573
215.048	2549
215.115	2089
215.182	1478
215.249	1487
215.316	444
215.383	925
215.450	996
215.517	1333
215.584	492
215.651	32
215.718	-72
215.785	1439
215.852	112
215.919	1663
215.986	710
216.053	632
216.120	1055
216.187	1274
216.254	894
216.321	1498
216.388	719
216.455	1979
216.522	1577
216.589	1656
216.656	3187
216.722	2718
216.789	2241
216.856	2005
216.923	1153
216.990	1403
217.057	695
217.124	1978
217.191	1489
217.258	3069
217.324	3172
217.391	4129
217.458	2475
217.525	1356
217.592	2128
217.659	1244
217.725	1472
217.792	2863
217.859	2381
217.926	807
217.993	1209
218.059	979
218.126	674
218.193	703
218.260	7
218.327	436
218.393	759
218.460	696
218.527	74
218.594	979
218.660	2228
218.727	3378
218.794	-148
218.860	1052
218.927	-362
218.994	-210
219.061	247
219.127	841
219.194	2132
219.261	1011
219.327	681
219.394	863
219.461	-250
219.527	584
219.594	2123
219.661	1078
219.727	162
219.794	756
219.860	60
219.927	1117
219.994	1638
220.060	4180
220.127	1756
220.193	808
220.260	1013
220.326	1618
220.393	3858
220.460	6150
220.526	2561
220.593	1591
220.659	2470
220.726	2344
220.792	6784
220.859	5333
220.925	7337
220.992	11413
221.058	11050
221.125	9530
221.191	7016
221.258	2275
221.324	1354
221.391	1359
221.457	594
221.524	1166
221.590	1519
221.657	8520
221.723	4807
221.789	5010
221.856	4276
221.922	1417
221.989	1407
222.055	577
222.121	22
222.188	1705
222.254	85
222.321	815
222.387	457
222.453	779
222.520	387
222.586	225
222.652	253
222.719	951
222.785	528
222.851	69
222.918	153
222.984	590
223.050	688
223.116	60
223.183	595
223.249	395
223.315	18
223.382	290
223.448	85
223.514	5
223.580	-749
223.647	-38
223.713	336
223.779	67
223.845	-278
223.911	276
223.978	-652
224.044	-176
224.110	330
224.176	684
224.242	-519
224.309	268
224.375	-178
224.441	86
224.507	-501
224.573	585
224.639	-253
224.705	89
224.772	52
224.838	349
224.904	592
224.970	-185
225.036	383
225.102	429
225.168	393
225.234	188
225.300	500
225.366	-42
225.432	279
225.499	692
225.565	198
225.631	514
225.697	387
225.763	632
225.829	808
225.895	1669
225.961	2641
226.027	2135
226.093	1659
226.159	1844
226.225	2337
226.291	9790
226.357	16137
226.423	6633
226.489	3064
226.554	1921
226.620	1686
226.686	2253
226.752	4575
226.818	8177
226.884	22969
226.950	18232
227.016	5504
227.082	3093
227.148	2415
227.214	3404
227.279	2134
227.345	1742
227.411	1175
227.477	1649
227.543	3676
227.609	3999
227.674	1768
227.740	1129
227.806	385
227.872	1330
227.938	396
228.003	2754
228.069	331
228.135	177
228.201	564
228.267	177
228.332	526
228.398	1423
228.464	633
228.530	742
228.595	665
228.661	-140
228.727	1945
228.792	1611
228.858	317
228.924	435
228.990	1244
229.055	718
229.121	1219
229.187	919
229.252	544
229.318	80
229.384	1291
229.449	1157
229.515	-661
229.581	-605
229.646	1580
229.712	1060
229.777	4091
229.843	3177
229.909	2354
229.974	2732
230.040	1228
230.105	1607
230.171	1009
230.236	2370
230.302	3927
230.368	2420
230.433	667
230.499	537
230.564	1264
230.630	163
230.695	-256
230.761	991
230.826	-744
230.892	2327
230.957	-37
231.023	206
231.088	267
231.154	-285
231.219	188
231.284	1493
231.350	2134
231.415	57
231.481	535
231.546	389
231.612	841
231.677	614
231.742	42
231.808	1287
231.873	407
231.939	-1314
232.004	2748
232.069	2634
232.135	315
232.200	119
232.265	963
232.331	177
232.396	-284
232.461	130
232.527	-660
232.592	-654
232.657	244
232.723	2354
232.788	1169
232.853	637
232.918	464
232.984	-103
233.049	610
233.114	2229
233.179	1457
233.245	4448
233.310	5727
233.375	626
233.440	-111
233.506	717
233.571	-401
233.636	653
233.701	895
233.766	3682
233.832	3657
233.897	1335
233.962	1455
234.027	1626
234.092	920
234.157	472
234.222	1107
234.288	2623
234.353	10792
234.418	9218
234.483	4431
234.548	2083
234.613	1350
234.678	2066
234.743	2004
234.808	11725
234.873	4453
234.938	2484
235.004	1029
235.069	1740
235.134	532
235.199	381
235.264	644
235.329	2
235.394	1103
235.459	2187
235.524	707
235.589	1153
235.654	519
235.719	-55
235.784	520
235.849	1843
235.913	5344
235.978	6247
236.043	6752
236.108	1981
236.173	2335
236.238	2295
236.303	697
236.368	336
236.433	4304
236.498	6685
236.563	3012
236.627	7490
236.692	27510
236.757	18904
236.822	7028
236.887	6271
236.952	3781
237.017	2636
237.081	3520
237.146	3678
237.211	10019
237.276	27916
237.341	45675
237.405	17961
237.470	6449
237.535	6135
237.600	3664
237.664	3179
237.729	1250
237.794	3279
237.859	6455
237.923	4962
237.988	2348
238.053	4926
238.118	4779
238.182	15628
238.247	12596
238.312	5643
238.376	3771
238.441	2330
238.506	2675
238.570	497
238.635	931
238.700	1236
238.764	861
238.829	6598
238.893	6487
238.958	3318
239.023	1787
239.087	1070
239.152	1329
239.216	-21
239.281	1036
239.346	1694
239.410	1283
239.475	1623
239.539	15033
239.604	8992
239.668	2126
239.733	1142
239.797	1579
239.862	6670
239.926	11166
239.991	4098
240.055	1503
240.120	1503
240.184	974
240.249	511
240.313	387
240.378	1241
240.442	8785
240.507	14159
240.571	3441
240.635	7014
240.700	7806
240.764	1987
240.829	1002
240.893	841
240.957	1309
241.022	9015
241.086	15175
241.151	5755
241.215	943
241.279	3738
241.344	6598
241.408	1737
241.472	915
241.537	1881
241.601	1958
241.665	-316
241.730	376
241.794	1255
241.858	488
241.922	886
241.987	1166
242.051	1289
242.115	193
242.179	924
242.244	246
242.308	1581
242.372	1426
242.436	1881
242.501	1726
242.565	1122
242.629	-402
242.693	1427
242.757	-15
242.822	1256
242.886	387
242.950	2009
243.014	695
243.078	1859
243.142	1047
243.206	1747
243.271	1634
243.335	1922
243.399	2009
243.463	16285
243.527	39893
243.591	10706
243.655	4521
243.719	2742
243.783	3114
243.847	5479
243.911	6029
243.975	8060
244.040	3447
244.104	2419
244.168	1511
244.232	3340
244.296	4306
244.360	4512
244.424	2157
244.488	2052
244.552	1670
244.615	1210
244.679	973
244.743	2201
244.807	1568
244.871	1677
244.935	1365
244.999	863
245.063	724
245.127	2279
245.191	4482
245.255	3126
245.319	2565
245.383	1502
245.446	1962
245.510	508
245.574	1447
245.638	2087
245.702	1835
245.766	6909
245.829	3241
245.893	1182
245.957	1426
246.021	1979
246.085	1881
246.149	2835
246.212	9164
246.276	12848
246.340	4498
246.404	2829
246.467	4089
246.531	5456
246.595	3647
246.659	3212
246.722	1448
246.786	3676
246.850	3692
246.913	5489
246.977	1977
247.041	3095
247.104	1907
247.168	2432
247.232	8424
247.295	17933
247.359	7005
247.423	3582
247.486	6931
247.550	3751
247.614	1783
247.677	4769
247.741	1405
247.804	2323
247.868	2141
247.932	7010
247.995	15412
248.059	4469
248.122	1204
248.186	3677
248.249	6560
248.313	29977
248.376	26329
248.440	16391
248.503	4586
248.567	5113
248.630	7043
248.694	10676
248.757	12823
248.821	29192
248.884	14322
248.948	15176
249.011	21375
249.075	35108
249.138	26512
249.202	9554
249.265	5484
249.328	9091
249.392	5311
249.455	4294
249.519	2956
249.582	4507
249.645	9237
249.709	4229
249.772	2434
249.835	3423
249.899	3935
249.962	2504
250.025	1922
250.089	11540
250.152	12830
250.215	5657
250.279	4328
250.342	4373
250.405	3359
250.468	2946
250.532	5168
250.595	9399
250.658	40802
250.721	58443
250.785	16821
250.848	10626
250.911	4695
250.974	6078
251.038	7715
251.101	17537
251.164	7619
251.227	7966
251.290	6608
251.354	11814
251.417	56185
251.480	44647
251.543	31610
251.606	104247
251.669	62760
251.732	22595
251.795	25092
251.859	26302
251.922	64459
251.985	29618
252.048	10640
252.111	8259
252.174	7172
252.237	16126
252.300	33518
252.363	39803
252.426	81221
252.489	28500
252.552	15719
252.615	9739
252.678	11211
252.741	26279
252.804	35671
252.867	79995
252.930	42310
252.993	22766
253.056	13381
253.119	10179
253.182	8349
253.245	13082
253.308	9582
253.371	9594
253.434	8254
253.497	9438
253.559	18300
253.622	11402
253.685	13387
253.748	13151
253.811	4981
253.874	9570
253.937	6870
254.000	4978
254.062	11295
254.125	16876
254.188	15114
254.251	12538
254.314	5665
254.376	12113
254.439	12894
254.502	10405
254.565	10993
254.628	21103
254.690	10827
254.753	6015
254.816	4784
254.878	5722
254.941	13860
255.004	12158
255.067	5003
255.129	3751
255.192	3183
255.255	2051
255.317	3563
255.380	2635
255.443	1803
255.505	1488
255.568	1194
255.631	2367
255.693	1795
255.756	789
255.819	2092
255.881	854
255.944	1018
256.006	1943
256.069	1172
256.132	1192
256.194	2865
256.257	12781
256.319	8119
256.382	7056
256.444	3087
256.507	2239
256.569	1187
256.632	2622
256.694	4632
256.757	15162
256.819	38952
256.882	11411
256.944	4631
257.007	4864
257.069	5299
257.132	3507
257.194	2199
257.257	1767
257.319	1433
257.381	1753
257.444	9986
257.506	51070
257.569	47124
257.631	28279
257.693	12557
257.756	6517
257.818	5564
257.880	2966
257.943	2331
258.005	2363
258.067	1677
258.130	2441
258.192	3056
258.254	8405
258.317	3217
258.379	2880
258.441	11602
258.503	9372
258.566	17117
258.628	19652
258.690	3164
258.753	3344
258.815	7329
258.877	3031
258.939	1517
259.001	1989
259.064	1759
259.126	3121
259.188	5439
259.250	3561
259.312	3960
259.375	16665
259.437	7301
259.499	2760
259.561	2281
259.623	2904
259.685	58
259.747	2792
259.809	15333
259.872	27373
259.934	42885
259.996	29644
260.058	7160
260.120	3817
260.182	2401
260.244	1677
260.306	1011
260.368	2382
260.430	776
260.492	5362
260.554	13876
260.616	10706
260.678	21553
260.740	27514
260.802	5378
260.864	4324
260.926	2340
260.988	3809
261.050	2454
261.112	7969
261.174	29803
261.236	20721
261.298	5101
261.359	12991
261.421	17427
261.483	3482
261.545	3395
261.607	1147
261.669	1850
261.731	8807
261.793	18527
261.854	5857
261.916	3524
261.978	2374
262.040	3431
262.102	2908
262.164	7010
262.225	4677
262.287	2526
262.349	8127
262.411	5756
262.472	2899
262.534	8306
262.596	18641
262.658	4912
262.719	1972
262.781	5378
262.843	18653
262.904	6602
262.966	3656
263.028	4982
263.090	35566
263.151	74364
263.213	19505
263.275	9317
263.336	4347
263.398	3366
263.459	1924
263.521	1762
263.583	7212
263.644	3358
263.706	723
263.767	787
263.829	1997
263.891	35
263.952	539
264.014	-335
264.075	3272
264.137	6789
264.198	2851
264.260	528
264.321	1708
264.383	5277
264.444	12414
264.506	2430
264.567	1387
264.629	4405
264.690	9113
264.752	3175
264.813	2047
264.875	981
264.936	1534
264.998	676
265.059	455
265.120	1089
265.182	2927
265.243	20490
265.305	15626
265.366	2584
265.427	2417
265.489	1792
265.550	252
265.611	1758
265.673	1063
265.734	444
265.795	1226
265.857	568
265.918	1002
265.979	5353
266.040	34107
266.102	21262
266.163	5932
266.224	4430
266.286	3155
266.347	687
266.408	922
266.469	1703
266.530	1137
266.592	-283
266.653	4551
266.714	6899
266.775	1673
266.836	648
266.898	468
266.959	2337
267.020	289
267.081	918
267.142	1706
267.203	911
267.264	-370
267.326	1517
267.387	991
267.448	-264
267.509	813
267.570	341
267.631	-599
267.692	-837
267.753	652
267.814	428
267.875	4698
267.936	9649
267.997	3744
268.058	2510
268.119	822
268.180	1157
268.241	863
268.302	-256
268.363	-223
268.424	418
268.485	929
268.546	-480
268.607	426
268.668	-121
268.729	-146
268.790	196
268.851	1032
268.912	6052
268.972	6735
269.033	2384
269.094	391
269.155	589
269.216	-171
269.277	581
269.338	480
269.398	376
269.459	833
269.520	2475
269.581	3529
269.642	3770
269.702	2020
269.763	1349
269.824	1449
269.885	1261
269.945	3468
270.006	1100
270.067	-2
270.128	-284
270.188	-353
270.249	338
270.310	179
270.370	1646
270.431	547
270.492	556
270.553	1187
270.613	5322
270.674	9935
270.734	2689
270.795	1752
270.856	2985
270.916	1917
270.977	1347
271.038	1881
271.098	2016
271.159	4203
271.219	3285
271.280	1587
271.340	581
271.401	2089
271.462	8882
271.522	3153
271.583	1788
271.643	2223
271.704	435
271.764	2033
271.825	6265
271.885	26271
271.946	31563
272.006	9423
272.066	16160
272.127	25998
272.187	5904
272.248	3720
272.308	4289
272.369	21478
272.429	9417
272.489	6756
272.550	5960
272.610	7661
272.671	4642
272.731	5896
272.791	10753
272.852	4102
272.912	3893
272.972	1595
273.033	1818
273.093	3713
273.153	3952
273.214	3202
273.274	3158
273.334	16160
273.394	28807
273.455	9313
273.515	10249
273.575	24848
273.635	8551
273.696	15020
273.756	28687
273.816	10071
273.876	5898
273.936	18412
273.997	29100
274.057	5578
274.117	4246
274.177	7046
274.237	36539
274.297	30480
274.358	22338
274.418	24004
274.478	15395
274.538	6046
274.598	5637
274.658	27448
274.718	30895
274.778	10487
274.838	4929
274.898	15139
274.958	45638
275.018	33773
275.078	17627
275.138	6552
275.198	2866
275.258	2727
275.318	4563
275.378	7016
275.438	7102
275.498	5204
275.558	21501
275.618	39772
275.678	19638
275.738	11579
275.798	8157
275.858	3650
275.918	2357
275.978	2929
276.038	2743
276.098	2242
276.157	5997
276.217	18480
276.277	6979
276.337	4568
276.397	3272
276.457	3464
276.517	1639
276.576	2106
276.636	767
276.696	3442
276.756	9959
276.815	7131
276.875	2203
276.935	3338
276.995	2576
277.055	1672
277.114	925
277.174	3664
277.234	14986
277.293	5224
277.353	2439
277.413	2049
277.472	1836
277.532	1291
277.592	3013
277.651	13199
277.711	21592
277.771	7361
277.830	30827
277.890	20512
277.950	19237
278.009	51415
278.069	15581
278.128	18588
278.188	21785
278.248	9021
278.307	26715
278.367	13143
278.426	4099
278.486	2906
278.545	1670
278.605	2111
278.664	1307
278.724	2831
278.783	13086
278.843	30700
278.902	7202
278.962	5471
279.021	4087
279.081	5850
279.140	4694
279.199	4180
279.259	3192
279.318	4550
279.378	4807
279.437	13777
279.496	54350
279.556	157896
279.615	105141
279.675	26288
279.734	14752
279.793	26195
279.853	39775
279.912	13094
279.971	7239
280.031	6105
280.090	16379
280.149	27567
280.208	21505
280.268	110273
280.327	94783
280.386	21780
280.445	16403
280.505	14541
280.564	7336
280.623	6196
280.682	9367
280.742	13629
280.801	4026
280.860	2687
280.919	2590
280.978	2192
281.037	1270
281.097	1772
281.156	1937
281.215	2422
281.274	4106
281.333	22390
281.392	13255
281.451	3084
281.510	1722
281.569	2264
281.628	1372
281.688	1925
281.747	1902
281.806	1788
281.865	622
281.924	531
281.983	1252
282.042	967
282.101	692
282.160	1720
282.219	1247
282.278	1650
282.337	9523
282.396	6156
282.454	1839
282.513	3492
282.572	15140
282.631	7783
282.690	1767
282.749	1446
282.808	2400
282.867	2827
282.926	1766
282.985	931
283.043	1142
283.102	1324
283.161	2677
283.220	8749
283.279	18478
283.338	4103
283.396	2287
283.455	1800
283.514	2450
283.573	3954
283.631	3117
283.690	2201
283.749	1615
283.808	5073
283.866	6148
283.925	1110
283.984	845
284.043	3012
284.101	2609
284.160	2046
284.219	3874
284.277	3001
284.336	5681
284.395	21478
284.453	16458
284.512	5151
284.570	6586
284.629	5306
284.688	4104
284.746	4442
284.805	5085
284.863	6933
284.922	7863
284.981	8615
285.039	12735
285.098	25090
285.156	72957
285.215	186837
285.273	160918
285.332	68278
285.390	33535
285.449	20913
285.507	14384
285.566	11210
285.624	7387
285.683	6664
285.741	3727
285.799	3756
285.858	3340
285.916	3918
285.975	2273
286.033	1550
286.091	2195
286.150	1297
286.208	2477
286.267	3170
286.325	1826
286.383	4227
286.442	2896
286.500	1206
286.558	1386
286.616	1251
286.675	2600
286.733	1777
286.791	1252
286.850	2825
286.908	3910
286.966	7770
287.024	2289
287.083	991
287.141	1112
287.199	1575
287.257	3469
287.315	2814
287.374	2693
287.432	8230
287.490	4981
287.548	3109
287.606	2005
287.664	2382
287.723	3896
287.781	5704
287.839	2275
287.897	2497
287.955	3476
288.013	6839
288.071	18853
288.129	86441
288.187	218985
288.245	81578
288.303	24968
288.361	15109
288.419	11408
288.477	7892
288.535	5158
288.593	3332
288.651	2760
288.709	2085
288.767	2489
288.825	1338
288.883	1569
288.941	1609
288.999	951
289.057	1289
289.115	1457
289.173	1673
289.231	1546
289.289	2248
289.346	1510
289.404	1477
289.462	4410
289.520	4455
289.578	1659
289.636	742
289.694	824
289.751	1074
289.809	103
289.867	348
289.925	972
289.983	1833
290.040	347
290.098	1134
290.156	962
290.214	2266
290.271	935
290.329	1670
290.387	52
290.444	662
290.502	891
290.560	1315
290.617	147
290.675	1701
290.733	704
290.790	1699
290.848	966
290.906	1194
290.963	1407
291.021	1245
291.078	1005
291.136	2330
291.194	9800
291.251	20458
291.309	6095
291.366	2454
291.424	1521
291.481	1757
291.539	1149
291.596	2218
291.654	456
291.711	1065
291.769	2333
291.826	4747
291.884	2651
291.941	1330
291.999	1519
292.056	2194
292.114	2237
292.171	1090
292.228	1182
292.286	2573
292.343	4959
292.401	7287
292.458	4393
292.515	1799
292.573	3157
292.630	3580
292.687	3471
292.745	2466
292.802	3875
292.859	11959
292.917	22227
292.974	11650
293.031	3333
293.089	2141
293.146	1184
293.203	2175
293.260	1408
293.318	3765
293.375	5101
293.432	2287
293.489	1328
293.546	1804
293.604	3775
293.661	14947
293.718	36156
293.775	16782
293.832	8088
293.889	4723
293.947	6480
294.004	3899
294.061	4269
294.118	9352
294.175	20661
294.232	25255
294.289	10248
294.346	4070
294.403	3500
294.460	3370
294.517	2233
294.574	2417
294.631	1800
294.688	3915
294.745	11751
294.802	44009
294.859	42024
294.916	18643
294.973	9780
295.030	6447
295.087	5633
295.144	4201
295.201	3730
295.258	2745
295.315	3786
295.372	16812
295.429	29242
295.486	12020
295.542	6242
295.599	18585
295.656	30871
295.713	24292
295.770	27923
295.827	9759
295.883	5300
295.940	4220
295.997	8668
296.054	7415
296.111	3353
296.167	2958
296.224	1585
296.281	1015
296.338	1578
296.394	1581
296.451	3645
296.508	12810
296.564	24367
296.621	15836
296.678	32693
296.734	43916
296.791	15610
296.848	8625
296.904	8445
296.961	19814
297.018	34332
297.074	23708
297.131	8884
297.187	6583
297.244	9375
297.301	36185
297.357	59571
297.414	20088
297.470	7096
297.527	5690
297.583	3194
297.640	4472
297.696	2788
297.753	2220
297.809	1964
297.866	2271
297.922	1739
297.979	1211
298.035	2924
298.092	6200
298.148	18755
298.204	17074
298.261	8835
298.317	16013
298.374	39862
298.430	21711
298.486	10403
298.543	8085
298.599	6026
298.656	6541
298.712	12221
298.768	28695
298.824	19878
298.881	6550
298.937	3428
298.993	3668
299.050	4724
299.106	4115
299.162	3269
299.218	3887
299.275	2229
299.331	3445
299.387	9046
299.443	35376
299.500	34951
299.556	13118
299.612	6476
299.668	6472
299.724	7092
299.780	8117
299.837	5761
299.893	8750
299.949	30278
300.005	34235
300.061	31139
300.117	49797
300.173	23743
300.229	9878
300.285	11514
300.341	12401
300.397	6775
300.453	4597
300.510	3740
300.566	4360
300.622	5643
300.678	17541
300.734	30942
300.790	30534
300.845	37164
300.901	23331
300.957	30440
301.013	23061
301.069	9101
301.125	6460
301.181	5613
301.237	4166
301.293	3239
301.349	2607
301.405	2158
301.461	1783
301.516	2903
301.572	4070
301.628	6963
301.684	8059
301.740	11639
301.796	18809
301.851	13008
301.907	22105
301.963	22106
302.019	40291
302.074	101021
302.130	92825
302.186	40486
302.242	16027
302.297	10144
302.353	11582
302.409	21148
302.464	17805
302.520	15923
302.576	37440
302.631	41184
302.687	21628
302.743	10062
302.798	5416
302.854	3992
302.910	5354
302.965	6701
303.021	11424
303.076	9865
303.132	13230
303.187	15163
303.243	8385
303.299	3322
303.354	3489
303.410	3481
303.465	2892
303.521	2427
303.576	2914
303.632	5601
303.687	10675
303.743	32543
303.798	26728
303.853	10343
303.909	5373
303.964	4360
304.020	7808
304.075	10388
304.130	10444
304.186	19071
304.241	19890
304.297	16139
304.352	8285
304.358	7935
304.407	5095
304.449	5298
304.463	5374
304.518	4863
304.539	4705
304.573	4449
304.629	4858
304.630	4947
304.684	9206
304.720	20169
304.739	25716
304.794	36782
304.811	31433
304.850	18333
304.902	8155
304.905	7518
304.960	4360
304.992	4645
305.015	4888
305.071	4316
305.083	4208
305.126	3732
305.173	2292
305.181	2075
305.236	1657
305.264	2592
305.292	3486
305.347	4638
305.354	4530
305.402	3928
305.445	4547
305.457	4717
305.512	6454
305.535	6415
305.567	6382
305.622	7344
305.626	7660
305.678	14316
305.716	28433
305.733	33807
305.788	38921
305.807	34319
305.843	26206
305.897	32853
305.898	32912
305.953	31978
305.988	22159
306.008	16583
306.063	9287
306.078	8226
306.118	6254
306.168	4395
306.173	4238
306.228	3910
306.259	3452
306.283	3124
306.338	2956
306.349	3053
306.393	3431
306.440	4053
306.448	4190
306.503	4339
306.530	5280
306.558	7337
306.613	18771
306.620	20114
306.668	27887
306.711	33020
306.723	33441
306.778	25635
306.801	19835
306.833	12831
306.888	5862
306.892	5678
306.943	4803
306.982	4512
306.997	4436
307.052	3656
307.072	3802
307.107	4450
307.162	6941
307.163	6994
307.217	12659
307.253	15836
307.272	16702
307.327	17889
307.343	16470
307.381	12728
307.434	9849
307.436	10020
307.491	21174
307.524	31506
307.546	34844
307.600	30875
307.614	27490
307.655	16867
307.704	8384
307.710	7958
307.765	9351
307.795	12333
307.819	16049
307.874	30223
307.885	30084
307.929	21597
307.975	12722
307.984	12127
308.038	12796
308.065	15996
308.093	26208
308.148	57332
308.156	65707
308.202	113614
308.246	137054
308.257	133947
308.312	70841
308.336	49291
308.366	36730
308.421	24092
308.426	23087
308.475	14771
308.517	10527
308.530	9649
308.585	7822
308.607	7609
308.639	8072
308.694	8957
308.697	9240
308.748	20955
308.787	33373
308.803	34214
308.857	26213
308.877	21761
308.912	15815
308.967	10790
308.967	10762
309.021	12461
309.058	15247
309.076	19019
309.130	35076
309.148	42248
309.185	82167
309.238	155811
309.239	156366
309.293	185054
309.328	167408
309.348	140876
309.402	60922
309.418	42179
309.457	27062
309.508	16095
309.511	15691
309.566	14080
309.598	14356
309.620	16160
309.674	23305
309.688	25176
309.729	24471
309.778	18895
309.783	18376
309.837	13337
309.868	11530
309.892	13706
309.946	21322
309.959	24124
310.001	33683
310.049	41670
310.055	40582
310.109	25211
310.139	16406
310.163	12478
310.218	6735
310.229	5897
310.272	5187
310.319	4759
310.326	4644
310.381	4262
310.409	3985
310.435	3883
310.489	3899
310.499	3940
310.543	4036
310.589	4033
310.598	4004
310.652	4172
310.679	4065
310.706	3747
310.760	2963
310.769	2870
310.814	2504
310.859	2382
310.868	2396
310.923	2295
310.948	2357
310.977	2826
311.031	3897
311.038	4016
311.085	3449
311.128	2936
311.139	2956
311.193	2971
311.218	2999
311.247	2838
311.301	2622
311.308	2580
311.356	2484
311.398	2574
311.410	2586
311.464	2609
311.488	2593
311.518	2389
311.572	2039
311.578	2013
311.626	2888
311.668	3737
311.680	3866
311.734	4297
311.758	4547
311.788	4531
311.842	4469
311.847	4475
311.896	5791
311.937	6981
311.950	6746
312.004	5758
312.027	5310
312.058	4510
312.112	3146
312.117	3028
312.165	2916
312.207	2859
312.297	4568
312.386	3448
312.476	3564
312.566	6444
312.656	3829
312.745	1622
312.835	2781
312.925	3030
313.015	3878
313.104	4186
313.194	1961
313.284	2402
313.374	2711
313.463	3060
313.553	2657
313.643	1954
313.732	1827
313.822	2552
313.912	3105
314.001	2480
314.091	3595
314.180	4233
314.270	3821
314.360	4860
314.449	3591
314.539	2013
314.628	1983
314.718	3373
314.808	4721
314.897	2848
314.987	2974
315.076	3590
315.166	5145
315.255	5503
315.345	4503
315.434	5326
315.524	4951
315.613	5274
315.703	5399
315.792	9340
315.881	29801
315.971	11694
316.060	9831
316.150	18313
316.239	19563
316.328	6964
316.418	2334
316.507	2681
316.597	4081
316.686	3557
316.775	7584
316.865	22384
316.954	4735
317.043	2152
317.133	2109
317.222	2438
317.311	2707
317.400	1076
317.490	4168
317.579	3946
317.668	3471
317.757	5378
317.847	14661
317.936	52586
318.025	20023
318.114	10971
318.203	6581
318.293	6238
318.382	11971
318.471	11115
318.560	15475
318.649	35276
318.738	9345
318.828	4354
318.917	5644
319.006	7793
319.095	21877
319.184	45492
319.273	24577
319.362	9950
319.451	3686
319.540	3492
319.629	8167
319.718	13359
319.807	7265
319.896	15032
319.985	56603
320.074	20231
320.163	5259
320.252	10676
320.341	8100
320.430	5843
320.519	6415
320.608	3858
320.697	3396
320.786	2904
320.875	3704
320.964	6469
321.053	8863
321.142	12343
321.230	13718
321.319	10334
321.408	24164
321.497	11600
321.586	10565
321.675	16434
321.764	16131
321.852	8844
321.941	12168
322.030	8719
322.119	9475
322.207	25898
322.296	27885
322.385	10473
322.474	11347
322.562	27855
322.651	16185
322.740	11200
322.829	18116
322.917	24598
323.006	11955
323.095	8908
323.183	8495
323.272	11870
323.361	22963
323.449	84235
323.538	32049
323.626	55827
323.715	41203
323.804	12834
323.892	50062
323.981	29417
324.069	9093
324.158	28275
324.246	30914
324.335	6921
324.424	9201
324.512	4279
324.601	5714
324.689	14260
324.778	29507
324.866	19178
324.954	5949
325.043	4117
325.131	11137
325.220	22636
325.308	26463
325.397	16829
325.485	10379
325.574	2633
325.662	2832
325.750	2854
325.839	2381
325.927	2503
326.015	3515
326.104	7728
326.192	12993
326.280	2857
326.369	2414
326.457	4112
326.545	7053
326.634	3364
326.722	2164
326.810	1635
326.898	2367
326.987	2445
327.075	6555
327.163	8864
327.251	5874
327.340	9791
327.428	14531
327.516	2829
327.604	3179
327.692	3200
327.781	4790
327.869	8280
327.957	5425
328.045	3968
328.133	1520
328.221	4141
328.309	3440
328.397	1892
328.485	3104
328.574	4769
328.662	14194
328.750	10379
328.838	5461
328.926	2056
329.014	2240
329.102	3270
329.190	9415
329.278	6193
329.366	2573
329.454	822
329.542	1980
329.630	1504
329.718	2449
329.806	2344
329.893	2507
329.981	2369
330.069	2448
330.157	4751
330.245	14172
330.333	6877
330.421	2297
330.509	3998
330.597	17240
330.684	11044
330.772	4640
330.860	7141
330.948	8777
331.036	4300
331.123	1567
331.211	1750
331.299	2299
331.387	6612
331.475	12281
331.562	4162
331.650	2213
331.738	3449
331.825	5967
331.913	2037
332.001	2102
332.089	3251
332.176	9833
332.264	27538
332.352	22496
332.439	4441
332.527	2561
332.614	2552
332.702	5332
332.790	2684
332.877	10107
332.965	25641
333.052	5024
333.140	3446
333.228	9615
333.315	2562
333.403	3303
333.490	15742
333.578	12485
333.665	7843
333.753	4129
333.840	2969
333.928	4649
334.015	15593
334.103	23960
334.190	70839
334.278	19249
334.365	7333
334.452	5863
334.540	3611
334.627	4751
334.715	7794
334.802	15985
334.889	97688
334.977	112626
335.064	12390
335.151	4452
335.239	4665
335.326	6153
335.413	29828
335.501	43277
335.588	5709
335.675	3345
335.762	4465
335.850	7380
335.937	5481
336.024	19505
336.111	98863
336.199	45602
336.286	6116
336.373	2824
336.460	2353
336.547	3016
336.635	3830
336.722	2808
336.809	2710
336.896	4858
336.983	14940
337.070	41758
337.157	69434
337.245	64791
337.332	53879
337.419	5154
337.506	2289
337.593	4079
337.680	13191
337.767	38607
337.854	11533
337.941	12644
338.028	21320
338.115	7731
338.202	6130
338.289	16033
338.376	67612
338.463	22818
338.550	22425
338.637	25851
338.724	11097
338.811	22952
338.898	3831
338.984	2440
339.071	2547
339.158	4041
339.245	8954
339.332	6240
339.419	12051
339.506	14234
339.593	1898
339.679	1942
339.766	1609
339.853	2853
339.940	6378
340.027	2812
340.113	2327
340.200	3355
340.287	3194
340.374	2944
340.460	5315
340.547	2371
340.634	4764
340.720	17515
340.807	11023
340.894	2007
340.980	1886
341.067	1914
341.154	2571
341.240	3121
341.327	8047
341.414	2660
341.500	2273
341.587	2619
341.674	1632
341.760	5361
341.847	6381
341.933	1581
342.020	1463
342.106	1813
342.193	1457
342.279	4855
342.366	2915
342.452	6015
342.539	2609
342.625	6754
342.712	17617
342.798	8231
342.885	2864
342.971	1235
343.058	1239
343.144	1629
343.230	1318
343.317	1461
343.403	225
343.490	1300
343.576	1665
343.662	1996
343.749	2943
343.835	3653
343.921	7511
344.008	53674
344.094	134987
344.180	28588
344.267	7541
344.353	28256
344.439	34915
344.525	10059
344.612	3235
344.698	3264
344.784	1227
344.870	2098
344.957	1513
345.043	3915
345.129	2814
345.215	5640
345.301	2615
345.387	1658
345.474	711
345.560	1523
345.646	1998
345.732	2406
345.818	1738
345.904	2029
345.990	2135
346.076	3393
346.162	8824
346.249	3281
346.335	1538
346.421	3012
346.507	12526
346.593	46005
346.679	10503
346.765	2451
346.851	1724
346.937	2060
347.023	1605
347.108	2067
347.194	1195
347.280	1686
347.366	3378
347.452	12144
347.538	57407
347.624	38927
347.710	28982
347.796	5669
347.882	1984
347.967	2379
348.053	2300
348.139	2348
348.225	1246
348.311	1516
348.397	1700
348.482	2817
348.568	1826
348.654	1127
348.740	2422
348.825	2045
348.911	4035
348.997	25941
349.083	56450
349.168	9133
349.254	2194
349.340	1729
349.425	994
349.511	1995
349.597	2785
349.682	6766
349.768	25432
349.854	12845
349.939	2016
350.025	2218
350.110	1770
350.196	1020
350.282	273
350.367	1845
350.453	4537
350.538	6311
350.624	2200
350.709	1967
350.795	1115
350.880	1213
350.966	1436
351.051	4312
351.137	3696
351.222	1799
351.308	6698
351.393	19693
351.479	4181
351.564	610
351.649	1192
351.735	1554
351.820	1179
351.906	2044
351.991	2348
352.076	12766
352.162	18336
352.247	3849
352.332	2134
352.418	4262
352.503	6172
352.588	26706
352.673	21147
352.759	3961
352.844	2312
352.929	2471
353.014	3624
353.100	2557
353.185	4103
353.270	6363
353.355	5737
353.441	2100
353.526	2784
353.611	5521
353.696	6472
353.781	3910
353.866	1677
353.952	2481
354.037	4587
354.122	13197
354.207	12107
354.292	4942
354.377	1280
354.462	2554
354.547	2048
354.632	2629
354.717	3393
354.802	5302
354.887	1908
354.972	1981
355.057	583
355.142	991
355.227	1709
355.312	3487
355.397	8208
355.482	19858
355.567	9951
355.652	7494
355.737	9093
355.822	28689
355.907	25190
355.991	3890
356.076	1495
356.161	2407
356.246	1686
356.331	2899
356.416	7359
356.501	59865
356.585	64230
356.670	7368
356.755	4878
356.840	7088
356.924	36052
357.009	145205
357.094	53715
357.179	7838
357.263	5546
357.348	5299
357.433	5031
357.517	4666
357.602	3974
357.687	2654
357.771	3379
357.856	4123
357.941	6081
358.025	27427
358.110	142055
358.195	66868
358.279	6789
358.364	4443
358.448	17006
358.533	51403
358.617	37190
358.702	37648
358.787	13121
358.871	6489
358.956	5312
359.040	1660
359.125	1242
359.209	1638
359.294	1778
359.378	3124
359.462	4188
359.547	3601
359.631	3048
359.716	1533
359.800	1270
359.885	3722
359.969	1833
360.053	2519
360.138	1187
360.222	3634
360.306	5873
360.391	4384
360.475	5180
360.559	13534
360.644	16543
360.728	13907
360.812	30133
360.896	94565
360.981	32546
361.065	13452
361.149	3951
361.233	3084
361.318	2173
361.402	3255
361.486	2763
361.570	2019
361.654	3598
361.739	9510
361.823	54761
361.907	97675
361.991	14794
362.075	5553
362.159	11489
362.243	9389
362.327	7003
362.411	11425
362.495	5808
362.580	3867
362.664	2250
362.748	1348
362.832	2274
362.916	3519
363.000	16671
363.084	64174
363.168	112698
363.252	23472
363.336	5706
363.420	10278
363.503	42122
363.587	53887
363.671	7311
363.755	4327
363.839	6385
363.923	3188
364.007	6011
364.091	8375
364.175	14631
364.258	70314
364.342	42328
364.426	34744
364.510	18514
364.594	9516
364.677	14764
364.761	78947
364.845	60158
364.929	12332
365.013	9152
365.096	7453
365.180	9551
365.264	17674
365.347	75311
365.431	31999
365.515	4702
365.598	3183
365.682	3055
365.766	4903
365.849	6981
365.933	3394
366.017	5412
366.100	3349
366.184	1698
366.267	3367
366.351	1325
366.435	1326
366.518	875
366.602	1265
366.685	1987
366.769	2110
366.852	4240
366.936	8777
367.019	4260
367.103	3636
367.186	8765
367.270	2346
367.353	923
367.436	2770
367.520	1065
367.603	2657
367.687	3417
367.770	7231
367.853	4426
367.937	19796
368.020	34555
368.104	6603
368.187	4705
368.270	8842
368.353	7039
368.437	13236
368.520	44652
368.603	23839
368.687	21444
368.770	43284
368.853	9229
368.936	7232
369.020	7851
369.103	2616
369.186	710
369.269	2197
369.352	4122
369.436	6880
369.519	4626
369.602	1492
369.685	3128
369.768	2223
369.851	1183
369.934	1269
370.018	1432
370.101	6153
370.184	6539
370.267	4201
370.350	6369
370.433	11160
370.516	38885
370.599	55276
370.682	14233
370.765	19400
370.848	26136
370.931	53933
371.014	20681
371.097	3376
371.180	2759
371.263	1522
371.346	118
371.429	1798
371.511	1849
371.594	3469
371.677	6754
371.760	9141
371.843	7684
371.926	43264
372.009	120485
372.091	34533
372.174	21227
372.257	59863
372.340	22303
372.423	11869
372.505	14682
372.588	6235
372.671	15829
372.754	51960
372.836	26236
372.919	18366
373.002	38243
373.085	10573
373.167	7329
373.250	20363
373.332	53050
373.415	70875
373.498	165875
373.580	57118
373.663	75280
373.746	115714
373.828	20971
373.911	7599
373.993	8808
374.076	37810
374.159	37737
374.241	15160
374.324	39946
374.406	28790
374.489	43981
374.571	142102
374.654	55204
374.736	24523
374.819	83176
374.901	115591
374.983	128270
375.066	20924
375.148	7164
375.231	30302
375.313	62809
375.395	21528
375.478	5518
375.560	2979
375.643	5430
375.725	22153
375.807	105677
375.890	92927
375.972	42225
376.054	17742
376.136	37947
376.219	16637
376.301	27028
376.383	88428
376.465	32937
376.548	13260
376.630	20371
376.712	68611
376.794	31998
376.877	3622
376.959	1672
377.041	2912
377.123	6102
377.205	8474
377.287	1617
377.369	1672
377.452	1757
377.534	1961
377.616	2227
377.698	1947
377.780	787
377.862	1869
377.944	1837
378.026	540
378.108	1753
378.190	1471
378.272	1513
378.354	876
378.436	904
378.518	3114
378.600	13609
378.682	12253
378.764	26478
378.846	21840
378.928	5535
379.010	7404
379.091	3898
379.173	2198
379.255	1314
379.337	3654
379.419	12272
379.501	42078
379.583	16855
379.664	3104
379.746	7819
379.828	25169
379.910	36147
379.991	33908
380.073	6368
380.155	3705
380.237	2302
380.318	1323
380.400	1616
380.482	4907
380.564	7817
380.645	7897
380.727	7139
380.809	5054
380.890	3009
380.972	2759
381.053	2083
381.135	3146
381.217	8081
381.298	27484
381.380	13486
381.461	12552
381.543	63488
381.624	85240
381.706	14402
381.787	6023
381.869	6430
381.951	28410
382.032	130363
382.113	80245
382.195	11580
382.276	7677
382.358	19105
382.439	64491
382.521	72241
382.602	123463
382.684	47451
382.765	72180
382.846	63484
382.928	60115
383.009	31477
383.090	18421
383.172	80391
383.253	140691
383.334	55853
383.416	91138
383.497	46677
383.578	10231
383.659	15549
383.741	67426
383.822	213511
383.903	109891
383.984	46463
384.066	100488
384.147	61429
384.228	11813
384.309	6547
384.390	5326
384.471	3135
384.553	4145
384.634	5976
384.715	5576
384.796	3058
384.877	4459
384.958	24287
385.039	30674
385.120	8957
385.201	4285
385.282	4593
385.363	6752
385.444	3616
385.525	10645
385.606	47859
385.687	45798
385.768	8182
385.849	9429
385.930	51081
386.011	105444
386.092	26866
386.173	3953
386.254	3071
386.335	4454
386.416	3537
386.496	15777
386.577	27020
386.658	9645
386.739	4504
386.820	5982
386.901	3587
386.981	3462
387.062	2658
387.143	6683
387.224	26044
387.304	25326
387.385	8204
387.466	4552
387.547	6736
387.627	4526
387.708	10236
387.789	50984
387.869	70528
387.950	18868
388.031	2980
388.111	1474
388.192	7489
388.273	12506
388.353	6901
388.434	4186
388.514	10500
388.595	58618
388.676	76121
388.756	28808
388.837	23225
388.917	14574
388.998	2107
389.078	2840
389.159	2940
389.239	1412
389.320	4805
389.400	2978
389.480	10517
389.561	30958
389.641	16111
389.722	5014
389.802	6863
389.883	13990
389.963	41492
390.043	27320
390.124	7520
390.204	9161
390.284	27807
390.365	19215
390.445	20758
390.525	49474
390.605	43518
390.686	14631
390.766	4952
390.846	3127
390.927	1345
391.007	1693
391.087	3908
391.167	2760
391.247	1662
391.328	6855
391.408	9750
391.488	5417
391.568	434
391.648	2637
391.728	4949
391.808	5475
391.888	5467
391.969	16141
392.049	27182
392.129	11805
392.209	13408
392.289	37599
392.369	20508
392.449	15749
392.529	8969
392.609	6963
392.689	11213
392.769	37233
392.849	32290
392.929	21125
393.009	52860
393.089	41539
393.169	30633
393.248	104687
393.328	446680
393.408	514487
393.488	125663
393.568	28623
393.648	14613
393.728	9386
393.807	6176
393.887	7116
393.967	5996
394.047	6177
394.127	6538
394.206	11415
394.286	42687
394.366	210763
394.446	228117
394.525	39186
394.605	8372
394.685	8364
394.764	20150
394.844	37755
394.924	26991
395.003	6837
395.083	4566
395.163	4382
395.242	4277
395.322	4721
395.402	2051
395.481	4903
395.561	14216
395.640	41681
395.720	31689
395.799	48739
395.879	38737
395.958	14655
396.038	58269
396.117	270271
396.197	295351
396.276	66203
396.356	19070
396.435	16563
396.515	12633
396.594	12699
396.673	26810
396.753	119183
396.832	417664
396.912	316335
396.991	65191
397.070	16007
397.150	7954
397.229	7218
397.308	7974
397.388	10154
397.467	6367
397.546	2909
397.625	1097
397.705	4400
397.784	3925
397.863	2348
397.942	1729
398.022	2572
398.101	12798
398.180	43904
398.259	22177
398.338	4849
398.417	2910
398.497	2356
398.576	2558
398.655	1665
398.734	1625
398.813	1123
398.892	12364
398.971	49595
399.050	24218
399.129	2276
399.208	1680
399.287	2105
399.366	120
399.445	2367
399.524	1585
399.603	599
399.682	3356
399.761	13855
399.840	52639
399.919	42621
399.998	5454
400.077	371
400.156	297
400.235	3015
400.313	558
400.392	1415
400.471	12396
400.550	21773
400.629	5324
400.708	2926
400.786	1706
400.865	7246
400.944	8460
401.023	5221
401.102	343
401.180	1047
401.259	1321
401.338	2139
401.416	2124
401.495	1926
401.574	2177
401.652	991
401.731	2224
401.810	1394
401.888	461
401.967	-71
402.046	418
402.124	2374
402.203	3078
402.281	1759
402.360	1912
402.438	10386
402.517	6746
402.596	2544
402.674	1651
402.753	967
402.831	700
402.910	2127
402.988	10619
403.066	42592
403.145	23170
403.223	12665
403.302	31039
403.380	22901
403.459	21683
403.537	8047
403.615	2387
403.694	121
403.772	1107
403.850	-75
403.929	-400
404.007	329
404.085	3527
404.164	3746
404.242	998
404.320	2424
404.398	2746
404.477	15631
404.555	85953
404.633	80458
404.711	10009
404.789	1950
404.868	1580
404.946	956
405.024	-64
405.102	-31
405.180	455
405.258	-786
405.336	801
405.415	444
405.493	3267
405.571	3702
405.649	230
405.727	14
405.805	2717
405.883	1710
405.961	2070
406.039	3175
406.117	809
406.195	2719
406.273	15466
406.351	69612
406.429	42657
406.507	4755
406.585	1433
406.663	1309
406.740	2199
406.818	1425
406.896	1030
406.974	1484
407.052	4539
407.130	35555
407.208	55930
407.285	10729
407.363	1251
407.441	1013
407.519	306
407.596	1390
407.674	4919
407.752	19726
407.830	19968
407.907	7505
407.985	1700
408.063	1155
408.141	303
408.218	2951
408.296	1650
408.373	2144
408.451	1125
408.529	848
408.606	432
408.684	865
408.762	437
408.839	329
408.917	-423
408.994	716
409.072	-575
409.149	549
409.227	1940
409.304	2007
409.382	1153
409.459	726
409.537	2711
409.614	1244
409.692	769
409.769	677
409.846	2745
409.924	4629
410.001	996
410.079	391
410.156	1505
410.233	1004
410.311	327
410.388	602
410.465	890
410.543	1007
410.620	803
410.697	1353
410.775	1103
410.852	-86
410.929	979
411.006	2990
411.083	217
411.161	3302
411.238	3651
411.315	2389
411.392	164
411.469	1904
411.547	1520
411.624	-272
411.701	402
411.778	1120
411.855	2921
411.932	1864
412.009	339
412.086	695
412.163	591
412.240	596
412.317	1890
412.394	1129
412.471	951
412.548	309
412.625	149
412.702	1423
412.779	2494
412.856	1819
412.933	20
413.010	192
413.087	1553
413.164	10789
413.241	17216
413.318	3174
413.395	1739
413.471	2674
413.548	1798
413.625	1036
413.702	944
413.779	1026
413.855	-880
413.932	129
414.009	-1460
414.086	666
414.162	-44
414.239	2357
414.316	10829
414.393	29026
414.469	9736
414.546	746
414.623	198
414.699	948
414.776	-155
414.853	297
414.929	871
415.006	791
415.082	1111
415.159	1090
415.236	-17
415.312	613
415.389	2229
415.465	2716
415.542	1213
415.618	265
415.695	2971
415.771	1340
415.848	266
415.924	527
416.000	1168
416.077	1156
416.153	-852
416.230	-185
416.306	263
416.383	-432
416.459	-22
416.535	-597
416.612	-116
416.688	412
416.764	-17
416.841	-361
416.917	115
416.993	382
417.069	574
417.146	1397
417.222	1893
417.298	520
417.374	242
417.451	1173
417.527	588
417.603	1008
417.679	1289
417.755	274
417.831	-182
417.908	127
417.984	-158
418.060	-138
418.136	3008
418.212	4236
418.288	769
418.364	948
418.440	-463
418.516	1579
418.592	2964
418.668	5369
418.744	6516
418.820	5962
418.896	308
418.972	-750
419.048	926
419.124	3434
419.200	1655
419.276	62
419.352	-673
419.428	248
419.504	517
419.579	1020
419.655	-39
419.731	706
419.807	4466
419.883	8088
419.959	6232
420.034	1822
420.110	3618
420.186	16052
420.262	13611
420.337	2960
420.413	1562
420.489	856
420.565	570
420.640	470
420.716	487
420.792	-614
420.867	1196
420.943	136
421.019	2160
421.094	1381
421.170	474
421.245	121
421.321	484
421.397	237
421.472	4005
421.548	9871
421.623	7155
421.699	1420
421.774	1779
421.850	1638
421.925	2988
422.001	3326
422.076	2297
422.152	1671
422.227	3993
422.302	5950
422.378	7556
422.453	14632
422.529	42635
422.604	148517
422.679	270581
422.755	153509
422.830	41255
422.905	14823
422.981	8192
423.056	5353
423.131	4351
423.207	3371
423.282	2709
423.357	5271
423.432	4131
423.508	3855
423.583	8159
423.658	6405
423.733	2008
423.808	2711
423.883	2446
423.959	1935
424.034	1380
424.109	2041
424.184	358
424.259	683
424.334	302
424.409	152
424.484	169
424.559	732
424.634	176
424.709	1534
424.784	2417
424.859	711
424.934	1623
425.009	11668
425.084	19701
425.159	7734
425.234	1665
425.309	-106
425.384	870
425.459	-448
425.534	44
425.609	-143
425.683	-48
425.758	67
425.833	790
425.908	1715
425.983	5272
426.058	21460
426.132	9661
426.207	1690
426.282	3225
426.357	2895
426.431	362
426.506	939
426.581	692
426.655	1447
426.730	521
426.805	-249
426.879	538
426.954	893
427.029	2047
427.103	21033
427.178	60209
427.253	28843
427.327	2833
427.402	1707
427.476	3736
427.551	1633
427.625	494
427.700	1342
427.774	385
427.849	1106
427.923	-536
427.998	140
428.072	19
428.147	3922
428.221	15910
428.296	47923
428.370	24801
428.444	2895
428.519	3576
428.593	7510
428.667	7505
428.742	9101
428.816	9385
428.890	29178
428.965	46189
429.039	14346
429.113	10386
429.188	4148
429.262	598
429.336	1916
429.410	8569
429.485	7136
429.559	6793
429.633	6885
429.707	2050
429.781	4916
429.855	32703
429.930	51790
430.004	29368
430.078	45165
430.152	43438
430.226	69647
430.300	70957
430.374	10937
430.448	3206
430.522	12263
430.596	43791
430.670	30725
430.744	56283
430.818	92967
430.892	21675
430.966	1966
431.040	556
431.114	70
431.188	-370
431.262	586
431.336	57
431.410	4173
431.484	11071
431.557	9120
431.631	1099
431.705	1128
431.779	8481
431.853	40855
431.927	29771
432.000	3351
432.074	236
432.148	2050
432.222	925
432.295	755
432.369	443
432.443	1540
432.516	22075
432.590	65423
432.664	27260
432.737	3075
432.811	-391
432.885	32
432.958	330
433.032	-321
433.106	-528
433.179	9
433.253	-1067
433.326	-775
433.400	-1134
433.473	-50
433.547	-906
433.620	-100
433.694	-60
433.767	2565
433.841	591
433.914	-159
433.988	-290
434.061	213
434.134	-671
434.208	-378
434.281	-937
434.355	-298
434.428	335
434.501	-1330
434.575	-702
434.648	-230
434.721	-797
434.795	-1091
434.868	-579
434.941	-819
435.014	-1378
435.088	-855
435.161	-114
435.234	286
435.307	1287
435.381	347
435.454	286
435.527	2003
435.600	856
435.673	730
435.746	-283
435.819	244
435.892	-9
435.966	27
436.039	-508
436.112	145
436.185	-443
436.258	-563
436.331	-1488
436.404	-987
436.477	-888
436.550	118
436.623	-226
436.696	-668
436.769	2
436.842	-14
436.915	-239
436.987	1123
437.060	153
437.133	-388
437.206	-870
437.279	1002
437.352	-937
437.425	-280
437.498	308
437.570	1716
437.643	1571
437.716	238
437.789	-497
437.861	923
437.934	5372
438.007	3296
438.080	-70
438.152	764
438.225	2652
438.298	31456
438.370	104109
438.443	49734
438.516	8554
438.588	1895
438.661	-274
438.734	91
438.806	-162
438.879	1631
438.951	1086
439.024	2522
439.096	37
439.169	439
439.241	-274
439.314	-286
439.386	1500
439.459	4026
439.531	6057
439.604	2629
439.676	-420
439.749	-604
439.821	-299
439.893	2
439.966	84
440.038	700
440.110	845
440.183	424
440.255	-957
440.327	1245
440.400	10458
440.472	56055
440.544	47664
440.617	6934
440.689	2055
440.761	2531
440.833	4895
440.905	4087
440.978	38
441.050	-446
441.122	172
441.194	67
441.266	-431
441.338	-365
441.411	2077
441.483	13614
441.555	27031
441.627	7521
441.699	2894
441.771	3110
441.843	698
441.915	392
441.987	-107
442.059	-10
442.131	32
442.203	2194
442.275	2143
442.347	2759
442.419	2950
442.491	16614
442.563	47918
442.635	28007
442.706	13994
442.778	13631
442.850	2488
442.922	407
442.994	763
443.066	2409
443.137	2513
443.209	918
443.281	1633
443.353	4563
443.425	23340
443.496	88296
443.568	96066
443.640	38608
443.711	7477
443.783	2181
443.855	1362
443.926	825
443.998	-131
444.070	1883
444.141	1288
444.213	2001
444.285	4331
444.356	4777
444.428	4696
444.499	1265
444.571	285
444.642	-255
444.714	305
444.785	1985
444.857	3423
444.928	10180
445.000	8211
445.071	6809
445.143	10150
445.214	5382
445.285	5560
445.357	21383
445.428	62277
445.500	152784
445.571	109397
445.642	53723
445.714	21788
445.785	21306
445.856	9499
445.928	3629
445.999	3208
446.070	3262
446.141	2805
446.213	3643
446.284	2077
446.355	2634
446.426	1347
446.497	41
446.569	2799
446.640	5068
446.711	4089
446.782	1183
446.853	2536
446.924	4393
446.995	1762
447.066	1454
447.138	3405
447.209	2548
447.280	-139
447.351	363
447.422	-1145
447.493	939
447.564	1299
447.635	2943
447.706	1589
447.777	35
447.847	-278
447.918	-535
447.989	1481
448.060	2374
448.131	6588
448.202	8223
448.273	4725
448.344	1612
448.414	-483
448.485	-238
448.556	258
448.627	-460
448.698	429
448.768	-398
448.839	-288
448.910	3038
448.981	4202
449.051	778
449.122	-415
449.193	-510
449.263	-91
449.334	20
449.405	2
449.475	4058
449.546	3945
449.616	4358
449.687	4652
449.758	716
449.828	-400
449.899	-182
449.969	-291
450.040	-561
450.110	653
450.181	2437
450.251	386
450.322	-652
450.392	763
450.463	811
450.533	-1023
450.604	890
450.674	-304
450.744	504
450.815	224
450.885	15
450.955	-151
451.026	-5
451.096	-428
451.166	1016
451.237	3547
451.307	13459
451.377	9161
451.447	180
451.518	464
451.588	405
451.658	500
451.728	1560
451.799	11044
451.869	20425
451.939	6107
452.009	139
452.079	-270
452.149	669
452.219	2322
452.289	14301
452.360	16941
452.430	3601
452.500	1226
452.570	1885
452.640	3156
452.710	10499
452.780	19013
452.850	13847
452.920	10306
452.990	5579
453.060	1076
453.129	1922
453.199	3443
453.269	14468
453.339	45846
453.409	77275
453.479	60522
453.549	93645
453.619	105376
453.688	60998
453.758	9946
453.828	2615
453.898	1181
453.968	717
454.037	1484
454.087	855
454.107	572
454.168	-137
454.177	-268
454.247	645
454.249	651
454.316	61
454.330	505
454.386	2062
454.411	4226
454.456	6795
454.492	10819
454.525	14252
454.574	9672
454.595	7828
454.655	2121
454.665	1258
454.734	3036
454.736	3229
454.804	7236
454.817	9653
454.873	16362
454.898	19395
454.943	23847
454.979	17498
455.013	12475
455.060	6669
455.082	4726
455.141	5903
455.152	5875
455.221	13855
455.222	14273
455.291	24759
455.303	23726
455.360	19676
455.384	18966
455.430	17005
455.465	17667
455.499	17782
455.546	18917
455.569	18011
455.627	15047
455.638	14921
455.707	4558
455.708	4568
455.777	2184
455.789	2176
455.846	1842
455.869	1767
455.916	1711
455.950	1738
455.985	1472
456.031	1675
456.054	1775
456.112	1616
456.124	1643
456.193	1557
456.193	1524
456.262	2582
456.274	2970
456.332	4363
456.355	4828
456.401	4834
456.436	4479
456.470	4255
456.516	2307
456.540	1431
456.597	1208
456.609	1144
456.678	1010
456.678	985
456.747	1374
456.759	1359
456.817	1127
456.840	1216
456.886	1449
456.920	1294
456.955	1238
457.001	1912
457.024	2453
457.082	4023
457.093	4226
457.162	5622
457.163	5674
457.232	7779
457.243	7604
457.301	5455
457.324	3871
457.370	2099
457.405	2429
457.439	2620
457.485	2380
457.508	2324
457.566	3527
457.577	3768
457.646	4194
457.647	4231
457.715	7693
457.727	8563
457.784	14501
457.808	17486
457.853	20208
457.889	22924
457.922	20543
457.969	13840
457.991	15594
458.050	21174
458.060	22385
458.129	36370
458.130	36832
458.198	29498
458.211	26708
458.267	16039
458.292	10850
458.336	8220
458.372	7863
458.405	11160
458.453	16649
458.474	21870
458.533	39669
458.543	40984
458.611	56999
458.614	57585
458.680	31109
458.694	23667
458.749	13613
458.775	9665
458.818	6416
458.855	5537
458.887	4801
458.936	4279
458.955	4279
459.016	4288
459.024	4250
459.093	4620
459.097	4624
459.162	4835
459.177	5168
459.230	6316
459.257	6685
459.299	6815
459.338	6653
459.368	6773
459.418	7491
459.437	7089
459.499	5949
459.505	5953
459.574	4774
459.579	4795
459.643	5087
459.659	5015
459.711	4944
459.740	5131
459.780	5721
459.820	6225
459.849	6439
459.900	7000
459.917	6840
459.981	6551
459.986	6489
460.054	5190
460.061	5021
460.123	5030
460.141	5361
460.191	6927
460.222	7555
460.260	8386
460.302	10259
460.328	9496
460.382	6684
460.397	6655
460.462	6421
460.465	6481
460.534	8937
460.543	9213
460.602	23789
460.623	29312
460.671	46903
460.703	60573
460.739	52707
460.783	41251
460.808	33217
460.864	9115
460.876	8300
460.944	7367
460.945	7337
461.013	6440
461.024	6372
461.081	6957
461.104	7207
461.150	6432
461.184	5821
461.218	6262
461.264	6665
461.286	6593
461.345	6621
461.355	6635
461.423	7199
461.425	7186
461.491	6969
461.505	7179
461.559	15594
461.585	19469
461.628	34040
461.665	47767
461.696	52755
461.745	63580
461.764	53979
461.825	17698
461.832	17536
461.901	10076
461.905	9947
461.969	8184
461.985	7986
462.037	8479
462.065	8458
462.105	9242
462.145	10300
462.173	15698
462.225	25986
462.241	29259
462.305	43661
462.310	42284
462.378	21363
462.385	18503
462.446	11393
462.465	9153
462.514	8231
462.545	8707
462.582	8503
462.625	8082
462.650	7948
462.705	7777
462.718	8105
462.785	9691
462.786	9791
462.854	15523
462.865	16545
462.922	21431
462.945	23557
462.990	16706
463.025	10654
463.058	9759
463.104	7996
463.126	7786
463.184	7811
463.194	7914
463.262	8388
463.264	8431
463.330	9304
463.344	9385
463.398	10610
463.424	11201
463.466	11371
463.504	11586
463.533	11385
463.583	10949
463.601	11392
463.663	12496
463.669	12852
463.737	17542
463.743	17963
463.805	28928
463.823	32068
463.873	49969
463.903	61011
463.940	64389
463.982	69205
464.008	54822
464.062	22294
464.076	20766
464.142	9985
464.144	9903
464.211	9134
464.221	9154
464.279	10260
464.301	10710
464.347	11558
464.381	12024
464.414	13925
464.461	16690
464.482	17069
464.540	18212
464.550	17419
464.617	11347
464.620	11103
464.685	12093
464.699	12409
464.753	13788
464.779	14532
464.820	15796
464.859	16773
464.888	17138
464.938	17852
464.956	18263
465.018	19494
465.023	19054
465.091	13244
465.098	12563
465.158	12276
465.177	12246
465.226	12821
465.257	13163
465.293	14000
465.336	14980
465.361	16462
465.416	19726
465.428	21333
465.495	29903
465.496	30131
465.563	58077
465.575	62903
465.631	78228
465.654	84860
465.698	50281
465.734	20741
465.765	17951
465.813	13096
465.833	12669
465.893	12458
465.900	12495
465.968	12563
465.972	12551
466.035	11823
466.052	11604
466.102	12371
466.131	12746
466.170	13031
466.210	13316
466.237	13398
466.290	13440
466.304	13620
466.369	14289
466.372	14380
466.439	16276
466.449	16507
466.506	17742
466.528	18169
466.573	27252
466.607	33967
466.641	54811
466.687	83777
466.708	94002
466.766	121966
466.775	112017
466.842	35525
466.845	31815
466.909	21023
466.925	18473
466.977	17360
467.004	16856
467.044	17503
467.083	18094
467.111	19093
467.163	20874
467.178	21329
467.242	22984
467.245	22987
467.312	22043
467.321	21872
467.379	23077
467.400	23443
467.446	25966
467.480	27697
467.559	23012
467.638	19186
467.717	19516
467.796	22622
467.875	25012
467.955	25081
468.034	39544
468.113	100015
468.192	154504
468.271	37004
468.350	22104
468.429	26807
468.508	26776
468.588	22420
468.667	20789
468.746	22744
468.825	22035
468.904	18138
468.983	22421
469.062	38575
469.141	49596
469.220	19286
469.299	17928
469.378	19421
469.456	19993
469.535	19420
469.614	18248
469.693	21087
469.772	29154
469.851	42623
469.930	28587
470.009	18642
470.088	17049
470.166	18753
470.245	24356
470.324	27612
470.403	22284
470.482	18242
470.560	17029
470.639	18713
470.718	21279
470.797	18850
470.875	21782
470.954	34929
471.033	39615
471.111	15825
471.190	14653
471.269	14902
471.347	14917
471.426	16572
471.505	20174
471.583	19181
471.662	18192
471.740	15726
471.819	15858
471.898	15542
471.976	15530
472.055	15433
472.133	18759
472.212	28202
472.290	29707
472.369	18399
472.447	15203
472.526	13923
472.604	15099
472.683	16624
472.761	17397
472.839	15625
472.918	14604
472.996	16499
473.075	19508
473.153	20261
473.231	16390
473.310	20100
473.388	19224
473.466	18122
473.545	18221
473.623	23618
473.701	23670
473.780	16583
473.858	16607
473.936	19058
474.014	15724
474.093	18424
474.171	29655
474.249	46982
474.327	28246
474.405	14721
474.484	13418
474.562	14840
474.640	15214
474.718	16108
474.796	15405
474.874	13999
474.952	12453
475.030	12908
475.108	14357
475.187	15122
475.265	16445
475.343	26716
475.421	30236
475.499	15864
475.577	17167
475.655	23388
475.733	51509
475.811	97353
475.889	88377
475.966	57392
476.044	17282
476.122	22462
476.200	29540
476.278	23780
476.356	16523
476.434	19254
476.512	22035
476.590	28709
476.667	24557
476.745	16855
476.823	17232
476.901	17301
476.979	18777
477.056	17131
477.134	18020
477.212	18763
477.290	16911
477.367	15486
477.445	15179
477.523	15754
477.601	15893
477.678	16205
477.756	20837
477.834	24719
477.911	15074
477.989	15948
478.066	16215
478.144	19660
478.222	21647
478.299	34030
478.377	31955
478.454	15018
478.532	14719
478.609	16128
478.687	16406
478.764	14609
478.842	15147
478.919	17230
478.997	16774
479.074	15162
479.152	19484
479.229	26365
479.307	16185
479.384	12828
479.461	13965
479.539	16400
479.616	19187
479.694	16147
479.771	18186
479.848	19434
479.926	26985
480.003	29373
480.080	13867
480.157	13845
480.235	13571
480.312	15267
480.389	18586
480.467	31814
480.544	41195
480.621	20876
480.698	19023
480.775	21113
480.853	21978
480.930	16655
481.007	18583
481.084	21626
481.161	22816
481.238	21057
481.315	15123
481.392	15662
481.470	15900
481.547	16855
481.624	16774
481.701	16055
481.778	17075
481.855	20682
481.932	30276
482.009	55056
482.086	37191
482.163	18151
482.240	24756
482.317	43752
482.393	33517
482.470	18180
482.547	18672
482.624	16088
482.701	16656
482.778	16442
482.855	14317
482.932	14466
483.009	13825
483.085	15776
483.162	20837
483.239	19212
483.316	15610
483.393	16647
483.469	15168
483.546	18650
483.623	19243
483.699	15799
483.776	15611
483.853	19691
483.930	28804
484.006	76679
484.083	139882
484.160	49142
484.236	51018
484.313	40155
484.389	33784
484.466	29954
484.543	27755
484.619	31082
484.696	34023
484.772	36565
484.849	40521
484.925	28069
485.002	27460
485.078	31370
485.155	32194
485.231	27674
485.308	26988
485.384	29537
485.461	37747
485.537	73680
485.614	90697
485.690	29788
485.766	26867
485.843	28286
485.919	38607
485.995	41949
486.072	24778
486.148	24422
486.224	24066
486.301	26278
486.377	32201
486.453	33034
486.530	28135
486.606	34384
486.682	39179
486.758	56263
486.835	73003
486.911	50892
486.987	93178
487.063	84241
487.139	94669
487.215	66696
487.292	32520
487.368	27975
487.444	31809
487.520	41707
487.596	41687
487.672	59194
487.748	152768
487.824	243707
487.900	77371
487.976	35640
488.052	34001
488.128	41444
488.204	32905
488.280	28281
488.356	35493
488.432	82676
488.508	142365
488.584	41737
488.660	24499
488.736	24904
488.812	25885
488.888	31686
488.964	40247
489.039	87808
489.115	139353
489.191	82455
489.267	27078
489.343	26117
489.418	21365
489.494	21164
489.570	19901
489.646	22292
489.722	22070
489.797	24323
489.873	39513
489.949	101838
490.024	85547
490.100	22937
490.176	21376
490.251	25994
490.327	34331
490.403	21617
490.478	18636
490.554	15851
490.629	17125
490.705	16947
490.781	19957
490.856	21074
490.932	22810
491.007	21622
491.083	22040
491.158	21144
491.234	29148
491.309	76675
491.385	79314
491.460	22298
491.536	23155
491.611	19558
491.686	21782
491.762	28478
491.837	58728
491.913	99859
491.988	138444
492.063	174907
492.139	56628
492.214	34958
492.289	16418
492.365	16093
492.440	20750
492.515	22845
492.590	21145
492.666	16355
492.741	24404
492.816	45230
492.891	22492
492.967	16065
493.042	15018
493.117	14428
493.192	15510
493.267	21888
493.342	55130
493.418	76175
493.493	19270
493.568	14355
493.643	14424
493.718	21403
493.793	34879
493.868	35688
493.943	20275
494.018	16231
494.093	14408
494.168	15795
494.243	13228
494.318	13565
494.393	12293
494.468	13085
494.543	12373
494.618	15655
494.693	14498
494.768	14160
494.842	14931
494.917	12092
494.992	13210
495.067	12111
495.142	10534
495.217	12593
495.292	13295
495.366	17665
495.441	23992
495.516	30590
495.591	39332
495.665	115224
495.740	298736
495.815	116984
495.890	26007
495.964	20679
496.039	22520
496.114	20165
496.188	22244
496.263	22522
496.338	19863
496.412	23843
496.487	27008
496.561	25506
496.636	26916
496.710	22526
496.785	23962
496.860	30351
496.934	21268
497.009	19989
497.083	19955
497.158	20489
497.232	25593
497.307	33748
497.381	24376
497.455	31114
497.530	44831
497.604	27053
497.679	29118
497.753	48894
497.827	62851
497.902	51580
497.976	61342
498.050	141943
498.125	592338
498.199	625235
498.273	78035
498.348	48824
498.422	38016
498.496	36967
498.570	34356
498.645	27511
498.719	31138
498.793	40419
498.867	66888
498.941	88323
499.016	227839
499.090	697759
499.164	229659
499.238	28685
499.312	23090
499.386	29659
499.460	27902
499.534	27158
499.609	33152
499.683	57360
499.757	54482
499.831	105639
499.905	446784
499.979	442482
500.053	69793
500.127	64234
500.201	40532
500.275	27955
500.349	27191
500.422	32881
500.496	44879
500.570	90651
500.644	232296
500.718	502317
500.792	101210
500.866	28566
500.940	39517
501.013	33036
501.087	31621
501.161	51412
501.235	70053
501.309	152346
501.382	440206
501.456	383169
501.530	79778
501.603	154982
501.677	54614
501.751	24592
501.825	29536
501.898	57242
501.972	184567
502.046	111733
502.119	32248
502.193	72296
502.266	202043
502.340	92518
502.413	81445
502.487	173420
502.561	98732
502.634	27984
502.708	21083
502.781	19361
502.855	16369
502.928	14647
503.002	15560
503.075	15692
503.149	17940
503.222	18346
503.295	21445
503.369	28024
503.442	38834
503.516	120996
503.589	343735
503.662	218579
503.736	63580
503.809	158317
503.882	122246
503.956	181190
504.029	166765
504.102	98155
504.175	130822
504.249	45635
504.322	29395
504.395	27009
504.468	16853
504.542	18840
504.615	13975
504.688	13847
504.761	13575
504.834	17732
504.907	18715
504.980	32362
505.053	18252
505.127	21823
505.200	25265
505.273	31003
505.346	17176
505.419	14818
505.492	12497
505.565	11676
505.638	10112
505.711	12105
505.784	11692
505.857	10292
505.930	12976
506.003	12125
506.076	15310
506.149	21253
506.221	28876
506.294	24294
506.367	63269
506.440	239737
506.513	120278
506.586	29151
506.659	16470
506.731	13374
506.804	15989
506.877	22795
506.950	17107
507.022	12103
507.095	17928
507.168	23736
507.241	13454
507.313	10150
507.386	11930
507.459	18104
507.531	11781
507.604	10705
507.677	10722
507.749	8847
507.822	13329
507.894	23772
507.967	26590
508.040	15739
508.112	13898
508.185	14012
508.257	13253
508.330	21500
508.402	13548
508.475	14583
508.547	15003
508.620	16316
508.692	29929
508.765	15959
508.837	10885
508.909	11030
508.982	11440
509.054	12804
509.127	11487
509.199	10595
509.271	9872
509.344	10210
509.416	10020
509.488	10776
509.560	10995
509.633	12380
509.705	13640
509.777	12852
509.849	19048
509.922	13596
509.994	10484
510.066	11476
510.138	10921
510.210	19748
510.283	18516
510.355	16356
510.427	14997
510.499	15001
510.571	15495
510.643	14169
510.715	22473
510.787	20757
510.859	14226
510.931	18369
511.003	22097
511.076	20796
511.148	12833
511.219	13256
511.291	25742
511.363	32325
511.435	12298
511.507	11012
511.579	11574
511.651	12002
511.723	11725
511.795	11764
511.867	11722
511.939	17405
512.010	41145
512.082	31239
512.154	13241
512.226	13074
512.298	16136
512.369	24826
512.441	18515
512.513	19552
512.585	15004
512.656	15460
512.728	18170
512.800	13509
512.871	12382
512.943	14230
513.015	10746
513.086	14052
513.158	13209
513.230	14700
513.301	21241
513.373	25634
513.444	14440
513.516	11810
513.588	13097
513.659	13993
513.731	18414
513.802	16063
513.874	29443
513.945	56635
514.016	18777
514.088	13244
514.159	13564
514.231	19475
514.302	23618
514.374	16927
514.445	18284
514.516	44856
514.588	32157
514.659	19620
514.730	40915
514.802	27744
514.873	15039
514.944	16823
515.016	14652
515.087	18525
515.158	26113
515.229	41087
515.301	15968
515.372	17774
515.443	12884
515.514	12641
515.585	10482
515.656	11323
515.728	11601
515.799	10196
515.870	11786
515.941	13859
516.012	12859
516.083	15262
516.154	17006
516.225	25232
516.296	22391
516.367	18409
516.438	20553
516.509	28798
516.580	38964
516.651	98146
516.722	379076
516.793	177435
516.864	41813
516.935	42819
517.006	45609
517.077	60219
517.148	124920
517.219	362573
517.289	627314
517.360	270664
517.431	90295
517.502	24920
517.573	22525
517.643	22494
517.714	22981
517.785	24521
517.856	24693
517.926	29569
517.997	34171
518.068	40671
518.138	54593
518.209	77007
518.280	228430
518.350	920055
518.421	353035
518.492	47417
518.562	34032
518.633	35722
518.703	34467
518.774	57876
518.845	137169
518.915	142094
518.986	48994
519.056	38342
519.127	56703
519.197	88717
519.268	235041
519.338	157982
519.408	35885
519.479	36042
519.549	27390
519.620	20650
519.690	15350
519.760	16422
519.831	17295
519.901	18034
519.971	15174
520.042	17293
520.112	20479
520.182	20625
520.253	21644
520.323	15710
520.393	15809
520.463	19181
520.534	16598
520.604	27227
520.674	19947
520.744	23117
520.814	29911
520.885	35737
520.955	68206
521.025	289533
521.095	104384
521.165	19659
521.235	18442
521.305	15738
521.375	13855
521.445	15992
521.515	20262
521.585	22552
521.655	21321
521.725	19147
521.795	18035
521.865	14975
521.935	25408
522.005	23251
522.075	14882
522.145	16262
522.215	18398
522.285	27787
522.355	37810
522.424	77626
522.494	65149
522.564	27646
522.634	44205
522.704	131867
522.774	51009
522.843	17348
522.913	15274
522.983	19792
523.053	16060
523.122	16931
523.192	20827
523.262	67067
523.331	67691
523.401	16670
523.471	11253
523.540	13666
523.610	10373
523.680	11650
523.749	12083
523.819	17083
523.888	17830
523.958	11856
524.027	13372
524.097	16420
524.166	13763
524.236	13556
524.305	14117
524.375	13803
524.444	11957
524.514	13973
524.583	14540
524.653	18481
524.722	20967
524.791	13947
524.861	13450
524.930	12461
524.999	12360
525.069	19285
525.138	17065
525.207	22143
525.277	13993
525.346	14348
525.415	14272
525.484	14437
525.554	18205
525.623	17968
525.692	14573
525.761	17852
525.830	17491
525.900	22086
525.969	33427
526.038	50468
526.107	84535
526.176	260884
526.245	215878
526.314	73643
526.383	135941
526.452	187912
526.522	296027
526.591	318989
526.660	90348
526.729	51665
526.797	56250
526.867	99671
526.935	389663
527.004	690992
527.073	382623
527.142	41274
527.211	21924
527.280	20307
527.349	20227
527.418	11597
527.487	12967
527.555	11243
527.624	10709
527.693	10327
527.762	12582
527.831	11050
527.899	11413
527.968	11430
528.037	11436
528.106	14294
528.174	24054
528.243	22138
528.312	30327
528.380	39325
528.449	15268
528.518	11730
528.586	8176
528.655	10193
528.723	9698
528.792	9262
528.861	10719
528.929	10309
528.998	10488
529.066	9162
529.135	8754
529.203	8706
529.272	7419
529.340	9865
529.409	10314
529.477	9092
529.545	13972
529.614	16601
529.682	15128
529.751	20756
529.819	18001
529.887	13323
529.956	8914
530.024	10809
530.092	7951
530.161	11403
530.229	17586
530.297	10660
530.365	9008
530.434	7903
530.502	8180
530.570	8687
530.638	6569
530.707	10308
530.775	11677
530.843	8121
530.911	8262
530.979	8505
531.047	8703
531.115	11109
531.183	8544
531.252	8644
531.320	10622
531.388	8675
531.456	9456
531.524	8122
531.592	9380
531.660	11641
531.728	8415
531.796	8969
531.864	9777
531.932	9137
532.000	8122
532.067	10015
532.135	10426
532.203	13054
532.271	13026
532.339	20090
532.407	54102
532.475	33826
532.542	17532
532.610	19663
532.678	24549
532.746	85307
532.814	241681
532.881	56901
532.949	13978
533.017	12094
533.084	10511
533.152	9959
533.220	10423
533.287	11383
533.355	9068
533.423	10392
533.490	8871
533.558	10054
533.625	9721
533.693	10996
533.761	10837
533.828	11452
533.896	10348
533.963	19396
534.031	23464
534.098	35093
534.166	16993
534.233	9931
534.300	11016
534.368	12574
534.435	10491
534.503	11731
534.570	11792
534.637	13023
534.705	15521
534.772	18138
534.840	26763
534.907	109667
534.974	152182
535.041	22534
535.109	17943
535.176	11177
535.243	11535
535.310	10013
535.378	9946
535.445	9935
535.512	8986
535.579	10197
535.646	9419
535.714	9995
535.781	11827
535.848	12957
535.915	12248
535.982	11641
536.049	10050
536.116	12634
536.183	10790
536.250	11820
536.317	11488
536.384	13270
536.451	18472
536.518	19767
536.585	14496
536.652	18295
536.719	24897
536.786	21220
536.853	16577
536.920	24304
536.987	38105
537.053	33243
537.120	111822
537.187	103597
537.254	15266
537.321	11958
537.388	12455
537.454	11120
537.521	9941
537.588	10416
537.654	12801
537.721	13308
537.788	13388
537.855	11218
537.921	12286
537.988	12295
538.055	12126
538.121	11733
538.188	13328
538.254	16868
538.321	34580
538.388	23833
538.454	13257
538.521	12128
538.587	10364
538.654	11460
538.720	11161
538.787	11182
538.853	12328
538.920	15634
538.986	16817
539.053	12453
539.119	14473
539.185	14211
539.252	14444
539.318	21319
539.385	16844
539.451	15645
539.517	15836
539.583	18381
539.650	34003
539.716	91202
539.782	25929
539.849	13147
539.915	13969
539.981	13530
540.047	15503
540.114	13825
540.180	14509
540.246	14012
540.312	17846
540.378	34759
540.444	37281
540.510	33437
540.576	100497
540.643	33666
540.709	12135
540.775	12254
540.841	13103
540.907	17133
540.973	25073
541.039	19637
541.105	21822
541.171	13876
541.237	12894
541.303	13894
541.369	14713
541.435	18287
541.500	29572
541.566	19886
541.632	11397
541.698	11411
541.764	11921
541.830	11308
541.896	11007
541.961	12255
542.027	11910
542.093	13129
542.159	12354
542.224	13537
542.290	18845
542.356	28420
542.421	35579
542.487	17076
542.553	13551
542.618	16179
542.684	13665
542.750	14238
542.815	16839
542.881	26351
542.947	81724
543.012	63723
543.078	13482
543.143	11645
543.209	12503
543.274	13049
543.340	16206
543.405	31324
543.471	51290
543.536	14464
543.602	12155
543.667	11595
543.732	12194
543.798	10676
543.863	11824
543.928	10921
543.994	10151
544.059	12498
544.124	10899
544.190	10959
544.255	12014
544.320	12834
544.386	12728
544.451	17090
544.516	20347
544.581	20131
544.646	50236
544.712	83917
544.777	20695
544.842	17135
544.907	19333
544.972	16394
545.037	15325
545.102	17269
545.168	17042
545.233	18241
545.298	18163
545.363	21867
545.428	22329
545.493	32272
545.558	70914
545.623	32750
545.688	18600
545.753	17635
545.818	15687
545.883	16926
545.947	16355
546.012	19119
546.077	20426
546.142	19352
546.207	18408
546.272	21625
546.337	22892
546.401	19633
546.466	18476
546.531	17542
546.596	19688
546.661	20760
546.725	18892
546.790	18421
546.855	18816
546.919	20067
546.984	22237
547.049	24005
547.113	28218
547.178	25529
547.243	28193
547.307	33250
547.372	37384
547.436	40346
547.501	31986
547.565	35481
547.630	36205
547.695	36709
547.759	41276
547.823	37593
547.888	31843
547.952	32352
548.017	33439
548.081	38972
548.146	46506
548.210	42125
548.274	35370
548.339	34531
548.403	33122
548.468	31691
548.532	29297
548.596	31430
548.660	32324
548.725	34770
548.789	40293
548.853	41323
548.917	36852
548.982	42795
549.046	42501
549.110	29529
549.174	29333
549.238	32058
549.303	33226
549.367	35500
549.431	35042
549.495	32519
549.559	32530
549.623	36236
549.687	40082
549.751	47441
549.815	47219
549.879	45131
549.943	40738
550.007	45680
550.071	45819
550.135	46057
550.199	40623
550.263	40689
550.327	40358
550.391	49286
550.455	42824
550.519	42909
550.582	45496
550.646	55971
550.710	56625
550.774	49247
550.838	48526
550.901	52423
550.965	54990
551.029	58060
551.093	64053
551.156	76415
551.220	112971
551.284	138497
551.347	81675
551.411	109637
551.475	115966
551.538	55981
551.602	49423
551.666	46826
551.729	42083
551.793	42299
551.856	43055
551.920	39515
551.983	40194
552.047	40861
552.110	40452
552.174	40665
552.237	42561
552.301	39220
552.364	37135
552.428	37310
552.491	38124
552.554	40629
552.618	38317
552.681	40382
552.745	40604
552.808	48926
552.871	56077
552.934	44428
552.998	39092
553.061	40486
553.124	38174
553.187	36908
553.251	39213
553.314	40020
553.377	38335
553.440	43924
553.503	55041
553.567	68341
553.630	41524
553.693	38714
553.756	41204
553.819	37459
553.882	37112
553.945	37060
554.008	37113
554.071	36294
554.134	36987
554.197	34485
554.260	33759
554.323	36134
554.386	36146
554.449	36531
554.512	36492
554.575	35438
554.638	35983
554.701	34992
554.764	33649
554.827	34099
554.889	32787
554.952	31122
555.015	29536
555.078	30723
555.141	32357
555.203	31037
555.266	29806
555.329	31614
555.391	29588
555.454	30048
555.517	30607
555.580	27902
555.642	27315
555.705	25603
555.768	27253
555.830	27948
555.893	24544
555.955	24756
556.018	24380
556.080	25122
556.143	24831
556.206	25830
556.268	27043
556.330	26691
556.393	25213
556.455	26716
556.518	33115
556.580	34005
556.643	22439
556.705	22087
556.767	20901
556.830	23066
556.892	22965
556.955	30408
557.017	25361
557.079	22834
557.142	21261
557.204	22899
557.266	38221
557.328	33745
557.391	19820
557.453	19474
557.515	19849
557.577	22938
557.639	23607
557.701	19676
557.764	18819
557.826	20443
557.888	23326
557.950	23692
558.012	25933
558.074	33502
558.136	63532
558.198	161475
558.260	59196
558.322	25809
558.384	26777
558.446	31591
558.508	36475
558.570	46472
558.632	63645
558.694	93562
558.756	104119
558.818	275287
558.880	735912
558.942	234218
559.003	169859
559.065	85397
559.127	37495
559.189	39116
559.251	45238
559.312	61407
559.374	129740
559.436	466718
559.498	237070
559.559	41890
559.621	39118
559.683	46735
559.744	72700
559.806	212023
559.868	339050
559.929	67273
559.991	42938
560.052	57463
560.114	156337
560.176	104574
560.237	84840
560.299	148205
560.360	37240
560.422	21469
560.483	19373
560.545	18493
560.606	17933
560.667	17250
560.729	17180
560.790	16070
560.852	16099
560.913	16884
560.974	14784
561.036	16119
561.097	16646
561.158	16637
561.220	16211
561.281	16035
561.342	17115
561.403	19951
561.465	21310
561.526	41362
561.587	54409
561.648	20974
561.709	15894
561.771	16017
561.832	15390
561.893	15595
561.954	14500
562.015	15151
562.076	14349
562.137	15417
562.198	15113
562.259	15182
562.320	14392
562.381	16156
562.442	20622
562.503	17597
562.564	14410
562.625	14029
562.686	13424
562.747	15902
562.808	15723
562.869	15357
562.930	19612
562.991	18268
563.051	16430
563.112	16070
563.173	15124
563.234	14407
563.294	14709
563.355	15063
563.416	14744
563.477	14471
563.537	14682
563.598	16789
563.659	15685
563.720	15657
563.780	15180
563.841	15311
563.901	16068
563.962	16027
564.023	13863
564.083	14954
564.144	15036
564.204	16235
564.265	15742
564.325	18769
564.386	33229
564.446	32540
564.507	14322
564.567	14767
564.628	13989
564.688	12831
564.749	13931
564.809	16610
564.869	20521
564.930	14423
564.990	12828
565.050	12811
565.111	13477
565.171	12690
565.231	13449
565.292	14521
565.352	12198
565.412	13892
565.472	13185
565.532	14284
565.593	13600
565.653	12681
565.713	13490
565.773	14294
565.833	15037
565.893	20258
565.953	13601
566.013	13905
566.074	14574
566.134	19691
566.194	30312
566.254	31218
566.314	19482
566.374	14124
566.434	14390
566.494	14634
566.554	13648
566.614	13440
566.673	14072
566.733	14239
566.793	15836
566.853	15310
566.913	14690
566.973	15368
567.033	16396
567.092	15478
567.152	14838
567.212	16152
567.272	14953
567.331	17066
567.391	16028
567.451	17376
567.511	23419
567.570	24730
567.630	14483
567.690	15090
567.749	14626
567.809	14608
567.868	15204
567.928	16634
567.988	18930
568.047	17539
568.107	19884
568.166	23004
568.226	32307
568.285	44196
568.345	34212
568.404	27310
568.464	23898
568.523	22578
568.582	23335
568.642	26664
568.701	30916
568.761	41721
568.820	66673
568.879	63332
568.939	47075
568.998	32647
569.057	24816
569.116	20559
569.176	18020
569.235	16128
569.294	15914
569.353	14761
569.413	14476
569.472	14048
569.531	13182
569.590	12966
569.649	12846
569.708	12643
569.767	12866
569.827	15498
569.886	14145
569.945	12468
570.004	11984
570.063	12760
570.122	13685
570.181	14828
570.240	15080
570.299	17360
570.358	15642
570.417	13710
570.475	12441
570.534	13334
570.593	12635
570.652	13759
570.711	13134
570.770	12774
570.829	14977
570.887	12888
570.946	14664
571.005	12225
571.064	12412
571.122	13348
571.181	15102
571.240	12840
571.299	11584
571.357	13929
571.416	14149
571.475	15272
571.533	16334
571.592	12881
571.650	13776
571.709	12358
571.768	12265
571.826	12250
571.885	11919
571.943	11424
572.002	11782
572.060	12837
572.119	10688
572.177	10750
572.236	9664
572.294	9298
572.352	10490
572.411	11268
572.469	10237
572.528	10036
572.586	10756
572.644	11601
572.703	14203
572.761	11784
572.819	10131
572.877	10778
572.936	8922
572.994	9608
573.052	9562
573.110	11146
573.169	9937
573.227	10427
573.285	9882
573.343	10484
573.401	10382
573.459	10892
573.517	10297
573.576	9798
573.634	10614
573.692	11086
573.750	8839
573.808	10640
573.866	11648
573.924	14732
573.982	14329
574.040	11304
574.098	10378
574.155	9341
574.213	9516
574.271	9329
574.329	9850
574.387	9632
574.445	9197
574.503	8927
574.560	8112
574.618	8461
574.676	8719
574.734	8060
574.792	8665
574.849	9066
574.907	7246
574.965	8351
575.022	7551
575.080	8086
575.138	8750
575.195	9501
575.253	9275
575.311	9130
575.368	8216
575.426	8258
575.483	8340
575.541	8873
575.598	8227
575.656	9754
575.713	9336
575.771	8913
575.828	7754
575.886	8614
575.943	9620
576.001	9470
576.058	9402
576.115	10139
576.173	12424
576.230	14856
576.287	14969
576.345	12102
576.402	10007
576.459	10214
576.517	9593
576.574	11986
576.631	12487
576.688	11393
576.746	9940
576.803	9323
576.860	9119
576.917	9000
576.974	9169
577.031	9806
577.089	9348
577.146	9260
577.203	9429
577.260	10818
577.317	10694
577.374	13283
577.431	11808
577.488	9986
577.545	8164
577.602	10220
577.659	9075
577.716	9539
577.773	9361
577.830	8053
577.886	8785
577.943	9020
578.000	8364
578.057	9702
578.114	9200
578.171	9192
578.227	8890
578.284	8125
578.341	9036
578.398	9349
578.454	10031
578.511	11004
578.568	13818
578.625	10632
578.681	8906
578.738	7488
578.794	8651
578.851	9646
578.908	8839
578.964	8719
579.021	8553
579.077	8284
579.134	7752
579.190	8245
579.247	8497
579.303	8711
579.360	7110
579.416	7750
579.473	6732
579.529	7037
579.586	7940
579.642	7949
579.698	8422
579.755	8810
579.811	7865
579.867	6961
579.924	7290
579.980	7054
580.036	7671
580.093	7622
580.149	8219
580.205	9634
580.261	9395
580.317	9943
580.374	9861
580.430	12684
580.486	11239
580.542	9759
580.598	8941
580.619	9104
580.654	9398
580.692	8368
580.710	7878
580.765	8862
580.767	8902
580.823	8206
580.838	8458
580.879	9176
580.911	8983
580.935	8849
580.984	8326
580.991	8271
581.047	7758
581.057	7938
581.103	8765
581.130	8553
581.159	8346
581.203	8822
581.215	8964
581.270	9671
581.276	9621
581.326	9210
581.349	9309
581.382	9481
581.422	9109
581.438	8967
581.494	9182
581.494	9176
581.550	9278
581.567	9392
581.606	9718
581.640	9125
581.661	8765
581.713	9650
581.717	9730
581.773	8583
581.786	8744
581.829	9230
581.859	8901
581.885	8656
581.932	8239
581.940	8171
581.996	9313
582.004	9265
582.052	9069
582.077	8980
582.107	8796
582.150	8889
582.163	8974
582.219	8718
582.223	8726
582.274	8733
582.296	9002
582.330	9432
582.368	9684
582.386	9840
582.441	8586
582.441	8588
582.497	8276
582.514	8338
582.552	8439
582.587	8504
582.608	8633
582.659	8466
582.663	8439
582.719	7738
582.732	7816
582.774	8129
582.805	8166
582.830	8303
582.877	8312
582.885	8282
582.941	8197
582.950	8309
582.996	8920
583.023	8579
583.052	8170
583.095	8159
583.107	8192
583.162	8837
583.168	8864
583.218	9036
583.240	8937
583.273	8747
583.313	8406
583.328	8317
583.384	8111
583.385	8143
583.439	8907
583.458	8758
583.494	8570
583.531	8184
583.549	7948
583.603	7954
583.605	7954
583.660	8883
583.676	8516
583.715	7751
583.748	8030
583.770	8155
583.820	8704
583.825	8747
583.881	8238
583.893	8339
583.936	8770
583.965	8637
583.991	8387
584.038	7672
584.046	7609
584.101	8112
584.110	8159
584.156	8280
584.183	8306
584.211	8286
584.255	7898
584.266	7806
584.321	7644
584.328	7694
584.376	7994
584.400	7942
584.431	7872
584.472	7520
584.486	7424
584.541	8513
584.545	8482
584.596	7678
584.617	7852
584.651	8395
584.689	8882
584.706	9009
584.761	8758
584.762	8764
584.816	9190
584.834	9296
584.871	9107
584.906	8529
584.926	8402
584.978	8995
584.980	9005
585.035	9426
585.051	9651
585.090	10387
585.123	10715
585.145	10815
585.195	11319
585.200	11383
585.254	12410
585.267	12830
585.309	14072
585.340	14876
585.364	15452
585.412	17147
585.419	17379
585.473	19422
585.484	20112
585.528	23454
585.556	26982
585.583	31660
585.628	47330
585.637	51843
585.692	102890
585.700	114691
585.747	171763
585.772	136781
585.801	83690
585.845	32206
585.856	22804
585.910	14648
585.917	14099
585.965	12519
585.989	11824
586.019	11199
586.061	11111
586.074	11137
586.128	11211
586.133	11305
586.183	11699
586.205	11784
586.237	12184
586.277	12115
586.292	11990
586.346	11670
586.349	11705
586.401	12016
586.421	12157
586.455	12711
586.493	13377
586.509	14090
586.564	18433
586.565	18689
586.618	30850
586.637	31017
586.672	26613
586.709	18635
586.727	15256
586.781	13627
586.781	13612
586.835	11756
586.853	11503
586.889	11213
586.925	10868
586.944	10772
586.996	10395
586.998	10378
587.052	11352
587.068	11394
587.106	11471
587.140	11447
587.161	11312
587.212	11201
587.215	11209
587.269	11913
587.284	11971
587.323	11439
587.356	11589
587.377	12021
587.427	12457
587.431	12419
587.485	12376
587.499	12266
587.539	12487
587.571	12875
587.593	12925
587.643	13011
587.648	13068
587.702	14029
587.715	14361
587.755	14663
587.786	14613
587.810	14622
587.858	14456
587.864	14427
587.917	15609
587.930	15740
587.971	16736
588.001	17909
588.025	18331
588.073	17989
588.079	18029
588.133	19911
588.145	20388
588.187	21585
588.217	22439
588.241	23561
588.288	26853
588.295	27138
588.348	30256
588.360	31164
588.402	35408
588.431	38775
588.456	41475
588.503	47807
588.510	48621
588.564	58272
588.575	60826
588.617	70593
588.646	79058
588.671	87252
588.718	108113
588.725	111801
588.778	151610
588.789	163886
588.832	245229
588.861	316435
588.886	425108
588.932	657674
588.939	682052
588.993	800566
589.004	811015
589.047	575167
589.075	383661
589.100	280599
589.147	143822
589.154	134543
589.207	100593
589.218	96423
589.261	90083
589.290	89964
589.314	92698
589.361	103737
589.368	107351
589.421	150520
589.433	164231
589.475	272036
589.504	366192
589.528	477138
589.576	681055
589.582	667653
589.635	453224
589.647	398166
589.689	206790
589.718	103560
589.742	78898
589.790	50335
589.795	48552
589.849	39467
589.861	38329
589.902	37014
589.932	35629
589.955	31939
590.004	23432
590.009	22836
590.062	19804
590.075	19232
590.115	18586
590.146	17860
590.168	17183
590.218	16374
590.222	16345
590.275	16803
590.289	16909
590.328	16048
590.360	15391
590.381	15250
590.431	15005
590.435	14893
590.488	13710
590.503	13458
590.541	14222
590.574	14883
590.594	14487
590.645	13735
590.647	13704
590.700	13615
590.716	13528
590.753	12937
590.787	12805
590.806	12662
590.859	12251
590.859	12217
590.912	11870
590.930	11881
590.965	12042
591.001	12218
591.018	12159
591.071	11907
591.072	11932
591.124	12547
591.143	12744
591.177	12302
591.214	12010
591.230	12366
591.283	13527
591.285	13598
591.336	13794
591.356	13863
591.389	13934
591.427	13991
591.442	13569
591.495	12015
591.498	11929
591.547	11854
591.569	11905
591.600	11726
591.640	11423
591.653	11487
591.706	12040
591.711	12115
591.759	11895
591.782	11880
591.811	12821
591.853	14374
591.864	14051
591.917	12055
591.924	11838
591.969	11743
591.995	11777
592.022	11739
592.066	11694
592.075	12014
592.127	14228
592.137	14691
592.180	15944
592.208	16685
592.233	15451
592.279	13119
592.285	12901
592.338	11411
592.350	11103
592.390	11612
592.421	12066
592.443	11982
592.491	11861
592.495	11887
592.548	12637
592.562	12874
592.600	12104
592.633	11485
592.653	11625
592.704	12015
592.705	12063
592.775	11025
592.846	12889
592.916	11982
592.987	13495
593.058	12848
593.128	12307
593.199	11325
593.270	11489
593.341	11195
593.411	12073
593.482	11727
593.553	12550
593.623	11168
593.694	11517
593.764	13391
593.835	12405
593.906	11278
593.976	11609
594.047	12761
594.117	14674
594.188	15641
594.258	12111
594.329	12279
594.399	12251
594.470	12699
594.540	11948
594.611	12413
594.681	12901
594.751	13612
594.822	14495
594.892	14216
594.963	14456
595.033	14014
595.103	15067
595.174	15175
595.244	20640
595.314	25293
595.384	16699
595.455	14379
595.525	15912
595.595	15378
595.665	15568
595.736	14848
595.806	15856
595.876	14799
595.946	15308
596.016	14530
596.087	16253
596.157	15466
596.227	15572
596.297	16526
596.367	17550
596.437	18443
596.507	22590
596.577	26549
596.647	19209
596.717	18085
596.787	18058
596.857	17466
596.927	17654
596.997	17467
597.067	18365
597.137	17545
597.207	18971
597.277	18724
597.347	18608
597.417	18227
597.487	17850
597.557	17580
597.626	18858
597.696	19424
597.766	22148
597.836	25399
597.906	19850
597.975	16751
598.045	16488
598.115	16653
598.185	18468
598.254	20023
598.324	21293
598.394	20761
598.464	20667
598.533	19901
598.603	19005
598.672	18859
598.742	18648
598.812	18985
598.881	19291
598.951	18256
599.020	17914
599.090	19152
599.159	20493
599.229	18322
599.299	18370
599.368	18489
599.437	18122
599.507	18165
599.576	18127
599.646	16881
599.715	17843
599.785	16955
599.854	17430
599.924	18107
599.993	17586
600.062	17246
600.132	17518
600.201	17168
600.270	20969
600.340	20364
600.409	20180
600.478	18968
600.547	20111
600.617	19935
600.686	17087
600.755	15636
600.824	16574
600.894	14852
600.963	14528
601.032	14103
601.101	15028
601.170	13969
601.239	13928
601.308	13774
601.378	13733
601.447	12790
601.516	13589
601.585	14258
601.654	14783
601.723	13706
601.792	13583
601.861	13956
601.930	15480
601.999	15795
602.068	15195
602.137	14887
602.206	16005
602.275	14963
602.343	16867
602.412	16703
602.481	15052
602.550	14021
602.619	14934
602.688	15007
602.756	15313
602.825	14896
602.894	15238
602.963	14762
603.032	16207
603.100	15129
603.169	15789
603.238	15505
603.307	15675
603.375	15927
603.444	16398
603.513	15168
603.581	15507
603.650	16175
603.719	16178
603.787	15552
603.856	16786
603.924	16884
603.993	17595
604.061	16986
604.130	18319
604.198	18951
604.267	19234
604.335	19338
604.404	18883
604.472	18369
604.541	18879
604.609	19209
604.678	19331
604.746	18758
604.815	19968
604.883	20592
604.951	20617
605.020	20591
605.088	21020
605.156	21297
605.225	21778
605.293	21387
605.361	22017
605.429	20802
605.498	22403
605.566	23200
605.634	24563
605.702	24612
605.771	25600
605.839	24691
605.907	24856
605.975	23795
606.043	23657
606.111	23790
606.180	23802
606.248	22827
606.316	23677
606.384	22949
606.452	27377
606.520	27793
606.588	26336
606.656	23464
606.724	24109
606.792	23199
606.860	21548
606.928	18708
606.996	18826
607.064	16725
607.132	17829
607.200	19943
607.267	20066
607.335	20162
607.403	20854
607.471	19779
607.539	19288
607.607	18792
607.674	17941
607.742	18314
607.810	18465
607.878	18533
607.946	17992
608.013	18342
608.081	19685
608.149	18861
608.216	19446
608.284	20097
608.352	19960
608.419	20153
608.487	24165
608.555	21239
608.622	20157
608.690	20145
608.757	21935
608.825	22725
608.893	22557
608.960	23725
609.028	25042
609.095	25258
609.163	22702
609.230	19348
609.298	18473
609.365	17232
609.432	20038
609.500	19953
609.567	23648
609.635	24971
609.702	28100
609.769	27544
609.837	24547
609.904	18899
609.971	19442
610.039	21097
610.106	26930
610.173	50976
610.241	120572
610.308	79414
610.375	27210
610.442	20124
610.509	18635
610.577	18925
610.644	20129
610.711	19602
610.778	20551
610.845	20080
610.912	22218
610.980	23220
611.047	23788
611.114	23429
611.181	22737
611.248	20716
611.315	22976
611.382	22411
611.449	24630
611.516	24182
611.583	23753
611.650	24142
611.717	24731
611.784	25564
611.851	26092
611.918	30766
611.984	33775
612.051	48995
612.118	104939
612.185	272139
612.252	197038
612.319	40531
612.386	32004
612.452	28587
612.519	28684
612.586	31229
612.653	30031
612.719	27908
612.786	26907
612.853	25174
612.919	24330
612.986	23974
613.053	23674
613.120	22558
613.186	21189
613.253	22967
613.319	21310
613.386	22041
613.453	22033
613.519	23273
613.586	24663
613.652	30346
613.719	26915
613.785	26010
613.852	23455
613.918	22215
613.985	23431
614.051	23067
614.118	28692
614.184	29162
614.250	22306
614.317	22821
614.383	21512
614.449	21603
614.516	23072
614.582	23308
614.648	22553
614.715	22305
614.781	22232
614.847	22176
614.914	22132
614.980	21563
615.046	21844
615.112	21143
615.179	21428
615.245	21897
615.311	21843
615.377	22618
615.443	24169
615.509	22806
615.575	24457
615.642	23899
615.708	25247
615.774	26239
615.840	28422
615.906	31649
615.972	40243
616.038	61478
616.104	136592
616.170	347599
616.236	344438
616.302	65229
616.368	43747
616.434	30953
616.500	30694
616.565	31647
616.631	38481
616.697	31267
616.763	33576
616.829	47546
616.895	85684
616.961	83831
617.026	36075
617.092	25880
617.158	25165
617.224	24070
617.289	23647
617.355	20850
617.421	22572
617.487	22374
617.552	21247
617.618	19688
617.684	20430
617.749	21143
617.815	20400
617.880	18753
617.946	19891
618.012	18710
618.077	19974
618.143	19369
618.208	19827
618.274	20763
618.339	21967
618.405	18261
618.470	19577
618.536	18230
618.601	19994
618.667	18905
618.732	17737
618.798	16639
618.863	17566
618.928	16593
618.994	18519
619.059	18880
619.124	23092
619.190	19656
619.255	17000
619.320	17239
619.386	17904
619.451	15774
619.516	15977
619.581	15702
619.647	17115
619.712	16409
619.777	15660
619.842	16076
619.907	17954
619.972	16615
620.038	18421
620.103	15834
620.168	16407
620.233	16171
620.298	16877
620.363	16422
620.428	17276
620.493	17176
620.558	17009
620.623	17005
620.688	16922
620.753	17493
620.818	16894
620.883	16614
620.948	17122
621.013	16354
621.078	17699
621.143	16912
621.207	20148
621.272	17831
621.337	18969
621.402	19303
621.467	22873
621.532	23494
621.596	21682
621.661	18932
621.726	18655
621.791	18129
621.855	18361
621.920	19095
621.985	20677
622.049	20859
622.114	20200
622.179	18816
622.243	20913
622.308	19972
622.373	21399
622.437	20410
622.502	19765
622.566	18906
622.631	20274
622.695	19976
622.760	19913
622.824	18735
622.889	20244
622.953	20681
623.018	26351
623.082	27397
623.147	20497
623.211	19193
623.276	19401
623.340	18500
623.404	17874
623.469	18330
623.533	18551
623.597	17433
623.662	17664
623.726	16816
623.790	16485
623.854	15873
623.919	16847
623.983	15971
624.047	16950
624.111	16019
624.176	17277
624.240	17835
624.304	19526
624.368	16642
624.432	17952
624.496	16987
624.560	18862
624.625	19694
624.689	18586
624.753	17585
624.817	16879
624.881	16931
624.945	15961
625.009	15869
625.073	16090
625.137	16169
625.201	19614
625.265	20003
625.329	15685
625.393	16918
625.456	17759
625.520	17398
625.584	19090
625.648	20839
625.712	27961
625.776	52831
625.839	64121
625.903	30887
625.967	16010
626.031	23504
626.095	38367
626.158	19467
626.222	12719
626.286	12303
626.349	12550
626.413	10426
626.477	13603
626.540	11578
626.604	11911
626.668	11957
626.731	11358
626.795	12258
626.858	12584
626.922	11695
626.986	11922
627.049	10536
627.113	11561
627.176	10931
627.240	11756
627.303	10796
627.366	11641
627.430	11027
627.493	12128
627.557	11453
627.620	12359
627.684	11592
627.747	12319
627.810	9985
627.874	10648
627.937	9100
628.000	11423
628.064	10746
628.127	9148
628.190	9253
628.253	10513
628.317	8563
628.380	9798
628.443	8864
628.506	10416
628.569	8719
628.632	8366
628.696	8787
628.759	8778
628.822	7039
628.885	7648
628.948	7804
629.011	8514
629.074	7682
629.137	7068
629.200	7084
629.263	9622
629.326	7081
629.389	7002
629.452	7676
629.515	8624
629.578	6770
629.641	8289
629.704	8311
629.767	7807
629.830	7241
629.892	7927
629.955	6619
630.018	8916
630.081	7537
630.144	10471
630.207	7697
630.269	8927
630.332	7682
630.395	8203
630.458	6502
630.520	6750
630.583	7294
630.646	7274
630.708	6113
630.771	5988
630.834	6450
630.896	6395
630.959	6478
631.021	5683
631.084	6455
631.146	8289
631.209	8886
631.272	6324
631.334	6732
631.397	5713
631.459	6698
631.522	6972
631.584	6723
631.646	7458
631.709	7817
631.771	8996
631.834	8045
631.896	7142
631.958	6145
632.021	6426
632.083	4481
632.145	6652
632.208	5796
632.270	7720
632.332	5186
632.395	5649
632.457	6380
632.519	7011
632.581	6665
632.643	5643
632.706	6307
632.768	5591
632.830	5670
632.892	5816
632.954	5710
633.016	5944
633.078	4361
633.141	5865
633.203	5709
633.265	6067
633.327	6067
633.389	5713
633.451	6351
633.513	7683
633.575	7040
633.637	7181
633.698	6408
633.760	6815
633.822	5988
633.884	5789
633.946	5882
634.008	5939
634.070	5988
634.132	6536
634.193	6483
634.255	7299
634.317	6623
634.379	7814
634.441	5867
634.502	6513
634.564	5877
634.626	5518
634.687	5690
634.749	6272
634.811	5816
634.873	4676
634.934	5117
634.996	5708
635.057	5043
635.119	6389
635.181	4729
635.242	6341
635.304	3127
635.365	6481
635.427	4901
635.488	4862
635.550	4404
635.611	5923
635.673	4087
635.734	6021
635.796	4610
635.857	7180
635.918	5881
635.980	7339
636.041	6323
636.102	8295
636.164	7240
636.225	8222
636.286	5221
636.348	6168
636.409	5807
636.470	4424
636.531	5057
636.593	5334
636.654	5482
636.715	5814
636.776	4286
636.838	4135
636.899	4513
636.960	4418
637.021	3727
637.082	4897
637.143	4639
637.204	4045
637.265	3534
637.326	4749
637.387	3255
637.448	4338
637.509	3847
637.570	4437
637.631	4388
637.692	4112
637.753	2565
637.814	4265
637.875	3053
637.936	5177
637.997	3562
638.058	4999
638.119	4694
638.179	4455
638.240	2967
638.301	4112
638.362	2928
638.423	4224
638.483	4513
638.544	2816
638.605	3657
638.666	3140
638.726	3908
638.787	4322
638.848	3104
638.908	3574
638.969	3604
639.030	4139
639.090	2218
639.151	3335
639.211	3821
639.272	5538
639.332	8097
639.393	5408
639.453	2853
639.514	3283
639.574	2790
639.635	3892
639.695	3385
639.756	2849
639.816	4177
639.877	4756
639.937	7259
639.997	10307
640.058	3850
640.118	3373
640.178	3756
640.239	2592
640.299	2722
640.359	3023
640.420	3364
640.480	3261
640.540	3950
640.600	4568
640.661	3596
640.721	3227
640.781	5367
640.841	2128
640.901	3400
640.961	3361
641.021	3376
641.082	4309
641.142	5041
641.202	5019
641.262	1546
641.322	4014
641.382	2328
641.442	3590
641.502	3277
641.562	3664
641.622	2393
641.682	2961
641.742	3536
641.802	4145
641.861	3759
641.921	3758
641.981	4255
642.041	3167
642.101	4905
642.161	3220
642.221	2277
642.280	3126
642.340	2690
642.400	2635
642.460	2972
642.519	3561
642.579	2857
642.639	3763
642.698	343
642.758	4424
642.818	3069
642.877	2460
642.937	3175
642.997	4476
643.056	4718
643.116	2444
643.175	3592
643.235	3208
643.294	3032
643.354	3926
643.414	3113
643.473	4317
643.532	5142
643.592	7163
643.651	12110
643.711	22138
643.770	41542
643.830	98537
643.889	259288
643.948	77791
644.008	9250
644.067	5007
644.126	4000
644.186	4351
644.245	4309
644.304	2181
644.363	4552
644.423	2465
644.482	3458
644.541	3638
644.600	768
644.659	4528
644.719	2889
644.778	6903
644.837	8324
644.896	19546
644.955	45303
645.014	20156
645.073	3953
645.132	2923
645.191	3210
645.250	2707
645.309	3505
645.368	2969
645.427	3873
645.486	4759
645.545	8882
645.604	3957
645.663	2387
645.722	3072
645.781	2859
645.840	3792
645.898	4363
645.957	7486
646.016	8461
646.075	18901
646.134	36500
646.192	96141
646.251	182488
646.310	30774
646.369	5891
646.427	4474
646.486	2242
646.545	3860
646.603	2922
646.662	3341
646.721	2312
646.779	1716
646.838	1397
646.896	3784
646.955	4008
647.014	6048
647.072	9018
647.131	27449
647.189	16451
647.248	2535
647.306	2563
647.365	2224
647.423	676
647.481	2646
647.540	-43
647.598	2448
647.657	986
647.715	2360
647.773	410
647.832	2951
647.890	1232
647.948	2399
648.007	1954
648.065	1366
648.123	520
648.181	3064
648.240	1986
648.298	1863
648.356	1770
648.414	1819
648.472	2203
648.531	2499
648.589	1646
648.647	1777
648.705	831
648.763	2637
648.821	1697
648.879	1988
648.937	2020
648.995	2703
649.053	2038
649.111	4901
649.169	8440
649.227	14511
649.285	25647
649.343	86244
649.401	55339
649.459	11928
649.516	8510
649.574	2763
649.632	5474
649.690	6189
649.748	3626
649.806	3347
649.863	6869
649.921	19116
649.979	15350
650.037	2957
650.094	642
650.152	2305
650.210	1235
650.268	1760
650.325	948
650.383	1517
650.440	175
650.498	1803
650.556	1888
650.613	930
650.671	1496
650.728	2027
650.786	1948
650.843	970
650.901	478
650.958	1649
651.016	1235
651.073	1161
651.131	790
651.188	-410
651.246	1063
651.303	172
651.360	1268
651.418	303
651.475	1538
651.532	508
651.590	1789
651.647	438
651.704	1481
651.762	2057
651.819	1383
651.876	1523
651.933	869
651.990	1257
652.048	-202
652.105	188
652.162	1169
652.219	1151
652.276	1479
652.333	1895
652.390	-387
652.448	1381
652.505	1050
652.562	1670
652.619	-60
652.676	1498
652.733	1098
652.790	666
652.847	-404
652.904	2220
652.961	-953
653.017	612
653.074	1225
653.131	1838
653.188	-396
653.245	1168
653.302	1099
653.359	1157
653.415	602
653.472	1067
653.529	1277
653.586	628
653.642	1120
653.699	1662
653.756	-627
653.813	651
653.869	1727
653.926	386
653.983	286
654.039	1526
654.096	-64
654.152	1360
654.209	-643
654.266	1282
654.322	-795
654.379	2131
654.435	1092
654.492	2343
654.548	1723
654.605	3923
654.661	2390
654.717	1014
654.774	1226
654.830	1119
654.887	1023
654.943	1235
655.000	1003
655.056	1317
655.112	741
655.168	343
655.225	193
655.281	1753
655.337	1570
655.394	3896
655.450	2881
655.506	2342
655.562	3465
655.618	4498
655.675	438
655.731	1888
655.787	-56
655.843	2187
655.899	341
655.955	1857
656.011	2119
656.067	496
656.123	1475
656.179	1601
656.235	2383
656.291	1788
656.347	2426
656.403	1852
656.459	838
656.515	1578
656.571	1157
656.627	1223
656.683	698
656.739	1934
656.795	1007
656.850	1887
656.906	1112
656.962	1465
657.018	-88
657.074	1659
657.129	691
657.185	2505
657.241	2164
657.297	593
657.352	688
657.408	14
657.464	1559
657.519	1521
657.575	-439
657.630	461
657.686	516
657.742	1032
657.797	495
657.853	925
657.908	2178
657.964	67
658.019	440
658.075	815
658.130	1322
658.186	900
658.241	341
658.297	579
658.352	-12
658.407	1431
658.463	-165
658.518	1082
658.573	491
658.629	-248
658.684	510
658.739	1301
658.795	-1201
658.850	764
658.905	483
658.960	1139
659.016	-458
659.071	401
659.126	154
659.181	654
659.236	2259
659.291	3035
659.346	913
659.401	402
659.457	766
659.512	847
659.567	1296
659.622	454
659.677	-204
659.732	170
659.787	1096
659.842	1189
659.897	1094
659.952	1624
660.007	-211
660.061	522
660.116	-246
660.171	620
660.226	-518
660.281	1064
660.336	-121
660.391	1630
660.445	390
660.500	647
660.555	205
660.610	297
660.664	1199
660.719	888
660.774	608
660.828	772
660.883	437
660.938	1164
660.992	-730
661.047	947
661.101	-444
661.156	1050
661.211	-304
661.265	528
661.320	558
661.374	201
661.429	-42
661.483	2012
661.538	-633
661.592	550
661.647	868
661.701	1036
661.755	965
661.810	1347
661.864	310
661.919	-311
661.973	979
662.027	559
662.081	283
662.136	990
662.190	434
662.244	1004
662.299	94
662.353	996
662.407	-787
662.461	366
662.515	894
662.569	791
662.624	1136
662.678	1214
662.732	872
662.786	858
662.840	410
662.894	1749
662.948	625
663.002	629
663.056	708
663.110	118
663.164	-202
663.218	1229
663.272	590
663.326	1825
663.380	529
663.434	1029
663.488	850
663.542	886
663.595	1083
663.649	164
663.703	1032
663.757	1222
663.811	652
663.864	902
663.918	273
663.972	732
664.026	572
664.079	25
664.133	1321
664.187	1081
664.240	137
664.294	1283
664.348	227
664.401	817
664.455	878
664.508	891
664.562	768
664.615	1291
664.669	27
664.722	555
664.776	36
664.829	918
664.883	566
664.936	1129
664.990	78
665.043	1560
665.097	593
665.150	1898
665.203	652
665.257	774
665.310	1265
665.363	687
665.417	874
665.470	918
665.523	722
665.576	1508
665.630	347
665.683	926
665.736	1267
665.789	1543
665.842	310
665.895	1633
665.949	1189
666.002	1277
666.055	741
666.108	1641
666.161	654
666.214	1516
666.267	1014
666.320	1330
666.373	1088
666.426	1065
666.479	189
666.532	1527
666.585	992
666.638	2113
666.691	1369
666.744	2390
666.796	1387
666.849	1174
666.902	853
666.955	836
667.008	144
667.060	922
667.113	82
667.166	489
667.219	582
667.271	1228
667.324	553
667.377	873
667.430	685
667.482	532
667.535	736
667.587	1431
667.640	1383
667.693	1431
667.745	2383
667.798	4004
667.850	1256
667.903	1584
667.955	924
668.008	801
668.060	1331
668.113	1319
668.165	1544
668.218	2201
668.270	1116
668.322	1707
668.375	1436
668.427	2372
668.479	906
668.532	1427
668.584	1425
668.636	1543
668.689	621
668.741	1010
668.793	981
668.845	1777
668.898	1928
668.950	989
669.002	1125
669.054	841
669.106	1142
669.158	2439
669.211	543
669.263	983
669.315	1627
669.367	1958
669.419	1539
669.471	1549
669.523	1417
669.575	3398
669.627	1993
669.679	1643
669.731	1049
669.783	1507
669.835	1902
669.886	1989
669.938	1418
669.990	934
670.042	228
670.094	1386
670.146	774
670.197	2001
670.249	1685
670.301	1328
670.353	1526
670.404	2335
670.456	3176
670.508	4173
670.560	6376
670.611	12022
670.663	19007
670.715	46971
670.766	103478
670.818	44946
670.869	4613
670.921	3894
670.972	2223
671.024	2434
671.075	2163
671.127	2190
671.178	1339
671.230	1682
671.281	738
671.333	2235
671.384	1655
671.436	1956
671.487	2837
671.538	2518
671.590	3564
671.641	5743
671.692	8019
671.744	17952
671.795	14536
671.846	4433
671.897	1802
671.949	1721
672.000	1216
672.051	2240
672.102	1837
672.153	1257
672.204	2197
672.256	1997
672.307	1525
672.358	2419
672.409	1940
672.460	2074
672.511	1139
672.562	2162
672.613	1500
672.664	1513
672.715	1690
672.766	2220
672.817	1073
672.868	2298
672.919	1725
672.970	1980
673.021	1988
673.071	1287
673.122	747
673.173	1456
673.224	1072
673.275	1769
673.326	1473
673.376	1108
673.427	604
673.478	2032
673.528	1137
673.579	1653
673.630	968
673.680	2048
673.731	1302
673.782	1140
673.832	1334
673.883	2250
673.934	598
673.984	874
674.035	1115
674.085	1483
674.136	2044
674.186	1896
674.237	1467
674.287	2816
674.338	2395
674.388	1692
674.438	1167
674.489	1834
674.539	1035
674.589	1713
674.640	1983
674.690	1479
674.740	1136
674.791	2343
674.841	1337
674.891	1894
674.942	1096
674.992	1316
675.042	1036
675.092	1270
675.142	1221
675.193	1423
675.243	752
675.293	1841
675.343	694
675.393	1076
675.443	1189
675.493	1819
675.543	655
675.593	2251
675.643	817
675.693	1162
675.743	1253
675.793	1726
675.843	485
675.893	1552
675.943	1312
675.993	1680
676.043	617
676.093	1681
676.142	958
676.192	1320
676.242	843
676.292	837
676.341	426
676.391	1412
676.441	499
676.491	1592
676.540	952
676.590	1611
676.640	447
676.689	654
676.739	738
676.789	899
676.838	604
676.888	1747
676.937	311
676.987	935
677.037	674
677.086	849
677.136	89
677.185	1463
677.235	594
677.284	829
677.333	562
677.383	573
677.432	18
677.482	1037
677.531	922
677.580	744
677.630	600
677.679	682
677.728	-429
677.778	2148
677.827	871
677.876	1386
677.925	612
677.975	953
678.024	642
678.073	707
678.122	717
678.171	2134
678.220	780
678.269	1589
678.319	1551
678.368	1774
678.417	241
678.466	1419
678.515	1315
678.564	1891
678.613	891
678.662	822
678.711	949
678.760	1258
678.809	941
678.857	408
678.906	1043
678.955	1499
679.004	736
679.053	928
679.102	394
679.151	1357
679.199	1204
679.248	526
679.297	713
679.346	1378
679.394	345
679.443	1556
679.492	284
679.540	514
679.589	861
679.638	1496
679.686	1336
679.735	1017
679.784	796
679.832	1531
679.881	433
679.929	1201
679.978	685
680.026	348
680.075	688
680.123	429
680.172	597
680.220	583
680.268	242
680.317	1428
680.365	460
680.414	1422
680.462	593
680.510	1885
680.559	44
680.607	1701
680.655	23
680.703	532
680.752	222
680.800	782
680.848	862
680.896	731
680.945	452
680.993	1067
681.041	654
681.089	1059
681.137	27
681.185	132
681.233	335
681.258	322
681.281	300
681.329	1068
681.377	268
681.380	306
681.425	833
681.473	1061
681.502	790
681.521	584
681.569	1470
681.617	287
681.624	358
681.665	729
681.713	1952
681.745	1629
681.761	1465
681.809	151
681.857	699
681.867	516
681.904	-161
681.952	1154
681.989	1240
682.000	1250
682.048	879
682.096	1276
682.111	952
682.143	227
682.191	708
682.233	1019
682.239	1057
682.286	1117
682.334	991
682.354	854
682.382	655
682.430	1324
682.476	675
682.477	652
682.525	1187
682.572	498
682.598	454
682.620	428
682.667	358
682.715	1236
682.720	1239
682.763	1158
682.810	1643
682.841	1598
682.857	1552
682.905	704
682.952	1443
682.963	1428
683.000	1323
683.047	749
683.085	1623
683.095	1865
683.142	945
683.190	1725
683.206	1351
683.237	623
683.284	1148
683.328	1165
683.332	1159
683.379	1924
683.426	417
683.449	971
683.473	1500
683.521	580
683.568	1496
683.571	1446
683.615	821
683.662	860
683.693	1495
683.709	1788
683.757	1295
683.804	1561
683.814	1704
683.851	2204
683.898	1522
683.936	1479
683.945	1459
683.992	1026
684.039	1817
684.057	1625
684.086	1375
684.133	1782
684.179	1879
684.180	1869
684.227	2702
684.274	1692
684.300	1754
684.321	1833
684.368	1166
684.415	1578
684.422	1547
684.462	1283
684.509	801
684.543	1405
684.556	1640
684.603	1604
684.649	1271
684.665	1752
684.696	2675
684.743	1770
684.786	1971
684.790	1993
684.837	1355
684.883	2554
684.908	2488
684.930	2354
684.977	2574
685.023	2176
685.029	2192
685.070	2250
685.117	1362
685.150	1802
685.164	1994
685.210	2347
685.257	2414
685.272	2430
685.303	2430
685.350	2198
685.393	1961
685.396	1946
685.443	2528
685.490	2554
685.514	2839
685.536	3007
685.583	3104
685.629	3096
685.636	3035
685.675	2565
685.722	2949
685.757	2104
685.768	1873
685.815	2877
685.861	1997
685.878	2231
685.908	2602
685.954	2271
686.000	3321
686.000	3338
686.047	3007
686.093	3643
686.121	3661
686.139	3496
686.185	2978
686.232	2348
686.242	2386
686.278	2581
686.324	2391
686.363	2397
686.370	2410
686.416	2253
686.463	3046
686.484	2806
686.509	2540
686.555	2874
686.601	2459
686.606	2454
686.647	2361
686.693	2250
686.727	2309
686.739	2391
686.785	2354
686.831	3001
686.848	2973
686.877	2730
686.923	2726
686.969	1935
686.969	1932
687.015	2888
687.061	2671
687.090	3001
687.107	3083
687.153	2698
687.199	2788
687.211	2557
687.245	2196
687.291	2737
687.332	2455
687.336	2414
687.382	3262
687.428	2477
687.453	2713
687.474	2868
687.520	2895
687.565	2983
687.574	2831
687.611	2192
687.657	2566
687.695	2227
687.702	2200
687.748	2413
687.794	2752
687.816	2722
687.839	2545
687.885	2477
687.931	2542
687.937	2452
687.976	2249
688.022	3052
688.058	2889
688.067	2792
688.113	2991
688.158	2442
688.179	2418
688.204	2474
688.249	1997
688.295	2322
688.300	2296
688.340	2174
688.386	3279
688.421	2878
688.431	2769
688.477	2778
688.522	2998
688.542	3095
688.567	3124
688.613	2166
688.658	3295
688.663	3200
688.703	2606
688.749	2395
688.784	2927
688.794	3042
688.839	2798
688.884	2409
688.905	2479
688.930	2648
688.975	2427
689.020	2642
689.026	2623
689.065	2514
689.110	2877
689.146	2728
689.155	2704
689.201	2777
689.246	2382
689.267	2761
689.291	3135
689.336	2996
689.381	2798
689.388	2780
689.426	2742
689.471	3378
689.509	2748
689.516	2628
689.561	2866
689.606	2450
689.630	2630
689.651	2834
689.696	2814
689.741	3015
689.750	3097
689.785	3309
689.830	3300
689.871	2521
689.875	2466
689.920	2620
689.965	2632
689.992	2790
690.010	2850
690.054	2847
690.099	3081
690.112	2976
690.144	2835
690.189	3242
690.233	2834
690.233	2837
690.278	2941
690.323	2889
690.354	3042
690.367	3143
690.412	3025
690.457	3095
690.474	2913
690.501	2585
690.546	2911
690.590	2500
690.595	2479
690.635	2497
690.680	2612
690.716	2969
690.724	3048
690.769	2997
690.813	3127
690.836	3045
690.857	3073
690.902	3170
690.946	3528
690.957	3604
690.991	3719
691.035	3509
691.077	3504
691.080	3517
691.124	3596
691.168	3534
691.198	3522
691.213	3515
691.257	4263
691.301	3824
691.318	3890
691.346	3801
691.390	3438
691.434	3137
691.439	3126
691.478	3428
691.522	3554
691.559	3588
691.567	3591
691.611	3801
691.655	3586
691.680	3631
691.699	3664
691.743	3632
691.787	3640
691.800	3587
691.831	3506
691.875	3837
691.919	3765
691.921	3764
691.964	3936
692.008	3639
692.041	3660
692.052	3737
692.096	3725
692.139	4354
692.162	4200
692.183	3793
692.227	3951
692.271	3475
692.282	3392
692.315	3364
692.359	3100
692.402	3372
692.403	3384
692.447	2923
692.490	3625
692.523	3680
692.534	3723
692.578	4167
692.622	4368
692.643	4476
692.666	4379
692.709	3869
692.753	3872
692.763	3768
692.797	3523
692.840	3777
692.884	3169
692.884	3175
692.928	3353
692.971	3559
693.004	3540
693.015	3521
693.059	3895
693.102	3873
693.124	3594
693.146	3370
693.189	3842
693.233	3724
693.245	3744
693.276	3828
693.320	3707
693.363	3830
693.365	3822
693.407	3834
693.450	3745
693.485	3833
693.493	3911
693.537	4194
693.580	4133
693.605	4407
693.624	4547
693.667	4546
693.710	4541
693.725	4434
693.753	4461
693.797	4988
693.840	5231
693.845	5306
693.883	5578
693.926	4906
693.966	4953
693.970	4947
694.013	4514
694.056	4225
694.086	3852
694.099	3825
694.142	4186
694.185	4162
694.206	4190
694.229	4283
694.272	4130
694.315	4569
694.326	4513
694.358	4367
694.401	4691
694.444	4485
694.446	4479
694.487	4600
694.530	4683
694.566	4675
694.573	4620
694.616	3996
694.659	3854
694.686	3397
694.702	3330
694.745	3774
694.787	3675
694.806	3675
694.830	3665
694.873	3650
694.916	3778
694.926	3747
694.959	3667
695.002	3695
695.044	3469
695.046	3463
695.087	3863
695.130	3972
695.166	4336
695.172	4381
695.215	4141
695.258	4365
695.286	4298
695.301	4211
695.343	4091
695.386	3908
695.406	3724
695.428	3720
695.471	3870
695.514	4071
695.526	4067
695.556	4128
695.599	4483
695.641	4531
695.646	4544
695.684	4145
695.726	3512
695.766	3120
695.769	3156
695.811	3289
695.854	3588
695.886	3738
695.896	3810
695.938	4108
695.981	4357
696.005	4479
696.023	4443
696.065	4344
696.108	4417
696.125	4290
696.150	4319
696.192	4624
696.235	4747
696.245	4812
696.277	4679
696.319	4364
696.361	4110
696.365	4060
696.404	3762
696.446	3667
696.485	3441
696.488	3478
696.530	3835
696.572	4129
696.604	4457
696.614	4458
696.656	4209
696.698	4137
696.724	4026
696.740	4044
696.783	4091
696.825	4038
696.844	4092
696.867	4266
696.909	4444
696.951	4552
696.964	4606
696.992	4580
697.034	4495
697.076	4325
697.083	4305
697.118	4501
697.160	4631
697.202	4784
697.203	4773
697.244	4436
697.286	4155
697.323	3700
697.327	3725
697.369	4042
697.411	4251
697.442	4398
697.453	4412
697.494	4410
697.536	4523
697.562	4455
697.578	4448
697.620	4550
697.661	4504
697.682	4555
697.703	4578
697.744	4457
697.786	4477
697.801	4399
697.828	4746
697.869	5379
697.911	5955
697.921	6109
697.952	5714
697.994	5006
698.035	4434
698.040	4342
698.077	4500
698.118	4687
698.160	4872
698.160	4857
698.201	4949
698.243	5033
698.279	5091
698.284	5110
698.325	5141
698.367	5218
698.399	5184
698.408	5154
698.449	5006
698.491	4817
698.518	4717
698.532	4724
698.573	4643
698.614	4596
698.638	4532
698.656	4520
698.697	4500
698.738	4445
698.757	4415
698.779	4619
698.820	4973
698.862	5334
698.877	5448
698.903	5527
698.944	5632
698.985	5739
698.996	5753
699.026	5785
699.067	5802
699.116	5809
699.235	4989
699.354	5219
699.474	4672
699.593	5337
699.713	4997
699.832	5236
699.951	5422
700.070	5333
700.190	4637
700.309	5368
700.428	5273
700.547	5165
700.667	4861
700.786	5670
700.905	4618
701.024	4655
701.143	4627
701.262	5134
701.381	4447
701.500	4303
701.619	5269
701.738	4580
701.857	4735
701.976	3928
702.095	3761
702.214	4400
702.333	4272
702.452	4890
702.571	4739
702.690	4656
702.809	4333
702.928	3528
703.047	4196
703.165	5540
703.284	3319
703.403	4141
703.522	4549
703.640	5346
703.759	6413
703.878	8528
703.997	4170
704.115	3666
704.234	4063
704.353	4387
704.471	3514
704.590	3705
704.708	4401
704.827	3593
704.946	3034
705.064	4191
705.183	3731
705.301	4604
705.420	7077
705.538	5883
705.656	4976
705.775	4269
705.893	5771
706.012	7053
706.130	5683
706.249	5659
706.367	5106
706.485	5281
706.604	5552
706.722	5365
706.840	6471
706.958	7323
707.077	4790
707.195	5184
707.313	5012
707.431	5083
707.549	4963
707.668	4900
707.786	5066
707.904	4984
708.022	3784
708.140	4592
708.258	4318
708.376	5166
708.494	4960
708.612	5169
708.730	7116
708.848	7404
708.966	5951
709.084	6586
709.202	5753
709.320	6161
709.438	5088
709.556	5535
709.674	6087
709.791	6863
709.909	5455
710.027	6053
710.145	4695
710.263	6140
710.380	4961
710.498	5963
710.616	6556
710.733	5568
710.851	5754
710.969	6066
711.086	5194
711.204	5977
711.322	5814
711.439	6212
711.557	5794
711.674	4884
711.792	4923
711.909	5198
712.027	4990
712.144	4646
712.262	5556
712.379	5835
712.497	8908
712.614	8576
712.732	7708
712.849	7383
712.966	7252
713.084	9500
713.201	8304
713.318	6931
713.436	6341
713.553	7196
713.670	7976
713.787	7737
713.905	7398
714.022	6940
714.139	6395
714.256	7832
714.373	9065
714.490	13400
714.608	25786
714.725	113755
714.842	189090
714.959	15503
715.076	7234
715.193	6840
715.310	6665
715.427	4809
715.544	5674
715.661	6510
715.778	5575
715.895	6589
716.011	5711
716.128	5808
716.245	6083
716.362	6996
716.479	7366
716.596	6552
716.713	5968
716.829	6118
716.946	5949
717.063	6007
717.180	4862
717.296	5036
717.413	5332
717.530	5095
717.646	5309
717.763	5390
717.880	5238
717.996	4539
718.113	4630
718.229	4405
718.346	4938
718.462	4295
718.579	6221
718.695	9159
718.812	8404
718.928	6819
719.045	5504
719.161	4517
719.277	3822
719.394	4362
719.510	5257
719.626	4553
719.743	6136
719.859	7057
719.975	8889
720.092	28115
720.208	89891
720.324	18030
720.440	5007
720.557	5578
720.673	8490
720.789	11851
720.905	22959
721.021	11941
721.137	4170
721.253	5035
721.369	4387
721.486	5468
721.602	7809
721.718	4575
721.834	2911
721.950	4686
722.066	3730
722.181	3619
722.297	4006
722.413	4424
722.529	3192
722.645	3157
722.761	3604
722.877	3781
722.993	3376
723.108	4059
723.224	2974
723.340	2934
723.456	3171
723.571	4067
723.687	3229
723.803	3556
723.918	3018
724.034	3080
724.150	3306
724.265	3408
724.381	7561
724.497	12721
724.612	2889
724.728	2568
724.843	2966
724.959	3494
725.074	6965
725.190	11529
725.305	4098
725.421	3307
725.536	2835
725.651	2713
725.767	2313
725.882	3306
725.997	2484
726.113	3161
726.228	2801
726.343	2961
726.459	1947
726.574	2105
726.689	2252
726.804	3206
726.920	2061
727.035	2217
727.150	2199
727.265	1717
727.380	2825
727.495	3067
727.610	1955
727.725	3241
727.841	2440
727.956	3084
728.071	3312
728.186	1577
728.301	2322
728.416	2817
728.531	1877
728.645	2186
728.760	2367
728.875	4067
728.990	2888
729.105	2880
729.220	2423
729.335	3769
729.449	2564
729.564	2039
729.679	1731
729.794	2226
729.908	2282
730.023	2826
730.138	1298
730.253	2182
730.367	2815
730.482	2341
730.596	2017
730.711	2877
730.826	2204
730.940	2867
731.055	2744
731.169	2594
731.284	1458
731.398	1416
731.513	1794
731.627	2865
731.742	2424
731.856	3901
731.970	1996
732.085	2028
732.199	2368
732.313	4540
732.428	10227
732.542	36697
732.656	33920
732.771	5250
732.885	2507
732.999	2787
733.113	2859
733.227	2500
733.342	2301
733.456	2200
733.570	1921
733.684	1610
733.798	1873
733.912	2136
734.026	1074
734.140	2015
734.254	1850
734.368	4297
734.482	6381
734.596	2042
734.710	1401
734.824	1592
734.938	1637
735.052	2337
735.166	2228
735.280	2751
735.393	1690
735.507	1559
735.621	2517
735.735	5561
735.849	3034
735.962	2363
736.076	2281
736.190	1797
736.303	2155
736.417	4839
736.531	1870
736.644	2048
736.758	1028
736.872	1747
736.985	1396
737.099	1318
737.212	966
737.326	1759
737.439	1509
737.553	1230
737.666	1160
737.780	1058
737.893	1151
738.007	773
738.120	1418
738.233	1673
738.347	1227
738.460	1560
738.573	1822
738.687	1723
738.800	1870
738.913	2644
739.026	1829
739.140	2241
739.253	1281
739.366	1375
739.479	882
739.592	848
739.705	1093
739.818	1173
739.932	583
740.045	574
740.158	1305
740.271	1655
740.384	1073
740.497	1817
740.610	1658
740.723	1598
740.836	1870
740.949	2074
741.062	2027
741.174	3178
741.287	782
741.400	1250
741.513	1322
741.626	1917
741.739	1177
741.851	1368
741.964	607
742.077	413
742.189	1692
742.302	2801
742.415	1599
742.527	1179
742.640	212
742.753	1494
742.865	785
742.978	468
743.090	1405
743.203	1275
743.316	1147
743.428	292
743.541	1189
743.653	1330
743.766	946
743.878	817
743.990	1390
744.103	3125
744.215	2703
744.327	1164
744.440	2018
744.552	3050
744.664	1766
744.777	1140
744.889	696
745.001	1427
745.113	955
745.226	373
745.338	1282
745.450	780
745.562	1827
745.674	444
745.786	263
745.898	603
746.010	1214
746.122	1319
746.234	530
746.347	320
746.459	124
746.570	935
746.682	-62
746.794	3272
746.906	1157
747.018	1239
747.130	780
747.242	1196
747.354	284
747.466	1575
747.577	281
747.689	1009
747.801	117
747.913	733
748.024	580
748.136	828
748.248	383
748.359	1168
748.471	628
748.583	216
748.694	73
748.806	1540
748.918	681
749.029	925
749.141	748
749.252	1444
749.364	844
749.475	2549
749.587	2330
749.698	1005
749.809	603
749.921	553
750.032	529
750.144	909
750.255	488
750.366	288
750.478	435
750.589	69
750.700	700
750.811	1026
750.923	820
751.034	3589
751.145	4623
751.256	1088
751.367	61
751.479	116
751.590	160
751.701	1215
751.812	-583
751.923	687
752.034	92
752.145	269
752.256	466
752.367	391
752.478	166
752.589	1006
752.700	991
752.811	-795
752.922	288
753.032	-149
753.143	932
753.254	987
753.365	921
753.476	913
753.586	247
753.697	398
753.808	474
753.919	-447
754.029	274
754.140	626
754.251	-623
754.361	743
754.472	417
754.582	476
754.693	289
754.804	1357
754.914	121
755.025	784
755.135	-76
755.246	889
755.356	296
755.466	454
755.577	-131
755.687	113
755.798	56
755.908	617
756.018	62
756.129	1031
756.239	309
756.349	306
756.460	504
756.570	184
756.680	312
756.790	715
756.900	431
757.011	799
757.121	498
757.231	-86
757.341	1031
757.451	135
757.561	169
757.671	408
757.781	4
757.891	690
758.001	-144
758.111	427
758.221	60
758.331	998
758.441	787
758.551	1803
758.661	974
758.771	314
758.880	77
758.990	455
759.100	650
759.210	-381
759.320	677
759.429	955
759.539	-179
759.649	367
759.758	658
759.868	439
759.978	451
760.087	1397
760.197	301
760.307	1205
760.416	454
760.526	-663
760.635	-60
760.745	786
760.854	818
760.964	689
761.073	1004
761.182	1021
761.292	868
761.401	1407
761.511	648
761.620	306
761.729	280
761.839	79
761.948	182
762.057	868
762.166	391
762.276	60
762.385	1006
762.494	13
762.603	-342
762.712	52
762.822	11
762.931	804
763.040	67
763.149	12
763.258	-1
763.367	759
763.476	650
763.585	1009
763.694	569
763.803	945
763.912	287
764.021	302
764.130	283
764.238	353
764.347	-568
764.456	-32
764.565	850
764.674	-190
764.783	-246
764.891	216
765.000	356
765.109	1560
765.217	270
765.326	798
765.435	891
765.543	863
765.652	731
765.761	784
765.869	2092
765.978	3046
766.086	5196
766.195	12389
766.303	32922
766.412	128457
766.520	152840
766.629	24772
766.737	6690
766.846	3535
766.954	2539
767.062	2498
767.171	1744
767.279	1846
767.387	668
767.496	1162
767.604	286
767.712	1550
767.820	1403
767.928	877
768.037	973
768.145	773
768.253	739
768.361	327
768.469	1190
768.577	989
768.685	506
768.793	641
768.901	501
769.009	1418
769.117	145
769.225	915
769.333	1829
769.441	2534
769.549	5241
769.657	11075
769.765	41372
769.873	131672
769.981	48488
770.088	6172
770.196	1809
770.304	1767
770.412	501
770.519	1956
770.627	554
770.735	1736
770.842	823
770.950	718
771.058	279
771.165	909
771.273	200
771.380	860
771.488	768
771.595	1222
771.703	183
771.810	501
771.918	1124
772.025	680
772.133	798
772.240	1377
772.348	917
772.455	884
772.562	439
772.670	673
772.777	703
772.884	965
772.991	-541
773.099	1555
773.206	-547
773.313	880
773.420	615
773.528	80
773.635	110
773.742	175
773.849	531
773.956	600
774.063	283
774.170	-249
774.277	716
774.384	407
774.491	17
774.598	1207
774.705	1205
774.812	1308
774.919	1368
775.026	1654
775.133	159
775.239	1000
775.346	234
775.453	656
775.560	-104
775.667	1451
775.773	-62
775.880	541
775.987	-40
776.093	810
776.200	359
776.307	808
776.413	580
776.520	910
776.627	908
776.733	904
776.840	-306
776.946	1931
777.053	2222
777.159	4821
777.266	1689
777.372	4261
777.478	3815
777.585	1828
777.691	1174
777.798	1045
777.904	1150
778.010	1689
778.117	1554
778.223	513
778.329	35
778.435	990
778.542	-376
778.648	-50
778.754	86
778.860	179
778.966	156
779.072	746
779.178	896
779.284	755
779.391	-90
779.497	-101
779.603	964
779.708	103
779.815	1184
779.920	765
780.026	1543
780.132	214
780.238	116
780.344	225
780.450	607
780.556	261
780.661	-104
780.767	212
780.873	539
780.979	-37
781.085	80
781.190	283
781.296	-144
781.402	872
781.507	115
781.613	497
781.719	-122
781.824	353
781.930	633
782.035	501
782.141	-179
782.246	23
782.352	158
782.457	332
782.563	-243
782.668	-150
782.773	137
782.879	383
782.984	727
783.090	1593
783.195	1074
783.300	647
783.405	734
783.511	650
783.616	-83
783.721	690
783.826	144
783.932	311
784.037	606
784.142	-164
784.247	-262
784.352	-365
784.457	112
784.562	-22
784.667	-573
784.772	851
784.877	-268
784.982	290
785.087	-185
785.192	-390
785.297	507
785.402	350
785.507	527
785.611	102
785.716	-519
785.821	-412
785.926	-338
786.031	-296
786.135	-176
786.240	202
786.345	-622
786.450	370
786.554	287
786.659	239
786.763	-486
786.868	166
786.973	1050
787.077	-87
787.182	-126
787.286	-257
787.391	-316
787.495	-362
787.600	-1049
787.704	-801
787.809	269
787.913	47
788.017	-351
788.122	-205
788.226	226
788.330	-849
788.435	-278
788.539	-344
788.643	-992
788.747	-190
788.852	183
788.956	-751
789.060	30
789.164	109
789.268	-223
789.372	271
789.476	-422
789.580	-857
789.684	-547
789.788	740
789.892	-170
789.996	-355
790.100	-451
790.204	476
790.308	362
790.412	-1086
790.516	317
790.620	-428
790.724	349
790.828	334
790.931	-371
791.035	824
791.139	-1101
791.242	-873
791.346	404
791.450	-592
791.554	-188
791.657	-945
791.761	223
791.864	10
791.968	-530
792.072	262
792.175	91
792.279	-382
792.382	587
792.486	-286
792.589	-499
792.693	129
792.796	-647
792.899	60
793.003	-193
793.106	-819
793.209	-517
793.313	433
793.416	-1367
793.519	670
793.623	722
793.726	1111
793.829	29
793.932	63
794.035	-1229
794.138	702
794.242	-535
794.345	831
794.448	-29
794.551	872
794.654	1655
794.757	343
794.860	455
794.963	-6
795.066	215
795.169	-357
795.272	-112
795.375	436
795.477	-673
795.580	274
795.683	-772
795.786	-297
795.889	-781
795.991	448
796.094	191
796.197	13
796.300	-160
796.402	-409
796.505	-246
796.608	-470
796.710	55
796.813	-715
796.915	-264
797.018	-258
797.120	-553
797.223	-761
797.326	294
797.428	-546
797.530	-808
797.633	-401
797.735	220
797.838	-168
797.940	474
798.042	-1408
798.145	-551
798.247	-144
798.349	-1382
798.452	-606
798.554	-264
798.656	-1126
798.758	471
798.860	-214
798.962	-672
799.065	-285
799.167	-620
799.269	45
799.371	390
799.473	153
799.575	-116
799.677	397
799.779	-85
799.881	121
799.983	530
800.085	-264
800.187	-151
800.289	-542
800.390	-703
800.492	-500
800.594	-296
800.696	-663
800.798	-568
800.899	-620
801.001	-257
801.103	-1050
801.205	-960
801.306	-1088
801.408	-620
801.509	-591
801.611	-1227
801.713	-795
801.814	-1463
801.916	-511
802.017	-934
802.119	-973
802.220	-291
802.322	-1795
802.423	570
802.525	-1004
802.626	217
802.727	-435
802.829	-610
802.930	-1110
803.031	420
803.133	-280
803.234	-808
803.335	-518
803.436	-1470
803.538	-1411
803.639	-1808
803.740	-389
803.841	-1065
803.942	-461
804.043	90
804.144	-914
804.245	-315
804.346	-1248
804.447	-774
804.548	-321
804.649	715
804.750	-897
804.851	-774
804.952	-389
805.053	-1206
805.154	-1849
805.255	-375
805.355	-546
805.456	-1136
805.557	-704
805.658	-1238
805.758	-777
805.859	-600
805.960	-1373
806.061	-1618
806.161	-871
806.262	-799
806.362	-1091
806.463	-700
806.564	-412
806.664	-1414
806.765	-886
806.865	-565
806.966	-141
807.066	-1435
807.166	-168
807.267	-127
807.367	-669
807.468	366
807.568	-1448
807.668	-105
807.769	695
807.869	-1468
807.969	-905
808.069	64
808.170	-531
808.270	-545
808.370	127
808.470	-1320
808.570	-319
808.670	-1145
808.770	-605
808.870	-1037
808.970	28
809.070	-897
809.170	-1067
809.271	-603
809.370	-447
809.470	-422
809.570	-592
809.670	-1174
809.770	389
809.870	-904
809.970	-903
810.070	-964
810.169	-664
810.269	-2281
810.369	-417
810.469	-1592
810.568	-797
810.668	-1063
810.768	-1020
810.867	-752
810.967	-841
811.066	-1048
811.166	-1625
811.265	-484
811.365	-552
811.464	-1801
811.564	-414
811.663	-375
811.763	-1819
811.862	-35
811.962	-253
812.061	-646
812.160	-957
812.260	-547
812.359	-790
812.458	-1154
812.557	-901
812.657	-710
812.756	-316
812.855	-316
812.954	-506
813.053	-555
813.153	-592
813.252	-906
813.351	-1319
813.450	-1073
813.549	-938
813.648	-424
813.747	-500
813.846	-369
813.945	-1156
814.044	-1401
814.143	-764
814.242	-1431
814.341	-896
814.439	-1108
814.538	-192
814.637	-555
814.736	-640
814.835	-142
814.933	-1000
815.032	-1219
815.131	-560
815.229	-913
815.328	-768
815.427	-940
815.525	-326
815.624	-645
815.722	-1326
815.821	-847
815.919	-931
816.018	-293
816.116	-182
816.215	-1307
816.313	-211
816.412	-581
816.510	241
816.609	-392
816.707	-307
816.805	-657
816.904	-544
817.002	-1002
817.100	135
817.198	31
817.296	-566
817.395	-291
817.493	901
817.591	-1332
817.689	-227
817.787	-607
817.885	362
817.983	1203
818.081	6872
818.179	15909
818.277	46067
818.375	50510
818.473	10510
818.571	2607
818.669	1724
818.767	2299
818.865	1462
818.963	1348
819.061	3004
819.158	4651
819.256	12948
819.354	34813
819.452	94538
819.549	72782
819.647	13232
819.745	3416
819.842	2400
819.940	896
820.038	702
820.135	278
820.233	1225
820.330	129
820.428	-778
820.525	-132
820.623	-9
820.720	-382
820.818	226
820.915	-903
821.012	-153
821.110	-900
821.207	343
821.304	-377
821.402	-840
821.499	-41
821.596	1255
821.693	104
821.791	-729
821.888	-494
821.985	1628
822.082	234
822.179	900
822.276	-924
822.373	169
822.470	-351
822.567	-422
822.664	-1689
822.761	-146
822.858	-1634
822.955	-866
823.052	-1566
823.149	-431
823.246	-234
823.343	-588
823.440	-416
823.536	-456
823.633	-1318
823.730	-632
823.827	-1144
823.923	-232
824.020	-43
824.117	-42
824.213	-939
824.310	-94
824.407	-1282
824.503	-109
824.600	-449
824.696	-770
824.793	-794
824.889	-1155
824.986	-662
825.082	-325
825.179	-578
825.275	-1305
825.371	-1096
825.468	-436
825.564	-2405
825.660	-214
825.757	-330
825.853	-506
825.949	-1400
826.045	-1230
826.142	-1601
826.238	-838
826.334	-793
826.430	-1505
826.526	-606
826.622	-1266
826.718	-635
826.814	-806
826.910	-431
827.006	-752
827.102	-938
827.198	-505
827.294	-325
827.390	-577
827.486	-393
827.582	-1202
827.678	-1552
827.774	-296
827.869	-1194
827.965	-365
828.061	-1446
828.157	-912
828.252	-965
828.348	-904
828.444	-529
828.539	-448
828.635	-1510
828.731	-131
828.826	-978
828.922	-716
829.017	-1527
829.113	51
829.208	-746
829.304	-1288
829.399	-209
829.495	-1441
829.590	-198
829.685	-905
829.781	-1083
829.876	-1159
829.971	-1140
830.066	-1475
830.162	-1212
830.257	-838
830.352	-796
830.447	-572
830.543	-595
830.638	-1925
830.733	-620
830.828	-910
830.923	-1010
831.018	-1150
831.113	-878
831.208	-1353
831.303	-1176
831.398	-1119
831.493	-868
831.588	-997
831.683	-1368
831.778	-232
831.873	-1312
831.967	-589
832.062	-1519
832.157	-1978
832.252	-773
832.346	-1396
832.441	-413
832.536	42
832.631	1351
832.725	1429
832.820	-646
832.914	-485
833.009	-1863
833.104	-678
833.198	-446
833.293	-1471
833.387	-742
833.482	-693
833.576	-1821
833.670	-617
833.765	-809
833.859	-590
833.954	-415
834.048	-875
834.142	-1185
834.237	-1310
834.331	-1016
834.425	-451
834.519	-1207
834.613	-85
834.708	-1369
834.802	-892
834.896	-1248
834.990	-1038
835.084	-1034
835.178	-1168
835.272	-695
835.366	-1620
835.460	-1506
835.554	-1021
835.648	-1696
835.742	-1471
835.836	-1216
835.930	-2033
836.024	-1120
836.117	-982
836.211	-1231
836.305	-423
836.399	515
836.493	-1170
836.586	-837
836.680	-1313
836.774	-1584
836.867	-417
836.961	-921
837.055	-1955
837.148	-1334
837.242	-1106
837.335	-1357
837.429	-1190
837.522	-1198
837.616	-1052
837.709	1044
837.803	-183
837.896	-1153
837.989	-911
838.083	-601
838.176	114
838.269	-254
838.363	-737
838.456	-1113
838.549	-299
838.642	220
838.735	874
838.829	-216
838.922	-916
839.015	-828
839.108	-1377
839.201	-909
839.294	-771
839.387	-1800
839.480	-1224
839.573	-872
839.666	25
839.759	-1534
839.852	-1613
839.945	-669
840.038	-1275
840.131	-1034
840.223	-1091
840.316	-1253
840.409	-734
840.502	-1683
840.594	-1033
840.687	-2403
840.780	-1089
840.873	-1321
840.965	-1242
841.058	-1462
841.150	363
841.243	-1163
841.336	-491
841.428	-1081
841.521	-1959
841.613	-1307
841.706	-257
841.798	-1722
841.890	-1773
841.983	-1414
842.075	55
842.167	-721
842.260	-688
842.352	-376
842.444	-414
842.537	220
842.629	2510
842.721	-523
842.813	-1042
842.905	-2370
842.997	-689
843.090	-1425
843.182	-106
843.274	-389
843.366	3223
843.458	7016
843.550	5362
843.642	-1142
843.734	-412
843.826	-1341
843.918	-676
844.009	-611
844.101	-1425
844.193	-1236
844.285	-1072
844.377	-845
844.469	-481
844.560	-630
844.652	-246
844.744	-565
844.835	-1072
844.927	-686
845.019	-886
845.110	-1153
845.202	-858
845.293	-756
845.385	-1192
845.476	-1620
845.568	-573
845.659	-1527
845.751	-1354
845.842	-911
845.934	-1068
846.025	-1471
846.116	-1100
846.208	-1700
846.299	-1301
846.390	-1280
846.482	-315
846.573	-480
846.664	-283
846.755	-528
846.846	-172
846.937	-1874
847.029	-865
847.120	-1907
847.211	-1466
847.302	-758
847.393	-2385
847.484	-1090
847.575	-1427
847.666	-867
847.757	-860
847.847	-1326
847.938	-815
848.029	-1633
848.120	-1879
848.211	-1996
848.302	-1532
848.392	-1256
848.483	-597
848.574	-2045
848.664	-1221
848.755	-1625
848.846	-976
848.936	-1405
849.027	-753
849.118	-1291
849.208	-840
849.299	-473
849.389	286
849.480	1540
849.570	6835
849.661	12378
849.751	27000
849.841	13427
849.932	-202
850.022	-1887
850.112	-1145
850.203	-2019
850.293	-1167
850.383	-1155
850.474	-1247
850.564	-1109
850.654	-1311
850.744	-1348
850.834	-619
850.924	-1380
851.014	-734
851.104	-1045
851.194	-1315
851.284	-1188
851.374	-191
851.464	-1146
851.554	-950
851.644	-1078
851.734	-60
851.824	-1268
851.914	-1384
852.004	-1127
852.094	-1634
852.183	-1027
852.273	-910
852.363	-1926
852.452	-1372
852.542	-1122
852.632	-914
852.721	-1693
852.811	-1010
852.901	-43
852.990	-954
853.080	-458
853.169	-823
853.259	-1076
853.348	-598
853.438	-63
853.527	332
853.617	123
853.706	4022
853.795	7446
853.885	20010
853.974	42705
854.063	75368
854.152	146775
854.242	73881
854.331	8726
854.420	1817
854.509	808
854.598	356
854.687	-59
854.777	64
854.866	-447
854.955	-777
855.044	-1208
855.133	-1458
855.222	-1096
855.311	-868
855.400	-902
855.488	-800
855.577	-1153
855.666	-523
855.755	-510
855.844	-807
855.933	-1523
856.021	-1118
856.110	-639
856.199	-1750
856.288	-882
856.376	-1416
856.465	-1503
856.554	-128
856.642	-1240
856.731	-574
856.819	-1077
856.908	-1274
856.996	-1732
857.085	-859
857.173	-1375
857.262	-970
857.350	-1202
857.438	-1370
857.527	-1075
857.615	-1717
857.703	-1838
857.792	-594
857.880	-2182
857.968	-1124
858.056	-1726
858.145	-1005
858.233	-898
858.321	-1523
858.409	-1383
858.497	-1352
858.585	-1386
858.673	-879
858.761	-2187
858.849	-1742
858.937	-1692
859.025	-990
859.113	-1225
859.201	-1792
859.289	-1793
859.377	-683
859.465	-1157
859.552	-1333
859.640	-1544
859.728	-745
859.816	-1277
859.903	-1788
859.991	-1826
860.079	-1061
860.166	-844
860.254	-1307
860.342	-1334
860.429	-1390
860.517	-1787
860.604	-1458
860.692	-1501
860.779	-1296
860.867	-1539
860.954	-1651
861.042	-1587
861.129	-1034
861.216	-1179
861.304	-1498
861.391	-1569
861.478	-1246
861.565	-635
861.653	-148
861.740	-1992
861.827	-1802
861.914	-1029
862.001	-1250
862.089	-1058
862.176	-1497
862.263	-1689
862.350	-1054
862.437	-1328
862.524	-1554
862.611	-1623
862.698	-1437
862.785	-1273
862.871	-822
862.958	-1625
863.045	-1631
863.132	-1724
863.219	-1099
863.306	-2081
863.392	-729
863.479	-1501
863.566	-1479
863.652	-1198
863.739	-1195
863.826	-827
863.912	-1306
863.999	-1702
864.086	-1240
864.172	-1841
864.259	-1548
864.345	-1585
864.432	-913
864.518	-1453
864.604	-995
864.691	-2315
864.777	-823
864.863	-576
864.950	-1026
865.036	-2078
865.122	-188
865.209	200
865.295	-523
865.381	-184
865.467	-646
865.553	527
865.639	874
865.726	3054
865.812	9524
865.898	19933
865.984	33459
866.070	60363
866.156	89074
866.242	28007
866.328	3024
866.414	127
866.499	-128
866.585	-20
866.671	-142
866.757	-871
866.843	17
866.928	-977
867.014	-686
867.100	-338
867.186	-1319
867.271	-682
867.357	34
867.442	432
867.528	-876
867.614	-636
867.699	209
867.785	407
867.870	-181
867.956	-275
868.041	151
868.127	-428
868.212	-391
868.297	-311
868.383	-317
868.468	-226
868.553	503
868.639	253
868.724	1899
868.809	2367
868.894	-577
868.979	-401
869.065	-522
869.150	-1524
869.235	-1358
869.320	-1357
869.405	-1912
869.490	-1456
869.575	-889
869.660	-701
869.745	-557
869.830	-1698
869.915	-498
870.000	-1245
870.085	-1352
870.169	-756
870.254	-1103
870.339	-1209
870.424	-658
870.509	-1232
870.593	-55
870.678	-824
870.763	-164
870.847	-554
870.932	-819
871.016	-619
871.101	-953
871.186	-1585
871.270	-604
871.355	-1152
871.439	-1088
871.523	-1829
871.608	-651
871.692	-1611
871.777	-619
871.861	-1692
871.945	-120
872.030	-1150
872.114	-1722
872.198	-1325
872.282	-1648
872.367	-969
872.451	-1136
872.535	-1584
872.619	-934
872.703	-937
872.787	-1501
872.871	-621
872.955	-695
873.039	-1596
873.123	-1769
873.207	-1303
873.291	-1815
873.375	-1539
873.459	-653
873.543	-1737
873.627	-1216
873.711	-1887
873.794	-1241
873.878	-907
873.962	-1890
874.045	-1453
874.129	-488
874.137	-490
874.213	-506
874.245	-493
874.296	-478
874.352	-1519
874.380	-2030
874.460	-1463
874.464	-1441
874.547	-2035
874.568	-1714
874.631	-777
874.676	-1055
874.714	-1287
874.784	-778
874.798	-679
874.881	353
874.892	182
874.965	-979
874.999	-1054
875.048	-1188
875.107	-826
875.131	-675
875.215	-1080
875.215	-1080
875.298	-1177
875.323	-1324
875.381	-1738
875.430	-1008
875.465	-468
875.538	-1504
875.548	-1654
875.631	-498
875.646	-730
875.714	-1795
875.753	-1663
875.798	-1498
875.861	-1202
875.881	-1108
875.964	-765
875.968	-758
876.047	-730
876.076	-667
876.130	-487
876.183	-978
876.213	-1225
876.291	-392
876.296	-345
876.379	-910
876.398	-970
876.462	-1100
876.506	-1023
876.545	-945
876.613	-923
876.628	-936
876.711	-997
876.721	-951
876.794	-533
876.828	-739
876.877	-1040
876.935	-865
876.960	-788
877.043	-1229
877.043	-1226
877.125	-229
877.150	-275
877.208	-580
877.258	-503
877.291	-316
877.365	-709
877.374	-780
877.456	-722
877.472	-729
877.539	-581
877.579	-606
877.622	-726
877.687	-1038
877.704	-1099
877.787	-712
877.794	-724
877.869	-914
877.901	-707
877.952	-364
878.008	-751
878.034	-909
878.115	-1132
878.117	-1141
878.199	-661
878.222	-818
878.282	-898
878.329	-471
878.364	-166
878.437	-260
878.447	-302
878.529	-1134
878.544	-1095
878.611	-851
878.651	-811
878.694	-673
878.758	-542
878.776	-533
878.858	-324
878.865	-320
878.941	-484
878.972	-853
879.023	-1263
879.078	-712
879.105	-437
879.185	-828
879.187	-836
879.269	-571
879.292	-612
879.351	-929
879.399	-1281
879.433	-1327
879.506	-825
879.516	-786
879.598	-462
879.613	-540
879.680	-595
879.720	-561
879.762	-753
879.827	-854
879.844	-823
879.926	-349
879.933	-393
880.007	-726
880.040	-479
880.089	-208
880.147	-568
880.171	-779
880.253	-453
880.254	-453
880.335	553
880.360	833
880.417	1599
880.467	2150
880.499	2809
880.574	5844
880.580	5871
880.662	2510
880.680	1961
880.744	663
880.787	-119
880.825	-493
880.893	-806
880.907	-840
880.989	-778
881.000	-745
881.070	-418
881.106	-351
881.152	-254
881.213	-165
881.233	-249
881.315	-854
881.319	-867
881.396	-463
881.426	-471
881.478	-850
881.532	-672
881.559	-402
881.639	-604
881.641	-619
881.722	-428
881.745	-634
881.803	-558
881.852	-202
881.885	-248
881.958	-452
881.966	-427
882.047	-310
882.064	-207
882.129	-309
882.171	-632
882.210	-353
882.277	538
882.291	633
882.372	696
882.383	678
882.454	264
882.489	97
882.535	-176
882.596	-452
882.616	-386
882.697	-140
882.702	-103
882.778	68
882.808	-70
882.859	-221
882.914	-350
882.940	-357
883.020	-711
883.021	-710
883.102	-685
883.127	-607
883.183	-80
883.233	-86
883.264	-380
883.339	-406
883.345	-371
883.426	-793
883.445	-674
883.507	-253
883.551	-207
883.587	-81
883.657	287
883.668	323
883.749	37
883.763	40
883.830	-173
883.869	-285
883.910	-388
883.975	-636
883.991	-608
884.072	-315
884.081	-279
884.152	-244
884.187	-302
884.233	79
884.292	451
884.314	283
884.394	-505
884.398	-536
884.475	-448
884.504	-399
884.555	-442
884.610	-552
884.636	-514
884.716	-431
884.716	-426
884.797	-160
884.821	-191
884.877	-265
884.927	-380
884.958	-502
885.033	-755
885.038	-729
885.118	8
885.139	97
885.199	-130
885.244	-139
885.279	81
885.350	147
885.359	180
885.439	706
885.456	754
885.520	174
885.561	-119
885.600	-201
885.667	-332
885.680	-265
885.760	79
885.773	125
885.840	406
885.878	664
885.920	456
885.984	-355
886.000	-392
886.080	-105
886.089	-88
886.160	259
886.195	411
886.240	359
886.300	307
886.320	97
886.400	-770
886.406	-831
886.480	-277
886.511	-88
886.560	208
886.616	573
886.640	578
886.720	682
886.722	674
886.800	450
886.827	375
886.879	110
886.932	-149
886.959	-77
887.038	105
887.039	111
887.119	22
887.143	46
887.198	464
887.248	560
887.278	224
887.354	-318
887.358	-293
887.437	-26
887.459	69
887.517	373
887.564	561
887.596	285
887.669	-274
887.676	-243
887.755	-91
887.774	-8
887.835	148
887.880	220
887.914	184
887.985	82
887.994	47
888.073	-341
888.090	-416
888.153	234
888.195	646
888.232	491
888.300	189
888.311	156
888.391	-108
888.405	-156
888.470	-83
888.510	-56
888.549	-198
888.615	-448
888.628	-399
888.708	-105
888.720	-59
888.787	716
888.825	1107
888.866	596
888.930	-162
888.945	-96
889.024	251
889.035	290
889.103	18
889.140	-134
889.182	139
889.245	551
889.261	457
889.340	-27
889.349	-84
889.419	2
889.454	35
889.498	-101
889.559	-280
889.577	-151
889.656	411
889.664	465
889.735	567
889.768	613
889.814	299
889.873	-122
889.978	-197
890.083	833
890.187	430
890.292	217
890.397	296
890.501	563
890.606	-28
890.710	185
890.815	1161
890.919	-367
891.024	-440
891.128	152
891.233	630
891.337	356
891.442	238
891.546	293
891.650	87
891.755	8
891.859	1015
891.963	100
892.068	12
892.172	224
892.276	-636
892.380	74
892.484	-81
892.589	543
892.693	0
892.797	216
892.901	-634
893.005	428
893.109	-389
893.213	24
893.317	-52
893.421	-666
893.525	-218
893.629	-637
893.733	679
893.837	138
893.941	20
894.045	305
894.148	-537
894.252	-506
894.356	-67
894.460	712
894.564	89
894.667	-195
894.771	-50
894.875	-36
894.978	59
895.082	748
895.186	62
895.289	227
895.393	-184
895.496	525
895.600	51
895.703	-448
895.807	-171
895.910	-360
896.014	-84
896.117	-9
896.221	148
896.324	277
896.427	114
896.531	311
896.634	-161
896.737	470
896.840	-182
896.944	249
897.047	-573
897.150	94
897.253	-33
897.356	-69
897.460	-535
897.563	-301
897.666	395
897.769	384
897.872	-663
897.975	405
898.078	-445
898.181	-632
898.284	-661
898.387	-573
898.490	-759
898.593	-728
898.695	86
898.798	-88
898.901	113
899.004	-289
899.107	-720
899.209	563
899.312	-506
899.415	625
899.518	-707
899.620	-491
899.723	132
899.826	163
899.928	809
900.031	-190
900.133	-323
900.236	-805
900.338	-1178
900.441	-56
900.543	-717
900.646	-129
900.748	-942
900.851	-24
900.953	-348
901.055	280
901.158	-696
901.260	-204
901.362	-1515
901.465	445
901.567	-292
901.669	-34
901.771	-255
901.873	-238
901.976	-940
902.078	-143
902.180	-263
902.282	-339
902.384	-763
902.486	129
902.588	-41
902.690	140
902.792	-37
902.894	-12
902.996	-641
903.098	-150
903.200	-978
903.302	587
903.404	-673
903.505	-207
903.607	56
903.709	472
903.811	65
903.913	-466
904.014	-111
904.116	367
904.218	-979
904.319	283
904.421	-6
904.523	326
904.624	209
904.726	89
904.827	233
904.929	-404
905.030	-95
905.132	-128
905.233	-116
905.335	-70
905.436	-1107
905.537	-591
905.639	-818
905.740	180
905.841	722
905.943	-194
906.044	353
906.145	-51
906.247	-48
906.348	-741
906.449	-158
906.550	-549
906.651	-174
906.752	-54
906.854	-279
906.955	-370
907.056	-214
907.157	-84
907.258	-343
907.359	-482
907.460	-535
907.561	-620
907.662	-692
907.762	760
907.863	-649
907.964	-178
908.065	-428
908.166	-1001
908.267	42
908.367	-460
908.468	-727
908.569	355
908.670	-232
908.770	386
908.871	-160
908.971	-727
909.072	363
909.173	-545
909.273	-1459
909.374	-160
909.474	-888
909.575	-541
909.675	-886
909.776	-350
909.876	109
909.977	-922
910.077	-112
910.177	-423
910.278	-517
910.378	-457
910.478	-423
910.579	-269
910.679	-255
910.779	0
910.879	-163
910.980	-314
911.080	6
911.180	-358
911.280	-676
911.380	-602
911.480	-633
911.580	-764
911.680	-776
911.780	-387
911.880	-657
911.980	73
912.080	-129
912.180	493
912.280	-863
912.380	-619
912.480	-644
912.580	-562
912.679	-35
912.779	115
912.879	-19
912.979	-568
913.078	-1101
913.178	-886
913.278	-525
913.377	-472
913.477	-373
913.577	-873
913.676	540
913.776	-869
913.875	-737
913.975	427
914.074	-748
914.174	-402
914.273	-1219
914.373	-599
914.472	-671
914.572	-837
914.671	-560
914.770	-300
914.870	-197
914.969	12
915.068	-914
915.167	-1094
915.267	-959
915.366	-432
915.465	-482
915.564	-1010
915.663	-206
915.763	-403
915.862	-1033
915.961	-223
916.060	-893
916.159	-58
916.258	-1214
916.357	-554
916.456	-723
916.555	-366
916.654	-186
916.752	-97
916.851	-812
916.950	-306
917.049	-79
917.148	-969
917.247	-353
917.345	-778
917.444	-624
917.543	-731
917.642	-639
917.740	-340
917.839	-741
917.937	-162
918.036	-92
918.135	-794
918.233	-1039
918.332	238
918.430	-810
918.529	-222
918.627	-642
918.726	-395
918.824	-129
918.923	-557
919.021	-1127
919.119	-1029
919.218	-441
919.316	-1280
919.414	-246
919.512	-460
919.611	-958
919.709	-95
919.807	-556
919.905	277
920.003	-437
920.102	478
920.200	-281
920.298	-234
920.396	-78
920.494	-327
920.592	-617
920.690	420
920.788	-457
920.886	-44
920.984	-172
921.082	-378
921.180	-273
921.277	-299
921.375	-327
921.473	-166
921.571	34
921.669	-376
921.766	-683
921.864	610
921.962	565
922.060	-124
922.157	575
922.255	3
922.352	-211
922.450	564
922.548	-167
922.645	439
922.743	-266
922.840	579
922.938	1661
923.035	1468
923.133	841
923.230	1098
923.327	824
923.425	1380
923.522	1230
923.619	1274
923.717	1116
923.814	682
923.911	1480
924.008	1495
924.106	1310
924.203	428
924.300	1762
924.397	985
924.494	1236
924.591	1220
924.688	1331
924.786	1121
924.883	1051
924.979	467
925.077	1391
925.173	803
925.270	1513
925.367	1338
925.464	1059
925.561	1110
925.658	1381
925.755	1999
925.852	1321
925.948	1627
926.045	1365
926.142	1590
926.239	1763
926.335	739
926.432	1528
926.529	1780
926.625	1401
926.722	1935
926.818	375
926.915	1330
927.011	1100
927.108	549
927.204	713
927.301	335
927.397	1585
927.494	654
927.590	679
927.687	290
927.783	1464
927.879	389
927.976	642
928.072	663
928.168	771
928.264	798
928.361	-87
928.457	645
928.553	579
928.649	472
928.745	1525
928.841	602
928.937	24
929.033	1098
929.129	598
929.225	705
929.321	376
929.417	500
929.513	353
929.609	1038
929.705	333
929.801	576
929.897	313
929.993	193
930.089	-171
930.184	1128
930.280	229
930.376	1177
930.471	183
930.567	283
930.663	1152
930.758	624
930.854	539
930.950	-406
931.045	-339
931.141	700
931.236	1169
931.332	160
931.427	523
931.523	1457
931.618	919
931.714	357
931.809	828
931.905	612
932.000	528
932.095	-583
932.191	758
932.286	962
932.381	561
932.476	9
932.572	296
932.667	511
932.762	628
932.857	148
932.952	549
933.047	851
933.142	-208
933.237	534
933.332	66
933.427	1132
933.522	-34
933.617	381
933.712	346
933.807	467
933.902	714
933.997	852
934.092	206
934.187	-4
934.282	125
934.376	97
934.471	377
934.566	366
934.661	239
934.755	863
934.850	276
934.945	269
935.039	-667
935.134	306
935.228	457
935.323	616
935.417	-308
935.512	577
935.606	-343
935.701	130
935.795	299
935.890	106
935.984	224
936.079	27
936.173	468
936.267	-155
936.362	-250
936.456	944
936.550	1194
936.644	796
936.738	-475
936.833	-349
936.927	-941
937.021	513
937.115	-429
937.209	667
937.303	133
937.397	-48
937.491	459
937.585	-39
937.679	618
937.773	547
937.867	49
937.961	652
938.055	529
938.149	345
938.243	297
938.337	312
938.430	528
938.524	163
938.618	1240
938.712	1077
938.805	426
938.899	662
938.993	754
939.086	345
939.180	323
939.274	2337
939.367	1121
939.461	302
939.554	-107
939.648	387
939.741	-505
939.835	361
939.928	545
940.022	-235
940.115	-723
940.208	191
940.302	596
940.395	220
940.488	-358
940.582	785
940.675	-565
940.768	388
940.861	394
940.954	997
941.048	-180
941.141	-66
941.234	-32
941.327	578
941.420	1685
941.513	236
941.606	119
941.699	307
941.792	-152
941.885	153
941.978	357
942.071	-469
942.164	-141
942.257	-859
942.349	556
942.442	-4
942.535	160
942.628	188
942.721	362
942.813	281
942.906	-266
942.999	553
943.091	-403
943.184	339
943.277	-386
943.369	-43
943.462	-1696
943.554	-235
943.647	-300
943.739	-117
943.832	739
943.924	-1151
944.017	615
944.109	-240
944.201	655
944.294	-955
944.386	-20
944.478	-512
944.571	-386
944.663	-131
944.755	-661
944.847	-64
944.940	121
945.032	-146
945.124	29
945.216	950
945.308	-182
945.400	165
945.492	-378
945.584	-454
945.676	-406
945.768	68
945.860	21
945.952	266
946.044	407
946.136	-228
946.228	143
946.320	-607
946.412	-619
946.503	-30
946.595	-80
946.687	-182
946.779	106
946.870	-673
946.962	-793
947.054	554
947.145	-330
947.237	-918
947.329	51
947.420	-591
947.512	-487
947.603	-831
947.695	100
947.786	-621
947.878	-664
947.969	99
948.061	468
948.152	-280
948.243	154
948.335	-947
948.426	-840
948.517	-738
948.609	-944
948.700	-456
948.791	-445
948.882	-422
948.973	-372
949.065	-655
949.156	-784
949.247	-556
949.338	-300
949.429	-362
949.520	-502
949.611	-985
949.702	-184
949.793	-149
949.884	-456
949.975	434
950.066	-1268
950.157	-239
950.247	-1214
950.338	-546
950.429	-1001
950.520	-657
950.611	-64
950.701	-111
950.792	-24
950.883	-41
950.973	-111
951.064	-1427
951.155	-327
951.245	317
951.336	-526
951.427	-789
951.517	-195
951.608	-704
951.698	-1001
951.788	-708
951.879	-1368
951.969	-471
952.060	-1236
952.150	-402
952.240	-49
952.331	-1897
952.421	35
952.511	-526
952.602	-561
952.692	-455
952.782	-564
952.872	-1070
952.962	-721
953.052	-896
953.143	-1209
953.233	-755
953.323	-980
953.413	-1081
953.503	-517
953.593	-347
953.683	-1171
953.773	-950
953.863	-345
953.953	-687
954.042	-1269
954.132	-997
954.222	27
954.312	-516
954.402	-1008
954.492	-252
954.581	321
954.671	-185
954.761	-1175
954.850	-82
954.940	-1345
955.030	-671
955.119	-876
955.209	-943
955.298	-1017
955.388	-309
955.477	-465
955.567	-1086
955.656	-639
955.746	-722
955.835	-1431
955.925	-1585
956.014	-1368
956.103	-729
956.193	-753
956.282	-1210
956.371	-1160
956.461	-750
956.550	-700
956.639	-994
956.728	-1582
956.817	-702
956.906	-941
956.995	-305
957.085	-1337
957.174	-1043
957.263	-981
957.352	-1192
957.441	-741
957.530	-758
957.619	-1097
957.708	-1088
957.796	-1072
957.885	-1169
957.974	-1341
958.063	-573
958.152	-1547
958.241	-845
958.329	-926
958.418	-116
958.507	-1861
958.596	-501
958.684	-1741
958.773	-317
958.861	-814
958.950	-1080
959.039	-1932
959.127	-663
959.216	-1539
959.304	-1198
959.393	-1041
959.481	-1226
959.570	-1042
959.658	-1568
959.746	-951
959.835	-681
959.923	-350
960.011	572
960.100	-503
960.188	-1441
960.276	-1458
960.365	-736
960.453	-937
960.541	-1338
960.629	-1008
960.717	-867
960.805	-1258
960.893	-1460
960.981	-2576
961.069	-808
961.158	-1318
961.245	-825
961.333	-1459
961.421	-1452
961.509	-1047
961.597	-842
961.685	-1306
961.773	-2122
961.861	-1777
961.949	-544
962.036	-1505
962.124	-22
962.212	-2061
962.299	-1424
962.387	-1069
962.475	-941
962.562	-1553
962.650	57
962.738	-1095
962.825	-2411
962.913	-1094
963.000	-1047
963.088	-1113
963.175	-1048
963.263	-1558
963.350	-305
963.438	-1235
963.525	-314
963.612	-191
963.700	1222
963.787	7552
963.874	5039
963.962	20
964.049	-740
964.136	-1170
964.223	-1214
964.310	-494
964.398	-651
964.485	-1892
964.572	-1155
964.659	-831
964.746	-545
964.833	-950
964.920	-1369
965.007	-937
965.094	-387
965.181	-1300
965.268	-683
965.355	-980
965.441	-1015
965.528	-1833
965.615	-932
965.702	-1163
965.789	-1337
965.875	-671
965.962	-757
966.049	-1316
966.136	-1307
966.222	-1241
966.309	-1026
966.395	-1563
966.482	-478
966.569	-911
966.655	-1326
966.742	-906
966.828	-1345
966.915	-1525
967.001	-1516
967.087	-1260
967.174	-797
967.260	-890
967.347	-916
967.433	1595
967.519	4619
967.605	1787
967.692	-975
967.778	-826
967.864	-1477
967.950	-1304
968.036	-993
968.123	-1233
968.209	-1121
968.295	-1467
968.381	-1106
968.467	-810
968.553	-2034
968.639	-1013
968.725	-1141
968.811	-324
968.897	-187
968.983	-1116
969.069	-1561
969.154	-1839
969.240	-1133
969.326	-1455
969.412	-1600
969.497	-1234
969.583	-1291
969.669	-206
969.755	-1419
969.840	-1366
969.926	-286
970.012	-1299
970.097	-900
970.183	-197
970.268	-246
970.354	-506
970.439	124
970.525	2724
970.610	730
970.696	-399
970.781	-799
970.866	-1384
970.952	-1418
971.037	-1695
971.122	-1672
971.208	-891
971.293	-1790
971.378	-1554
971.463	-2155
971.549	-1849
971.634	-1658
971.719	-1058
971.804	-571
971.889	-665
971.974	-1287
972.059	-1568
972.144	-502
972.229	-1109
972.314	-1218
972.399	-1209
972.484	-963
972.569	-828
972.654	-624
972.739	53
972.824	726
972.908	-867
972.993	-1881
973.078	-1644
973.163	-1696
973.247	-409
973.332	-2271
973.417	-746
973.501	-1459
973.586	-1788
973.671	-911
973.755	-1496
973.840	-998
973.924	-1432
974.009	-1002
974.093	-1301
974.178	-613
974.262	-14
974.346	901
974.431	637
974.515	-1086
974.600	-1819
974.684	-957
974.768	-1458
974.852	-765
974.937	-1587
975.021	-1556
975.105	-1603
975.189	-1148
975.273	-683
975.358	-1677
975.442	-988
975.526	-1062
975.610	-1850
975.694	-1745
975.778	-530
975.862	-1069
975.946	-1992
976.030	-422
976.114	-1801
976.198	-1311
976.281	-1143
976.365	-459
976.449	-2249
976.533	-991
976.617	-2031
976.700	-1025
976.784	-917
976.868	-365
976.951	-639
977.035	-340
977.119	-330
977.202	-817
977.286	-1197
977.369	-802
977.453	-140
977.536	-616
977.620	-1915
977.703	-718
977.787	-1934
977.870	-433
977.953	-1015
978.037	-1736
978.120	-188
978.203	-857
978.287	429
978.370	467
978.453	-495
978.536	-545
978.620	-367
978.703	143
978.786	-207
978.869	-1152
978.952	-1938
979.035	-947
979.118	-1432
979.201	-1475
979.284	-1490
979.367	-1074
979.450	-1234
979.533	-1387
979.616	-1723
979.699	-1221
979.782	-1326
979.865	-1091
979.948	-762
980.030	-2011
980.113	-1166
980.196	-1416
980.279	-1245
980.361	-935
980.444	-1653
980.526	-1177
980.609	-1505
980.692	-1112
980.774	-1240
980.857	-1967
980.939	-109
981.022	-1072
981.104	-800
981.187	-1071
981.269	-702
981.352	-608
981.434	-2016
981.516	-1478
981.599	-1078
981.681	-511
981.763	-1750
981.846	-1020
981.928	-1860
982.010	-1135
982.092	-1477
982.174	-766
982.256	-1080
982.339	-639
982.421	-1059
982.503	-1362
982.585	-2008
982.667	-1711
982.749	-1236
982.831	-561
982.913	-1484
982.995	-1179
983.077	-1263
983.158	401
983.240	-1972
983.322	-823
983.404	-617
983.486	-1398
983.568	-1297
983.649	-569
983.731	-1046
983.813	-948
983.894	-1246
983.976	-1745
984.058	-1632
984.139	-837
984.221	-1850
984.302	-619
984.384	-1938
984.465	-1457
984.547	-81
984.628	-2372
984.710	-602
984.791	-1262
984.872	-1475
984.954	-944
985.035	-742
985.116	-1609
985.198	-1681
985.279	129
985.360	-1157
985.441	-667
985.522	-1365
985.604	-1548
985.685	-1916
985.766	-412
985.847	-49
985.928	-1318
986.009	-1460
986.090	-1466
986.171	26
986.252	-968
986.333	-1049
986.414	-933
986.495	-1356
986.576	-922
986.656	-442
986.737	-859
986.818	-899
986.899	-1283
986.980	-1062
987.060	-548
987.141	-1599
987.222	-891
987.302	-689
987.383	-520
987.464	-938
987.544	-370
987.625	-1368
987.705	-1181
987.786	-217
987.866	-902
987.947	-1691
988.027	-1561
988.108	-1296
988.188	-928
988.268	-1055
988.349	-722
988.429	-1112
988.509	-518
988.589	-1622
988.670	-1352
988.750	542
988.830	-818
988.910	-977
988.990	-806
989.070	-2138
989.151	-696
989.231	-1788
989.311	-756
989.391	-1413
989.471	-972
989.551	-1834
989.631	-1225
989.711	-935
989.791	-1753
989.870	-1109
989.950	-1088
990.030	-2035
990.110	-1337
990.190	-1749
990.269	-1080
990.349	-1569
990.429	-921
990.509	-995
990.588	-2147
990.668	-1108
990.747	-889
990.827	-1767
990.907	-1194
990.986	-1215
991.066	-1139
991.145	-1846
991.225	-691
991.304	-1823
991.383	-1249
991.463	-1460
991.542	-1930
991.622	-2045
991.701	-1572
991.780	-2019
991.859	-871
991.939	-1064
992.018	-2718
992.097	-1193
992.176	-1241
992.256	-1478
992.335	-1993
992.414	-1856
992.493	-957
992.572	-1359
992.651	-599
992.730	-1047
992.809	-1017
992.888	-2347
992.967	-1943
993.046	-1157
993.125	-1154
993.203	-776
993.282	-1282
993.361	-1803
993.440	-2167
993.519	-2380
993.597	-1779
993.676	-2365
993.755	-1996
993.834	-1449
993.912	-2168
993.991	-1121
994.069	-1389
994.148	-2096
994.226	-1294
994.305	-1493
994.384	-2724
994.462	-1269
994.540	-2657
994.619	-2449
994.697	-1007
994.776	-2089
994.854	-1214
994.932	-1808
995.011	-1048
995.089	-2748
995.167	-2378
995.245	-1351
995.324	-2511
995.402	-1059
995.480	-1451
995.558	-1061
995.636	-2128
995.714	-2044
995.792	-1211
995.870	-2409
995.948	-1976
996.026	-1951
996.104	-1393
996.182	-1242
996.260	-1943
996.338	-1048
996.416	-2237
996.494	-1895
996.572	-1014
996.649	-2110
996.727	-1520
996.805	-1673
996.883	-1477
996.960	-1134
997.038	-1488
997.116	-882
997.193	-1885
997.271	-1299
997.348	-2438
997.426	-1936
997.504	-1607
997.581	-1060
997.658	-1397
997.736	-1881
997.813	-1859
997.891	-1033
997.968	-1373
998.046	-1750
998.123	-1530
998.200	-1419
998.277	-2725
998.355	-1654
998.432	-2528
998.509	-1580
998.586	-1260
998.663	-2231
998.741	-1368
998.818	-2266
998.895	-1720
998.972	-1512
999.049	-1579
999.126	-1834
999.203	-1133
999.280	-1045
999.357	-1570
999.434	-2579
999.511	-2302
999.587	-989
999.664	-2181
999.741	-1822
999.818	-1742
999.895	-1403
999.971	-2456
1000.048	-1681
1000.125	-1834
1000.202	-2448
1000.278	-1195
1000.355	-1350
1000.431	-1879
1000.508	-2977
1000.584	-2288
1000.661	-1283
1000.738	-2136
1000.814	-2045
1000.890	-780
1000.967	-1827
1001.043	-2147
1001.120	-2847
1001.196	-858
1001.272	-1172
1001.349	-1273
1001.425	-2039
1001.501	-1780
1001.577	-1727
1001.654	-1405
1001.730	-1922
1001.806	-1866
1001.882	-1367
1001.958	-1255
1002.034	-1113
1002.110	-2430
1002.186	-1887
1002.262	-1883
1002.338	-2571
1002.414	-1080
1002.490	-1746
1002.566	-1398
1002.642	-1740
1002.718	-665
1002.794	-1622
1002.870	-2142
1002.945	-2098
1003.021	-1755
1003.097	-2162
1003.173	-929
1003.248	-2273
1003.324	-1331
1003.400	-1233
1003.475	-1854
1003.551	-1817
1003.626	-1714
1003.702	-2292
1003.777	-1592
1003.853	-2031
1003.928	-3181
1004.004	-1368
1004.079	-1522
1004.155	-1970
1004.230	-2230
1004.305	-1013
1004.381	-1600
1004.456	-1793
1004.531	-1263
1004.607	-2074
1004.682	-2894
1004.757	-2537
1004.832	-2030
1004.907	-1649
1004.982	-1318
1005.057	-1539
1005.133	-1204
1005.208	-1775
1005.283	-2564
1005.358	-1627
1005.433	-3028
1005.508	-1134
1005.583	-2234
1005.657	-2599
1005.732	-984
1005.807	-2492
1005.882	-1881
1005.957	-2216
1006.032	-1615
1006.106	-2954
1006.181	-1931
1006.256	-1579
1006.331	-2166
1006.405	-1991
1006.480	-1023
1006.554	-2046
1006.629	-1722
1006.704	-2606
1006.778	-1462
1006.853	-1864
1006.927	-1902
1007.002	-1874
1007.076	-2274
1007.150	-2801
1007.225	-1968
1007.299	-1770
1007.373	-2547
1007.448	-2115
1007.522	-1269
1007.596	-1631
1007.671	-1734
1007.745	-1974
1007.819	-1852
1007.893	-2111
1007.967	-2265
1008.041	-2595
1008.115	-1109
1008.190	-1991
1008.264	-1832
1008.338	-3026
1008.412	-2171
1008.486	-2063
1008.560	-2851
1008.633	-2553
1008.707	-1641
1008.781	-1362
1008.855	-2037
1008.929	-1165
1009.003	-2443
1009.076	-2848
1009.150	-1922
1009.224	-1273
1009.298	-1866
1009.371	-1884
1009.445	-1134
1009.519	-2530
1009.592	-3018
1009.666	-1678
1009.739	-2209
1009.813	-3373
1009.886	-1140
1009.960	-2416
1010.033	-1649
1010.107	-1478
1010.180	-2438
1010.253	-1119
1010.327	-1591
1010.400	-1816
1010.473	-2187
1010.547	-1021
1010.620	-1286
1010.693	-2364
1010.766	-2090
1010.840	-1833
1010.913	-1627
1010.986	-2363
1011.059	-1734
1011.132	-1829
1011.205	-1861
1011.278	-2293
1011.351	-2084
1011.424	-2250
1011.497	-1805
1011.570	-1484
1011.643	-1495
1011.716	-2765
1011.789	-1889
1011.862	-2255
1011.934	-1608
1012.007	-1927
1012.080	-1825
1012.153	-2467
1012.225	-1515
1012.298	-1958
1012.371	-1842
1012.443	-1186
1012.516	-2290
1012.588	-1826
1012.661	-1640
1012.733	-2313
1012.806	-1069
1012.879	-2432
1012.951	-1962
1013.023	-2494
1013.096	-3005
1013.168	-2001
1013.241	-1558
1013.313	-1969
1013.385	-3068
1013.458	-1833
1013.530	-1758
1013.602	-2371
1013.674	-1203
1013.746	-2600
1013.819	-1953
1013.891	-1866
1013.963	-2250
1014.035	-2322
1014.107	-1145
1014.179	-2139
1014.251	-2147
1014.323	-2676
1014.395	-1884
1014.467	-1847
1014.539	-1412
1014.611	-2658
1014.683	-1416
1014.754	-2134
1014.826	-1745
1014.898	-2173
1014.970	-2330
1015.042	-1790
1015.113	-1748
1015.185	-2276
1015.257	-3045
1015.328	-1901
1015.400	-2433
1015.471	-2516
1015.543	-2097
1015.615	-2350
1015.686	-3210
1015.757	-2110
1015.829	-2028
1015.901	-1522
1015.972	-2344
1016.043	-2541
1016.115	-1827
1016.186	-2291
1016.257	-2238
1016.328	-2035
1016.400	-1400
1016.471	-3958
1016.542	-1649
1016.613	-2990
1016.685	-2626
1016.756	-2533
1016.827	-1840
1016.898	-2896
1016.969	-1672
1017.040	-1988
1017.111	-2861
1017.182	-2866
1017.253	-1747
1017.324	-1120
1017.395	-1909
1017.466	-1323
1017.537	-2553
1017.608	-1862
1017.678	-1806
1017.749	-1474
1017.820	-2358
1017.891	-2637
1017.961	-2178
1018.032	-2239
1018.103	-2333
1018.173	-2315
1018.244	-2883
1018.315	-2335
1018.385	-1431
1018.456	-2749
1018.526	-2266
1018.597	-1973
1018.667	-2482
1018.738	-2267
1018.808	-1902
1018.878	-2790
1018.949	-1666
1019.019	-2433
1019.089	-2068
1019.160	-2628
1019.230	-3248
1019.300	-1754
1019.371	-1799
1019.441	-2002
1019.511	-2065
1019.581	-2342
1019.651	-2189
1019.721	-2190
1019.791	-3119
1019.861	-1509
1019.931	-2569
1020.001	-2517
1020.071	-1726
1020.141	-2227
1020.211	-3050
1020.281	-3468
1020.351	-2832
1020.421	-2767
1020.491	-1564
1020.560	-3338
1020.630	-2233
1020.700	-2355
1020.770	-2352
1020.839	-2785
1020.909	-2168
1020.979	-2137
1021.048	-1608
1021.118	-2764
1021.187	-2364
1021.257	-2584
1021.326	-1808
1021.396	-2873
1021.465	-2802
1021.535	-2871
1021.604	-3882
1021.674	-3047
1021.743	-2738
1021.812	-2777
1021.882	-2206
1021.951	-2058
1022.020	-2081
1022.089	-2203
1022.159	-2721
1022.228	-2684
1022.297	-2531
1022.366	-3317
1022.435	-2116
1022.504	-1798
1022.573	-2578
1022.642	-2295
1022.711	-2628
1022.781	-2373
1022.849	-2143
1022.918	-3008
1022.987	-2131
1023.056	-2904
1023.125	-2726
1023.194	-2572
1023.263	-3014
1023.331	-1756
1023.400	-2918
1023.469	-2645
1023.538	-2099
1023.606	-2574
1023.675	-1976
1023.744	-3208
1023.812	-2909
1023.881	-2335
1023.949	-1985
1024.018	-2894
1024.086	-3274
1024.155	-2432
1024.223	-2695
1024.292	-3012
1024.360	-1517
1024.429	-2575
1024.497	-2893
1024.565	-2972
1024.634	-2559
1024.702	-2500
1024.770	-1865
1024.838	-2469
1024.907	-2773
1024.975	-3156
1025.043	-2116
1025.111	-2905
1025.179	-1834
1025.247	-3490
1025.315	-2618
1025.383	-2178
1025.451	-3002
1025.519	-2654
1025.587	-2526
1025.655	-2464
1025.723	-1874
1025.791	-2461
1025.859	-2394
1025.927	-1995
1025.995	-2736
1026.062	-2338
1026.130	-1799
1026.198	-2956
1026.266	-2450
1026.333	-2951
1026.401	-2568
1026.469	-3222
1026.536	-1624
1026.604	-2401
1026.671	-2985
1026.739	-2531
1026.806	-2268
1026.874	-3041
1026.941	-2615
1027.009	-2269
1027.076	-2885
1027.144	-2613
1027.211	-2865
1027.278	-3050
1027.345	-2711
1027.413	-2958
1027.480	-2658
1027.547	-2743
1027.614	-3081
1027.682	-2275
1027.749	-2501
1027.816	-2577
1027.883	-1933
1027.950	-2213
1028.017	-2708
1028.084	-2010
1028.151	-1728
1028.218	-2160
1028.285	-2086
1028.352	-2899
1028.419	-2867
1028.486	-2366
1028.553	-2815
1028.619	-2471
1028.686	-2559
1028.753	-2652
1028.820	-2421
1028.886	-2558
1028.953	-2581
1029.020	-2753
1029.086	-2250
1029.153	-2924
1029.220	-3085
1029.286	-2857
1029.353	-2029
1029.419	-2819
1029.486	-2186
1029.552	-3268
1029.619	-1856
1029.685	-2783
1029.751	-2267
1029.818	-2510
1029.884	-2850
1029.951	-2387
1030.017	-2749
1030.083	-1767
1030.149	-1772
1030.216	-2654
1030.282	-2039
1030.348	-2952
1030.414	-2764
1030.480	-3475
1030.546	-1977
1030.612	-2540
1030.678	-2649
1030.744	-2648
1030.810	-2716
1030.876	-1749
1030.942	-2822
1031.008	-2206
1031.074	-2276
1031.140	-2972
1031.206	-1910
1031.272	-2569
1031.337	-2458
1031.403	-2291
1031.469	-2094
1031.534	-2970
1031.600	-2072
1031.666	-2770
1031.731	-3215
1031.797	-2541
1031.863	-2351
1031.928	-3079
1031.994	-2504
1032.059	-2603
1032.125	-2819
1032.190	-2452
1032.256	-2847
1032.321	-2945
1032.386	-2339
1032.452	-2427
1032.517	-3138
1032.582	-2513
1032.647	-2795
1032.713	-2756
1032.778	-2291
1032.843	-2596
1032.908	-2240
1032.974	-2625
1033.039	-3164
1033.104	-2071
1033.169	-3052
1033.234	-2340
1033.299	-1966
1033.364	-2905
1033.429	-2212
1033.494	-2387
1033.559	-2803
1033.624	-2445
1033.688	-2159
1033.753	-2869
1033.818	-2716
1033.883	-2477
1033.948	-2810
1034.013	-2049
1034.077	-2305
1034.142	-2607
1034.207	-1911
1034.271	-2228
1034.336	-905
1034.400	-769
1034.465	-2039
1034.530	-2156
1034.594	-1752
1034.658	-3035
1034.723	-2618
1034.787	-2310
1034.852	-2259
1034.916	-2830
1034.981	-2701
1035.045	-2078
1035.109	-2525
1035.173	-2169
1035.238	-2498
1035.302	-2705
1035.366	-2282
1035.430	-2518
1035.495	-2899
1035.559	-2258
1035.623	-2223
1035.687	-2294
1035.751	-1807
1035.815	-2663
1035.879	-2292
1035.943	-3036
1036.007	-2478
1036.071	-2577
1036.135	-2339
1036.198	-2797
1036.262	-2211
1036.326	-2567
1036.390	-1638
1036.454	-2048
1036.517	-2096
1036.581	-2079
1036.645	-1781
1036.709	-1671
1036.772	-2406
1036.836	-2643
1036.900	-1901
1036.963	-2681
1037.026	-2104
1037.090	-1334
1037.154	-2500
1037.217	-2425
1037.280	-2111
1037.344	-2234
1037.407	-2330
1037.471	-1992
1037.534	-2512
1037.597	-2548
1037.661	-2933
1037.724	-2065
1037.787	-2424
1037.850	-2664
1037.913	-2676
1037.977	-2030
1038.040	-2552
1038.103	-2280
1038.166	-3026
1038.229	-2199
1038.292	-2983
1038.355	-1924
1038.418	-2746
1038.481	-1238
1038.544	-2370
1038.607	-2124
1038.670	-3068
1038.732	-2071
1038.795	-2660
1038.858	-2142
1038.921	-2305
1038.984	-2019
1039.046	-1800
1039.109	-2368
1039.172	-2339
1039.234	-2432
1039.297	-2036
1039.360	-1945
1039.422	-2191
1039.485	-2671
1039.547	-2129
1039.610	-2672
1039.672	-2566
1039.734	-2855
1039.797	-2150
1039.859	-2072
1039.922	-2257
1039.984	-2173
1040.046	-2481
1040.109	-2190
1040.171	-1865
1040.233	-3375
1040.295	-2631
1040.358	-2320
1040.420	-2139
1040.482	-2270
1040.544	-2605
1040.606	-2333
1040.668	-2227
1040.730	-3315
1040.792	-2630
1040.854	-2536
1040.916	-2635
1040.978	-3116
1041.040	-2284
1041.102	-2039
1041.164	-2557
1041.225	-2797
1041.287	-2727
1041.349	-2550
1041.411	-2390
1041.472	-2682
1041.534	-2587
1041.596	-2715
1041.657	-2332
1041.719	-2622
1041.781	-2695
1041.842	-3172
1041.904	-2550
1041.965	-2103
1042.027	-1942
1042.088	-1833
1042.150	-2008
1042.211	-2176
1042.272	-2251
1042.334	-2299
1042.395	-1927
1042.456	-2263
1042.518	-2918
1042.579	-2040
1042.640	-2829
1042.701	-2308
1042.763	-1976
1042.824	-2208
1042.885	-2564
1042.946	-2836
1043.007	-2657
1043.068	-2120
1043.129	-2027
1043.190	-2677
1043.251	-2447
1043.312	-3079
1043.373	-2211
1043.434	-2562
1043.495	-1814
1043.556	-2809
1043.616	-1961
1043.677	-2356
1043.738	-2216
1043.799	-2931
1043.859	-2038
1043.920	-2490
1043.981	-2007
1044.041	-2097
1044.102	-2219
1044.162	-2850
1044.223	-2713
1044.284	-2173
1044.344	-2724
1044.405	-2329
1044.465	-2822
1044.525	-1909
1044.586	-2812
1044.646	-2231
1044.707	-2149
1044.767	-2078
1044.827	-2644
1044.887	-3377
1044.948	-2386
1045.008	-2563
1045.068	-2794
1045.128	-2161
1045.188	-2213
1045.249	-1895
1045.309	-2053
1045.369	-2008
1045.429	-2718
1045.489	-2230
1045.549	-2167
1045.609	-2303
1045.669	-3033
1045.729	-2357
1045.789	-1454
1045.848	-2270
1045.908	-1974
1045.968	-2798
1046.028	-2357
1046.088	-2451
1046.147	-1564
1046.207	-2007
1046.267	-1931
1046.326	-2072
1046.386	-1778
1046.446	-2472
1046.505	-1889
1046.565	-2090
1046.624	-879
1046.684	-1546
1046.743	-1360
1046.803	-962
1046.862	-1186
1046.922	0
