'Start Wavelength	183.907
'End Wavelength	1046.922
'Gate Delay	5.000
'Gate Width (ms)	1.050
'Laser Output Level	0.000
'X Position	0.000
'Y Position	0.000
'Z Position	0.000
'Grid Point Number	1.000
'Shot Number	100.000
183.907	804.000
183.977	295.000
184.047	575
184.116	292
184.186	591
184.256	184
184.325	-364
184.395	607
184.465	521
184.534	337
184.604	-721
184.674	569
184.743	-752
184.813	1069
184.883	89
184.952	637
185.022	227
185.092	335
185.161	-216
185.231	96
185.301	-520
185.370	663
185.440	92
185.509	565
185.579	437
185.649	543
185.718	379
185.788	1012
185.857	-619
185.927	329
185.996	580
186.066	904
186.136	-153
186.205	419
186.275	-244
186.344	1035
186.414	-525
186.483	368
186.553	1275
186.622	1691
186.692	-352
186.761	440
186.831	-70
186.900	892
186.970	87
187.039	1266
187.109	751
187.178	506
187.248	-249
187.317	1472
187.387	-167
187.456	1009
187.526	629
187.595	866
187.664	257
187.734	1162
187.803	699
187.873	711
187.942	743
188.012	523
188.081	193
188.150	107
188.220	721
188.289	1374
188.358	314
188.428	483
188.497	8
188.567	923
188.636	318
188.705	1024
188.775	54
188.844	-316
188.913	1074
188.983	-41
189.052	-50
189.121	316
189.191	-153
189.260	862
189.329	958
189.399	1295
189.468	582
189.537	493
189.606	145
189.676	697
189.745	291
189.814	1410
189.883	176
189.953	489
190.022	907
190.091	1262
190.161	2240
190.230	785
190.299	-90
190.368	847
190.437	509
190.507	468
190.576	463
190.645	223
190.714	209
190.783	669
190.853	411
190.922	713
190.991	-173
191.060	1148
191.129	727
191.198	720
191.268	373
191.337	446
191.406	-106
191.475	1373
191.544	540
191.613	719
191.682	-118
191.752	-219
191.821	355
191.890	1014
191.959	-465
192.028	1159
192.097	525
192.166	1145
192.235	-372
192.304	881
192.373	1015
192.442	601
192.511	735
192.580	444
192.650	185
192.719	78
192.788	-164
192.857	412
192.926	469
192.995	143
193.064	717
193.133	934
193.202	764
193.271	1584
193.340	877
193.409	1373
193.478	1089
193.547	1639
193.615	1836
193.684	2093
193.753	1068
193.822	1371
193.891	625
193.960	934
194.029	625
194.098	398
194.167	251
194.236	1538
194.305	41
194.374	382
194.443	142
194.512	1466
194.580	944
194.649	880
194.718	936
194.787	1526
194.856	450
194.925	980
194.994	390
195.062	1103
195.131	1062
195.200	1223
195.269	1594
195.338	1046
195.407	529
195.475	705
195.544	949
195.613	1198
195.682	560
195.751	1766
195.819	1014
195.888	1450
195.957	921
196.026	1794
196.094	973
196.163	1639
196.232	967
196.301	1271
196.369	809
196.438	955
196.507	1085
196.576	1052
196.644	-249
196.713	696
196.782	38
196.850	933
196.919	571
196.988	1484
197.056	1734
197.125	950
197.194	98
197.262	1406
197.331	397
197.400	361
197.468	934
197.537	949
197.606	370
197.674	1399
197.743	1738
197.812	1013
197.880	1817
197.949	1593
198.017	1071
198.086	1506
198.155	661
198.223	1428
198.292	2111
198.360	1267
198.429	760
198.497	853
198.566	732
198.635	2810
198.703	851
198.772	1405
198.840	2732
198.909	2388
198.977	785
199.046	1083
199.114	1092
199.183	1912
199.251	662
199.320	1024
199.388	443
199.457	302
199.525	1581
199.594	984
199.662	511
199.731	1506
199.799	640
199.867	1743
199.936	739
200.004	1253
200.073	930
200.141	1377
200.210	-113
200.278	984
200.346	461
200.415	1478
200.483	1139
200.552	600
200.620	-205
200.688	862
200.757	-20
200.825	1433
200.893	1060
200.962	987
201.030	500
201.098	1250
201.167	1530
201.235	1232
201.303	217
201.372	1155
201.440	240
201.508	2016
201.577	136
201.645	1537
201.713	799
201.781	895
201.850	1361
201.918	1864
201.986	1258
202.055	1914
202.123	756
202.191	782
202.259	459
202.327	899
202.396	1087
202.464	954
202.532	1344
202.600	5173
202.669	2238
202.737	1017
202.805	-94
202.873	898
202.941	551
203.009	724
203.078	456
203.146	1760
203.214	198
203.282	1618
203.350	1021
203.418	2002
203.487	1236
203.555	520
203.623	149
203.691	1249
203.759	84
203.827	758
203.895	916
203.963	1430
204.031	818
204.099	1137
204.168	971
204.236	1300
204.304	1256
204.372	1127
204.440	475
204.508	891
204.576	407
204.644	936
204.712	709
204.780	1255
204.848	598
204.916	649
204.984	1065
205.052	968
205.120	722
205.188	1632
205.256	783
205.324	1296
205.392	1284
205.460	1545
205.528	935
205.596	1092
205.664	758
205.732	747
205.799	2670
205.867	4639
205.935	546
206.003	1820
206.071	435
206.139	1844
206.207	1313
206.275	1851
206.343	909
206.411	1231
206.478	85
206.546	1341
206.614	862
206.682	1398
206.750	974
206.818	1987
206.885	1355
206.953	931
207.021	1542
207.089	1427
207.157	-34
207.225	1187
207.292	741
207.360	938
207.428	1606
207.496	727
207.563	597
207.631	1569
207.699	514
207.767	1551
207.834	810
207.902	1725
207.970	905
208.038	1623
208.105	970
208.173	804
208.241	1484
208.309	2394
208.376	1056
208.444	3584
208.512	1840
208.579	785
208.647	680
208.715	2566
208.782	669
208.850	943
208.918	1516
208.985	1369
209.053	1442
209.120	2172
209.188	974
209.256	1027
209.323	1190
209.391	2170
209.459	1943
209.526	1456
209.594	796
209.661	1794
209.729	864
209.796	1525
209.864	1231
209.932	1049
209.999	2013
210.067	1578
210.134	1383
210.202	1691
210.269	2287
210.337	2806
210.404	1465
210.472	1749
210.539	826
210.607	1593
210.674	1518
210.742	2486
210.809	1493
210.877	2531
210.944	1937
211.012	1743
211.079	2535
211.146	1956
211.214	2037
211.281	1996
211.349	2604
211.416	1602
211.484	1773
211.551	1570
211.618	1331
211.686	2559
211.753	478
211.821	2342
211.888	1033
211.955	1823
212.023	1983
212.090	2043
212.157	1956
212.225	1933
212.292	3005
212.359	6084
212.427	11064
212.494	5821
212.561	1977
212.629	2066
212.696	1367
212.763	2300
212.831	1663
212.898	1882
212.965	1604
213.032	1675
213.100	2256
213.167	2037
213.234	2449
213.301	1734
213.369	2035
213.436	2010
213.503	1352
213.570	1711
213.638	1718
213.705	1043
213.772	463
213.839	2769
213.906	2590
213.973	2851
214.041	1430
214.108	2235
214.175	2027
214.242	2134
214.309	1334
214.376	2590
214.444	925
214.511	1867
214.578	1569
214.645	2798
214.712	2535
214.779	2627
214.846	2035
214.913	3266
214.980	2961
215.048	4495
215.115	3169
215.182	3368
215.249	1905
215.316	2208
215.383	1522
215.450	2295
215.517	1510
215.584	1948
215.651	783
215.718	1793
215.785	1540
215.852	3432
215.919	2978
215.986	3616
216.053	1422
216.120	2026
216.187	2553
216.254	3541
216.321	2318
216.388	2400
216.455	2961
216.522	3353
216.589	4092
216.656	6166
216.722	5001
216.789	3412
216.856	2481
216.923	3451
216.990	2453
217.057	3323
217.124	3991
217.191	3274
217.258	3847
217.324	5282
217.391	4762
217.458	3877
217.525	2633
217.592	3395
217.659	1548
217.725	3102
217.792	4205
217.859	3962
217.926	2473
217.993	1610
218.059	2447
218.126	2504
218.193	1487
218.260	1619
218.327	1296
218.393	2415
218.460	990
218.527	1415
218.594	1421
218.660	4072
218.727	4191
218.794	1792
218.860	1377
218.927	1435
218.994	1008
219.061	1794
219.127	2838
219.194	4296
219.261	1449
219.327	1895
219.394	1308
219.461	1368
219.527	1212
219.594	4146
219.661	1300
219.727	1221
219.794	1761
219.860	1925
219.927	1818
219.994	3682
220.060	5605
220.127	3205
220.193	1799
220.260	2574
220.326	2364
220.393	5019
220.460	7073
220.526	5418
220.593	2130
220.659	2913
220.726	3456
220.792	8028
220.859	6155
220.925	8600
220.992	12200
221.058	11523
221.125	9621
221.191	6432
221.258	3098
221.324	3054
221.391	2068
221.457	2198
221.524	1785
221.590	3384
221.657	8202
221.723	5938
221.789	5270
221.856	4663
221.922	3154
221.989	3029
222.055	2334
222.121	1727
222.188	3593
222.254	2161
222.321	2149
222.387	1551
222.453	2219
222.520	2389
222.586	2098
222.652	2931
222.719	1746
222.785	2592
222.851	1413
222.918	1285
222.984	2166
223.050	2737
223.116	1661
223.183	2734
223.249	241
223.315	1050
223.382	1527
223.448	1494
223.514	1022
223.580	1546
223.647	799
223.713	1600
223.779	1157
223.845	2491
223.911	1419
223.978	1335
224.044	1670
224.110	983
224.176	1076
224.242	1759
224.309	975
224.375	1132
224.441	279
224.507	1877
224.573	979
224.639	1351
224.705	1231
224.772	978
224.838	1102
224.904	2518
224.970	1137
225.036	2364
225.102	2608
225.168	2101
225.234	1822
225.300	1409
225.366	1284
225.432	1403
225.499	654
225.565	2287
225.631	1654
225.697	2086
225.763	1769
225.829	3349
225.895	2955
225.961	4897
226.027	2994
226.093	3405
226.159	4529
226.225	4970
226.291	11576
226.357	18836
226.423	10420
226.489	6285
226.554	4999
226.620	4553
226.686	4813
226.752	8678
226.818	10388
226.884	25036
226.950	19008
227.016	7524
227.082	4754
227.148	4613
227.214	5167
227.279	5456
227.345	3516
227.411	3639
227.477	3064
227.543	7875
227.609	6513
227.674	5999
227.740	2700
227.806	3378
227.872	1817
227.938	3028
228.003	6318
228.069	3306
228.135	2119
228.201	2118
228.267	1944
228.332	3676
228.398	3383
228.464	2317
228.530	705
228.595	2302
228.661	1610
228.727	4467
228.792	3734
228.858	1945
228.924	1859
228.990	3874
229.055	2335
229.121	3518
229.187	2066
229.252	3596
229.318	2395
229.384	2811
229.449	3699
229.515	660
229.581	244
229.646	3169
229.712	2049
229.777	6024
229.843	5578
229.909	5388
229.974	5610
230.040	4844
230.105	2970
230.171	3981
230.236	4769
230.302	8250
230.368	5431
230.433	3587
230.499	2993
230.564	6150
230.630	2249
230.695	2450
230.761	2266
230.826	1930
230.892	4452
230.957	2330
231.023	2878
231.088	2193
231.154	1474
231.219	2279
231.284	3764
231.350	4034
231.415	1159
231.481	2311
231.546	1249
231.612	1762
231.677	1326
231.742	1077
231.808	2279
231.873	1213
231.939	316
232.004	5186
232.069	3661
232.135	2204
232.200	889
232.265	1898
232.331	1081
232.396	861
232.461	773
232.527	1334
232.592	1067
232.657	1870
232.723	3846
232.788	2653
232.853	1637
232.918	2328
232.984	942
233.049	2312
233.114	3552
233.179	3259
233.245	5020
233.310	5282
233.375	1578
233.440	2270
233.506	1507
233.571	1467
233.636	1502
233.701	1908
233.766	4006
233.832	5855
233.897	2326
233.962	2640
234.027	4291
234.092	4070
234.157	3277
234.222	2601
234.288	3688
234.353	10651
234.418	10612
234.483	6336
234.548	4647
234.613	4172
234.678	2803
234.743	4307
234.808	12254
234.873	6759
234.938	4124
235.004	2880
235.069	3087
235.134	2722
235.199	2680
235.264	2254
235.329	1573
235.394	2911
235.459	3201
235.524	3075
235.589	2838
235.654	2165
235.719	823
235.784	3161
235.849	2912
235.913	6775
235.978	6813
236.043	7701
236.108	3500
236.173	4151
236.238	3453
236.303	2937
236.368	2036
236.433	4239
236.498	6795
236.563	5165
236.627	8521
236.692	30858
236.757	21318
236.822	9522
236.887	6560
236.952	6363
237.017	4176
237.081	5529
237.146	6969
237.211	13042
237.276	29772
237.341	47693
237.405	20999
237.470	10204
237.535	8036
237.600	5113
237.664	4043
237.729	3492
237.794	5626
237.859	9053
237.923	6319
237.988	4766
238.053	6771
238.118	7224
238.182	14562
238.247	12076
238.312	6527
238.376	5056
238.441	4505
238.506	4982
238.570	2115
238.635	3161
238.700	2812
238.764	3485
238.829	7136
238.893	8055
238.958	5100
239.023	5635
239.087	2972
239.152	4209
239.216	2144
239.281	3241
239.346	2232
239.410	3207
239.475	3643
239.539	14130
239.604	8607
239.668	4144
239.733	2530
239.797	5235
239.862	11106
239.926	11670
239.991	5064
240.055	3177
240.120	3045
240.184	3329
240.249	2178
240.313	3026
240.378	3102
240.442	9444
240.507	12094
240.571	5518
240.635	7118
240.700	7856
240.764	4084
240.829	3302
240.893	1911
240.957	3285
241.022	8187
241.086	13740
241.151	6177
241.215	2695
241.279	4501
241.344	8277
241.408	4760
241.472	3828
241.537	3992
241.601	3574
241.665	2416
241.730	3200
241.794	4994
241.858	3303
241.922	3087
241.987	3635
242.051	2229
242.115	3231
242.179	3163
242.244	2167
242.308	3570
242.372	3816
242.436	4306
242.501	3514
242.565	2635
242.629	3031
242.693	3386
242.757	1985
242.822	3418
242.886	3768
242.950	2970
243.014	3147
243.078	4423
243.142	4847
243.206	2429
243.271	4688
243.335	3560
243.399	5914
243.463	17175
243.527	37721
243.591	11813
243.655	7053
243.719	3730
243.783	5958
243.847	7550
243.911	8705
243.975	13780
244.040	9556
244.104	5273
244.168	4469
244.232	7722
244.296	9287
244.360	8222
244.424	5976
244.488	4124
244.552	3768
244.615	2109
244.679	4116
244.743	4558
244.807	5140
244.871	3154
244.935	3312
244.999	2112
245.063	3813
245.127	4248
245.191	6930
245.255	5860
245.319	7338
245.383	4137
245.446	5059
245.510	2591
245.574	5058
245.638	4833
245.702	4727
245.766	9922
245.829	6739
245.893	3516
245.957	3561
246.021	4568
246.085	4669
246.149	5715
246.212	15780
246.276	18793
246.340	9565
246.404	6637
246.467	7418
246.531	10419
246.595	6605
246.659	6082
246.722	5803
246.786	7952
246.850	8676
246.913	9226
246.977	4238
247.041	4477
247.104	6213
247.168	5819
247.232	15455
247.295	27002
247.359	13246
247.423	6726
247.486	12896
247.550	7795
247.614	6739
247.677	9247
247.741	5861
247.804	4612
247.868	6052
247.932	14123
247.995	24887
248.059	9311
248.122	5441
248.186	7166
248.249	12955
248.313	43930
248.376	43187
248.440	25376
248.503	10782
248.567	9904
248.630	15157
248.694	19954
248.757	24494
248.821	44826
248.884	26649
248.948	24030
249.011	35740
249.075	51844
249.138	42245
249.202	17426
249.265	11644
249.328	12709
249.392	10790
249.455	7960
249.519	6965
249.582	9758
249.645	15719
249.709	10662
249.772	5904
249.835	7178
249.899	7345
249.962	5810
250.025	5962
250.089	17147
250.152	23353
250.215	10804
250.279	8046
250.342	7553
250.405	7999
250.468	6732
250.532	9946
250.595	14083
250.658	43377
250.721	57855
250.785	24741
250.848	13437
250.911	9161
250.974	9155
251.038	12720
251.101	24384
251.164	12533
251.227	14062
251.290	12062
251.354	16459
251.417	56811
251.480	47241
251.543	37364
251.606	95495
251.669	64988
251.732	30383
251.795	34268
251.859	32695
251.922	63020
251.985	34695
252.048	18080
252.111	13882
252.174	13269
252.237	26769
252.300	52663
252.363	50839
252.426	81874
252.489	35758
252.552	25219
252.615	15381
252.678	16251
252.741	38009
252.804	44502
252.867	80030
252.930	54238
252.993	33823
253.056	22786
253.119	18492
253.182	13536
253.245	17854
253.308	15704
253.371	17220
253.434	16158
253.497	15831
253.559	27447
253.622	19342
253.685	27372
253.748	26119
253.811	12664
253.874	14316
253.937	13371
254.000	11356
254.062	20556
254.125	25959
254.188	29284
254.251	22182
254.314	11904
254.376	21594
254.439	23225
254.502	20719
254.565	20946
254.628	33763
254.690	21825
254.753	12569
254.816	10507
254.878	10956
254.941	20456
255.004	17603
255.067	10736
255.129	10483
255.192	5887
255.255	6587
255.317	8373
255.380	4725
255.443	4775
255.505	4381
255.568	4965
255.631	4785
255.693	6216
255.756	3591
255.819	5094
255.881	3662
255.944	3631
256.006	3441
256.069	3507
256.132	3194
256.194	6041
256.257	13460
256.319	10308
256.382	9153
256.444	5799
256.507	5058
256.569	4035
256.632	3746
256.694	7641
256.757	18009
256.819	43069
256.882	14615
256.944	8929
257.007	8579
257.069	9244
257.132	5551
257.194	6288
257.257	4777
257.319	5141
257.381	4378
257.444	12800
257.506	54512
257.569	56687
257.631	35522
257.693	19293
257.756	9285
257.818	8120
257.880	5533
257.943	5727
258.005	4560
258.067	4810
258.130	5319
258.192	7162
258.254	15015
258.317	7715
258.379	5751
258.441	16958
258.503	13431
258.566	17294
258.628	18286
258.690	5427
258.753	7223
258.815	14588
258.877	7200
258.939	4448
259.001	5001
259.064	4902
259.126	5579
259.188	7643
259.250	6037
259.312	8489
259.375	23113
259.437	12744
259.499	5693
259.561	6207
259.623	5972
259.685	6797
259.747	5422
259.809	16634
259.872	25305
259.934	42976
259.996	41565
260.058	13365
260.120	5314
260.182	5781
260.244	3868
260.306	3574
260.368	4504
260.430	4883
260.492	15712
260.554	28013
260.616	17190
260.678	27409
260.740	28207
260.802	8682
260.864	7561
260.926	6341
260.988	6249
261.050	6707
261.112	21538
261.174	39399
261.236	21239
261.298	9125
261.359	15246
261.421	18461
261.483	6053
261.545	6439
261.607	3512
261.669	5185
261.731	10008
261.793	24000
261.854	11175
261.916	7612
261.978	8210
262.040	9954
262.102	5509
262.164	10173
262.225	7343
262.287	4985
262.349	15624
262.411	11097
262.472	5028
262.534	11067
262.596	18431
262.658	7292
262.719	3924
262.781	6893
262.843	18155
262.904	8498
262.966	5932
263.028	6763
263.090	33518
263.151	71629
263.213	27763
263.275	20029
263.336	7737
263.398	6850
263.459	4272
263.521	5474
263.583	15370
263.644	8489
263.706	3820
263.767	3097
263.829	3140
263.891	2488
263.952	2309
264.014	2375
264.075	10786
264.137	25351
264.198	9516
264.260	3819
264.321	4298
264.383	15801
264.444	35249
264.506	10018
264.567	6115
264.629	14636
264.690	29063
264.752	10222
264.813	5890
264.875	4578
264.936	4807
264.998	4048
265.059	2731
265.120	3238
265.182	5184
265.243	24111
265.305	18127
265.366	5054
265.427	4293
265.489	4487
265.550	2186
265.611	4958
265.673	4492
265.734	4802
265.795	3059
265.857	2743
265.918	2055
265.979	7928
266.040	39298
266.102	26156
266.163	9655
266.224	11316
266.286	5598
266.347	4107
266.408	4878
266.469	4900
266.530	3407
266.592	2845
266.653	9542
266.714	15947
266.775	5279
266.836	3437
266.898	3813
266.959	10140
267.020	5704
267.081	4341
267.142	2550
267.203	2596
267.264	2404
267.326	4576
267.387	3250
267.448	2498
267.509	3852
267.570	3493
267.631	1949
267.692	2051
267.753	2889
267.814	2053
267.875	9367
267.936	18968
267.997	12273
268.058	9367
268.119	4601
268.180	5386
268.241	2785
268.302	3524
268.363	2090
268.424	4169
268.485	4043
268.546	3601
268.607	2172
268.668	2791
268.729	2031
268.790	3367
268.851	4309
268.912	15448
268.972	14552
269.033	8288
269.094	2599
269.155	3277
269.216	1971
269.277	3740
269.338	2405
269.398	2725
269.459	4398
269.520	6844
269.581	8751
269.642	10974
269.702	7147
269.763	3831
269.824	3348
269.885	5566
269.945	9542
270.006	3501
270.067	2237
270.128	2206
270.188	2291
270.249	3436
270.310	1524
270.370	3014
270.431	2404
270.492	2340
270.553	3038
270.613	10272
270.674	18379
270.734	7313
270.795	4169
270.856	8086
270.916	5189
270.977	4315
271.038	5432
271.098	5805
271.159	10351
271.219	8098
271.280	3644
271.340	3148
271.401	4410
271.462	12051
271.522	5829
271.583	4362
271.643	5271
271.704	4244
271.764	5559
271.825	15497
271.885	44837
271.946	52139
272.006	17628
272.066	26846
272.127	39442
272.187	12658
272.248	7197
272.308	8963
272.369	28021
272.429	14957
272.489	15401
272.550	15585
272.610	16994
272.671	11490
272.731	10819
272.791	16714
272.852	9710
272.912	8955
272.972	4967
273.033	4774
273.093	9176
273.153	10211
273.214	6512
273.274	7605
273.334	29530
273.394	43436
273.455	18688
273.515	20889
273.575	41646
273.635	16644
273.696	23264
273.756	38853
273.816	16287
273.876	9985
273.936	20354
273.997	32962
274.057	9143
274.117	8467
274.177	13639
274.237	60441
274.297	42156
274.358	29279
274.418	33784
274.478	25947
274.538	9947
274.598	8904
274.658	28452
274.718	33005
274.778	13664
274.838	7958
274.898	18921
274.958	46331
275.018	39858
275.078	25438
275.138	10834
275.198	7062
275.258	5360
275.318	7736
275.378	15995
275.438	16140
275.498	9480
275.558	22987
275.618	44008
275.678	29853
275.738	21950
275.798	19014
275.858	10689
275.918	5763
275.978	6906
276.038	7253
276.098	5973
276.157	13973
276.217	34303
276.277	14606
276.337	11367
276.397	6056
276.457	8288
276.517	5563
276.576	4003
276.636	3807
276.696	9208
276.756	21213
276.815	13083
276.875	7145
276.935	7663
276.995	7160
277.055	3494
277.114	4937
277.174	8247
277.234	27834
277.293	11725
277.353	7265
277.413	5367
277.472	6252
277.532	6029
277.592	6512
277.651	22413
277.711	35230
277.771	12543
277.830	49523
277.890	32874
277.950	25596
278.009	62750
278.069	21643
278.128	27707
278.188	35226
278.248	16781
278.307	41016
278.367	21438
278.426	8133
278.486	5408
278.545	4419
278.605	3989
278.664	4527
278.724	5324
278.783	17852
278.843	38379
278.902	11252
278.962	6976
279.021	8472
279.081	8422
279.140	8009
279.199	8105
279.259	7404
279.318	7328
279.378	9694
279.437	18830
279.496	67685
279.556	155567
279.615	105834
279.675	30437
279.734	20341
279.793	35451
279.853	51154
279.912	18335
279.971	11660
280.031	11110
280.090	23330
280.149	36235
280.208	28067
280.268	116155
280.327	97464
280.386	27105
280.445	25844
280.505	22690
280.564	12691
280.623	10820
280.682	16286
280.742	23459
280.801	8832
280.860	6046
280.919	7103
280.978	5393
281.037	5139
281.097	3838
281.156	3994
281.215	4163
281.274	6748
281.333	29849
281.392	18802
281.451	5370
281.510	4986
281.569	4314
281.628	3750
281.688	4491
281.747	4620
281.806	4981
281.865	4205
281.924	3821
281.983	3865
282.042	2963
282.101	3211
282.160	3439
282.219	3049
282.278	5328
282.337	19128
282.396	10546
282.454	5754
282.513	7073
282.572	29145
282.631	15322
282.690	5634
282.749	4695
282.808	7302
282.867	5923
282.926	6833
282.985	3196
283.043	2443
283.102	3780
283.161	5171
283.220	15802
283.279	29097
283.338	7725
283.396	5365
283.455	4621
283.514	7403
283.573	10270
283.631	6948
283.690	4888
283.749	4697
283.808	12904
283.866	13546
283.925	4663
283.984	5716
284.043	7783
284.101	7983
284.160	6138
284.219	10511
284.277	6437
284.336	12431
284.395	37774
284.453	27794
284.512	10112
284.570	14924
284.629	11183
284.688	10808
284.746	10413
284.805	12177
284.863	16670
284.922	20096
284.981	20914
285.039	29094
285.098	54661
285.156	133283
285.215	221071
285.273	215935
285.332	126832
285.390	67079
285.449	40217
285.507	29131
285.566	21191
285.624	16728
285.683	12336
285.741	10320
285.799	8798
285.858	8969
285.916	7704
285.975	6175
286.033	5674
286.091	5981
286.150	3895
286.208	5446
286.267	7706
286.325	7139
286.383	11242
286.442	9056
286.500	4588
286.558	3969
286.616	3494
286.675	7571
286.733	6083
286.791	6266
286.850	5849
286.908	9622
286.966	15118
287.024	6548
287.083	3973
287.141	3634
287.199	4471
287.257	8682
287.315	5398
287.374	6042
287.432	15927
287.490	9613
287.548	5626
287.606	4821
287.664	4445
287.723	9213
287.781	11492
287.839	4878
287.897	5491
287.955	6260
288.013	9243
288.071	22005
288.129	84197
288.187	203114
288.245	81089
288.303	26022
288.361	17132
288.419	17109
288.477	11500
288.535	7080
288.593	5095
288.651	5856
288.709	3348
288.767	4834
288.825	4641
288.883	3859
288.941	3425
288.999	4178
289.057	2854
289.115	4260
289.173	4771
289.231	5459
289.289	4462
289.346	4061
289.404	5150
289.462	10274
289.520	9879
289.578	5262
289.636	2273
289.694	2447
289.751	2231
289.809	3213
289.867	3287
289.925	5019
289.983	5981
290.040	3648
290.098	2946
290.156	3974
290.214	4744
290.271	4300
290.329	2312
290.387	2638
290.444	2686
290.502	1994
290.560	3019
290.617	4789
290.675	3068
290.733	4683
290.790	4195
290.848	3605
290.906	4832
290.963	4835
291.021	4370
291.078	4227
291.136	5183
291.194	23043
291.251	40815
291.309	11258
291.366	5218
291.424	4264
291.481	5951
291.539	4315
291.596	3083
291.654	2893
291.711	3077
291.769	5525
291.826	10996
291.884	6748
291.941	3911
291.999	3717
292.056	4463
292.114	5142
292.171	3046
292.228	4381
292.286	5588
292.343	13076
292.401	15055
292.458	9734
292.515	5853
292.573	7958
292.630	7480
292.687	6974
292.745	4900
292.802	10300
292.859	27692
292.917	36995
292.974	20499
293.031	7709
293.089	4122
293.146	5648
293.203	5253
293.260	4264
293.318	7694
293.375	13890
293.432	6770
293.489	4449
293.546	4131
293.604	7631
293.661	20343
293.718	48653
293.775	27520
293.832	14272
293.889	9811
293.947	12298
294.004	8119
294.061	9787
294.118	19311
294.175	40452
294.232	51476
294.289	18900
294.346	9456
294.403	7084
294.460	7269
294.517	6889
294.574	4977
294.631	5814
294.688	7219
294.745	18766
294.802	61218
294.859	72696
294.916	28513
294.973	17579
295.030	13914
295.087	11538
295.144	7225
295.201	7031
295.258	4642
295.315	8057
295.372	23274
295.429	38638
295.486	18038
295.542	13474
295.599	36961
295.656	57733
295.713	39178
295.770	40614
295.827	16188
295.883	9132
295.940	8891
295.997	17356
296.054	15553
296.111	8942
296.167	5882
296.224	5296
296.281	4239
296.338	4560
296.394	4697
296.451	7350
296.508	21413
296.564	38441
296.621	27402
296.678	47399
296.734	62550
296.791	26435
296.848	14246
296.904	16116
296.961	33761
297.018	48254
297.074	34750
297.131	14059
297.187	10304
297.244	14861
297.301	44262
297.357	68856
297.414	24555
297.470	12022
297.527	7618
297.583	7999
297.640	7998
297.696	7008
297.753	5608
297.809	4331
297.866	3753
297.922	4373
297.979	4196
298.035	6030
298.092	8748
298.148	28489
298.204	24369
298.261	13381
298.317	23811
298.374	55729
298.430	29081
298.486	15844
298.543	10906
298.599	9999
298.656	10297
298.712	18939
298.768	38767
298.824	24583
298.881	9415
298.937	6033
298.993	6502
299.050	10218
299.106	8076
299.162	6936
299.218	6604
299.275	5654
299.331	6578
299.387	14016
299.443	46424
299.500	46084
299.556	19127
299.612	9907
299.668	9451
299.724	11328
299.780	10378
299.837	8715
299.893	12888
299.949	43468
300.005	48363
300.061	44501
300.117	66473
300.173	32399
300.229	15996
300.285	20114
300.341	22444
300.397	12493
300.453	7305
300.510	6281
300.566	7265
300.622	9011
300.678	23021
300.734	46109
300.790	40488
300.845	45828
300.901	30752
300.957	45680
301.013	32858
301.069	14971
301.125	11465
301.181	11747
301.237	7753
301.293	6808
301.349	5514
301.405	4503
301.461	4702
301.516	6452
301.572	6968
301.628	15930
301.684	13618
301.740	22000
301.796	29931
301.851	22693
301.907	34871
301.963	34927
302.019	53130
302.074	126474
302.130	116650
302.186	52177
302.242	22425
302.297	16236
302.353	17666
302.409	31394
302.464	27331
302.520	24384
302.576	51636
302.631	56469
302.687	33817
302.743	15711
302.798	8856
302.854	7383
302.910	7923
302.965	12027
303.021	20396
303.076	18532
303.132	23536
303.187	26537
303.243	13688
303.299	8220
303.354	5434
303.410	5832
303.465	5730
303.521	5871
303.576	5722
303.632	8536
303.687	14504
303.743	40351
303.798	32561
303.853	14241
303.909	9160
303.964	8570
304.020	14710
304.075	21011
304.130	19041
304.186	35098
304.241	34516
304.297	27912
304.352	14748
304.358	14186
304.407	9625
304.449	10091
304.463	10258
304.518	10450
304.539	10283
304.573	9993
304.629	9569
304.630	9661
304.684	14231
304.720	26886
304.739	33312
304.794	45744
304.811	39513
304.850	24088
304.902	11799
304.905	11034
304.960	8503
304.992	8114
305.015	7872
305.071	7550
305.083	7164
305.126	5739
305.173	5522
305.181	5503
305.236	4669
305.264	5694
305.292	6805
305.347	8122
305.354	8301
305.402	9264
305.445	8871
305.457	8797
305.512	11312
305.535	11579
305.567	11768
305.622	12621
305.626	12930
305.678	20801
305.716	39927
305.733	47133
305.788	52603
305.807	47271
305.843	37092
305.897	43031
305.898	43087
305.953	41943
305.988	30089
306.008	23360
306.063	15469
306.078	14127
306.118	11175
306.168	8353
306.173	8150
306.228	6687
306.259	6468
306.283	6402
306.338	6101
306.349	6301
306.393	7058
306.440	7510
306.448	7614
306.503	8288
306.530	10323
306.558	15764
306.613	40102
306.620	42847
306.668	56289
306.711	59509
306.723	58514
306.778	42497
306.801	33230
306.833	22355
306.888	11939
306.892	11506
306.943	9218
306.982	8057
306.997	7711
307.052	8385
307.072	8549
307.107	10098
307.162	15828
307.163	15931
307.217	28000
307.253	35008
307.272	36612
307.327	38418
307.343	35163
307.381	26008
307.434	18747
307.436	19145
307.491	40515
307.524	58902
307.546	63956
307.600	56558
307.614	50735
307.655	30280
307.704	14483
307.710	13960
307.765	17245
307.795	22541
307.819	30146
307.874	54479
307.885	54928
307.929	38996
307.975	20696
307.984	19432
308.038	19029
308.065	21814
308.093	33985
308.148	68589
308.156	77571
308.202	139373
308.246	175782
308.257	169887
308.312	91798
308.336	65643
308.366	54106
308.421	39560
308.426	38052
308.475	24254
308.517	15889
308.530	14669
308.585	12769
308.607	12122
308.639	12775
308.694	15609
308.697	15963
308.748	35760
308.787	57452
308.803	58672
308.857	45231
308.877	38466
308.912	29284
308.967	21024
308.967	20934
309.021	24738
309.058	29343
309.076	35934
309.130	61062
309.148	70925
309.185	119509
309.238	204124
309.239	205218
309.293	251064
309.328	244328
309.348	207392
309.402	96480
309.418	68574
309.457	47684
309.508	29682
309.511	29353
309.566	29079
309.598	30045
309.620	38143
309.674	62968
309.688	69262
309.729	67174
309.778	55380
309.783	53810
309.837	35450
309.868	26993
309.892	32617
309.946	49746
309.959	55618
310.001	82118
310.049	105031
310.055	101411
310.109	59980
310.139	36664
310.163	29075
310.218	17452
310.229	15477
310.272	13122
310.319	11312
310.326	11267
310.381	11162
310.409	11115
310.435	10744
310.489	10106
310.499	10040
310.543	11194
310.589	12552
310.598	12683
310.652	13684
310.679	13644
310.706	12066
310.760	9051
310.769	8551
310.814	6973
310.859	6009
310.868	6153
310.923	6717
310.948	7200
310.977	8424
311.031	10592
311.038	10917
311.085	10957
311.128	10443
311.139	10195
311.193	9135
311.218	8577
311.247	7874
311.301	6635
311.308	6487
311.356	7956
311.398	9388
311.410	9162
311.464	7839
311.488	7277
311.518	7021
311.572	6435
311.578	6398
311.626	9930
311.668	13039
311.680	13458
311.734	15104
311.758	15859
311.788	15963
311.842	16021
311.847	16007
311.896	18807
311.937	21431
311.950	21739
312.004	22872
312.027	23274
312.058	18571
312.112	10199
312.117	9365
312.165	8659
312.207	8067
312.297	15705
312.386	14642
312.476	10686
312.566	22216
312.656	12462
312.745	7184
312.835	9517
312.925	11225
313.015	10044
313.104	14069
313.194	7302
313.284	8332
313.374	11538
313.463	10425
313.553	8099
313.643	6831
313.732	7101
313.822	6596
313.912	9110
314.001	10556
314.091	12335
314.180	19956
314.270	14746
314.360	17184
314.449	14188
314.539	8548
314.628	7647
314.718	11391
314.808	16262
314.897	9614
314.987	8315
315.076	10405
315.166	15392
315.255	16941
315.345	13898
315.434	16784
315.524	14004
315.613	16506
315.703	17075
315.792	19588
315.881	43106
315.971	23132
316.060	27190
316.150	52725
316.239	57381
316.328	23302
316.418	8043
316.507	9099
316.597	11560
316.686	12378
316.775	19391
316.865	58406
316.954	12761
317.043	6508
317.133	7941
317.222	6809
317.311	7744
317.400	7191
317.490	10832
317.579	13581
317.668	8518
317.757	13125
317.847	25417
317.936	75178
318.025	44743
318.114	24500
318.203	18006
318.293	22247
318.382	48903
318.471	36693
318.560	48081
318.649	102374
318.738	25533
318.828	14389
318.917	17266
319.006	20140
319.095	55436
319.184	115789
319.273	72069
319.362	37869
319.451	12758
319.540	12292
319.629	23120
319.718	45674
319.807	21667
319.896	36281
319.985	138295
320.074	62204
320.163	18031
320.252	34537
320.341	28022
320.430	25578
320.519	24817
320.608	16542
320.697	14073
320.786	13299
320.875	14937
320.964	20464
321.053	28932
321.142	40716
321.230	48664
321.319	34300
321.408	84952
321.497	44254
321.586	33926
321.675	48337
321.764	51306
321.852	30790
321.941	46162
322.030	34494
322.119	31987
322.207	84865
322.296	83277
322.385	40306
322.474	35133
322.562	92063
322.651	62470
322.740	36043
322.829	62654
322.917	76486
323.006	41088
323.095	30158
323.183	24599
323.272	31693
323.361	50701
323.449	155347
323.538	62993
323.626	115578
323.715	88557
323.804	31455
323.892	111620
323.981	76763
324.069	21232
324.158	59490
324.246	71934
324.335	20688
324.424	32315
324.512	13435
324.601	17533
324.689	36889
324.778	85670
324.866	57803
324.954	17816
325.043	13355
325.131	30120
325.220	63246
325.308	75352
325.397	49043
325.485	33719
325.574	9366
325.662	9847
325.750	10241
325.839	9521
325.927	7793
326.015	13110
326.104	22045
326.192	37648
326.280	10401
326.369	9780
326.457	13080
326.545	23356
326.634	12529
326.722	6514
326.810	8377
326.898	6878
326.987	8648
327.075	21366
327.163	31021
327.251	18356
327.340	26146
327.428	49378
327.516	10615
327.604	9321
327.692	10597
327.781	12294
327.869	27243
327.957	16638
328.045	12843
328.133	6876
328.221	12632
328.309	9528
328.397	7799
328.485	10906
328.574	14470
328.662	47155
328.750	35108
328.838	16840
328.926	9075
329.014	7776
329.102	11654
329.190	36713
329.278	26731
329.366	6792
329.454	6350
329.542	7664
329.630	5400
329.718	6948
329.806	9401
329.893	9018
329.981	9942
330.069	6342
330.157	12465
330.245	37258
330.333	22968
330.421	8155
330.509	13199
330.597	55555
330.684	45697
330.772	17449
330.860	29977
330.948	41101
331.036	16349
331.123	6141
331.211	7412
331.299	12131
331.387	24998
331.475	58094
331.562	19095
331.650	8295
331.738	10688
331.825	20215
331.913	8017
332.001	7180
332.089	11208
332.176	30711
332.264	67181
332.352	63239
332.439	17334
332.527	11736
332.614	10175
332.702	17117
332.790	10205
332.877	27191
332.965	74105
333.052	18035
333.140	13528
333.228	36673
333.315	11972
333.403	10967
333.490	42669
333.578	39606
333.665	32211
333.753	18795
333.840	9171
333.928	12683
334.015	43428
334.103	51089
334.190	150154
334.278	48924
334.365	20076
334.452	16444
334.540	9709
334.627	15032
334.715	22028
334.802	32057
334.889	178569
334.977	200249
335.064	29002
335.151	12979
335.239	12794
335.326	17174
335.413	61049
335.501	109647
335.588	17031
335.675	10101
335.762	14326
335.850	32087
335.937	16962
336.024	37637
336.111	192268
336.199	103365
336.286	19518
336.373	9725
336.460	7130
336.547	6803
336.635	11683
336.722	10291
336.809	9688
336.896	14280
336.983	43150
337.070	118075
337.157	156890
337.245	123691
337.332	104767
337.419	15124
337.506	9788
337.593	12349
337.680	34190
337.767	136955
337.854	40240
337.941	47606
338.028	63122
338.115	22650
338.202	20676
338.289	35972
338.376	135386
338.463	49950
338.550	66507
338.637	89308
338.724	30420
338.811	60306
338.898	12044
338.984	8812
339.071	13077
339.158	11514
339.245	31507
339.332	23209
339.419	33616
339.506	40811
339.593	7195
339.679	6592
339.766	5932
339.853	9473
339.940	23156
340.027	9803
340.113	7765
340.200	12407
340.287	9619
340.374	10883
340.460	20700
340.547	8983
340.634	13819
340.720	50846
340.807	36391
340.894	6481
340.980	8446
341.067	7311
341.154	7924
341.240	11197
341.327	28883
341.414	9077
341.500	8415
341.587	7501
341.674	6706
341.760	17695
341.847	24181
341.933	8804
342.020	3597
342.106	4088
342.193	6077
342.279	15937
342.366	10086
342.452	19903
342.539	11535
342.625	21887
342.712	58497
342.798	27915
342.885	11849
342.971	4349
343.058	3756
343.144	5212
343.230	5635
343.317	4828
343.403	5183
343.490	3583
343.576	4044
343.662	4995
343.749	8015
343.835	9549
343.921	13467
344.008	64476
344.094	187024
344.180	50279
344.267	18721
344.353	56015
344.439	85601
344.525	34188
344.612	11559
344.698	9079
344.784	7833
344.870	4941
344.957	5220
345.043	10812
345.129	7715
345.215	18797
345.301	10406
345.387	6519
345.474	4951
345.560	5207
345.646	9665
345.732	7602
345.818	7731
345.904	7422
345.990	9324
346.076	9911
346.162	28062
346.249	9240
346.335	5051
346.421	5412
346.507	17939
346.593	80061
346.679	24964
346.765	8553
346.851	6448
346.937	7026
347.023	4851
347.108	6814
347.194	6665
347.280	5555
347.366	7503
347.452	18824
347.538	89349
347.624	73978
347.710	77853
347.796	16984
347.882	7821
347.967	6147
348.053	12327
348.139	9197
348.225	5729
348.311	5733
348.397	4562
348.482	6277
348.568	10377
348.654	5019
348.740	6892
348.825	7759
348.911	10441
348.997	36845
349.083	95082
349.168	22789
349.254	6562
349.340	6350
349.425	4547
349.511	9258
349.597	10886
349.682	17260
349.768	60462
349.854	35167
349.939	9024
350.025	5581
350.110	5383
350.196	4019
350.282	3158
350.367	4387
350.453	13897
350.538	17540
350.624	10140
350.709	10537
350.795	4925
350.880	5950
350.966	7084
351.051	13195
351.137	12362
351.222	6093
351.308	16289
351.393	58055
351.479	16635
351.564	5110
351.649	6715
351.735	4812
351.820	4183
351.906	4936
351.991	9077
352.076	32404
352.162	58014
352.247	12373
352.332	7625
352.418	13877
352.503	16734
352.588	75343
352.673	77900
352.759	15913
352.844	8566
352.929	7723
353.014	13359
353.100	8456
353.185	16589
353.270	24228
353.355	24073
353.441	7408
353.526	8375
353.611	18622
353.696	25710
353.781	13448
353.866	6884
353.952	5982
354.037	17057
354.122	44887
354.207	41628
354.292	17078
354.377	6760
354.462	4659
354.547	9482
354.632	9142
354.717	14772
354.802	23592
354.887	8999
354.972	4253
355.057	4325
355.142	3726
355.227	6818
355.312	12066
355.397	25474
355.482	68152
355.567	38399
355.652	22968
355.737	25557
355.822	62141
355.907	66804
355.991	10454
356.076	5761
356.161	7164
356.246	4860
356.331	5312
356.416	12005
356.501	84025
356.585	115568
356.670	17863
356.755	11502
356.840	13938
356.924	60672
357.009	247224
357.094	115104
357.179	25558
357.263	17425
357.348	16205
357.433	18918
357.517	14313
357.602	12048
357.687	9033
357.771	10745
357.856	13086
357.941	11589
358.025	37263
358.110	206223
358.195	121818
358.279	20530
358.364	13064
358.448	43077
358.533	134483
358.617	105778
358.702	99713
358.787	41044
358.871	20535
358.956	19579
359.040	7277
359.125	4880
359.209	4710
359.294	6093
359.378	8427
359.462	15170
359.547	12484
359.631	10377
359.716	5437
359.800	6875
359.885	14207
359.969	8988
360.053	6076
360.138	6018
360.222	9192
360.306	20476
360.391	16978
360.475	15631
360.559	39307
360.644	49318
360.728	43472
360.812	43663
360.896	150540
360.981	78470
361.065	51962
361.149	12583
361.233	11640
361.318	9771
361.402	12234
361.486	9295
361.570	6384
361.654	9788
361.739	21355
361.823	83920
361.907	155400
361.991	32892
362.075	15323
362.159	40323
362.243	29177
362.327	23774
362.411	30562
362.495	20507
362.580	11094
362.664	7313
362.748	6357
362.832	7083
362.916	9624
363.000	31254
363.084	113411
363.168	186306
363.252	50236
363.336	18184
363.420	22562
363.503	89139
363.587	131209
363.671	23581
363.755	14865
363.839	22556
363.923	10506
364.007	19950
364.091	27342
364.175	31198
364.258	142658
364.342	101737
364.426	89195
364.510	59454
364.594	28963
364.677	27534
364.761	114882
364.845	103654
364.929	34455
365.013	32469
365.096	23257
365.180	31354
365.264	31295
365.347	151332
365.431	82054
365.515	25146
365.598	10037
365.682	8068
365.766	20690
365.849	33358
365.933	12895
366.017	18229
366.100	18137
366.184	6956
366.267	7950
366.351	6287
366.435	6187
366.518	4258
366.602	4563
366.685	6252
366.769	7926
366.852	16522
366.936	33274
367.019	16754
367.103	14817
367.186	36370
367.270	10463
367.353	4350
367.436	5524
367.520	5939
367.603	7531
367.687	12536
367.770	26172
367.853	13934
367.937	35104
368.020	77172
368.104	20986
368.187	17363
368.270	26820
368.353	25383
368.437	33909
368.520	106824
368.603	62933
368.687	46058
368.770	104833
368.853	29227
368.936	27196
369.020	36161
369.103	12406
369.186	7502
369.269	8345
369.352	15335
369.436	28238
369.519	17245
369.602	8906
369.685	9252
369.768	10193
369.851	7959
369.934	5823
370.018	8510
370.101	21889
370.184	19092
370.267	13205
370.350	20719
370.433	33695
370.516	66180
370.599	95754
370.682	32305
370.765	53937
370.848	61525
370.931	116900
371.014	57859
371.097	12101
371.180	8678
371.263	4915
371.346	4479
371.429	5492
371.511	6555
371.594	13785
371.677	24302
371.760	36138
371.843	18116
371.926	61423
372.009	182540
372.091	68450
372.174	39949
372.257	101450
372.340	46482
372.423	39374
372.505	57227
372.588	22492
372.671	29600
372.754	110698
372.836	66289
372.919	42817
373.002	113205
373.085	35603
373.167	17825
373.250	44409
373.332	100929
373.415	108415
373.498	247523
373.580	104612
373.663	98482
373.746	168188
373.828	44683
373.911	22169
373.993	21611
374.076	90347
374.159	109695
374.241	33890
374.324	95836
374.406	71699
374.489	55579
374.571	202260
374.654	102820
374.736	36672
374.819	118086
374.901	163575
374.983	195883
375.066	39913
375.148	15055
375.231	62023
375.313	156513
375.395	71506
375.478	15186
375.560	8742
375.643	11124
375.725	31960
375.807	149074
375.890	161549
375.972	101181
376.054	44690
376.136	90686
376.219	40865
376.301	36004
376.383	140089
376.465	62424
376.548	37632
376.630	38615
376.712	117224
376.794	68576
376.877	9302
376.959	5735
377.041	8459
377.123	22753
377.205	37266
377.287	6972
377.369	4776
377.452	5735
377.534	5111
377.616	5603
377.698	6334
377.780	3918
377.862	6307
377.944	6502
378.026	4319
378.108	4603
378.190	4524
378.272	4866
378.354	3079
378.436	3957
378.518	10269
378.600	52207
378.682	39342
378.764	65314
378.846	62124
378.928	19410
379.010	25628
379.091	14958
379.173	6658
379.255	5348
379.337	8652
379.419	25668
379.501	96252
379.583	48022
379.664	10853
379.746	22083
379.828	65976
379.910	94027
379.991	87965
380.073	16576
380.155	10671
380.237	7578
380.318	4902
380.400	6653
380.482	14052
380.564	27644
380.645	26690
380.727	27637
380.809	14721
380.890	10497
380.972	8457
381.053	7325
381.135	8111
381.217	19121
381.298	73111
381.380	42517
381.461	25456
381.543	101546
381.624	158253
381.706	33073
381.787	17905
381.869	18249
381.951	37163
382.032	173318
382.113	136539
382.195	34511
382.276	20263
382.358	35563
382.439	105176
382.521	105892
382.602	179100
382.684	85086
382.765	144169
382.846	166969
382.928	221029
383.009	138135
383.090	65331
383.172	242717
383.253	471448
383.334	173234
383.416	168387
383.497	98186
383.578	35966
383.659	60769
383.741	192201
383.822	599958
383.903	367075
383.984	115481
384.066	208088
384.147	152535
384.228	33510
384.309	23374
384.390	19070
384.471	12555
384.553	14854
384.634	20788
384.715	22352
384.796	11431
384.877	11477
384.958	52007
385.039	83644
385.120	32424
385.201	13215
385.282	18969
385.363	23217
385.444	15915
385.525	20572
385.606	78323
385.687	81449
385.768	22975
385.849	26239
385.930	72009
386.011	151862
386.092	48557
386.173	12402
386.254	11636
386.335	12543
386.416	11779
386.496	36588
386.577	77776
386.658	36110
386.739	20744
386.820	21556
386.901	18304
386.981	14667
387.062	8836
387.143	13614
387.224	61169
387.304	73520
387.385	26799
387.466	18147
387.547	26484
387.627	15925
387.708	19539
387.789	100676
387.869	146947
387.950	42216
388.031	8067
388.111	9135
388.192	32144
388.273	58265
388.353	33588
388.434	12280
388.514	16797
388.595	80125
388.676	132949
388.756	74194
388.837	64759
388.917	47719
388.998	10423
389.078	9935
389.159	7548
389.239	7335
389.320	12927
389.400	12459
389.480	23725
389.561	75017
389.641	43223
389.722	12696
389.802	23496
389.883	26681
389.963	80427
390.043	68647
390.124	28774
390.204	22293
390.284	76927
390.365	56094
390.445	60966
390.525	123578
390.605	97191
390.686	42839
390.766	15370
390.846	7977
390.927	4940
391.007	6881
391.087	9999
391.167	10738
391.247	8319
391.328	19475
391.408	31365
391.488	25054
391.568	6972
391.648	10053
391.728	15764
391.808	13906
391.888	15044
391.969	31953
392.049	69955
392.129	34727
392.209	29384
392.289	77626
392.369	51408
392.449	52956
392.529	35003
392.609	19761
392.689	21490
392.769	69884
392.849	73201
392.929	44157
393.009	119899
393.089	93647
393.169	55236
393.248	140860
393.328	552098
393.408	722883
393.488	227927
393.568	63275
393.648	31330
393.728	20014
393.807	14690
393.887	12972
393.967	11546
394.047	12464
394.127	14936
394.206	17565
394.286	44418
394.366	244166
394.446	332079
394.525	74992
394.605	18061
394.685	19368
394.764	60018
394.844	115751
394.924	89038
395.003	21774
395.083	13250
395.163	11736
395.242	10286
395.322	11048
395.402	6594
395.481	10760
395.561	33684
395.640	121909
395.720	87873
395.799	114345
395.879	103753
395.958	27650
396.038	62333
396.117	321291
396.197	442815
396.276	139651
396.356	54018
396.435	49760
396.515	31867
396.594	28903
396.673	49661
396.753	148265
396.832	536618
396.912	502937
396.991	141109
397.070	35427
397.150	20661
397.229	13537
397.308	15991
397.388	28808
397.467	15324
397.546	7874
397.625	5417
397.705	10954
397.784	12439
397.863	7461
397.942	5028
398.022	6515
398.101	27984
398.180	117692
398.259	75949
398.338	16596
398.417	9656
398.497	8115
398.576	9256
398.655	4777
398.734	4989
398.813	5482
398.892	23783
398.971	117075
399.050	71675
399.129	7374
399.208	4156
399.287	4344
399.366	3566
399.445	4015
399.524	4616
399.603	3721
399.682	9561
399.761	29907
399.840	111634
399.919	109967
399.998	16681
400.077	3799
400.156	3265
400.235	7313
400.313	6321
400.392	7462
400.471	30885
400.550	65147
400.629	20513
400.708	8721
400.786	9790
400.865	30830
400.944	41218
401.023	17858
401.102	2613
401.180	2858
401.259	4629
401.338	7082
401.416	10199
401.495	8488
401.574	8324
401.652	5345
401.731	9985
401.810	10786
401.888	5387
401.967	2057
402.046	3623
402.124	7418
402.203	13999
402.281	6965
402.360	8570
402.438	39449
402.517	35564
402.596	9808
402.674	10626
402.753	6867
402.831	4896
402.910	5301
402.988	21810
403.066	100522
403.145	68326
403.223	25810
403.302	80449
403.380	64739
403.459	64146
403.537	30069
403.615	11513
403.694	2927
403.772	2974
403.850	3470
403.929	2343
404.007	2969
404.085	10331
404.164	15695
404.242	5728
404.320	3951
404.398	8258
404.477	20480
404.555	127479
404.633	141644
404.711	22168
404.789	5247
404.868	5744
404.946	4593
405.024	2212
405.102	2074
405.180	1179
405.258	1891
405.336	3825
405.415	3086
405.493	13582
405.571	13578
405.649	4223
405.727	2580
405.805	8944
405.883	6721
405.961	8752
406.039	13919
406.117	5678
406.195	6845
406.273	26069
406.351	124697
406.429	95737
406.507	19931
406.585	7413
406.663	4620
406.740	8644
406.818	7791
406.896	4117
406.974	4394
407.052	7986
407.130	65470
407.208	120562
407.285	26732
407.363	4498
407.441	4381
407.519	3879
407.596	3833
407.674	10521
407.752	28022
407.830	45682
407.907	28034
407.985	8773
408.063	3458
408.141	2505
408.218	9139
408.296	12543
408.373	8232
408.451	5902
408.529	5553
408.606	2812
408.684	1777
408.762	1192
408.839	846
408.917	543
408.994	1287
409.072	1241
409.149	2100
409.227	4792
409.304	7078
409.382	3917
409.459	3960
409.537	7702
409.614	7184
409.692	3932
409.769	3547
409.846	8674
409.924	12641
410.001	9336
410.079	4788
410.156	3782
410.233	3717
410.311	2037
410.388	1706
410.465	5034
410.543	5205
410.620	2667
410.697	3906
410.775	5774
410.852	1924
410.929	5510
411.006	8908
411.083	5168
411.161	13095
411.238	17071
411.315	11304
411.392	3081
411.469	5664
411.547	8365
411.624	2816
411.701	3366
411.778	3619
411.855	11170
411.932	7630
412.009	3112
412.086	2693
412.163	4088
412.240	6843
412.317	8928
412.394	9203
412.471	3178
412.548	1332
412.625	2703
412.702	4319
412.779	12749
412.856	8086
412.933	2126
413.010	1943
413.087	4605
413.164	29624
413.241	54650
413.318	14196
413.395	6629
413.471	11079
413.548	6045
413.625	3227
413.702	5564
413.779	5758
413.855	1203
413.932	888
414.009	816
414.086	1414
414.162	1618
414.239	4901
414.316	27241
414.393	77666
414.469	34226
414.546	3692
414.623	2058
414.699	2401
414.776	3858
414.853	2343
414.929	2428
415.006	2798
415.082	7272
415.159	3946
415.236	2574
415.312	2717
415.389	6798
415.465	12290
415.542	6579
415.618	2217
415.695	7379
415.771	5642
415.848	4343
415.924	4950
416.000	5114
416.077	2645
416.153	960
416.230	-250
416.306	279
416.383	2174
416.459	2381
416.535	646
416.612	1146
416.688	2299
416.764	1108
416.841	701
416.917	1971
416.993	2544
417.069	3421
417.146	5593
417.222	6541
417.298	3602
417.374	1906
417.451	3462
417.527	4095
417.603	5976
417.679	3727
417.755	2741
417.831	1083
417.908	1575
417.984	365
418.060	875
418.136	7832
418.212	14908
418.288	4945
418.364	2929
418.440	2245
418.516	6382
418.592	11155
418.668	20165
418.744	25531
418.820	19223
418.896	5888
418.972	1106
419.048	2082
419.124	9768
419.200	9556
419.276	2073
419.352	158
419.428	1203
419.504	2746
419.579	4767
419.655	3059
419.731	2603
419.807	12462
419.883	29058
419.959	22955
420.034	6154
420.110	7916
420.186	42300
420.262	42641
420.337	7639
420.413	5948
420.489	2707
420.565	2200
420.640	1780
420.716	3230
420.792	1533
420.867	2179
420.943	1550
421.019	6933
421.094	6094
421.170	2534
421.245	1126
421.321	3043
421.397	2372
421.472	4584
421.548	14680
421.623	14129
421.699	5739
421.774	5241
421.850	3680
421.925	9396
422.001	8308
422.076	5891
422.152	6219
422.227	11932
422.302	12091
422.378	14720
422.453	28212
422.529	63450
422.604	196707
422.679	378847
422.755	290510
422.830	102527
422.905	35536
422.981	18224
423.056	12607
423.131	8593
423.207	6932
423.282	7562
423.357	16230
423.432	11524
423.508	9924
423.583	24654
423.658	22350
423.733	6572
423.808	8810
423.883	8749
423.959	7719
424.034	5314
424.109	3589
424.184	1696
424.259	1208
424.334	2340
424.409	1163
424.484	1967
424.559	2970
424.634	2127
424.709	4019
424.784	7214
424.859	3293
424.934	6376
425.009	28412
425.084	57697
425.159	25657
425.234	3823
425.309	1061
425.384	1801
425.459	1331
425.534	2190
425.609	5038
425.683	3879
425.758	2033
425.833	3740
425.908	5579
425.983	14776
426.058	59852
426.132	32508
426.207	7025
426.282	11477
426.357	14313
426.431	3767
426.506	3111
426.581	3524
426.655	3717
426.730	2515
426.805	1930
426.879	3970
426.954	2197
427.029	7951
427.103	39619
427.178	117846
427.253	66098
427.327	8831
427.402	7612
427.476	17949
427.551	8203
427.625	5154
427.700	6547
427.774	3732
427.849	5412
427.923	3376
427.998	2764
428.072	4193
428.147	9553
428.221	28708
428.296	91883
428.370	58469
428.444	9737
428.519	13272
428.593	34483
428.667	32080
428.742	34432
428.816	29574
428.890	61518
428.965	109075
429.039	41523
429.113	41580
429.188	18315
429.262	4251
429.336	7589
429.410	28114
429.485	24191
429.559	26686
429.633	27605
429.707	6720
429.781	12144
429.855	78803
429.930	139413
430.004	87101
430.078	140220
430.152	121818
430.226	103695
430.300	125842
430.374	24099
430.448	7916
430.522	28289
430.596	117630
430.670	78050
430.744	90349
430.818	180741
430.892	48321
430.966	7442
431.040	3460
431.114	2189
431.188	3190
431.262	2952
431.336	3862
431.410	10443
431.484	41517
431.557	31940
431.631	4460
431.705	3654
431.779	10814
431.853	67677
431.927	65911
432.000	8862
432.074	2332
432.148	5964
432.222	6946
432.295	2769
432.369	1601
432.443	4730
432.516	36890
432.590	121326
432.664	60496
432.737	8171
432.811	1831
432.885	199
432.958	1024
433.032	1068
433.106	930
433.179	615
433.253	406
433.326	538
433.400	477
433.473	772
433.547	638
433.620	619
433.694	4380
433.767	9032
433.841	4325
433.914	650
433.988	396
434.061	1387
434.134	780
434.208	92
434.281	-215
434.355	478
434.428	1792
434.501	372
434.575	1220
434.648	2380
434.721	924
434.795	-38
434.868	109
434.941	291
435.014	169
435.088	337
435.161	1709
435.234	4279
435.307	8091
435.381	4107
435.454	2185
435.527	5103
435.600	4259
435.673	2651
435.746	461
435.819	1201
435.892	1143
435.966	935
436.039	1593
436.112	2316
436.185	931
436.258	793
436.331	-553
436.404	105
436.477	2
436.550	-152
436.623	316
436.696	409
436.769	2305
436.842	1473
436.915	2665
436.987	5583
437.060	2857
437.133	-133
437.206	1729
437.279	1961
437.352	781
437.425	703
437.498	1527
437.570	5577
437.643	7867
437.716	1414
437.789	293
437.861	3791
437.934	19864
438.007	11641
438.080	1744
438.152	1354
438.225	5358
438.298	39834
438.370	156210
438.443	88476
438.516	24123
438.588	4923
438.661	1225
438.734	2089
438.806	2957
438.879	4161
438.951	3527
439.024	10979
439.096	5367
439.169	2325
439.241	1359
439.314	1104
439.386	6017
439.459	11791
439.531	19765
439.604	9675
439.676	1864
439.749	577
439.821	1624
439.893	985
439.966	2431
440.038	4033
440.110	5522
440.183	2494
440.255	790
440.327	2865
440.400	19329
440.472	105137
440.544	95807
440.617	15073
440.689	7041
440.761	9849
440.833	17593
440.905	13868
440.978	2663
441.050	753
441.122	972
441.194	679
441.266	1338
441.338	757
441.411	3558
441.483	28446
441.555	64439
441.627	20196
441.699	9672
441.771	14814
441.843	5652
441.915	1958
441.987	1462
442.059	1074
442.131	3005
442.203	8515
442.275	10461
442.347	9359
442.419	5815
442.491	24132
442.563	88867
442.635	57669
442.706	42151
442.778	42165
442.850	7768
442.922	2482
442.994	4036
443.066	9191
443.137	7633
443.209	4681
443.281	4961
443.353	12048
443.425	37913
443.496	145073
443.568	174825
443.640	72875
443.711	16824
443.783	5958
443.855	3814
443.926	2673
443.998	3745
444.070	8174
444.141	6401
444.213	7763
444.285	11026
444.356	11883
444.428	14020
444.499	5402
444.571	1450
444.642	1730
444.714	2506
444.785	6424
444.857	12031
444.928	33042
445.000	27443
445.071	20251
445.143	32352
445.214	15313
445.285	15690
445.357	53360
445.428	103042
445.500	255784
445.571	207368
445.642	103649
445.714	47641
445.785	62787
445.856	24915
445.928	11725
445.999	10432
446.070	8001
446.141	7580
446.213	11025
446.284	7047
446.355	8423
446.426	6296
446.497	5127
446.569	9648
446.640	17925
446.711	12689
446.782	4681
446.853	8822
446.924	10879
446.995	6900
447.066	4615
447.138	12501
447.209	10228
447.280	1160
447.351	1434
447.422	1507
447.493	4935
447.564	7006
447.635	9257
447.706	4774
447.777	1364
447.847	465
447.918	954
447.989	5708
448.060	8371
448.131	22588
448.202	26194
448.273	14483
448.344	7404
448.414	2156
448.485	1985
448.556	1866
448.627	966
448.698	929
448.768	455
448.839	2086
448.910	10382
448.981	14600
449.051	4356
449.122	1575
449.193	805
449.263	1562
449.334	1713
449.405	2563
449.475	8957
449.546	10645
449.616	12339
449.687	14697
449.758	4605
449.828	2177
449.899	1711
449.969	1103
450.040	1221
450.110	4169
450.181	8955
450.251	4327
450.322	1280
450.392	2069
450.463	2524
450.533	1364
450.604	2219
450.674	2426
450.744	1542
450.815	1361
450.885	1817
450.955	973
451.026	1250
451.096	2053
451.166	4069
451.237	12067
451.307	41903
451.377	26021
451.447	3977
451.518	1409
451.588	1747
451.658	2261
451.728	5245
451.799	31971
451.869	59400
451.939	17919
452.009	3424
452.079	2083
452.149	2309
452.219	7305
452.289	42167
452.360	50869
452.430	11136
452.500	4048
452.570	6120
452.640	7597
452.710	23675
452.780	52784
452.850	33403
452.920	26717
452.990	12739
453.060	5103
453.129	6755
453.199	10251
453.269	29039
453.339	103519
453.409	178044
453.479	139283
453.549	226284
453.619	273928
453.688	153641
453.758	25410
453.828	7039
453.898	4101
453.968	4526
454.037	3360
454.087	3064
454.107	2927
454.168	2555
454.177	2480
454.247	2546
454.249	2528
454.316	1694
454.330	2225
454.386	4173
454.411	9779
454.456	18360
454.492	30470
454.525	41284
454.574	25369
454.595	18586
454.655	5324
454.665	3235
454.734	4855
454.736	5089
454.804	11379
454.817	16615
454.873	36022
454.898	45700
454.943	62394
454.979	46069
455.013	31852
455.060	18126
455.082	12582
455.141	9508
455.152	8685
455.221	23576
455.222	24205
455.291	59454
455.303	55188
455.360	36902
455.384	31848
455.430	23101
455.465	24679
455.499	25456
455.546	36493
455.569	40318
455.627	37419
455.638	37440
455.707	8561
455.708	8549
455.777	3255
455.789	3327
455.846	3529
455.869	3123
455.916	2355
455.950	2964
455.985	3432
456.031	4170
456.054	4447
456.112	3536
456.124	3449
456.193	3016
456.193	2989
456.262	4328
456.274	5015
456.332	7755
456.355	8751
456.401	9639
456.436	8496
456.470	7643
456.516	4479
456.540	3017
456.597	2119
456.609	1948
456.678	2182
456.678	2166
456.747	1420
456.759	1408
456.817	1404
456.840	1457
456.886	1498
456.920	1764
456.955	2111
457.001	2435
457.024	2892
457.082	4384
457.093	4750
457.162	9363
457.163	9425
457.232	14465
457.243	13894
457.301	10171
457.324	7268
457.370	2855
457.405	2809
457.439	3045
457.485	3099
457.508	3061
457.566	3013
457.577	3004
457.646	3254
457.647	3281
457.715	5297
457.727	5851
457.784	9262
457.808	11246
457.853	13427
457.889	16617
457.922	17736
457.969	12759
457.991	12606
458.050	13960
458.060	14223
458.129	22572
458.130	22889
458.198	25631
458.211	23380
458.267	15156
458.292	11132
458.336	6639
458.372	6192
458.405	7755
458.453	10494
458.474	12831
458.533	22472
458.543	23340
458.611	40403
458.614	40812
458.680	32252
458.694	26373
458.749	13073
458.775	9673
458.818	5618
458.855	4966
458.887	4403
458.936	4362
458.955	4417
459.016	5248
459.024	5313
459.093	5263
459.097	5251
459.162	5024
459.177	5273
459.230	6295
459.257	6898
459.299	7340
459.338	7142
459.368	7291
459.418	7734
459.437	7363
459.499	6074
459.505	6066
459.574	4881
459.579	4889
459.643	4384
459.659	4238
459.711	4495
459.740	4812
459.780	5197
459.820	5869
459.849	6371
459.900	6911
459.917	6752
459.981	6923
459.986	6951
460.054	6204
460.061	6065
460.123	5211
460.141	5225
460.191	6310
460.222	7201
460.260	7930
460.302	9331
460.328	9130
460.382	7593
460.397	7338
460.462	4932
460.465	4948
460.534	7008
460.543	7297
460.602	14686
460.623	17440
460.671	26965
460.703	35846
460.739	33940
460.783	30834
460.808	27564
460.864	10296
460.876	8983
460.944	6329
460.945	6292
461.013	6490
461.024	6460
461.081	6362
461.104	6689
461.150	6818
461.184	6612
461.218	6575
461.264	6226
461.286	6200
461.345	6007
461.355	5969
461.423	6542
461.425	6546
461.491	7174
461.505	7373
461.559	14616
461.585	18087
461.628	32828
461.665	47498
461.696	53593
461.745	72099
461.764	65280
461.825	28871
461.832	28581
461.901	10545
461.905	10289
461.969	8357
461.985	8339
462.037	7898
462.065	7395
462.105	8523
462.145	9919
462.173	15205
462.225	25455
462.241	28848
462.305	45992
462.310	44789
462.378	28984
462.385	25703
462.446	14855
462.465	11581
462.514	7598
462.545	7428
462.582	7285
462.625	7418
462.650	7316
462.705	7039
462.718	7487
462.785	10039
462.786	10135
462.854	14970
462.865	15991
462.922	21379
462.945	24214
462.990	18821
463.025	12479
463.058	11384
463.104	8524
463.126	7518
463.184	7005
463.194	7072
463.262	7690
463.264	7724
463.330	8337
463.344	8382
463.398	9790
463.424	10487
463.466	10287
463.504	10375
463.533	10635
463.583	10746
463.601	11146
463.663	12218
463.669	12617
463.737	17279
463.743	17778
463.805	28461
463.823	31563
463.873	50517
463.903	62432
463.940	67081
463.982	76056
464.008	63049
464.062	28667
464.076	26850
464.142	10565
464.144	10346
464.211	8343
464.221	8386
464.279	8393
464.301	8479
464.347	10143
464.381	11385
464.414	13289
464.461	15942
464.482	16438
464.540	18246
464.550	17317
464.617	10399
464.620	10091
464.685	10837
464.699	11250
464.753	12016
464.779	12576
464.820	13502
464.859	14068
464.888	14598
464.938	15497
464.956	16118
465.018	18775
465.023	18340
465.091	12360
465.098	11623
465.158	10929
465.177	10797
465.226	11132
465.257	11492
465.293	12407
465.336	13442
465.361	14342
465.416	16403
465.428	18249
465.495	28173
465.496	28389
465.563	55693
465.575	60476
465.631	77172
465.654	85186
465.698	52548
465.734	22925
465.765	19306
465.813	12216
465.833	11181
465.893	10801
465.900	10744
465.968	10525
465.972	10482
466.035	9785
466.052	9634
466.102	10008
466.131	10161
466.170	10534
466.210	10860
466.237	10920
466.290	11125
466.304	11331
466.369	11929
466.372	11961
466.439	12452
466.449	12492
466.506	15410
466.528	16487
466.573	25046
466.607	31444
466.641	52084
466.687	80744
466.708	90937
466.766	119444
466.775	109556
466.842	34116
466.845	30448
466.909	19062
466.925	16544
466.977	14304
467.004	13404
467.044	14084
467.083	14778
467.111	15285
467.163	16169
467.178	16842
467.242	19518
467.245	19453
467.312	17408
467.321	17107
467.379	18122
467.400	18439
467.446	21528
467.480	23696
467.559	20470
467.638	14744
467.717	16369
467.796	18371
467.875	20888
467.955	20847
468.034	34621
468.113	94929
468.192	147969
468.271	34358
468.350	16820
468.429	18983
468.508	19689
468.588	16482
468.667	16673
468.746	17546
468.825	18083
468.904	14883
468.983	20927
469.062	36395
469.141	46075
469.220	16095
469.299	14668
469.378	16233
469.456	15824
469.535	15159
469.614	16307
469.693	18016
469.772	26135
469.851	41493
469.930	26969
470.009	14239
470.088	14202
470.166	15788
470.245	20494
470.324	23736
470.403	16637
470.482	13933
470.560	14806
470.639	15124
470.718	17856
470.797	14888
470.875	19311
470.954	32674
471.033	36082
471.111	13440
471.190	12306
471.269	11103
471.347	13427
471.426	13708
471.505	16497
471.583	15080
471.662	14348
471.740	12266
471.819	12940
471.898	13375
471.976	13002
472.055	13310
472.133	16180
472.212	25649
472.290	28831
472.369	15441
472.447	12286
472.526	10858
472.604	12984
472.683	13006
472.761	14739
472.839	13471
472.918	13481
472.996	13381
473.075	17390
473.153	16886
473.231	13237
473.310	18503
473.388	17727
473.466	14409
473.545	14881
473.623	19851
473.701	19627
473.780	13250
473.858	13274
473.936	14561
474.014	13710
474.093	16263
474.171	28784
474.249	44521
474.327	27334
474.405	10906
474.484	11666
474.562	11447
474.640	12008
474.718	13566
474.796	13836
474.874	11977
474.952	10347
475.030	11057
475.108	11888
475.187	11198
475.265	14411
475.343	21608
475.421	26031
475.499	14067
475.577	14686
475.655	21876
475.733	50831
475.811	98347
475.889	89614
475.966	58537
476.044	15840
476.122	20124
476.200	25954
476.278	21373
476.356	15481
476.434	16692
476.512	20032
476.590	27225
476.667	23088
476.745	14561
476.823	15344
476.901	15517
476.979	17391
477.056	14510
477.134	16132
477.212	15080
477.290	15295
477.367	12745
477.445	14131
477.523	13393
477.601	14225
477.678	13812
477.756	20498
477.834	23884
477.911	14820
477.989	14237
478.066	15464
478.144	18940
478.222	20002
478.299	30122
478.377	29693
478.454	13841
478.532	13300
478.609	13063
478.687	15437
478.764	12344
478.842	12728
478.919	14827
478.997	14454
479.074	12483
479.152	17792
479.229	24454
479.307	16889
479.384	10701
479.461	11914
479.539	14645
479.616	19037
479.694	14275
479.771	17755
479.848	18220
479.926	27228
480.003	30428
480.080	14298
480.157	11847
480.235	12681
480.312	12868
480.389	16847
480.467	31262
480.544	41870
480.621	19202
480.698	17599
480.775	19379
480.853	21736
480.930	16238
481.007	17445
481.084	19965
481.161	20839
481.238	19706
481.315	14741
481.392	14317
481.470	15379
481.547	15005
481.624	15182
481.701	14249
481.778	16769
481.855	18981
481.932	29416
482.009	54588
482.086	38879
482.163	16123
482.240	23291
482.317	39471
482.393	31526
482.470	15321
482.547	16417
482.624	13453
482.701	15973
482.778	15467
482.855	12434
482.932	11997
483.009	13609
483.085	14196
483.162	16940
483.239	16834
483.316	13174
483.393	13902
483.469	13523
483.546	17211
483.623	20830
483.699	13835
483.776	15163
483.853	17431
483.930	26970
484.006	76502
484.083	143908
484.160	47530
484.236	41187
484.313	33059
484.389	28305
484.466	24098
484.543	22900
484.619	24582
484.696	26977
484.772	31160
484.849	35640
484.925	24135
485.002	23425
485.078	25664
485.155	27846
485.231	23063
485.308	22485
485.384	25178
485.461	34653
485.537	69177
485.614	93438
485.690	28063
485.766	23032
485.843	22918
485.919	32670
485.995	36091
486.072	21628
486.148	19843
486.224	20334
486.301	22525
486.377	29916
486.453	28956
486.530	24389
486.606	27940
486.682	33838
486.758	53174
486.835	71994
486.911	48512
486.987	90956
487.063	80446
487.139	84869
487.215	57794
487.292	27377
487.368	22850
487.444	25622
487.520	32378
487.596	29056
487.672	36755
487.748	87613
487.824	135179
487.900	46034
487.976	25395
488.052	28836
488.128	35934
488.204	30161
488.280	24950
488.356	31863
488.432	81787
488.508	147459
488.584	41190
488.660	21277
488.736	20704
488.812	22604
488.888	26726
488.964	35560
489.039	74771
489.115	124879
489.191	74527
489.267	25323
489.343	22863
489.418	18528
489.494	17097
489.570	16350
489.646	17974
489.722	19536
489.797	21224
489.873	37779
489.949	104606
490.024	91234
490.100	20586
490.176	18096
490.251	22697
490.327	29431
490.403	18695
490.478	17627
490.554	13545
490.629	15041
490.705	14269
490.781	17824
490.856	17929
490.932	21125
491.007	19728
491.083	19964
491.158	20080
491.234	27954
491.309	77110
491.385	88734
491.460	21404
491.536	22394
491.611	16918
491.686	19631
491.762	25301
491.837	52591
491.913	92965
491.988	128874
492.063	159149
492.139	57665
492.214	36386
492.289	14701
492.365	15462
492.440	17536
492.515	21882
492.590	20739
492.666	15996
492.741	24542
492.816	45855
492.891	23261
492.967	13582
493.042	13053
493.117	12482
493.192	13511
493.267	17332
493.342	36914
493.418	48789
493.493	16538
493.568	11832
493.643	13270
493.718	19490
493.793	36267
493.868	34830
493.943	18751
494.018	14983
494.093	14385
494.168	15547
494.243	11962
494.318	11472
494.393	11593
494.468	10628
494.543	10692
494.618	12770
494.693	13725
494.768	13307
494.842	14324
494.917	11011
494.992	12457
495.067	10538
495.142	9973
495.217	11790
495.292	12994
495.366	15514
495.441	21414
495.516	27184
495.591	35380
495.665	102496
495.740	268136
495.815	113626
495.890	26322
495.964	19073
496.039	20655
496.114	18770
496.188	20881
496.263	19351
496.338	20110
496.412	23431
496.487	27037
496.561	25002
496.636	25607
496.710	20774
496.785	23265
496.860	29789
496.934	20659
497.009	19891
497.083	18723
497.158	19104
497.232	24413
497.307	32400
497.381	24023
497.455	28772
497.530	46003
497.604	26327
497.679	25732
497.753	46306
497.827	62613
497.902	44460
497.976	53697
498.050	125198
498.125	531895
498.199	596462
498.273	77537
498.348	42529
498.422	32332
498.496	31882
498.570	30890
498.645	23808
498.719	26999
498.793	36963
498.867	64505
498.941	88601
499.016	211340
499.090	654389
499.164	248134
499.238	27452
499.312	22131
499.386	26253
499.460	27809
499.534	25744
499.609	33156
499.683	55883
499.757	55922
499.831	97717
499.905	420346
499.979	449704
500.053	76961
500.127	67463
500.201	38972
500.275	26956
500.349	27488
500.422	30891
500.496	44046
500.570	84422
500.644	220428
500.718	498108
500.792	118936
500.866	28452
500.940	40027
501.013	33693
501.087	31888
501.161	48437
501.235	70746
501.309	155658
501.382	438207
501.456	415667
501.530	87426
501.603	162704
501.677	66061
501.751	24207
501.825	30411
501.898	56567
501.972	189338
502.046	130159
502.119	32881
502.193	72694
502.266	211110
502.340	108262
502.413	82851
502.487	188076
502.561	114954
502.634	31137
502.708	21863
502.781	19012
502.855	16638
502.928	15530
503.002	15757
503.075	15031
503.149	18585
503.222	18901
503.295	22211
503.369	28305
503.442	39194
503.516	124102
503.589	365590
503.662	249298
503.736	69695
503.809	162810
503.882	136980
503.956	179005
504.029	176478
504.102	70478
504.175	84659
504.249	30978
504.322	25866
504.395	25278
504.468	16968
504.542	18033
504.615	13148
504.688	11709
504.761	12422
504.834	17518
504.907	19033
504.980	29028
505.053	18660
505.127	19505
505.200	26100
505.273	31592
505.346	19628
505.419	12930
505.492	13833
505.565	10632
505.638	10753
505.711	11706
505.784	12007
505.857	11208
505.930	13249
506.003	12953
506.076	14921
506.149	20501
506.221	30757
506.294	24505
506.367	61494
506.440	245036
506.513	141311
506.586	31118
506.659	16969
506.731	12308
506.804	16675
506.877	23380
506.950	19320
507.022	11598
507.095	18258
507.168	24930
507.241	13152
507.313	9181
507.386	11450
507.459	18235
507.531	11666
507.604	9714
507.677	10748
507.749	7740
507.822	12697
507.894	21246
507.967	24314
508.040	13541
508.112	12391
508.185	13164
508.257	12470
508.330	19067
508.402	13390
508.475	13619
508.547	15109
508.620	13971
508.692	30587
508.765	17076
508.837	11007
508.909	10241
508.982	11111
509.054	11773
509.127	10852
509.199	9596
509.271	9848
509.344	9072
509.416	9138
509.488	10504
509.560	10203
509.633	10804
509.705	13714
509.777	11866
509.849	18120
509.922	11830
509.994	10039
510.066	10303
510.138	9447
510.210	16477
510.283	15991
510.355	14311
510.427	11959
510.499	12288
510.571	13328
510.643	12156
510.715	19758
510.787	17971
510.859	13744
510.931	17268
511.003	21131
511.076	18828
511.148	12590
511.219	12112
511.291	25645
511.363	35505
511.435	12473
511.507	8956
511.579	11460
511.651	10071
511.723	11102
511.795	9872
511.867	12003
511.939	15492
512.010	42765
512.082	34869
512.154	12768
512.226	12107
512.298	14361
512.369	21509
512.441	17561
512.513	17918
512.585	12675
512.656	14820
512.728	17413
512.800	11673
512.871	12064
512.943	13307
513.015	9332
513.086	10963
513.158	13604
513.230	12772
513.301	19573
513.373	25820
513.444	13071
513.516	10072
513.588	10128
513.659	11596
513.731	16369
513.802	14108
513.874	28257
513.945	53755
514.016	18791
514.088	10541
514.159	13057
514.231	17223
514.302	21144
514.374	14872
514.445	17383
514.516	45706
514.588	36126
514.659	18117
514.730	42768
514.802	28692
514.873	13407
514.944	13312
515.016	12900
515.087	15279
515.158	26661
515.229	44001
515.301	14168
515.372	14310
515.443	10424
515.514	10210
515.585	9244
515.656	9954
515.728	10339
515.799	8478
515.870	11624
515.941	11949
516.012	11487
516.083	12846
516.154	15403
516.225	22828
516.296	21417
516.367	16220
516.438	19451
516.509	24112
516.580	34141
516.651	85810
516.722	333358
516.793	177967
516.864	39538
516.935	39141
517.006	42002
517.077	53700
517.148	109773
517.219	306966
517.289	553458
517.360	285132
517.431	106629
517.502	24302
517.573	21718
517.643	20190
517.714	21241
517.785	22281
517.856	23088
517.926	26503
517.997	30332
518.068	35603
518.138	47184
518.209	62501
518.280	187337
518.350	747312
518.421	325869
518.492	41625
518.562	29006
518.633	30830
518.703	26177
518.774	36832
518.845	84349
518.915	93943
518.986	38448
519.056	32978
519.127	53515
519.197	85447
519.268	238754
519.338	183131
519.408	37941
519.479	35712
519.549	28392
519.620	18887
519.690	15496
519.760	15361
519.831	16271
519.901	17460
519.971	14081
520.042	16656
520.112	21613
520.182	20621
520.253	21657
520.323	15598
520.393	15164
520.463	17822
520.534	15361
520.604	28235
520.674	21011
520.744	23021
520.814	31417
520.885	35078
520.955	69617
521.025	295342
521.095	132070
521.165	22002
521.235	19577
521.305	15765
521.375	13997
521.445	14882
521.515	19805
521.585	22065
521.655	22396
521.725	18372
521.795	18334
521.865	14283
521.935	26054
522.005	25587
522.075	14702
522.145	15095
522.215	19490
522.285	30136
522.355	41359
522.424	86695
522.494	74369
522.564	27705
522.634	42557
522.704	121617
522.774	55192
522.843	17099
522.913	14874
522.983	19787
523.053	15273
523.122	15296
523.192	19193
523.262	62369
523.331	68854
523.401	16281
523.471	10947
523.540	13071
523.610	10494
523.680	11567
523.749	12152
523.819	17296
523.888	19731
523.958	11319
524.027	13642
524.097	15268
524.166	13761
524.236	13154
524.305	15448
524.375	12078
524.444	11556
524.514	14907
524.583	14949
524.653	19386
524.722	22181
524.791	13700
524.861	14087
524.930	11342
524.999	13477
525.069	19009
525.138	17956
525.207	23160
525.277	15418
525.346	12632
525.415	13243
525.484	12669
525.554	18753
525.623	17463
525.692	14261
525.761	13830
525.830	14157
525.900	16839
525.969	24645
526.038	33225
526.107	48562
526.176	142974
526.245	130127
526.314	50427
526.383	78814
526.452	109129
526.522	164518
526.591	209084
526.660	80205
526.729	39385
526.797	41756
526.867	76412
526.935	310188
527.004	461925
527.073	263534
527.142	30432
527.211	18087
527.280	16997
527.349	18697
527.418	10688
527.487	12512
527.555	10144
527.624	9230
527.693	9671
527.762	11413
527.831	9307
527.899	10489
527.968	11360
528.037	10788
528.106	13608
528.174	25323
528.243	23479
528.312	31085
528.380	42707
528.449	15956
528.518	11781
528.586	7465
528.655	9672
528.723	9569
528.792	9035
528.861	11462
528.929	10051
528.998	10156
529.066	9033
529.135	9143
529.203	8047
529.272	8050
529.340	9267
529.409	11369
529.477	9511
529.545	14714
529.614	18573
529.682	16190
529.751	22389
529.819	20108
529.887	14582
529.956	9384
530.024	10942
530.092	8481
530.161	10816
530.229	17755
530.297	10786
530.365	9593
530.434	7420
530.502	8310
530.570	8405
530.638	7953
530.707	10035
530.775	11722
530.843	9060
530.911	9333
530.979	8431
531.047	8716
531.115	9676
531.183	9670
531.252	9661
531.320	10486
531.388	9780
531.456	10310
531.524	7220
531.592	9916
531.660	10680
531.728	9516
531.796	8195
531.864	9378
531.932	9927
532.000	8667
532.067	10230
532.135	11420
532.203	11953
532.271	12580
532.339	19895
532.407	51041
532.475	33835
532.542	17141
532.610	18457
532.678	24518
532.746	76193
532.814	229271
532.881	64796
532.949	15144
533.017	11430
533.084	10811
533.152	9754
533.220	10767
533.287	10951
533.355	10229
533.423	9137
533.490	9809
533.558	9228
533.625	10432
533.693	10898
533.761	11809
533.828	12101
533.896	10497
533.963	19169
534.031	24161
534.098	33370
534.166	19204
534.233	9954
534.300	11653
534.368	10856
534.435	10536
534.503	11137
534.570	9824
534.637	11592
534.705	12194
534.772	14264
534.840	17730
534.907	61096
534.974	94209
535.041	18793
535.109	17568
535.176	10541
535.243	9984
535.310	9791
535.378	9676
535.445	8306
535.512	9825
535.579	9707
535.646	10092
535.714	10079
535.781	12400
535.848	11138
535.915	12843
535.982	11116
536.049	10935
536.116	11968
536.183	11170
536.250	11206
536.317	10649
536.384	13242
536.451	19860
536.518	20835
536.585	14267
536.652	17740
536.719	25220
536.786	21491
536.853	16324
536.920	23152
536.987	38935
537.053	32897
537.120	104069
537.187	109066
537.254	16150
537.321	12106
537.388	13777
537.454	10560
537.521	10592
537.588	9763
537.654	11917
537.721	12557
537.788	13568
537.855	10422
537.921	11063
537.988	11468
538.055	12200
538.121	11788
538.188	12842
538.254	15106
538.321	34873
538.388	23696
538.454	12551
538.521	11549
538.587	10974
538.654	10765
538.720	10508
538.787	10397
538.853	12434
538.920	16604
538.986	18263
539.053	14814
539.119	14130
539.185	13033
539.252	15354
539.318	21183
539.385	17465
539.451	14390
539.517	15313
539.583	17709
539.650	33159
539.716	93112
539.782	31878
539.849	12386
539.915	13114
539.981	12630
540.047	15739
540.114	14268
540.180	15214
540.246	14365
540.312	16776
540.378	33174
540.444	38601
540.510	32090
540.576	96999
540.643	38372
540.709	12657
540.775	12391
540.841	13225
540.907	17770
540.973	25511
541.039	19664
541.105	24372
541.171	13703
541.237	12562
541.303	13927
541.369	14951
541.435	16758
541.500	29674
541.566	21068
541.632	12607
541.698	9962
541.764	11445
541.830	11162
541.896	11103
541.961	12766
542.027	12220
542.093	12149
542.159	12794
542.224	12822
542.290	18748
542.356	27233
542.421	37917
542.487	17695
542.553	13979
542.618	15980
542.684	15173
542.750	13373
542.815	17001
542.881	26038
542.947	81296
543.012	67893
543.078	14468
543.143	12020
543.209	14406
543.274	13835
543.340	16052
543.405	29345
543.471	54545
543.536	16318
543.602	12883
543.667	11620
543.732	12172
543.798	10629
543.863	12576
543.928	10463
543.994	9875
544.059	11921
544.124	12207
544.190	11710
544.255	12054
544.320	12461
544.386	12910
544.451	16924
544.516	21669
544.581	19696
544.646	48242
544.712	87521
544.777	22203
544.842	18239
544.907	19937
544.972	16802
545.037	16191
545.102	17977
545.168	18063
545.233	18980
545.298	20037
545.363	22141
545.428	24077
545.493	32889
545.558	71269
545.623	36979
545.688	19312
545.753	17612
545.818	17769
545.883	17274
545.947	18213
546.012	20432
546.077	22471
546.142	19626
546.207	18270
546.272	22853
546.337	25157
546.401	21115
546.466	19583
546.531	17806
546.596	20570
546.661	20731
546.725	20811
546.790	18830
546.855	20296
546.919	20298
546.984	23431
547.049	24136
547.113	30472
547.178	26069
547.243	30799
547.307	33068
547.372	38572
547.436	43755
547.501	34204
547.565	35155
547.630	36613
547.695	37228
547.759	43748
547.823	39945
547.888	32813
547.952	32075
548.017	34634
548.081	38458
548.146	49674
548.210	44566
548.274	35844
548.339	35203
548.403	33430
548.468	31154
548.532	31225
548.596	31504
548.660	32444
548.725	35778
548.789	42426
548.853	44418
548.917	36383
548.982	45375
549.046	48019
549.110	31754
549.174	30820
549.238	31148
549.303	33132
549.367	35737
549.431	34410
549.495	32073
549.559	31816
549.623	35240
549.687	41055
549.751	48387
549.815	47423
549.879	45994
549.943	42133
550.007	46036
550.071	46175
550.135	47433
550.199	43807
550.263	41172
550.327	41486
550.391	52425
550.455	44568
550.519	43181
550.582	47234
550.646	54347
550.710	59387
550.774	50029
550.838	51069
550.901	52599
550.965	55142
551.029	56272
551.093	61705
551.156	72345
551.220	110228
551.284	136847
551.347	81505
551.411	115935
551.475	141288
551.538	59588
551.602	51218
551.666	47695
551.729	43890
551.793	43436
551.856	44181
551.920	41639
551.983	42520
552.047	41317
552.110	42159
552.174	41131
552.237	42901
552.301	40966
552.364	39440
552.428	38937
552.491	38613
552.554	40545
552.618	39833
552.681	41166
552.745	42567
552.808	49217
552.871	59568
552.934	46521
552.998	42200
553.061	42773
553.124	39771
553.187	37420
553.251	40125
553.314	41293
553.377	38967
553.440	43194
553.503	52375
553.567	62037
553.630	43371
553.693	40379
553.756	41562
553.819	39164
553.882	38204
553.945	38393
554.008	38935
554.071	38041
554.134	40537
554.197	37202
554.260	36297
554.323	39608
554.386	40020
554.449	38151
554.512	39399
554.575	37040
554.638	38637
554.701	37392
554.764	36678
554.827	35483
554.889	34135
554.952	31862
555.015	32578
555.078	32174
555.141	34152
555.203	32007
555.266	32060
555.329	33987
555.391	32092
555.454	30815
555.517	31837
555.580	30571
555.642	28251
555.705	27151
555.768	28647
555.830	28852
555.893	26128
555.955	26332
556.018	27453
556.080	27171
556.143	27015
556.206	27146
556.268	27934
556.330	28658
556.393	27536
556.455	27045
556.518	37451
556.580	39817
556.643	24811
556.705	24195
556.767	22994
556.830	25643
556.892	24479
556.955	32573
557.017	29187
557.079	23872
557.142	22915
557.204	24651
557.266	39610
557.328	36641
557.391	22164
557.453	20963
557.515	22900
557.577	24293
557.639	25960
557.701	21593
557.764	20347
557.826	20655
557.888	23594
557.950	23621
558.012	24003
558.074	27882
558.136	46040
558.198	109264
558.260	54145
558.322	25687
558.384	25931
558.446	28169
558.508	32375
558.570	40744
558.632	55357
558.694	80404
558.756	77496
558.818	176259
558.880	504494
558.942	189573
559.003	113982
559.065	70681
559.127	31113
559.189	31263
559.251	36250
559.312	43856
559.374	85711
559.436	305610
559.498	190618
559.559	35785
559.621	32300
559.683	35607
559.744	55378
559.806	141590
559.868	246257
559.929	62509
559.991	37353
560.052	43051
560.114	103803
560.176	82214
560.237	59921
560.299	108585
560.360	37646
560.422	22695
560.483	21067
560.545	19889
560.606	19968
560.667	18859
560.729	19709
560.790	18504
560.852	18669
560.913	18320
560.974	17423
561.036	17433
561.097	18018
561.158	18388
561.220	19193
561.281	17535
561.342	19320
561.403	21630
561.465	25475
561.526	46557
561.587	67401
561.648	24902
561.709	19473
561.771	18434
561.832	18537
561.893	17831
561.954	17982
562.015	16968
562.076	17429
562.137	17930
562.198	19511
562.259	16563
562.320	17744
562.381	19120
562.442	25143
562.503	22625
562.564	17541
562.625	16887
562.686	17639
562.747	18199
562.808	19263
562.869	17595
562.930	24280
562.991	23205
563.051	20685
563.112	19413
563.173	19382
563.234	17324
563.294	17231
563.355	17379
563.416	18527
563.477	18378
563.537	17454
563.598	19170
563.659	19261
563.720	19053
563.780	19685
563.841	18615
563.901	17276
563.962	17658
564.023	17881
564.083	18708
564.144	18801
564.204	18876
564.265	20482
564.325	23748
564.386	45273
564.446	45253
564.507	18976
564.567	17179
564.628	18051
564.688	17295
564.749	17874
564.809	21637
564.869	25706
564.930	17863
564.990	17480
565.050	16205
565.111	17120
565.171	15498
565.231	16710
565.292	15381
565.352	15567
565.412	17002
565.472	16244
565.532	17075
565.593	17095
565.653	15925
565.713	16904
565.773	17523
565.833	18769
565.893	24754
565.953	18377
566.013	16841
566.074	18920
566.134	24690
566.194	40198
566.254	43819
566.314	27040
566.374	18167
566.434	17292
566.494	17340
566.554	16616
566.614	17147
566.673	16256
566.733	17712
566.793	18884
566.853	17426
566.913	17766
566.973	18463
567.033	20318
567.092	19406
567.152	17629
567.212	19048
567.272	18343
567.331	20658
567.391	19415
567.451	20655
567.511	27888
567.570	31751
567.630	18127
567.690	16361
567.749	16686
567.809	17368
567.868	18372
567.928	18725
567.988	21753
568.047	20702
568.107	20788
568.166	21948
568.226	28763
568.285	37101
568.345	29677
568.404	24810
568.464	22849
568.523	20968
568.582	22260
568.642	25357
568.701	27410
568.761	35494
568.820	54085
568.879	51202
568.939	42547
568.998	30881
569.057	22510
569.116	20625
569.176	18436
569.235	16555
569.294	17698
569.353	15528
569.413	16250
569.472	16723
569.531	16036
569.590	15365
569.649	16322
569.708	14999
569.767	16391
569.827	19113
569.886	18667
569.945	14734
570.004	15137
570.063	16080
570.122	16853
570.181	17514
570.240	20820
570.299	20466
570.358	20367
570.417	16700
570.475	15586
570.534	15101
570.593	16772
570.652	17124
570.711	18662
570.770	16091
570.829	18519
570.887	16759
570.946	17708
571.005	14641
571.064	15047
571.122	15923
571.181	20023
571.240	16415
571.299	15231
571.357	17115
571.416	18480
571.475	19509
571.533	23961
571.592	16579
571.650	19442
571.709	14108
571.768	14909
571.826	14560
571.885	14635
571.943	13826
572.002	14868
572.060	16275
572.119	13624
572.177	13153
572.236	13104
572.294	12904
572.352	14003
572.411	13401
572.469	12165
572.528	12374
572.586	13815
572.644	14030
572.703	20048
572.761	16468
572.819	13847
572.877	13301
572.936	12500
572.994	12613
573.052	12839
573.110	13008
573.169	13568
573.227	12439
573.285	12203
573.343	11826
573.401	12243
573.459	12411
573.517	12330
573.576	12486
573.634	13173
573.692	13283
573.750	13496
573.808	13343
573.866	14645
573.924	20031
573.982	20029
574.040	14311
574.098	13542
574.155	12589
574.213	12487
574.271	11142
574.329	12039
574.387	10686
574.445	11470
574.503	10322
574.560	11052
574.618	10432
574.676	10895
574.734	10056
574.792	11993
574.849	10353
574.907	9983
574.965	9809
575.022	10169
575.080	9708
575.138	10515
575.195	12323
575.253	11305
575.311	12362
575.368	10596
575.426	10074
575.483	12029
575.541	11014
575.598	10857
575.656	11855
575.713	11201
575.771	11635
575.828	11369
575.886	10410
575.943	13140
576.001	12024
576.058	12624
576.115	13292
576.173	16538
576.230	20062
576.287	19785
576.345	16485
576.402	13695
576.459	13998
576.517	14242
576.574	15941
576.631	17980
576.688	15121
576.746	13260
576.803	12532
576.860	12556
576.917	11340
576.974	13302
577.031	11948
577.089	13877
577.146	12087
577.203	12818
577.260	13847
577.317	15831
577.374	18368
577.431	17879
577.488	14634
577.545	11608
577.602	10961
577.659	12198
577.716	10955
577.773	11706
577.830	11324
577.886	12121
577.943	10599
578.000	12326
578.057	12520
578.114	13224
578.171	11366
578.227	11413
578.284	11756
578.341	13142
578.398	12485
578.454	13963
578.511	15998
578.568	19787
578.625	16558
578.681	12985
578.738	11759
578.794	11713
578.851	11248
578.908	10851
578.964	11069
579.021	12570
579.077	12184
579.134	11343
579.190	10523
579.247	10429
579.303	11127
579.360	10778
579.416	10442
579.473	9460
579.529	10758
579.586	10863
579.642	10844
579.698	11896
579.755	12890
579.811	11423
579.867	11293
579.924	10636
579.980	9938
580.036	10728
580.093	11043
580.149	12287
580.205	12446
580.261	12803
580.317	13485
580.374	14291
580.430	16871
580.486	17250
580.542	12598
580.598	12798
580.619	12444
580.654	11833
580.692	11622
580.710	11536
580.765	10862
580.767	10846
580.823	13386
580.838	13133
580.879	12469
580.911	11844
580.935	11407
580.984	10973
580.991	10921
581.047	11981
581.057	11997
581.103	12105
581.130	12056
581.159	12014
581.203	11599
581.215	11499
581.270	13187
581.276	13132
581.326	12646
581.349	12735
581.382	12871
581.422	12262
581.438	12010
581.494	13339
581.494	13330
581.550	12769
581.567	13053
581.606	13697
581.640	13028
581.661	12597
581.713	13259
581.717	13315
581.773	12494
581.786	12572
581.829	12850
581.859	12406
581.885	12045
581.932	13671
581.940	13980
581.996	12647
582.004	12723
582.052	12921
582.077	12558
582.107	12262
582.150	12532
582.163	12606
582.219	13087
582.223	13108
582.274	13489
582.296	13599
582.330	13652
582.368	14238
582.386	14520
582.441	12028
582.441	12024
582.497	12895
582.514	12694
582.552	12274
582.587	12641
582.608	12876
582.659	12399
582.663	12358
582.719	12572
582.732	12496
582.774	12428
582.805	13136
582.830	13635
582.877	13778
582.885	13796
582.941	12652
582.950	12592
582.996	12359
583.023	12834
583.052	13454
583.095	13992
583.107	14111
583.162	14480
583.168	14413
583.218	13614
583.240	13871
583.273	14207
583.313	13164
583.328	12845
583.384	13554
583.385	13554
583.439	13464
583.458	13768
583.494	14198
583.531	13059
583.549	12577
583.603	13489
583.605	13514
583.660	13515
583.676	13482
583.715	13453
583.748	14105
583.770	14676
583.820	14610
583.825	14546
583.881	14385
583.893	14266
583.936	14064
583.965	14029
583.991	13958
584.038	14351
584.046	14491
584.101	14643
584.110	14657
584.156	14302
584.183	14036
584.211	13813
584.255	14284
584.266	14370
584.321	13612
584.328	13615
584.376	14137
584.400	14181
584.431	13994
584.472	14189
584.486	14345
584.541	14363
584.545	14347
584.596	14158
584.617	14440
584.651	15202
584.689	16038
584.706	16235
584.761	16408
584.762	16399
584.816	15898
584.834	15688
584.871	15651
584.906	15999
584.926	16127
584.978	15960
584.980	15978
585.035	17221
585.051	17623
585.090	18614
585.123	19457
585.145	20016
585.195	20286
585.200	20359
585.254	21544
585.267	21952
585.309	23331
585.340	24727
585.364	25968
585.412	27708
585.419	27891
585.473	29752
585.484	30258
585.528	34928
585.556	39279
585.583	48427
585.628	68888
585.637	78321
585.692	153952
585.700	169184
585.747	235827
585.772	220995
585.801	149662
585.845	56489
585.856	46206
585.910	28622
585.917	26817
585.965	24757
585.989	23951
586.019	23360
586.061	22782
586.074	22750
586.128	22704
586.133	22742
586.183	24389
586.205	25135
586.237	26294
586.277	26992
586.292	26800
586.346	25741
586.349	25692
586.401	25645
586.421	25844
586.455	27717
586.493	29797
586.509	32931
586.564	46247
586.565	46697
586.618	80043
586.637	86525
586.672	71950
586.709	47470
586.727	39152
586.781	28710
586.781	28733
586.835	25525
586.853	25014
586.889	24695
586.925	23577
586.944	23343
586.996	24787
586.998	24858
587.052	25193
587.068	25221
587.106	25374
587.140	25567
587.161	25789
587.212	26197
587.215	26282
587.269	27330
587.284	27630
587.323	27810
587.356	27813
587.377	28043
587.427	28402
587.431	28466
587.485	28609
587.499	28629
587.539	29002
587.571	29591
587.593	30252
587.643	31304
587.648	31463
587.702	32780
587.715	33134
587.755	34404
587.786	35017
587.810	35126
587.858	35043
587.864	35227
587.917	36633
587.930	37043
587.971	40077
588.001	42253
588.025	43224
588.073	44117
588.079	44251
588.133	45324
588.145	45503
588.187	48007
588.217	50133
588.241	52684
588.288	57768
588.295	58729
588.348	66475
588.360	68290
588.402	75644
588.431	80240
588.456	85462
588.503	97403
588.510	99535
588.564	116375
588.575	120195
588.617	138048
588.646	151546
588.671	168415
588.718	203417
588.725	213791
588.778	302239
588.789	323191
588.832	500739
588.861	635771
588.886	822044
588.932	1203961
588.939	1229714
588.993	1329970
589.004	1333479
589.047	1053308
589.075	832771
589.100	648370
589.147	345824
589.154	330082
589.207	236232
589.218	218722
589.261	203166
589.290	195213
589.314	202673
589.361	221827
589.368	232301
589.421	324958
589.433	348106
589.475	568822
589.504	740016
589.528	906336
589.576	1215978
589.582	1196014
589.635	895327
589.647	820017
589.689	484553
589.718	273279
589.742	222082
589.790	137016
589.795	134663
589.849	115868
589.861	112309
589.902	115634
589.932	116349
589.955	102245
590.004	69214
590.009	68160
590.062	59362
590.075	57108
590.115	53900
590.146	51338
590.168	50690
590.218	49018
590.222	49090
590.275	48952
590.289	48829
590.328	49168
590.360	49003
590.381	47714
590.431	44156
590.435	44251
590.488	44489
590.503	44499
590.541	44290
590.574	43867
590.594	43766
590.645	43077
590.647	43136
590.700	41880
590.716	41358
590.753	40152
590.787	39114
590.806	39583
590.859	40408
590.859	40497
590.912	39665
590.930	39420
590.965	40374
591.001	40795
591.018	40594
591.071	40035
591.072	39927
591.124	40794
591.143	41039
591.177	40709
591.214	40015
591.230	40510
591.283	42111
591.285	42062
591.336	44511
591.356	45364
591.389	45227
591.427	44540
591.442	43842
591.495	40924
591.498	40607
591.547	40416
591.569	40180
591.600	40693
591.640	41140
591.653	41311
591.706	41475
591.711	41397
591.759	44289
591.782	45604
591.811	49141
591.853	54112
591.864	52743
591.917	44569
591.924	43283
591.969	43092
591.995	42918
592.022	43404
592.066	43846
592.075	45099
592.127	52085
592.137	53268
592.180	61656
592.208	66787
592.233	60538
592.279	47814
592.285	47465
592.338	43706
592.350	42728
592.390	42710
592.421	42521
592.443	42761
592.491	42876
592.495	43016
592.548	43289
592.562	43246
592.600	43284
592.633	43090
592.653	42766
592.704	41385
592.705	41663
592.775	43754
592.846	44281
592.916	45534
592.987	48861
593.058	46754
593.128	43282
593.199	41519
593.270	41804
593.341	42248
593.411	43869
593.482	44583
593.553	42429
593.623	41683
593.694	44618
593.764	50396
593.835	44573
593.906	43033
593.976	43672
594.047	46877
594.117	56538
594.188	62308
594.258	45261
594.329	43815
594.399	45387
594.470	43246
594.540	43797
594.611	44518
594.681	44414
594.751	46137
594.822	47560
594.892	49275
594.963	51062
595.033	50186
595.103	52591
595.174	59217
595.244	80671
595.314	112040
595.384	60940
595.455	52752
595.525	54490
595.595	55127
595.665	54781
595.736	54327
595.806	54142
595.876	54596
595.946	53457
596.016	52540
596.087	55990
596.157	55722
596.227	55664
596.297	58827
596.367	61368
596.437	68782
596.507	86645
596.577	112937
596.647	72886
596.717	64150
596.787	63669
596.857	64558
596.927	64037
596.997	63584
597.067	64510
597.137	65766
597.207	66143
597.277	65058
597.347	65183
597.417	63564
597.487	64978
597.557	66003
597.626	67702
597.696	71924
597.766	83128
597.836	107684
597.906	76068
597.975	61777
598.045	60020
598.115	61392
598.185	64172
598.254	70134
598.324	75924
598.394	75739
598.464	76501
598.533	72504
598.603	67892
598.672	67194
598.742	68727
598.812	67315
598.881	69295
598.951	66736
599.020	66630
599.090	66681
599.159	68440
599.229	66827
599.299	64411
599.368	66967
599.437	67320
599.507	63832
599.576	65648
599.646	62479
599.715	62405
599.785	62141
599.854	66834
599.924	71976
599.993	67919
600.062	61691
600.132	60665
600.201	65068
600.270	73883
600.340	75338
600.409	70339
600.478	69866
600.547	71075
600.617	69399
600.686	61460
600.755	57190
600.824	57454
600.894	55478
600.963	52637
601.032	51662
601.101	51711
601.170	50322
601.239	50715
601.308	54712
601.378	53089
601.447	49530
601.516	48610
601.585	50972
601.654	58011
601.723	53828
601.792	50980
601.861	52070
601.930	56297
601.999	59132
602.068	55423
602.137	61527
602.206	60858
602.275	55798
602.343	62491
602.412	64861
602.481	55673
602.550	52645
602.619	54723
602.688	56660
602.756	55961
602.825	54966
602.894	55203
602.963	56970
603.032	57686
603.100	55386
603.169	55765
603.238	57247
603.307	56276
603.375	56002
603.444	56853
603.513	58527
603.581	58819
603.650	58377
603.719	57692
603.787	57506
603.856	61164
603.924	63170
603.993	65347
604.061	64635
604.130	67042
604.198	69088
604.267	69396
604.335	67848
604.404	68195
604.472	69024
604.541	70264
604.609	71378
604.678	69535
604.746	71256
604.815	73666
604.883	74652
604.951	73332
605.020	72722
605.088	77647
605.156	76695
605.225	77319
605.293	76644
605.361	77849
605.429	77237
605.498	80107
605.566	84774
605.634	85090
605.702	87930
605.771	91027
605.839	91573
605.907	88983
605.975	85463
606.043	83256
606.111	83532
606.180	82579
606.248	83735
606.316	85152
606.384	86036
606.452	98382
606.520	101839
606.588	93899
606.656	86022
606.724	85969
606.792	81390
606.860	74676
606.928	67525
606.996	65643
607.064	63710
607.132	67139
607.200	69010
607.267	71807
607.335	72394
607.403	72015
607.471	72469
607.539	70385
607.607	70972
607.674	64174
607.742	64468
607.810	66744
607.878	65826
607.946	64779
608.013	67236
608.081	69385
608.149	70271
608.216	69236
608.284	71842
608.352	72896
608.419	75763
608.487	92443
608.555	80973
608.622	70594
608.690	72896
608.757	80651
608.825	83438
608.893	83003
608.960	86199
609.028	92633
609.095	103878
609.163	82825
609.230	71650
609.298	66398
609.365	63633
609.432	68193
609.500	73317
609.567	83043
609.635	93359
609.702	99404
609.769	97674
609.837	85739
609.904	72006
609.971	68171
610.039	77714
610.106	97427
610.173	184672
610.241	441186
610.308	304589
610.375	104087
610.442	75153
610.509	68573
610.577	68354
610.644	70204
610.711	71048
610.778	71444
610.845	74975
610.912	78305
610.980	80636
611.047	83050
611.114	83513
611.181	79307
611.248	76770
611.315	81318
611.382	82049
611.449	83973
611.516	86558
611.583	86665
611.650	88578
611.717	88946
611.784	89955
611.851	94103
611.918	104000
611.984	122012
612.051	172322
612.118	359557
612.185	923904
612.252	700060
612.319	151920
612.386	113781
612.452	105569
612.519	104971
612.586	122031
612.653	110971
612.719	100117
612.786	97447
612.853	87813
612.919	87823
612.986	88013
613.053	84868
613.120	79732
613.186	76252
613.253	77449
613.319	77305
613.386	79141
613.453	80851
613.519	85774
613.586	92209
613.652	114745
613.719	101520
613.785	97144
613.852	81951
613.918	78488
613.985	80193
614.051	84483
614.118	95234
614.184	95387
614.250	78430
614.317	79475
614.383	78290
614.449	79397
614.516	79619
614.582	83584
614.648	81367
614.715	77290
614.781	78533
614.847	78926
614.914	81302
614.980	79252
615.046	76276
615.112	75313
615.179	77454
615.245	78548
615.311	79346
615.377	83943
615.443	87171
615.509	83055
615.575	84324
615.642	84485
615.708	88319
615.774	92228
615.840	100281
615.906	110912
615.972	136420
616.038	212561
616.104	449738
616.170	1112474
616.236	1153325
616.302	238684
616.368	157510
616.434	116516
616.500	105570
616.565	113950
616.631	143084
616.697	117969
616.763	117807
616.829	170046
616.895	310599
616.961	318038
617.026	137941
617.092	93371
617.158	87044
617.224	85699
617.289	82384
617.355	79490
617.421	80816
617.487	81065
617.552	75348
617.618	74289
617.684	73028
617.749	75251
617.815	71782
617.880	68054
617.946	69986
618.012	71569
618.077	71702
618.143	69654
618.208	70085
618.274	74565
618.339	77744
618.405	66648
618.470	67295
618.536	68895
618.601	73286
618.667	69141
618.732	62839
618.798	61747
618.863	62151
618.928	60564
618.994	64782
619.059	68324
619.124	85065
619.190	71670
619.255	61285
619.320	62165
619.386	61437
619.451	59330
619.516	58424
619.581	58055
619.647	61016
619.712	60320
619.777	59812
619.842	60572
619.907	62916
619.972	61332
620.038	63498
620.103	58931
620.168	58606
620.233	57434
620.298	59570
620.363	59254
620.428	60171
620.493	61364
620.558	61797
620.623	60659
620.688	60935
620.753	60005
620.818	63445
620.883	62280
620.948	62593
621.013	61055
621.078	63178
621.143	62367
621.207	67317
621.272	67763
621.337	69424
621.402	71429
621.467	85702
621.532	91436
621.596	74566
621.661	69293
621.726	64453
621.791	66325
621.855	67265
621.920	71411
621.985	74539
622.049	84667
622.114	79721
622.179	71049
622.243	73946
622.308	73810
622.373	75406
622.437	74171
622.502	70258
622.566	69721
622.631	71532
622.695	71804
622.760	71863
622.824	69251
622.889	70519
622.953	77193
623.018	96349
623.082	99668
623.147	74991
623.211	71610
623.276	72052
623.340	67979
623.404	64634
623.469	65819
623.533	66600
623.597	65153
623.662	64043
623.726	62310
623.790	60989
623.854	60514
623.919	61580
623.983	61148
624.047	62261
624.111	60193
624.176	62280
624.240	65066
624.304	71893
624.368	62207
624.432	60442
624.496	63600
624.560	68422
624.625	74606
624.689	65170
624.753	65509
624.817	64592
624.881	62574
624.945	58403
625.009	56276
625.073	57906
625.137	63243
625.201	72804
625.265	75386
625.329	60322
625.393	63732
625.456	63699
625.520	64070
625.584	70318
625.648	82630
625.712	117528
625.776	249474
625.839	305040
625.903	139836
625.967	70303
626.031	101265
626.095	178314
626.158	82096
626.222	50000
626.286	48409
626.349	46684
626.413	44215
626.477	49636
626.540	44405
626.604	44446
626.668	44803
626.731	43829
626.795	46397
626.858	47269
626.922	44523
626.986	43604
627.049	41146
627.113	43368
627.176	41377
627.240	42172
627.303	41609
627.366	42151
627.430	43390
627.493	41898
627.557	44132
627.620	42489
627.684	43448
627.747	44340
627.810	41366
627.874	39387
627.937	37074
628.000	41615
628.064	41084
628.127	35244
628.190	36556
628.253	36790
628.317	35241
628.380	34555
628.443	34744
628.506	36131
628.569	33998
628.632	30560
628.696	32704
628.759	32754
628.822	30625
628.885	31279
628.948	30038
629.011	31331
629.074	31507
629.137	29378
629.200	29860
629.263	33035
629.326	28819
629.389	28999
629.452	29760
629.515	32022
629.578	29908
629.641	32004
629.704	30704
629.767	32203
629.830	28503
629.892	28974
629.955	28504
630.018	30096
630.081	32958
630.144	40032
630.207	32688
630.269	33979
630.332	34999
630.395	32336
630.458	27199
630.520	26982
630.583	26082
630.646	25028
630.708	26198
630.771	25871
630.834	26574
630.896	25893
630.959	25378
631.021	26452
631.084	27387
631.146	28339
631.209	36374
631.272	27850
631.334	26512
631.397	25753
631.459	25435
631.522	28852
631.584	27805
631.646	28929
631.709	30160
631.771	38718
631.834	32015
631.896	27155
631.958	23855
632.021	25437
632.083	23971
632.145	26035
632.208	25015
632.270	26261
632.332	23402
632.395	23642
632.457	26269
632.519	23467
632.581	23585
632.643	23649
632.706	23434
632.768	22341
632.830	23058
632.892	23178
632.954	23891
633.016	25014
633.078	22897
633.141	22585
633.203	23247
633.265	23697
633.327	21742
633.389	23234
633.451	25263
633.513	31688
633.575	31693
633.637	31336
633.698	29156
633.760	24265
633.822	24155
633.884	24273
633.946	23370
634.008	24802
634.070	24258
634.132	25752
634.193	26786
634.255	28364
634.317	28037
634.379	29492
634.441	26252
634.502	25186
634.564	23026
634.626	22838
634.687	21904
634.749	21627
634.811	21619
634.873	19436
634.934	21192
634.996	21597
635.057	20913
635.119	21446
635.181	22178
635.242	22741
635.304	20718
635.365	22735
635.427	21330
635.488	22424
635.550	20273
635.611	21516
635.673	20746
635.734	23958
635.796	23231
635.857	26779
635.918	25023
635.980	26746
636.041	28439
636.102	29745
636.164	30284
636.225	28312
636.286	27120
636.348	24542
636.409	21156
636.470	21304
636.531	22074
636.593	25920
636.654	25297
636.715	19865
636.776	18612
636.838	18050
636.899	19325
636.960	19242
637.021	17953
637.082	18893
637.143	18660
637.204	17453
637.265	17270
637.326	17405
637.387	17099
637.448	16398
637.509	18807
637.570	18007
637.631	16584
637.692	16142
637.753	15635
637.814	17206
637.875	16147
637.936	17288
637.997	16578
638.058	17611
638.119	18379
638.179	17251
638.240	16417
638.301	17316
638.362	15888
638.423	17324
638.483	17185
638.544	15572
638.605	15794
638.666	15667
638.726	16015
638.787	16212
638.848	15453
638.908	15596
638.969	15799
639.030	15221
639.090	14627
639.151	15550
639.211	17732
639.272	21727
639.332	34705
639.393	24272
639.453	15868
639.514	17121
639.574	14985
639.635	14367
639.695	15706
639.756	15217
639.816	16726
639.877	19392
639.937	30261
639.997	43214
640.058	19428
640.118	15322
640.178	14589
640.239	14019
640.299	13666
640.359	13268
640.420	14082
640.480	15589
640.540	16198
640.600	17158
640.661	15244
640.721	16516
640.781	20802
640.841	15444
640.901	15028
640.961	14907
641.021	15848
641.082	17880
641.142	26474
641.202	19400
641.262	12397
641.322	14282
641.382	12871
641.442	13589
641.502	13850
641.562	14315
641.622	12685
641.682	14545
641.742	14948
641.802	15917
641.861	15701
641.921	16378
641.981	18114
642.041	17880
642.101	21081
642.161	16986
642.221	12775
642.280	12445
642.340	12493
642.400	12336
642.460	13392
642.519	13250
642.579	13156
642.639	13438
642.698	12374
642.758	15248
642.818	13177
642.877	13444
642.937	14609
642.997	16601
643.056	23158
643.116	16706
643.175	14319
643.235	12532
643.294	13280
643.354	14367
643.414	14104
643.473	16854
643.532	18644
643.592	26802
643.651	38732
643.711	67129
643.770	130840
643.830	305311
643.889	786819
643.948	238712
644.008	34603
644.067	22464
644.126	16748
644.186	16100
644.245	15194
644.304	12232
644.363	14527
644.423	11905
644.482	13565
644.541	13918
644.600	11803
644.659	16582
644.719	18033
644.778	26222
644.837	37560
644.896	71144
644.955	177947
645.014	81261
645.073	18831
645.132	15437
645.191	15267
645.250	13358
645.309	14327
645.368	14137
645.427	16873
645.486	22537
645.545	41151
645.604	17028
645.663	12752
645.722	12883
645.781	13732
645.840	14947
645.898	17027
645.957	25029
646.016	34674
646.075	62879
646.134	123573
646.192	307981
646.251	588030
646.310	105547
646.369	24174
646.427	19174
646.486	16127
646.545	14613
646.603	13481
646.662	11296
646.721	11734
646.779	11664
646.838	11551
646.896	14777
646.955	16434
647.014	23882
647.072	39717
647.131	105715
647.189	70673
647.248	13195
647.306	11570
647.365	11436
647.423	8995
647.481	11417
647.540	8930
647.598	10054
647.657	9290
647.715	10400
647.773	8989
647.832	9739
647.890	9110
647.948	9719
648.007	10132
648.065	8747
648.123	9084
648.181	10995
648.240	9541
648.298	9117
648.356	8763
648.414	10115
648.472	10152
648.531	10824
648.589	9360
648.647	9275
648.705	8679
648.763	9269
648.821	9437
648.879	9123
648.937	10742
648.995	13356
649.053	12916
649.111	19829
649.169	31007
649.227	51192
649.285	97150
649.343	299495
649.401	199028
649.459	51735
649.516	35143
649.574	15453
649.632	19431
649.690	22130
649.748	18704
649.806	17919
649.863	30810
649.921	72221
649.979	65054
650.037	14141
650.094	8475
650.152	9788
650.210	8156
650.268	8859
650.325	8182
650.383	9101
650.440	7456
650.498	8442
650.556	9010
650.613	8074
650.671	7903
650.728	8909
650.786	10805
650.843	9699
650.901	7491
650.958	8453
651.016	7294
651.073	7758
651.131	7391
651.188	7727
651.246	8808
651.303	6315
651.360	7357
651.418	7978
651.475	7376
651.532	6146
651.590	7845
651.647	6457
651.704	7452
651.762	7816
651.819	7874
651.876	7704
651.933	7886
651.990	7305
652.048	5802
652.105	6600
652.162	7863
652.219	7172
652.276	7150
652.333	6449
652.390	6089
652.448	6679
652.505	7261
652.562	6966
652.619	6437
652.676	7634
652.733	8094
652.790	6791
652.847	5356
652.904	6883
652.961	5371
653.017	5261
653.074	7174
653.131	6924
653.188	4769
653.245	6235
653.302	6597
653.359	6642
653.415	7475
653.472	6694
653.529	6627
653.586	5754
653.642	6482
653.699	6313
653.756	5249
653.813	5589
653.869	6557
653.926	5075
653.983	5301
654.039	6028
654.096	6345
654.152	6911
654.209	5947
654.266	7209
654.322	6700
654.379	8601
654.435	8481
654.492	10237
654.548	12324
654.605	23861
654.661	12391
654.717	7535
654.774	8574
654.830	7834
654.887	7137
654.943	7160
655.000	8064
655.056	6497
655.112	7559
655.168	7090
655.225	7565
655.281	9517
655.337	12023
655.394	23990
655.450	17710
655.506	14316
655.562	22262
655.618	20746
655.675	6655
655.731	6659
655.787	6806
655.843	7880
655.899	6057
655.955	6875
656.011	6420
656.067	4926
656.123	6813
656.179	7130
656.235	7848
656.291	5888
656.347	8188
656.403	7322
656.459	7757
656.515	9598
656.571	9900
656.627	7855
656.683	6892
656.739	7391
656.795	7479
656.850	7966
656.906	9052
656.962	8123
657.018	5965
657.074	6959
657.129	7203
657.185	9379
657.241	13131
657.297	9985
657.352	7125
657.408	5694
657.464	8503
657.519	8403
657.575	5229
657.630	6526
657.686	5762
657.742	6036
657.797	5117
657.853	7474
657.908	7323
657.964	5219
658.019	6155
658.075	6826
658.130	6740
658.186	5182
658.241	5560
658.297	5215
658.352	5799
658.407	6700
658.463	6331
658.518	6056
658.573	6071
658.629	4921
658.684	4761
658.739	5890
658.795	4192
658.850	5801
658.905	5404
658.960	5831
659.016	5224
659.071	5838
659.126	6604
659.181	7228
659.236	11350
659.291	13313
659.346	9052
659.401	7915
659.457	6199
659.512	6355
659.567	6964
659.622	6588
659.677	5835
659.732	5935
659.787	7460
659.842	8428
659.897	10990
659.952	8261
660.007	6462
660.061	6606
660.116	6055
660.171	5479
660.226	6132
660.281	6922
660.336	6040
660.391	6126
660.445	5335
660.500	6019
660.555	6133
660.610	6213
660.664	5833
660.719	5935
660.774	6160
660.828	6717
660.883	5783
660.938	6139
660.992	4747
661.047	5911
661.101	4996
661.156	6119
661.211	5385
661.265	5572
661.320	5303
661.374	5659
661.429	5033
661.483	6409
661.538	4682
661.592	4948
661.647	6668
661.701	5563
661.755	5714
661.810	6750
661.864	4695
661.919	5884
661.973	6148
662.027	5788
662.081	4663
662.136	6033
662.190	6567
662.244	6800
662.299	6838
662.353	6086
662.407	5979
662.461	5990
662.515	6223
662.569	6080
662.624	7124
662.678	6156
662.732	6260
662.786	5909
662.840	7056
662.894	6799
662.948	5475
663.002	5494
663.056	5589
663.110	5044
663.164	5413
663.218	5877
663.272	5848
663.326	7401
663.380	7450
663.434	6585
663.488	6240
663.542	5779
663.595	6520
663.649	6054
663.703	6442
663.757	6797
663.811	5023
663.864	6211
663.918	6297
663.972	6059
664.026	5533
664.079	5415
664.133	6365
664.187	6088
664.240	5515
664.294	5217
664.348	5952
664.401	6408
664.455	5381
664.508	6210
664.562	5794
664.615	6255
664.669	5084
664.722	6223
664.776	5528
664.829	5350
664.883	6020
664.936	5939
664.990	6418
665.043	6623
665.097	7427
665.150	8378
665.203	6693
665.257	6814
665.310	7087
665.363	6455
665.417	7063
665.470	7522
665.523	6835
665.576	7023
665.630	6907
665.683	6450
665.736	6621
665.789	7036
665.842	5737
665.895	7011
665.949	6722
666.002	6618
666.055	6374
666.108	7991
666.161	6861
666.214	7877
666.267	7759
666.320	8480
666.373	7507
666.426	7013
666.479	7046
666.532	8906
666.585	10150
666.638	11919
666.691	10113
666.744	11062
666.796	11046
666.849	10235
666.902	7661
666.955	7433
667.008	5808
667.060	5602
667.113	5703
667.166	5939
667.219	6238
667.271	7019
667.324	5890
667.377	6263
667.430	6131
667.482	6407
667.535	6797
667.587	7714
667.640	7839
667.693	9475
667.745	12896
667.798	15991
667.850	8146
667.903	6794
667.955	6728
668.008	7328
668.060	8754
668.113	8019
668.165	8926
668.218	8619
668.270	7969
668.322	7777
668.375	7207
668.427	7654
668.479	6218
668.532	7935
668.584	8363
668.636	6953
668.689	7247
668.741	8033
668.793	6923
668.845	6912
668.898	7729
668.950	6758
669.002	8032
669.054	7052
669.106	7304
669.158	8042
669.211	7189
669.263	7257
669.315	8231
669.367	7127
669.419	7231
669.471	8549
669.523	7863
669.575	8901
669.627	8732
669.679	7300
669.731	6942
669.783	7977
669.835	7769
669.886	7722
669.938	6995
669.990	7315
670.042	5885
670.094	6707
670.146	7149
670.197	7687
670.249	8621
670.301	8114
670.353	8442
670.404	10559
670.456	12106
670.508	16930
670.560	24233
670.611	40572
670.663	66695
670.715	143640
670.766	283478
670.818	96213
670.869	17544
670.921	11289
670.972	8648
671.024	8486
671.075	8125
671.127	7896
671.178	6998
671.230	7554
671.281	7951
671.333	7330
671.384	8663
671.436	10343
671.487	10416
671.538	11938
671.590	14437
671.641	20910
671.692	29399
671.744	55060
671.795	40710
671.846	15291
671.897	10827
671.949	10458
672.000	8701
672.051	8169
672.102	9238
672.153	7508
672.204	7099
672.256	7640
672.307	7229
672.358	8205
672.409	8950
672.460	7254
672.511	6530
672.562	7166
672.613	7501
672.664	7303
672.715	7621
672.766	7054
672.817	6664
672.868	6841
672.919	7011
672.970	6602
673.021	6996
673.071	6646
673.122	6515
673.173	7330
673.224	6063
673.275	6891
673.326	6843
673.376	6770
673.427	5828
673.478	6040
673.528	6341
673.579	6445
673.630	6376
673.680	6976
673.731	6530
673.782	5757
673.832	7324
673.883	7431
673.934	6188
673.984	7206
674.035	6546
674.085	7602
674.136	7794
674.186	8031
674.237	9498
674.287	16706
674.338	10292
674.388	7282
674.438	6782
674.489	6419
674.539	7268
674.589	6855
674.640	7488
674.690	6191
674.740	7535
674.791	8503
674.841	7440
674.891	8409
674.942	7097
674.992	6769
675.042	5444
675.092	5280
675.142	7024
675.193	6490
675.243	5389
675.293	6955
675.343	6281
675.393	6958
675.443	6368
675.493	5500
675.543	5391
675.593	6759
675.643	6481
675.693	6575
675.743	5914
675.793	7179
675.843	5249
675.893	5367
675.943	5734
675.993	5750
676.043	6453
676.093	6121
676.142	5888
676.192	5625
676.242	5478
676.292	4668
676.341	5960
676.391	6293
676.441	5704
676.491	5905
676.540	4284
676.590	5599
676.640	5216
676.689	5089
676.739	4634
676.789	4110
676.838	5440
676.888	5658
676.937	5663
676.987	5619
677.037	5058
677.086	4935
677.136	4977
677.185	5807
677.235	4163
677.284	4174
677.333	4878
677.383	5884
677.432	4334
677.482	4761
677.531	4641
677.580	5119
677.630	5066
677.679	3703
677.728	4798
677.778	4661
677.827	5142
677.876	4512
677.925	4572
677.975	4682
678.024	5100
678.073	4743
678.122	5535
678.171	5746
678.220	5383
678.269	6311
678.319	6585
678.368	6033
678.417	5606
678.466	6677
678.515	6763
678.564	5451
678.613	6154
678.662	5531
678.711	5558
678.760	4932
678.809	5506
678.857	5301
678.906	5362
678.955	5270
679.004	5404
679.053	5840
679.102	4887
679.151	5955
679.199	4100
679.248	4992
679.297	5667
679.346	6004
679.394	5686
679.443	5528
679.492	4848
679.540	5790
679.589	5195
679.638	4883
679.686	5026
679.735	5080
679.784	4754
679.832	5948
679.881	4992
679.929	5597
679.978	3943
680.026	4232
680.075	4820
680.123	4808
680.172	4852
680.220	3715
680.268	5061
680.317	3969
680.365	3139
680.414	4480
680.462	4361
680.510	4461
680.559	3983
680.607	3464
680.655	4852
680.703	4607
680.752	4777
680.800	3905
680.848	3898
680.896	4490
680.945	3797
680.993	4455
681.041	4532
681.089	4140
681.137	4100
681.185	3569
681.233	4651
681.258	4264
681.281	3865
681.329	3650
681.377	3709
681.380	3790
681.425	4670
681.473	4584
681.502	4593
681.521	4536
681.569	5140
681.617	4590
681.624	4703
681.665	5167
681.713	5033
681.745	5142
681.761	5145
681.809	4796
681.857	5566
681.867	5321
681.904	4354
681.952	5212
681.989	5102
682.000	5022
682.048	4847
682.096	4809
682.111	4971
682.143	5191
682.191	5203
682.233	5409
682.239	5410
682.286	5649
682.334	5154
682.354	5260
682.382	5325
682.430	5858
682.476	5508
682.477	5472
682.525	5227
682.572	5266
682.598	5257
682.620	5202
682.667	5116
682.715	6052
682.720	6095
682.763	6254
682.810	5781
682.841	5757
682.857	5673
682.905	5722
682.952	5618
682.963	5904
683.000	6781
683.047	5899
683.085	6778
683.095	6984
683.142	5574
683.190	5795
683.206	5827
683.237	5857
683.284	6442
683.328	6585
683.332	6566
683.379	6186
683.426	6588
683.449	6314
683.473	6014
683.521	6768
683.568	6457
683.571	6483
683.615	6519
683.662	7025
683.693	7000
683.709	6929
683.757	6275
683.804	6591
683.814	6629
683.851	6747
683.898	6964
683.936	7282
683.945	7334
683.992	7041
684.039	8110
684.057	8358
684.086	8771
684.133	8091
684.179	7759
684.180	7713
684.227	8561
684.274	8540
684.300	8791
684.321	9048
684.368	8260
684.415	8466
684.422	8310
684.462	6828
684.509	8043
684.543	7630
684.556	7562
684.603	7062
684.649	7383
684.665	7499
684.696	7827
684.743	7803
684.786	8866
684.790	8943
684.837	8516
684.883	9380
684.908	9573
684.930	9607
684.977	10446
685.023	9976
685.029	10024
685.070	9973
685.117	8600
685.150	8899
685.164	9142
685.210	9722
685.257	11023
685.272	10985
685.303	10736
685.350	9960
685.393	10813
685.396	10878
685.443	11039
685.490	11913
685.514	11842
685.536	11594
685.583	10910
685.629	11566
685.636	11502
685.675	10942
685.722	10737
685.757	11135
685.768	11334
685.815	11577
685.861	11558
685.878	11469
685.908	11228
685.954	11603
686.000	11815
686.000	11829
686.047	13802
686.093	15675
686.121	16645
686.139	16426
686.185	14519
686.232	13524
686.242	13366
686.278	12551
686.324	11647
686.363	10419
686.370	10347
686.416	10047
686.463	10615
686.484	10485
686.509	10367
686.555	10560
686.601	10256
686.606	10314
686.647	10714
686.693	10355
686.727	10447
686.739	10502
686.785	9880
686.831	10849
686.848	10750
686.877	10419
686.923	10202
686.969	9716
686.969	9714
687.015	10262
687.061	10512
687.090	10729
687.107	10727
687.153	10413
687.199	10755
687.211	10546
687.245	10349
687.291	11708
687.332	11958
687.336	11973
687.382	13041
687.428	12595
687.453	12622
687.474	12200
687.520	11631
687.565	10729
687.574	10546
687.611	10458
687.657	10713
687.695	10618
687.702	10646
687.748	11574
687.794	11866
687.816	11851
687.839	11520
687.885	11132
687.931	10972
687.937	10889
687.976	10647
688.022	10901
688.058	11228
688.067	11343
688.113	11283
688.158	11269
688.179	11513
688.204	11774
688.249	11254
688.295	11260
688.300	11342
688.340	12250
688.386	12943
688.421	12344
688.431	12099
688.477	12519
688.522	12104
688.542	12325
688.567	12584
688.613	12025
688.658	12041
688.663	12014
688.703	11913
688.749	11971
688.784	12045
688.794	12099
688.839	11903
688.884	12094
688.905	11962
688.930	11785
688.975	11376
689.020	11851
689.026	11868
689.065	12361
689.110	12218
689.146	12633
689.155	12628
689.201	12112
689.246	11850
689.267	11650
689.291	11702
689.336	12249
689.381	12358
689.388	12377
689.426	12449
689.471	12432
689.509	12398
689.516	12385
689.561	12043
689.606	11838
689.630	12050
689.651	12368
689.696	11959
689.741	12444
689.750	12364
689.785	12050
689.830	12509
689.871	12284
689.875	12259
689.920	12184
689.965	11750
689.992	11676
690.010	11779
690.054	11407
690.099	12322
690.112	12317
690.144	12248
690.189	11853
690.233	12080
690.233	12097
690.278	12283
690.323	12102
690.354	12163
690.367	12210
690.412	12254
690.457	12171
690.474	12346
690.501	12576
690.546	12184
690.590	11779
690.595	11774
690.635	12043
690.680	12059
690.716	12080
690.724	12128
690.769	12403
690.813	12764
690.836	12595
690.857	12355
690.902	12247
690.946	12019
690.957	12029
690.991	12805
691.035	13635
691.077	14186
691.080	14222
691.124	14779
691.168	15483
691.198	15561
691.213	15569
691.257	16271
691.301	16154
691.318	16199
691.346	15615
691.390	14583
691.434	13689
691.439	13540
691.478	13339
691.522	13619
691.559	13400
691.567	13472
691.611	14202
691.655	14650
691.680	14950
691.699	14911
691.743	14656
691.787	14217
691.800	14086
691.831	13982
691.875	14121
691.919	14210
691.921	14189
691.964	15053
692.008	15626
692.041	16190
692.052	16212
692.096	15816
692.139	16080
692.162	15915
692.183	15726
692.227	15504
692.271	15303
692.282	15196
692.315	15323
692.359	15647
692.402	15625
692.403	15650
692.447	15438
692.490	15109
692.523	14699
692.534	14842
692.578	15486
692.622	16606
692.643	16807
692.666	16370
692.709	15516
692.753	14749
692.763	14532
692.797	14353
692.840	14260
692.884	13971
692.884	14000
692.928	14347
692.971	14482
693.004	14667
693.015	14832
693.059	15088
693.102	15453
693.124	15665
693.146	15727
693.189	15588
693.233	15759
693.245	15708
693.276	16165
693.320	16691
693.363	17298
693.365	17294
693.407	17250
693.450	16673
693.485	16399
693.493	16546
693.537	17373
693.580	17907
693.605	18130
693.624	17830
693.667	17181
693.710	16358
693.725	16147
693.753	17034
693.797	18237
693.840	19445
693.845	19536
693.883	19299
693.926	18925
693.966	18735
693.970	18667
694.013	17669
694.056	16402
694.086	15371
694.099	15426
694.142	15843
694.185	16144
694.206	16346
694.229	16779
694.272	17069
694.315	17923
694.326	17998
694.358	18136
694.401	18380
694.444	18623
694.446	18600
694.487	18694
694.530	18332
694.566	18473
694.573	18368
694.616	16921
694.659	15784
694.686	15108
694.702	15123
694.745	14831
694.787	14387
694.806	14331
694.830	14611
694.873	14572
694.916	15182
694.926	15168
694.959	14731
695.002	14212
695.044	13884
695.046	13837
695.087	14524
695.130	14954
695.166	15592
695.172	15657
695.215	15443
695.258	15534
695.286	15476
695.301	15508
695.343	15587
695.386	15633
695.406	15588
695.428	15237
695.471	14436
695.514	13712
695.526	13469
695.556	13882
695.599	14719
695.641	15135
695.646	15167
695.684	15158
695.726	14927
695.766	14769
695.769	14801
695.811	14921
695.854	14900
695.886	14802
695.896	14832
695.938	14744
695.981	14666
696.005	14713
696.023	14846
696.065	14888
696.108	15014
696.125	15034
696.150	15297
696.192	15723
696.235	15964
696.245	16013
696.277	15547
696.319	14826
696.361	14196
696.365	14106
696.404	14380
696.446	14532
696.485	14572
696.488	14628
696.530	15042
696.572	15462
696.604	15743
696.614	15805
696.656	15647
696.698	15853
696.724	15727
696.740	15581
696.783	15394
696.825	15062
696.844	14847
696.867	14978
696.909	15220
696.951	15405
696.964	15445
696.992	15243
697.034	14869
697.076	14486
697.083	14390
697.118	14932
697.160	15361
697.202	15979
697.203	15953
697.244	15740
697.286	15559
697.323	15130
697.327	15147
697.369	15155
697.411	15064
697.442	14979
697.453	15216
697.494	16022
697.536	16788
697.562	17257
697.578	17127
697.620	16618
697.661	16087
697.682	15853
697.703	16244
697.744	16798
697.786	17365
697.801	17565
697.828	18147
697.869	18880
697.911	19615
697.921	19761
697.952	18737
697.994	17243
698.035	15789
698.040	15568
698.077	15467
698.118	15375
698.160	15200
698.160	15160
698.201	15313
698.243	15453
698.279	15552
698.284	15623
698.325	15902
698.367	16163
698.399	16308
698.408	16256
698.449	15853
698.491	15471
698.518	15129
698.532	15191
698.573	15285
698.614	15376
698.638	15393
698.656	15536
698.697	15754
698.738	15995
698.757	16055
698.779	16293
698.820	16672
698.862	17055
698.877	17149
698.903	17498
698.944	17993
698.985	18475
698.996	18562
699.026	18384
699.067	18069
699.116	17646
699.235	15737
699.354	15537
699.474	16354
699.593	20231
699.713	21192
699.832	16720
699.951	18176
700.070	16899
700.190	16094
700.309	17215
700.428	19307
700.547	18284
700.667	16230
700.786	20702
700.905	17474
701.024	17805
701.143	18512
701.262	14460
701.381	14403
701.500	16790
701.619	17942
701.738	15098
701.857	13242
701.976	13611
702.095	14348
702.214	15815
702.333	17989
702.452	15645
702.571	14697
702.690	13678
702.809	13892
702.928	12718
703.047	13724
703.165	14219
703.284	13257
703.403	14388
703.522	17140
703.640	17924
703.759	20284
703.878	35695
703.997	18636
704.115	13765
704.234	13588
704.353	13342
704.471	12296
704.590	11264
704.708	11594
704.827	12038
704.946	13168
705.064	16318
705.183	13444
705.301	16702
705.420	24059
705.538	23016
705.656	17262
705.775	15374
705.893	17843
706.012	21957
706.130	19359
706.249	19360
706.367	19792
706.485	21976
706.604	20762
706.722	20536
706.840	26181
706.958	26289
707.077	18789
707.195	17267
707.313	17034
707.431	15775
707.549	16294
707.668	17045
707.786	17548
707.904	16705
708.022	15069
708.140	15737
708.258	16270
708.376	15684
708.494	15945
708.612	17630
708.730	26231
708.848	27036
708.966	24093
709.084	23460
709.202	19498
709.320	21205
709.438	21263
709.556	21222
709.674	21307
709.791	21591
709.909	19027
710.027	20437
710.145	20147
710.263	21338
710.380	21337
710.498	20160
710.616	19988
710.733	20006
710.851	22839
710.969	24256
711.086	20776
711.204	20543
711.322	20567
711.439	21670
711.557	23981
711.674	20978
711.792	20322
711.909	19533
712.027	18095
712.144	19469
712.262	19618
712.379	22541
712.497	30671
712.614	32579
712.732	25704
712.849	23886
712.966	28066
713.084	36824
713.201	27076
713.318	25812
713.436	24085
713.553	24905
713.670	26082
713.787	28689
713.905	31225
714.022	25043
714.139	23574
714.256	26150
714.373	30654
714.490	39521
714.608	66935
714.725	257366
714.842	429073
714.959	46299
715.076	26220
715.193	23180
715.310	21645
715.427	20346
715.544	20589
715.661	20535
715.778	19648
715.895	23901
716.011	23411
716.128	21518
716.245	20642
716.362	23861
716.479	28838
716.596	20234
716.713	20143
716.829	18848
716.946	20397
717.063	17978
717.180	18145
717.296	18013
717.413	18624
717.530	18705
717.646	18982
717.763	18054
717.880	16782
717.996	16503
718.113	19581
718.229	17617
718.346	17058
718.462	17095
718.579	22274
718.695	40441
718.812	37507
718.928	31393
719.045	25472
719.161	16057
719.277	16446
719.394	15389
719.510	16469
719.626	16530
719.743	21175
719.859	20125
719.975	27820
720.092	71531
720.208	210273
720.324	48143
720.440	18947
720.557	20962
720.673	31513
720.789	49850
720.905	113173
721.021	55641
721.137	17985
721.253	17832
721.369	18856
721.486	20342
721.602	35065
721.718	17907
721.834	13333
721.950	15040
722.066	13264
722.181	14205
722.297	15696
722.413	14199
722.529	13724
722.645	13605
722.761	14026
722.877	13356
722.993	12766
723.108	14010
723.224	13762
723.340	13708
723.456	11743
723.571	13351
723.687	12693
723.803	12548
723.918	12609
724.034	12748
724.150	12393
724.265	14554
724.381	34449
724.497	65748
724.612	15169
724.728	12181
724.843	12176
724.959	15372
725.074	32851
725.190	57780
725.305	16969
725.421	14609
725.536	9929
725.651	10993
725.767	10478
725.882	10549
725.997	10251
726.113	10878
726.228	10755
726.343	10914
726.459	9386
726.574	12118
726.689	10165
726.804	10240
726.920	10505
727.035	10710
727.150	11605
727.265	10145
727.380	11214
727.495	9890
727.610	8440
727.725	9731
727.841	9715
727.956	10611
728.071	13739
728.186	10777
728.301	7965
728.416	10203
728.531	9880
728.645	7425
728.760	9366
728.875	10940
728.990	10118
729.105	9948
729.220	10411
729.335	11119
729.449	9599
729.564	7722
729.679	7767
729.794	8295
729.908	9626
730.023	10314
730.138	7299
730.253	7714
730.367	8141
730.482	7942
730.596	7330
730.711	8743
730.826	8244
730.940	7851
731.055	8013
731.169	8257
731.284	6745
731.398	7141
731.513	11503
731.627	10359
731.742	10661
731.856	16012
731.970	8471
732.085	9422
732.199	10358
732.313	13795
732.428	28350
732.542	87334
732.656	80896
732.771	15723
732.885	9219
732.999	8414
733.113	11056
733.227	9999
733.342	7526
733.456	7188
733.570	7130
733.684	7518
733.798	8480
733.912	7513
734.026	6972
734.140	7217
734.254	9280
734.368	17878
734.482	34734
734.596	7850
734.710	7246
734.824	6743
734.938	6736
735.052	7869
735.166	9631
735.280	8716
735.393	6817
735.507	6953
735.621	10809
735.735	26631
735.849	14466
735.962	6925
736.076	8661
736.190	8993
736.303	12532
736.417	22542
736.531	7820
736.644	8402
736.758	5813
736.872	6481
736.985	6049
737.099	6033
737.212	4824
737.326	5772
737.439	5996
737.553	6744
737.666	6718
737.780	4877
737.893	5094
738.007	5923
738.120	6043
738.233	5353
738.347	5095
738.460	5541
738.573	6182
738.687	7276
738.800	6759
738.913	9348
739.026	8075
739.140	5547
739.253	4351
739.366	4758
739.479	4713
739.592	5601
739.705	4903
739.818	5380
739.932	4537
740.045	5863
740.158	5792
740.271	5914
740.384	5678
740.497	5088
740.610	6310
740.723	5660
740.836	6258
740.949	6301
741.062	10047
741.174	10634
741.287	5894
741.400	5053
741.513	6329
741.626	7763
741.739	6087
741.851	5610
741.964	5836
742.077	5833
742.189	5601
742.302	6682
742.415	5584
742.527	5695
742.640	5320
742.753	5070
742.865	4041
742.978	4703
743.090	5322
743.203	5543
743.316	4462
743.428	4530
743.541	4525
743.653	4619
743.766	4453
743.878	5435
743.990	7085
744.103	10200
744.215	4880
744.327	4868
744.440	6907
744.552	13577
744.664	7503
744.777	5265
744.889	3719
745.001	4419
745.113	4474
745.226	3745
745.338	3940
745.450	3982
745.562	3494
745.674	4047
745.786	3389
745.898	3585
746.010	3320
746.122	3964
746.234	3377
746.347	3789
746.459	4058
746.570	3554
746.682	3367
746.794	3764
746.906	3819
747.018	3384
747.130	4025
747.242	3811
747.354	3640
747.466	4879
747.577	3391
747.689	3831
747.801	3629
747.913	2709
748.024	3003
748.136	3362
748.248	3315
748.359	3430
748.471	3229
748.583	2996
748.694	3878
748.806	4732
748.918	7148
749.029	5812
749.141	4848
749.252	5597
749.364	6469
749.475	14566
749.587	13901
749.698	4495
749.809	3408
749.921	3611
750.032	3290
750.144	2924
750.255	3006
750.366	3871
750.478	2974
750.589	3560
750.700	4428
750.811	4454
750.923	6035
751.034	14210
751.145	20976
751.256	4488
751.367	3850
751.479	3131
751.590	2980
751.701	2704
751.812	2249
751.923	2651
752.034	2516
752.145	3175
752.256	2700
752.367	2013
752.478	2475
752.589	2367
752.700	2555
752.811	2846
752.922	2554
753.032	4129
753.143	5611
753.254	3601
753.365	3595
753.476	2957
753.586	3342
753.697	2322
753.808	1910
753.919	2548
754.029	2978
754.140	2177
754.251	2286
754.361	2670
754.472	2452
754.582	3285
754.693	2261
754.804	3318
754.914	2818
755.025	1558
755.135	1766
755.246	2334
755.356	1599
755.466	3391
755.577	3077
755.687	2974
755.798	2722
755.908	2499
756.018	2895
756.129	2354
756.239	3215
756.349	2983
756.460	2618
756.570	3294
756.680	2742
756.790	3479
756.900	4391
757.011	2404
757.121	2595
757.231	2285
757.341	2759
757.451	2204
757.561	2098
757.671	2305
757.781	1501
757.891	3926
758.001	3689
758.111	3686
758.221	3309
758.331	4841
758.441	4795
758.551	6509
758.661	7194
758.771	3843
758.880	3522
758.990	4206
759.100	2875
759.210	3010
759.320	3171
759.429	3245
759.539	3270
759.649	2871
759.758	4527
759.868	4418
759.978	3789
760.087	3359
760.197	3589
760.307	3255
760.416	3444
760.526	2966
760.635	3679
760.745	3241
760.854	3979
760.964	4081
761.073	3477
761.182	4099
761.292	3915
761.401	4115
761.511	3538
761.620	2917
761.729	3057
761.839	4391
761.948	3870
762.057	4603
762.166	3910
762.276	2117
762.385	3832
762.494	3337
762.603	2915
762.712	3167
762.822	3535
762.931	3636
763.040	2908
763.149	2580
763.258	2783
763.367	3439
763.476	3174
763.585	3123
763.694	3392
763.803	2929
763.912	3799
764.021	3301
764.130	2794
764.238	3776
764.347	2567
764.456	3431
764.565	3097
764.674	4004
764.783	3185
764.891	3492
765.000	4230
765.109	4412
765.217	4196
765.326	4652
765.435	8445
765.543	5978
765.652	4803
765.761	6102
765.869	8038
765.978	10821
766.086	19419
766.195	35852
766.303	93158
766.412	299010
766.520	313001
766.629	80296
766.737	24774
766.846	14672
766.954	10137
767.062	9096
767.171	7028
767.279	7266
767.387	5576
767.496	5168
767.604	4506
767.712	5533
767.820	3865
767.928	4265
768.037	5035
768.145	4734
768.253	4172
768.361	3701
768.469	4461
768.577	4483
768.685	5259
768.793	3484
768.901	4177
769.009	4473
769.117	4750
769.225	5490
769.333	6945
769.441	10081
769.549	15946
769.657	32884
769.765	108028
769.873	283665
769.981	116516
770.088	22050
770.196	9601
770.304	7454
770.412	6322
770.519	6510
770.627	4581
770.735	5607
770.842	5415
770.950	4838
771.058	5708
771.165	4376
771.273	3788
771.380	4891
771.488	4914
771.595	5166
771.703	3806
771.810	4578
771.918	3642
772.025	3760
772.133	4687
772.240	3916
772.348	4784
772.455	3709
772.562	3536
772.670	4677
772.777	4570
772.884	4330
772.991	3431
773.099	4180
773.206	3213
773.313	3994
773.420	3625
773.528	3038
773.635	4660
773.742	4224
773.849	3852
773.956	3173
774.063	4107
774.170	3075
774.277	4260
774.384	3641
774.491	3973
774.598	4435
774.705	3974
774.812	5905
774.919	5272
775.026	4950
775.133	4815
775.239	3971
775.346	4176
775.453	3339
775.560	3875
775.667	4392
775.773	3621
775.880	4928
775.987	4010
776.093	4208
776.200	3218
776.307	3810
776.413	3871
776.520	3332
776.627	3793
776.733	4075
776.840	2788
776.946	4384
777.053	2833
777.159	4485
777.266	2983
777.372	4813
777.478	4574
777.585	3812
777.691	2654
777.798	3813
777.904	5126
778.010	6355
778.117	7926
778.223	4034
778.329	3586
778.435	4214
778.542	3734
778.648	3883
778.754	3259
778.860	3501
778.966	3711
779.072	3821
779.178	3778
779.284	2784
779.391	3220
779.497	3140
779.603	3615
779.708	3069
779.815	3089
779.920	5060
780.026	6307
780.132	4240
780.238	2846
780.344	3266
780.450	3625
780.556	2397
780.661	2453
780.767	3751
780.873	2512
780.979	2978
781.085	2965
781.190	2704
781.296	2892
781.402	2597
781.507	1853
781.613	2826
781.719	2115
781.824	2921
781.930	3197
782.035	3160
782.141	3087
782.246	3278
782.352	2676
782.457	2090
782.563	2404
782.668	2566
782.773	2511
782.879	2834
782.984	4001
783.090	4469
783.195	7033
783.300	6418
783.405	3380
783.511	3627
783.616	3120
783.721	3541
783.826	2505
783.932	3603
784.037	3042
784.142	3521
784.247	2657
784.352	2762
784.457	2764
784.562	2484
784.667	3140
784.772	2936
784.877	2962
784.982	2777
785.087	2661
785.192	2649
785.297	3057
785.402	2865
785.507	2723
785.611	2850
785.716	2695
785.821	3835
785.926	3344
786.031	2152
786.135	2422
786.240	2590
786.345	1293
786.450	2399
786.554	1784
786.659	1971
786.763	1191
786.868	1764
786.973	2994
787.077	2387
787.182	2218
787.286	2314
787.391	1477
787.495	1762
787.600	1742
787.704	1099
787.809	1720
787.913	2854
788.017	2162
788.122	2819
788.226	1888
788.330	1494
788.435	1717
788.539	2417
788.643	2007
788.747	1918
788.852	1470
788.956	1341
789.060	1512
789.164	2311
789.268	1791
789.372	2199
789.476	902
789.580	1233
789.684	2018
789.788	2387
789.892	1840
789.996	2229
790.100	1290
790.204	1573
790.308	2623
790.412	2330
790.516	1812
790.620	2001
790.724	2258
790.828	1932
790.931	1817
791.035	2284
791.139	1527
791.242	1303
791.346	1918
791.450	1976
791.554	1620
791.657	1682
791.761	2215
791.864	2777
791.968	1815
792.072	2344
792.175	2109
792.279	2138
792.382	969
792.486	1420
792.589	2670
792.693	3499
792.796	1561
792.899	1671
793.003	1496
793.106	847
793.209	2410
793.313	3127
793.416	1773
793.519	2933
793.623	4462
793.726	8106
793.829	3687
793.932	2129
794.035	1431
794.138	2796
794.242	2219
794.345	3398
794.448	4282
794.551	5342
794.654	8163
794.757	4480
794.860	4340
794.963	3991
795.066	1027
795.169	2330
795.272	831
795.375	1421
795.477	677
795.580	1786
795.683	1164
795.786	860
795.889	697
795.991	1480
796.094	2910
796.197	3010
796.300	1453
796.402	972
796.505	658
796.608	1366
796.710	2020
796.813	976
796.915	1631
797.018	963
797.120	824
797.223	613
797.326	2251
797.428	1545
797.530	716
797.633	1743
797.735	3651
797.838	5924
797.940	7399
798.042	1722
798.145	1015
798.247	1443
798.349	1662
798.452	1674
798.554	951
798.656	215
798.758	1934
798.860	1296
798.962	1068
799.065	1167
799.167	839
799.269	2192
799.371	1832
799.473	2663
799.575	2752
799.677	5366
799.779	4355
799.881	5727
799.983	3590
800.085	2145
800.187	480
800.289	1886
800.390	1473
800.492	1371
800.594	1894
800.696	652
800.798	442
800.899	1050
801.001	470
801.103	1046
801.205	1249
801.306	1540
801.408	667
801.509	1051
801.611	827
801.713	955
801.814	-206
801.916	555
802.017	264
802.119	1016
802.220	1388
802.322	151
802.423	4399
802.525	3787
802.626	648
802.727	1684
802.829	1736
802.930	16
803.031	1959
803.133	177
803.234	858
803.335	1595
803.436	1003
803.538	621
803.639	501
803.740	1475
803.841	751
803.942	189
804.043	571
804.144	155
804.245	521
804.346	463
804.447	1325
804.548	2488
804.649	4463
804.750	1266
804.851	107
804.952	574
805.053	159
805.154	-89
805.255	201
805.355	926
805.456	-220
805.557	875
805.658	-340
805.758	994
805.859	322
805.960	57
806.061	-138
806.161	-181
806.262	572
806.362	171
806.463	1030
806.564	1579
806.664	1062
806.765	1766
806.865	2500
806.966	916
807.066	1121
807.166	564
807.267	585
807.367	655
807.468	479
807.568	410
807.668	1513
807.769	1027
807.869	-4
807.969	759
808.069	567
808.170	404
808.270	68
808.370	436
808.470	2515
808.570	2446
808.670	917
808.770	922
808.870	-261
808.970	1099
809.070	255
809.170	-233
809.271	1267
809.370	1213
809.470	875
809.570	269
809.670	457
809.770	1126
809.870	632
809.970	1567
810.070	116
810.169	557
810.269	-582
810.369	1435
810.469	5
810.568	528
810.668	151
810.768	167
810.867	89
810.967	370
811.066	511
811.166	691
811.265	497
811.365	-103
811.464	630
811.564	711
811.663	150
811.763	-265
811.862	996
811.962	584
812.061	447
812.160	-387
812.260	-426
812.359	958
812.458	161
812.557	1588
812.657	1280
812.756	375
812.855	-18
812.954	315
813.053	-297
813.153	474
813.252	18
813.351	789
813.450	-47
813.549	465
813.648	149
813.747	41
813.846	841
813.945	366
814.044	331
814.143	617
814.242	782
814.341	304
814.439	690
814.538	1182
814.637	328
814.736	427
814.835	216
814.933	-219
815.032	-102
815.131	104
815.229	946
815.328	1115
815.427	273
815.525	1355
815.624	523
815.722	4
815.821	726
815.919	623
816.018	546
816.116	1904
816.215	1360
816.313	1043
816.412	362
816.510	1684
816.609	2021
816.707	1569
816.805	1206
816.904	1056
817.002	1456
817.100	2002
817.198	1855
817.296	1779
817.395	803
817.493	2260
817.591	2429
817.689	2562
817.787	3204
817.885	4512
817.983	9107
818.081	18269
818.179	45302
818.277	120111
818.375	148665
818.473	42396
818.571	13612
818.669	7415
818.767	6394
818.865	6094
818.963	7104
819.061	10430
819.158	17275
819.256	39637
819.354	92329
819.452	230334
819.549	213195
819.647	57868
819.745	19596
819.842	10292
819.940	7796
820.038	5540
820.135	4379
820.233	3938
820.330	2852
820.428	2039
820.525	2154
820.623	2473
820.720	2373
820.818	2629
820.915	1628
821.012	1701
821.110	681
821.207	1493
821.304	33
821.402	938
821.499	1351
821.596	2206
821.693	1898
821.791	2374
821.888	2168
821.985	7220
822.082	7978
822.179	2637
822.276	1705
822.373	869
822.470	874
822.567	551
822.664	450
822.761	1024
822.858	-554
822.955	112
823.052	1099
823.149	1273
823.246	1318
823.343	700
823.440	790
823.536	0
823.633	-52
823.730	306
823.827	532
823.923	148
824.020	1320
824.117	941
824.213	366
824.310	1166
824.407	99
824.503	200
824.600	637
824.696	359
824.793	129
824.889	779
824.986	777
825.082	-259
825.179	797
825.275	-364
825.371	-162
825.468	954
825.564	-799
825.660	325
825.757	518
825.853	675
825.949	-188
826.045	451
826.142	-706
826.238	738
826.334	454
826.430	-529
826.526	94
826.622	181
826.718	781
826.814	-63
826.910	279
827.006	571
827.102	-664
827.198	735
827.294	-250
827.390	1346
827.486	859
827.582	-1374
827.678	-953
827.774	342
827.869	-720
827.965	1679
828.061	-427
828.157	446
828.252	-83
828.348	-551
828.444	895
828.539	-326
828.635	116
828.731	738
828.826	-202
828.922	342
829.017	-326
829.113	441
829.208	-267
829.304	97
829.399	379
829.495	295
829.590	776
829.685	-29
829.781	-229
829.876	-444
829.971	210
830.066	-75
830.162	-85
830.257	177
830.352	640
830.447	755
830.543	247
830.638	320
830.733	691
830.828	362
830.923	802
831.018	381
831.113	660
831.208	734
831.303	113
831.398	266
831.493	-196
831.588	555
831.683	-269
831.778	-15
831.873	-100
831.967	583
832.062	-233
832.157	-305
832.252	1095
832.346	686
832.441	1379
832.536	2583
832.631	5620
832.725	6289
832.820	688
832.914	690
833.009	372
833.104	975
833.198	1888
833.293	37
833.387	-106
833.482	399
833.576	-752
833.670	419
833.765	597
833.859	272
833.954	1633
834.048	527
834.142	1118
834.237	-280
834.331	-778
834.425	-38
834.519	-566
834.613	485
834.708	-660
834.802	71
834.896	-393
834.990	213
835.084	285
835.178	132
835.272	-44
835.366	434
835.460	575
835.554	256
835.648	-99
835.742	310
835.836	-106
835.930	-1377
836.024	638
836.117	937
836.211	1320
836.305	1758
836.399	3437
836.493	977
836.586	1274
836.680	-818
836.774	-594
836.867	528
836.961	-616
837.055	18
837.148	374
837.242	-118
837.335	-463
837.429	618
837.522	819
837.616	897
837.709	3143
837.803	3856
837.896	1174
837.989	905
838.083	2088
838.176	5282
838.269	8423
838.363	2427
838.456	456
838.549	1096
838.642	2710
838.735	7716
838.829	4971
838.922	605
839.015	608
839.108	-53
839.201	676
839.294	-235
839.387	407
839.480	129
839.573	1653
839.666	4151
839.759	923
839.852	30
839.945	47
840.038	341
840.131	-36
840.223	597
840.316	-186
840.409	412
840.502	-312
840.594	862
840.687	-1089
840.780	-255
840.873	-151
840.965	1622
841.058	1290
841.150	5345
841.243	6451
841.336	1466
841.428	-222
841.521	564
841.613	-246
841.706	1385
841.798	678
841.890	-70
841.983	-902
842.075	849
842.167	600
842.260	635
842.352	1767
842.444	3241
842.537	5997
842.629	12553
842.721	4083
842.813	-432
842.905	279
842.997	290
843.090	449
843.182	2127
843.274	6489
843.366	15385
843.458	34123
843.550	29730
843.642	5192
843.734	952
843.826	914
843.918	2449
844.009	487
844.101	558
844.193	-374
844.285	-214
844.377	284
844.469	-454
844.560	444
844.652	953
844.744	-602
844.835	132
844.927	92
845.019	1438
845.110	1049
845.202	-207
845.293	105
845.385	-189
845.476	-250
845.568	588
845.659	149
845.751	262
845.842	-520
845.934	-140
846.025	-795
846.116	-189
846.208	-65
846.299	-234
846.390	-460
846.482	757
846.573	1530
846.664	2716
846.755	2902
846.846	4511
846.937	51
847.029	-113
847.120	-499
847.211	54
847.302	1401
847.393	-321
847.484	373
847.575	-422
847.666	-46
847.757	-345
847.847	-348
847.938	-170
848.029	163
848.120	-906
848.211	-407
848.302	-336
848.392	-331
848.483	177
848.574	-814
848.664	-579
848.755	-255
848.846	50
848.936	-389
849.027	116
849.118	44
849.208	-382
849.299	434
849.389	2245
849.480	4343
849.570	11116
849.661	19521
849.751	39485
849.841	22290
849.932	2441
850.022	602
850.112	229
850.203	131
850.293	-14
850.383	179
850.474	-501
850.564	24
850.654	-597
850.744	-686
850.834	-771
850.924	-290
851.014	38
851.104	-688
851.194	48
851.284	244
851.374	1912
851.464	723
851.554	583
851.644	716
851.734	2685
851.824	2474
851.914	343
852.004	-163
852.094	-1196
852.183	-380
852.273	141
852.363	-608
852.452	-297
852.542	152
852.632	-437
852.721	-31
852.811	-70
852.901	381
852.990	97
853.080	281
853.169	955
853.259	786
853.348	-497
853.438	595
853.527	1774
853.617	2686
853.706	6679
853.795	11417
853.885	29178
853.974	63038
854.063	104525
854.152	202459
854.242	118543
854.331	19796
854.420	6186
854.509	2341
854.598	2462
854.687	2416
854.777	2473
854.866	1230
854.955	1671
855.044	305
855.133	321
855.222	-15
855.311	331
855.400	476
855.488	-719
855.577	-283
855.666	345
855.755	151
855.844	57
855.933	-617
856.021	109
856.110	-85
856.199	-374
856.288	85
856.376	-902
856.465	-792
856.554	215
856.642	-1248
856.731	-213
856.819	-426
856.908	-510
856.996	-792
857.085	-398
857.173	-878
857.262	-435
857.350	-959
857.438	-251
857.527	-338
857.615	32
857.703	-580
857.792	-899
857.880	-670
857.968	-595
858.056	-760
858.145	-338
858.233	-646
858.321	-144
858.409	312
858.497	-785
858.585	-644
858.673	-556
858.761	-925
858.849	-955
858.937	-941
859.025	409
859.113	194
859.201	-712
859.289	303
859.377	-372
859.465	-459
859.552	-726
859.640	-723
859.728	54
859.816	196
859.903	-862
859.991	-1599
860.079	-301
860.166	-631
860.254	-183
860.342	-782
860.429	-1440
860.517	-1694
860.604	-257
860.692	-142
860.779	-558
860.867	61
860.954	219
861.042	-579
861.129	388
861.216	16
861.304	-957
861.391	-689
861.478	312
861.565	-169
861.653	84
861.740	-1068
861.827	-900
861.914	-91
862.001	-274
862.089	-751
862.176	107
862.263	-1009
862.350	-168
862.437	-1413
862.524	-1048
862.611	84
862.698	-555
862.785	-450
862.871	-508
862.958	-419
863.045	-804
863.132	-123
863.219	-45
863.306	-1191
863.392	-221
863.479	-444
863.566	-296
863.652	-164
863.739	-482
863.826	-215
863.912	-743
863.999	-1363
864.086	-131
864.172	-345
864.259	-370
864.345	-316
864.432	-312
864.518	-770
864.604	-143
864.691	-736
864.777	-189
864.863	-56
864.950	635
865.036	-185
865.122	697
865.209	605
865.295	1405
865.381	513
865.467	1680
865.553	1463
865.639	2781
865.726	7157
865.812	14934
865.898	30839
865.984	50917
866.070	80974
866.156	127902
866.242	47043
866.328	8072
866.414	2882
866.499	2052
866.585	1182
866.671	714
866.757	563
866.843	880
866.928	682
867.014	160
867.100	1140
867.186	1079
867.271	1544
867.357	2008
867.442	2914
867.528	1609
867.614	-23
867.699	882
867.785	662
867.870	-413
867.956	-46
868.041	1390
868.127	502
868.212	1487
868.297	748
868.383	644
868.468	1132
868.553	3489
868.639	4211
868.724	7247
868.809	10220
868.894	2610
868.979	74
869.065	256
869.150	518
869.235	455
869.320	-321
869.405	-220
869.490	-489
869.575	443
869.660	219
869.745	253
869.830	-328
869.915	83
870.000	-241
870.085	94
870.169	-302
870.254	-183
870.339	-481
870.424	-706
870.509	-263
870.593	-664
870.678	-317
870.763	-290
870.847	217
870.932	259
871.016	16
871.101	-14
871.186	-407
871.270	99
871.355	-580
871.439	-697
871.523	-193
871.608	-427
871.692	-879
871.777	-105
871.861	-116
871.945	345
872.030	-259
872.114	-187
872.198	-1245
872.282	-1075
872.367	-1330
872.451	-632
872.535	-1043
872.619	-452
872.703	-413
872.787	-347
872.871	-696
872.955	166
873.039	-700
873.123	-600
873.207	42
873.291	-69
873.375	-218
873.459	-396
873.543	-676
873.627	-581
873.711	-111
873.794	-381
873.878	64
873.962	-700
874.045	-304
874.129	-803
874.137	-764
874.213	-376
874.245	-383
874.296	-399
874.352	-560
874.380	-632
874.460	-75
874.464	-54
874.547	-981
874.568	-804
874.631	-259
874.676	229
874.714	626
874.784	-298
874.798	-478
874.881	947
874.892	749
874.965	-605
874.999	-582
875.048	-571
875.107	-361
875.131	-276
875.215	-19
875.215	-20
875.298	-542
875.323	-455
875.381	-220
875.430	-23
875.465	95
875.538	-379
875.548	-440
875.631	201
875.646	31
875.714	-787
875.753	-637
875.798	-481
875.861	-871
875.881	-986
875.964	-699
875.968	-681
876.047	-396
876.076	-563
876.130	-814
876.183	-200
876.213	102
876.291	259
876.296	274
876.379	-167
876.398	-50
876.462	279
876.506	-207
876.545	-519
876.613	108
876.628	186
876.711	-841
876.721	-842
876.794	-701
876.828	-449
876.877	-120
876.935	-446
876.960	-567
877.043	-205
877.043	-204
877.125	-5
877.150	-28
877.208	-35
877.258	-231
877.291	-418
877.365	65
877.374	156
877.456	605
877.472	558
877.539	53
877.579	150
877.622	403
877.687	284
877.704	228
877.787	116
877.794	71
877.869	-407
877.901	-323
877.952	-343
878.008	-423
878.034	-353
878.115	-163
878.117	-159
878.199	-553
878.222	-500
878.282	-373
878.329	-271
878.364	-194
878.437	-1
878.447	23
878.529	-498
878.544	-403
878.611	-4
878.651	-52
878.694	-9
878.758	-187
878.776	-261
878.858	-700
878.865	-645
878.941	75
878.972	93
879.023	-67
879.078	-529
879.105	-614
879.185	144
879.187	157
879.269	-10
879.292	-120
879.351	-383
879.399	-82
879.433	66
879.506	-344
879.516	-388
879.598	-452
879.613	-488
879.680	-537
879.720	-219
879.762	28
879.827	-165
879.844	-185
879.926	-291
879.933	-252
880.007	-19
880.040	-116
880.089	-144
880.147	267
880.171	478
880.253	1874
880.254	1883
880.335	3219
880.360	3469
880.417	4551
880.467	5963
880.499	6980
880.574	11648
880.580	11862
880.662	4846
880.680	3747
880.744	435
880.787	12
880.825	-38
880.893	362
880.907	397
880.989	-152
881.000	-161
881.070	147
881.106	317
881.152	227
881.213	-172
881.233	-259
881.315	-370
881.319	-368
881.396	-68
881.426	-113
881.478	-291
881.532	-169
881.559	-150
881.639	-1005
881.641	-1011
881.722	-68
881.745	-49
881.803	-444
881.852	-465
881.885	-274
881.958	138
881.966	143
882.047	120
882.064	79
882.129	296
882.171	699
882.210	1150
882.277	2114
882.291	2218
882.372	1348
882.383	1242
882.454	504
882.489	153
882.535	-143
882.596	18
882.616	54
882.697	63
882.702	58
882.778	320
882.808	398
882.859	119
882.914	-142
882.940	-43
883.020	246
883.021	246
883.102	-268
883.127	-381
883.183	-121
883.233	102
883.264	132
883.339	344
883.345	341
883.426	-249
883.445	-290
883.507	166
883.551	334
883.587	133
883.657	216
883.668	304
883.749	672
883.763	661
883.830	437
883.869	277
883.910	-98
883.975	-320
883.991	-293
884.072	-125
884.081	-158
884.152	-96
884.187	42
884.233	129
884.292	392
884.314	374
884.394	-331
884.398	-345
884.475	120
884.504	277
884.555	280
884.610	135
884.636	-92
884.716	-488
884.716	-482
884.797	33
884.821	256
884.877	553
884.927	852
884.958	568
885.033	-545
885.038	-545
885.118	-483
885.139	-413
885.199	-209
885.244	-50
885.279	16
885.350	211
885.359	256
885.439	363
885.456	380
885.520	245
885.561	308
885.600	344
885.667	131
885.680	130
885.760	380
885.773	390
885.840	470
885.878	537
885.920	536
885.984	358
886.000	274
886.080	-10
886.089	-16
886.160	363
886.195	373
886.240	-127
886.300	-686
886.320	-502
886.400	403
886.406	442
886.480	50
886.511	-14
886.560	166
886.616	303
886.640	367
886.720	448
886.722	445
886.800	403
886.827	454
886.879	434
886.932	323
886.959	236
887.038	244
887.039	247
887.119	-56
887.143	-38
887.198	273
887.248	480
887.278	481
887.354	487
887.358	490
887.437	460
887.459	463
887.517	413
887.564	262
887.596	397
887.669	689
887.676	692
887.755	883
887.774	905
887.835	628
887.880	384
887.914	275
887.985	-3
887.994	80
888.073	739
888.090	899
888.153	907
888.195	900
888.232	738
888.300	432
888.311	400
888.391	32
888.405	-33
888.470	311
888.510	567
888.549	581
888.615	584
888.628	536
888.708	153
888.720	101
888.787	321
888.825	398
888.866	431
888.930	524
888.945	556
889.024	681
889.035	696
889.103	851
889.140	927
889.182	464
889.245	-248
889.261	-182
889.340	189
889.349	226
889.419	264
889.454	287
889.498	403
889.559	567
889.577	568
889.656	568
889.664	567
889.735	937
889.768	1108
889.814	996
889.873	842
889.978	916
890.083	964
890.187	107
890.292	434
890.397	712
890.501	1018
890.606	-147
890.710	647
890.815	1102
890.919	751
891.024	892
891.128	921
891.233	818
891.337	277
891.442	744
891.546	274
891.650	322
891.755	1177
891.859	1531
891.963	-84
892.068	1783
892.172	194
892.276	904
892.380	423
892.484	1122
892.589	696
892.693	1037
892.797	489
892.901	318
893.005	-121
893.109	573
893.213	686
893.317	784
893.421	349
893.525	772
893.629	-721
893.733	776
893.837	398
893.941	556
894.045	613
894.148	728
894.252	116
894.356	569
894.460	401
894.564	711
894.667	1040
894.771	837
894.875	264
894.978	815
895.082	-41
895.186	127
895.289	294
895.393	1097
895.496	-94
895.600	508
895.703	-38
895.807	715
895.910	433
896.014	-18
896.117	720
896.221	398
896.324	79
896.427	-279
896.531	312
896.634	129
896.737	683
896.840	678
896.944	239
897.047	685
897.150	-749
897.253	-74
897.356	970
897.460	714
897.563	439
897.666	487
897.769	425
897.872	163
897.975	-317
898.078	572
898.181	161
898.284	767
898.387	129
898.490	230
898.593	911
898.695	-100
898.798	616
898.901	945
899.004	882
899.107	-235
899.209	-150
899.312	835
899.415	161
899.518	1008
899.620	-67
899.723	354
899.826	745
899.928	2026
900.031	-195
900.133	377
900.236	-428
900.338	474
900.441	-552
900.543	7
900.646	103
900.748	52
900.851	-362
900.953	520
901.055	190
901.158	-363
901.260	290
901.362	482
901.465	-123
901.567	744
901.669	584
901.771	229
901.873	496
901.976	-66
902.078	557
902.180	-84
902.282	105
902.384	123
902.486	146
902.588	104
902.690	373
902.792	326
902.894	-39
902.996	455
903.098	-41
903.200	106
903.302	-300
903.404	580
903.505	-340
903.607	1139
903.709	784
903.811	575
903.913	-460
904.014	223
904.116	176
904.218	1127
904.319	432
904.421	781
904.523	477
904.624	51
904.726	252
904.827	-410
904.929	44
905.030	-251
905.132	9
905.233	587
905.335	-159
905.436	384
905.537	619
905.639	420
905.740	-74
905.841	878
905.943	330
906.044	164
906.145	619
906.247	-416
906.348	-19
906.449	180
906.550	751
906.651	752
906.752	270
906.854	8
906.955	577
907.056	304
907.157	267
907.258	974
907.359	97
907.460	908
907.561	246
907.662	802
907.762	82
907.863	604
907.964	644
908.065	1082
908.166	422
908.267	779
908.367	175
908.468	333
908.569	-319
908.670	1000
908.770	1225
908.871	1034
908.971	1282
909.072	1820
909.173	105
909.273	-81
909.374	351
909.474	436
909.575	811
909.675	810
909.776	664
909.876	-52
909.977	196
910.077	801
910.177	-218
910.278	-209
910.378	-66
910.478	24
910.579	263
910.679	78
910.779	298
910.879	260
910.980	674
911.080	486
911.180	-426
911.280	264
911.380	-771
911.480	52
911.580	-593
911.680	434
911.780	520
911.880	236
911.980	-56
912.080	114
912.180	-214
912.280	-144
912.380	-548
912.480	-252
912.580	-433
912.679	209
912.779	264
912.879	491
912.979	-682
913.078	284
913.178	156
913.278	797
913.377	122
913.477	669
913.577	35
913.676	741
913.776	-663
913.875	698
913.975	278
914.074	240
914.174	104
914.273	-405
914.373	844
914.472	-37
914.572	118
914.671	-169
914.770	-535
914.870	372
914.969	-302
915.068	5
915.167	221
915.267	515
915.366	-257
915.465	-90
915.564	-900
915.663	736
915.763	-154
915.862	786
915.961	-416
916.060	-22
916.159	-891
916.258	-16
916.357	-130
916.456	534
916.555	-446
916.654	80
916.752	69
916.851	408
916.950	-14
917.049	-57
917.148	123
917.247	-17
917.345	231
917.444	366
917.543	-276
917.642	860
917.740	225
917.839	82
917.937	288
918.036	763
918.135	110
918.233	379
918.332	-81
918.430	643
918.529	422
918.627	202
918.726	-24
918.824	245
918.923	-195
919.021	179
919.119	208
919.218	-131
919.316	649
919.414	864
919.512	-258
919.611	654
919.709	379
919.807	430
919.905	-527
920.003	-65
920.102	-104
920.200	905
920.298	134
920.396	-86
920.494	86
920.592	396
920.690	93
920.788	166
920.886	-59
920.984	82
921.082	123
921.180	218
921.277	137
921.375	181
921.473	776
921.571	401
921.669	225
921.766	1280
921.864	599
921.962	1729
922.060	469
922.157	315
922.255	626
922.352	951
922.450	1047
922.548	1043
922.645	747
922.743	305
922.840	1835
922.938	2163
923.035	1423
923.133	1272
923.230	1289
923.327	1750
923.425	1545
923.522	1291
923.619	900
923.717	1659
923.814	1842
923.911	1465
924.008	1582
924.106	1709
924.203	1483
924.300	1491
924.397	755
924.494	1765
924.591	1576
924.688	1314
924.786	1092
924.883	1187
924.979	822
925.077	1369
925.173	1478
925.270	1048
925.367	1298
925.464	1456
925.561	877
925.658	1791
925.755	1054
925.852	1877
925.948	1979
926.045	1168
926.142	1859
926.239	2156
926.335	860
926.432	1546
926.529	1030
926.625	941
926.722	1585
926.818	1582
926.915	777
927.011	1448
927.108	1404
927.204	1346
927.301	483
927.397	845
927.494	517
927.590	1009
927.687	723
927.783	878
927.879	1214
927.976	391
928.072	528
928.168	1137
928.264	1458
928.361	866
928.457	1182
928.553	1252
928.649	468
928.745	748
928.841	1175
928.937	1255
929.033	904
929.129	1466
929.225	820
929.321	836
929.417	757
929.513	268
929.609	1053
929.705	915
929.801	288
929.897	1342
929.993	315
930.089	413
930.184	428
930.280	1192
930.376	1185
930.471	1531
930.567	1163
930.663	907
930.758	490
930.854	723
930.950	849
931.045	888
931.141	286
931.236	1380
931.332	1089
931.427	93
931.523	697
931.618	1421
931.714	799
931.809	563
931.905	1392
932.000	214
932.095	4
932.191	936
932.286	1436
932.381	842
932.476	90
932.572	610
932.667	787
932.762	631
932.857	1393
932.952	1479
933.047	876
933.142	539
933.237	1025
933.332	264
933.427	583
933.522	684
933.617	503
933.712	879
933.807	548
933.902	1059
933.997	427
934.092	736
934.187	871
934.282	1095
934.376	26
934.471	27
934.566	98
934.661	835
934.755	895
934.850	-40
934.945	191
935.039	961
935.134	-75
935.228	837
935.323	366
935.417	487
935.512	896
935.606	302
935.701	-347
935.795	587
935.890	220
935.984	795
936.079	508
936.173	325
936.267	124
936.362	249
936.456	-480
936.550	827
936.644	77
936.738	0
936.833	574
936.927	211
937.021	-58
937.115	447
937.209	-55
937.303	841
937.397	999
937.491	491
937.585	367
937.679	609
937.773	38
937.867	974
937.961	602
938.055	501
938.149	279
938.243	106
938.337	5
938.430	54
938.524	677
938.618	218
938.712	-330
938.805	705
938.899	711
938.993	183
939.086	582
939.180	-578
939.274	-350
939.367	1420
939.461	60
939.554	-77
939.648	1132
939.741	289
939.835	931
939.928	964
940.022	933
940.115	454
940.208	517
940.302	1055
940.395	554
940.488	180
940.582	1227
940.675	42
940.768	34
940.861	879
940.954	937
941.048	-92
941.141	267
941.234	546
941.327	281
941.420	1097
941.513	820
941.606	0
941.699	946
941.792	996
941.885	556
941.978	1077
942.071	606
942.164	288
942.257	777
942.349	687
942.442	146
942.535	408
942.628	640
942.721	1141
942.813	-178
942.906	711
942.999	583
943.091	247
943.184	226
943.277	140
943.369	601
943.462	539
943.554	28
943.647	360
943.739	695
943.832	1101
943.924	462
944.017	-88
944.109	-10
944.201	737
944.294	716
944.386	170
944.478	-236
944.571	858
944.663	287
944.755	-22
944.847	186
944.940	126
945.032	-104
945.124	284
945.216	5
945.308	-272
945.400	446
945.492	-8
945.584	-556
945.676	834
945.768	452
945.860	572
945.952	660
946.044	968
946.136	-5
946.228	210
946.320	838
946.412	81
946.503	947
946.595	987
946.687	-317
946.779	723
946.870	92
946.962	-414
947.054	-364
947.145	997
947.237	67
947.329	211
947.420	-138
947.512	508
947.603	-314
947.695	431
947.786	-440
947.878	-67
947.969	586
948.061	-915
948.152	-119
948.243	-575
948.335	118
948.426	299
948.517	207
948.609	40
948.700	-186
948.791	343
948.882	163
948.973	186
949.065	427
949.156	574
949.247	-1253
949.338	-282
949.429	-213
949.520	384
949.611	-853
949.702	1210
949.793	-326
949.884	-782
949.975	119
950.066	-520
950.157	228
950.247	78
950.338	-259
950.429	-515
950.520	266
950.611	-381
950.701	649
950.792	389
950.883	-261
950.973	53
951.064	550
951.155	192
951.245	153
951.336	60
951.427	-13
951.517	552
951.608	521
951.698	708
951.788	-622
951.879	476
951.969	169
952.060	-81
952.150	228
952.240	258
952.331	-657
952.421	442
952.511	-358
952.602	709
952.692	-784
952.782	-304
952.872	-366
952.962	353
953.052	-359
953.143	-434
953.233	-238
953.323	-479
953.413	-1183
953.503	2
953.593	405
953.683	182
953.773	-984
953.863	-586
953.953	-475
954.042	528
954.132	70
954.222	660
954.312	-576
954.402	-709
954.492	426
954.581	1909
954.671	720
954.761	-1355
954.850	11
954.940	-586
955.030	-101
955.119	305
955.209	-955
955.298	-155
955.388	-331
955.477	11
955.567	-1286
955.656	-982
955.746	-806
955.835	-486
955.925	-793
956.014	-511
956.103	-364
956.193	-142
956.282	-52
956.371	-144
956.461	-88
956.550	-608
956.639	-159
956.728	-380
956.817	-516
956.906	-697
956.995	-82
957.085	-351
957.174	-403
957.263	-719
957.352	-850
957.441	33
957.530	-287
957.619	-764
957.708	-275
957.796	147
957.885	-263
957.974	-314
958.063	-642
958.152	-420
958.241	-133
958.329	-307
958.418	-190
958.507	-237
958.596	47
958.684	-279
958.773	-528
958.861	-357
958.950	-936
959.039	418
959.127	-30
959.216	-474
959.304	-1079
959.393	-481
959.481	-630
959.570	-145
959.658	-754
959.746	-77
959.835	87
959.923	1380
960.011	1497
960.100	216
960.188	-639
960.276	-912
960.365	-1172
960.453	-907
960.541	-278
960.629	16
960.717	-523
960.805	-835
960.893	-555
960.981	165
961.069	257
961.158	-343
961.245	243
961.333	-364
961.421	-918
961.509	-567
961.597	-451
961.685	-738
961.773	-1062
961.861	-1037
961.949	-546
962.036	-614
962.124	-737
962.212	180
962.299	-468
962.387	-983
962.475	-402
962.562	-305
962.650	6
962.738	-752
962.825	-1763
962.913	-625
963.000	-1110
963.088	-595
963.175	-1500
963.263	-448
963.350	-443
963.438	-107
963.525	-517
963.612	667
963.700	2725
963.787	11691
963.874	7698
963.962	681
964.049	-148
964.136	-641
964.223	-1124
964.310	-65
964.398	-540
964.485	-962
964.572	-193
964.659	1045
964.746	778
964.833	-184
964.920	-342
965.007	-271
965.094	-631
965.181	-541
965.268	-364
965.355	178
965.441	-437
965.528	-735
965.615	-228
965.702	299
965.789	-945
965.875	275
965.962	-1391
966.049	-772
966.136	-65
966.222	-224
966.309	-467
966.395	-491
966.482	-256
966.569	-720
966.655	-984
966.742	-888
966.828	93
966.915	-314
967.001	-635
967.087	-744
967.174	-365
967.260	-236
967.347	82
967.433	2218
967.519	8324
967.605	4403
967.692	82
967.778	334
967.864	-818
967.950	-1012
968.036	-882
968.123	-758
968.209	-753
968.295	-1237
968.381	-750
968.467	-324
968.553	-1503
968.639	-687
968.725	-963
968.811	771
968.897	1019
968.983	-552
969.069	-899
969.154	22
969.240	-528
969.326	-1000
969.412	-812
969.497	-1044
969.583	-1264
969.669	99
969.755	-717
969.840	-725
969.926	-914
970.012	-501
970.097	-167
970.183	228
970.268	358
970.354	376
970.439	934
970.525	4792
970.610	1897
970.696	307
970.781	58
970.866	-1542
970.952	-676
971.037	-938
971.122	-1278
971.208	-448
971.293	-428
971.378	343
971.463	-806
971.549	-124
971.634	-609
971.719	-140
971.804	-947
971.889	315
971.974	-106
972.059	-335
972.144	-463
972.229	-1206
972.314	-834
972.399	41
972.484	-607
972.569	-654
972.654	-572
972.739	1480
972.824	2311
972.908	303
972.993	-1610
973.078	-117
973.163	-1062
973.247	-324
973.332	-1664
973.417	401
973.501	-1506
973.586	-879
973.671	-187
973.755	-575
973.840	-266
973.924	-395
974.009	-380
974.093	-1075
974.178	63
974.262	549
974.346	1489
974.431	805
974.515	-1725
974.600	-486
974.684	-137
974.768	-978
974.852	164
974.937	-1235
975.021	-327
975.105	-1205
975.189	-1029
975.273	-1032
975.358	-1028
975.442	-1548
975.526	-422
975.610	-762
975.694	-1131
975.778	203
975.862	-453
975.946	-1438
976.030	152
976.114	-1136
976.198	-1214
976.281	-1573
976.365	-638
976.449	-736
976.533	-1240
976.617	-1064
976.700	-532
976.784	-497
976.868	-285
976.951	758
977.035	-226
977.119	-552
977.202	-1027
977.286	-194
977.369	-1344
977.453	297
977.536	-1109
977.620	-1490
977.703	-475
977.787	-1058
977.870	-483
977.953	144
978.037	-1608
978.120	646
978.203	-272
978.287	2211
978.370	1091
978.453	-683
978.536	-352
978.620	196
978.703	95
978.786	437
978.869	-2009
978.952	-1476
979.035	-773
979.118	-531
979.201	-1642
979.284	-1041
979.367	-1035
979.450	-779
979.533	-722
979.616	-936
979.699	-789
979.782	-106
979.865	-682
979.948	-750
980.030	-2110
980.113	-540
980.196	-1687
980.279	-422
980.361	-789
980.444	-852
980.526	-976
980.609	-424
980.692	-543
980.774	860
980.857	-2440
980.939	-353
981.022	-500
981.104	-891
981.187	-1138
981.269	-346
981.352	-757
981.434	-436
981.516	-1326
981.599	55
981.681	-676
981.763	-400
981.846	-638
981.928	-993
982.010	-637
982.092	-1077
982.174	-699
982.256	-442
982.339	-1056
982.421	-1050
982.503	-649
982.585	-1175
982.667	-1058
982.749	-557
982.831	-796
982.913	-1432
982.995	-461
983.077	-1461
983.158	136
983.240	-1323
983.322	102
983.404	-715
983.486	-634
983.568	-393
983.649	-613
983.731	-280
983.813	-1481
983.894	-604
983.976	-1224
984.058	-374
984.139	-501
984.221	-1170
984.302	-523
984.384	-936
984.465	-538
984.547	-425
984.628	-1363
984.710	461
984.791	-974
984.872	-912
984.954	-1374
985.035	-937
985.116	-1135
985.198	-236
985.279	-833
985.360	-552
985.441	-700
985.522	-311
985.604	-518
985.685	-2022
985.766	-470
985.847	422
985.928	-237
986.009	-1141
986.090	-723
986.171	10
986.252	-870
986.333	-447
986.414	-1391
986.495	-482
986.576	-823
986.656	-752
986.737	-1583
986.818	-490
986.899	-1249
986.980	-439
987.060	-202
987.141	-1334
987.222	-994
987.302	-103
987.383	-870
987.464	-565
987.544	-809
987.625	-1019
987.705	-1701
987.786	-540
987.866	-1007
987.947	-972
988.027	-37
988.108	-1065
988.188	-815
988.268	441
988.349	-1560
988.429	-1648
988.509	-511
988.589	-154
988.670	-1985
988.750	597
988.830	-364
988.910	-588
988.990	-725
989.070	-1600
989.151	-1046
989.231	-1346
989.311	-404
989.391	-942
989.471	-1542
989.551	36
989.631	-1230
989.711	-1094
989.791	-1383
989.870	-489
989.950	-227
990.030	-617
990.110	-1587
990.190	-652
990.269	-766
990.349	-1551
990.429	-473
990.509	-409
990.588	-1036
990.668	-370
990.747	-890
990.827	-1441
990.907	248
990.986	-946
991.066	-648
991.145	-1473
991.225	-728
991.304	-781
991.383	-1412
991.463	-623
991.542	-835
991.622	-1196
991.701	-1245
991.780	-939
991.859	-1592
991.939	-880
992.018	-1031
992.097	437
992.176	-605
992.256	-678
992.335	-1747
992.414	-20
992.493	-677
992.572	-1258
992.651	58
992.730	-297
992.809	-795
992.888	-1342
992.967	-1760
993.046	-852
993.125	-1779
993.203	-832
993.282	-1096
993.361	-1287
993.440	-880
993.519	-811
993.597	-534
993.676	-1844
993.755	-638
993.834	-642
993.912	-1581
993.991	392
994.069	-1664
994.148	-568
994.226	-911
994.305	-508
994.384	-1888
994.462	-651
994.540	-2105
994.619	-1077
994.697	-1027
994.776	-1758
994.854	-513
994.932	-1349
995.011	-782
995.089	-1269
995.167	-784
995.245	-710
995.324	-1451
995.402	-645
995.480	-2185
995.558	-1363
995.636	-1603
995.714	-1233
995.792	-818
995.870	-1268
995.948	-1517
996.026	-809
996.104	-1634
996.182	-137
996.260	-1795
996.338	-466
996.416	-1696
996.494	-1972
996.572	-646
996.649	-201
996.727	-1438
996.805	-741
996.883	-1563
996.960	-1123
997.038	-944
997.116	-644
997.193	-2123
997.271	-509
997.348	-2316
997.426	-885
997.504	-1563
997.581	-278
997.658	-854
997.736	-1966
997.813	-1510
997.891	-655
997.968	-996
998.046	-643
998.123	-1145
998.200	-1276
998.277	-2032
998.355	-1414
998.432	-2254
998.509	-1392
998.586	-618
998.663	-1286
998.741	-907
998.818	-1062
998.895	-1420
998.972	-1056
999.049	-1320
999.126	-1303
999.203	-1234
999.280	-1165
999.357	-1867
999.434	-1562
999.511	-796
999.587	-888
999.664	-1814
999.741	-1504
999.818	-1232
999.895	-1081
999.971	-641
1000.048	-2156
1000.125	-876
1000.202	-645
1000.278	-1130
1000.355	-1229
1000.431	-2101
1000.508	-2327
1000.584	-1070
1000.661	-910
1000.738	-2224
1000.814	-1548
1000.890	-974
1000.967	-1702
1001.043	-1522
1001.120	-2317
1001.196	-793
1001.272	-1498
1001.349	-1516
1001.425	-1063
1001.501	-2258
1001.577	-1658
1001.654	-1311
1001.730	-1485
1001.806	-927
1001.882	-1743
1001.958	-1448
1002.034	-1082
1002.110	-1348
1002.186	-2256
1002.262	-1743
1002.338	-1634
1002.414	-961
1002.490	-1413
1002.566	-1742
1002.642	-925
1002.718	-1248
1002.794	-1464
1002.870	-1747
1002.945	-1579
1003.021	-1481
1003.097	-1955
1003.173	-1860
1003.248	-1341
1003.324	-1912
1003.400	-1644
1003.475	-1781
1003.551	-1019
1003.626	-1419
1003.702	-1832
1003.777	-1237
1003.853	-1755
1003.928	-2251
1004.004	-1843
1004.079	-1585
1004.155	-1381
1004.230	-2332
1004.305	-1083
1004.381	-1659
1004.456	-1139
1004.531	-816
1004.607	-1670
1004.682	-2273
1004.757	-1453
1004.832	-2089
1004.907	-1163
1004.982	-657
1005.057	-915
1005.133	-2206
1005.208	-2210
1005.283	-1603
1005.358	-1462
1005.433	-2314
1005.508	-1729
1005.583	-1899
1005.657	-1659
1005.732	-826
1005.807	-1679
1005.882	-2035
1005.957	-1049
1006.032	-932
1006.106	-1564
1006.181	-2407
1006.256	-1450
1006.331	-1942
1006.405	-2012
1006.480	-1389
1006.554	-1867
1006.629	-1664
1006.704	-839
1006.778	-1659
1006.853	-712
1006.927	-2178
1007.002	-1827
1007.076	-1748
1007.150	-1407
1007.225	-1449
1007.299	-1368
1007.373	-2093
1007.448	-1599
1007.522	-1780
1007.596	-2028
1007.671	-1899
1007.745	-1702
1007.819	-2294
1007.893	-1165
1007.967	-1882
1008.041	-1704
1008.115	-1649
1008.190	-2330
1008.264	-1848
1008.338	-2129
1008.412	-1924
1008.486	-1755
1008.560	-1219
1008.633	-1513
1008.707	-1510
1008.781	-984
1008.855	-1604
1008.929	-2017
1009.003	-1612
1009.076	-1797
1009.150	-1666
1009.224	-2032
1009.298	-2272
1009.371	-2205
1009.445	-1564
1009.519	-1447
1009.592	-2338
1009.666	-1517
1009.739	-1964
1009.813	-2085
1009.886	-1220
1009.960	-2913
1010.033	-1804
1010.107	-1778
1010.180	-1828
1010.253	-1898
1010.327	-2441
1010.400	-2426
1010.473	-2315
1010.547	-918
1010.620	-1824
1010.693	-1728
1010.766	-2275
1010.840	-1501
1010.913	-2179
1010.986	-1458
1011.059	-1880
1011.132	-1496
1011.205	-1649
1011.278	-1254
1011.351	-2673
1011.424	-1592
1011.497	-2507
1011.570	-1188
1011.643	-2111
1011.716	-1999
1011.789	-2295
1011.862	-1163
1011.934	-1727
1012.007	-2715
1012.080	-2003
1012.153	-1088
1012.225	-1280
1012.298	-2044
1012.371	-2109
1012.443	-1054
1012.516	-2921
1012.588	-1308
1012.661	-1777
1012.733	-2330
1012.806	-1105
1012.879	-2271
1012.951	-2135
1013.023	-2096
1013.096	-1931
1013.168	-1528
1013.241	-1449
1013.313	-1667
1013.385	-1633
1013.458	-2015
1013.530	-1606
1013.602	-3003
1013.674	-1656
1013.746	-2010
1013.819	-1611
1013.891	-1442
1013.963	-2387
1014.035	-1797
1014.107	-2137
1014.179	-1908
1014.251	-2839
1014.323	-1602
1014.395	-1929
1014.467	-2189
1014.539	-2317
1014.611	-2072
1014.683	-2040
1014.754	-2798
1014.826	-1925
1014.898	-2207
1014.970	-2819
1015.042	-1295
1015.113	-2109
1015.185	-2789
1015.257	-2253
1015.328	-1039
1015.400	-1750
1015.471	-1361
1015.543	-2987
1015.615	-1733
1015.686	-2133
1015.757	-1974
1015.829	-1568
1015.901	-1610
1015.972	-2119
1016.043	-1577
1016.115	-2809
1016.186	-1952
1016.257	-2687
1016.328	-2122
1016.400	-2103
1016.471	-2540
1016.542	-2757
1016.613	-2255
1016.685	-1910
1016.756	-2055
1016.827	-1914
1016.898	-1859
1016.969	-1915
1017.040	-2013
1017.111	-2076
1017.182	-2404
1017.253	-2276
1017.324	-1976
1017.395	-2647
1017.466	-2062
1017.537	-1851
1017.608	-1772
1017.678	-2607
1017.749	-1686
1017.820	-2224
1017.891	-2464
1017.961	-2925
1018.032	-2034
1018.103	-1749
1018.173	-2403
1018.244	-3376
1018.315	-1865
1018.385	-1369
1018.456	-1988
1018.526	-2058
1018.597	-2160
1018.667	-2485
1018.738	-2110
1018.808	-2479
1018.878	-2239
1018.949	-2485
1019.019	-1973
1019.089	-1907
1019.160	-1952
1019.230	-3291
1019.300	-2006
1019.371	-2658
1019.441	-1802
1019.511	-2509
1019.581	-2585
1019.651	-2819
1019.721	-1691
1019.791	-2258
1019.861	-2695
1019.931	-2254
1020.001	-2143
1020.071	-2671
1020.141	-1766
1020.211	-2519
1020.281	-2145
1020.351	-2085
1020.421	-1493
1020.491	-1921
1020.560	-2771
1020.630	-3398
1020.700	-2454
1020.770	-2634
1020.839	-1684
1020.909	-2614
1020.979	-1960
1021.048	-2529
1021.118	-1766
1021.187	-2297
1021.257	-2267
1021.326	-2241
1021.396	-2209
1021.465	-3169
1021.535	-2424
1021.604	-3460
1021.674	-1915
1021.743	-2004
1021.812	-1805
1021.882	-2093
1021.951	-2401
1022.020	-2004
1022.089	-1725
1022.159	-2411
1022.228	-1274
1022.297	-3099
1022.366	-1609
1022.435	-2864
1022.504	-2447
1022.573	-3143
1022.642	-2223
1022.711	-2685
1022.781	-2225
1022.849	-2339
1022.918	-2797
1022.987	-1956
1023.056	-2812
1023.125	-1903
1023.194	-2101
1023.263	-2786
1023.331	-1860
1023.400	-2516
1023.469	-2998
1023.538	-2115
1023.606	-2507
1023.675	-2842
1023.744	-2537
1023.812	-2754
1023.881	-2507
1023.949	-2194
1024.018	-2199
1024.086	-3232
1024.155	-2332
1024.223	-2448
1024.292	-2521
1024.360	-1430
1024.429	-2373
1024.497	-2943
1024.565	-1916
1024.634	-2490
1024.702	-1738
1024.770	-2262
1024.838	-2652
1024.907	-1787
1024.975	-3187
1025.043	-3057
1025.111	-2394
1025.179	-2202
1025.247	-2115
1025.315	-2647
1025.383	-2004
1025.451	-2237
1025.519	-1800
1025.587	-3089
1025.655	-2841
1025.723	-2301
1025.791	-1538
1025.859	-2984
1025.927	-1830
1025.995	-3440
1026.062	-1979
1026.130	-2667
1026.198	-2188
1026.266	-2700
1026.333	-2117
1026.401	-2705
1026.469	-1462
1026.536	-2623
1026.604	-2496
1026.671	-2561
1026.739	-2233
1026.806	-2897
1026.874	-2335
1026.941	-2474
1027.009	-2954
1027.076	-4065
1027.144	-2179
1027.211	-2387
1027.278	-2536
1027.345	-2933
1027.413	-2416
1027.480	-3008
1027.547	-2088
1027.614	-1899
1027.682	-1549
1027.749	-3035
1027.816	-1953
1027.883	-1827
1027.950	-1653
1028.017	-2826
1028.084	-2286
1028.151	-2621
1028.218	-2387
1028.285	-2887
1028.352	-2497
1028.419	-2311
1028.486	-2412
1028.553	-2188
1028.619	-2910
1028.686	-2511
1028.753	-2408
1028.820	-1892
1028.886	-2754
1028.953	-2732
1029.020	-2450
1029.086	-3395
1029.153	-2892
1029.220	-3007
1029.286	-2119
1029.353	-2060
1029.419	-2291
1029.486	-2189
1029.552	-1822
1029.619	-2750
1029.685	-2580
1029.751	-2919
1029.818	-2387
1029.884	-2998
1029.951	-1328
1030.017	-2289
1030.083	-2296
1030.149	-2805
1030.216	-1815
1030.282	-2442
1030.348	-3176
1030.414	-2880
1030.480	-2937
1030.546	-2815
1030.612	-2221
1030.678	-2609
1030.744	-2323
1030.810	-2724
1030.876	-2387
1030.942	-2830
1031.008	-2067
1031.074	-2957
1031.140	-2236
1031.206	-1485
1031.272	-2880
1031.337	-2564
1031.403	-1934
1031.469	-2686
1031.534	-1837
1031.600	-2185
1031.666	-2265
1031.731	-2274
1031.797	-1756
1031.863	-1671
1031.928	-1886
1031.994	-2381
1032.059	-2254
1032.125	-2742
1032.190	-2491
1032.256	-2485
1032.321	-2395
1032.386	-2749
1032.452	-2232
1032.517	-2828
1032.582	-2203
1032.647	-1974
1032.713	-1152
1032.778	-2918
1032.843	-2606
1032.908	-2678
1032.974	-1346
1033.039	-2465
1033.104	-1338
1033.169	-2789
1033.234	-2746
1033.299	-1286
1033.364	-1925
1033.429	-3095
1033.494	-2210
1033.559	-2580
1033.624	-1819
1033.688	-1767
1033.753	-2354
1033.818	-2450
1033.883	-1918
1033.948	-2137
1034.013	-1629
1034.077	-2078
1034.142	-2023
1034.207	-2917
1034.271	-1551
1034.336	-1570
1034.400	-1515
1034.465	-2591
1034.530	-745
1034.594	-1823
1034.658	-1592
1034.723	-2742
1034.787	-1907
1034.852	-1779
1034.916	-2123
1034.981	-3265
1035.045	-1917
1035.109	-2257
1035.173	-2207
1035.238	-2067
1035.302	-2264
1035.366	-1869
1035.430	-2350
1035.495	-2612
1035.559	-2069
1035.623	-2950
1035.687	-1806
1035.751	-2997
1035.815	-1595
1035.879	-2500
1035.943	-1470
1036.007	-2458
1036.071	-2710
1036.135	-2315
1036.198	-2049
1036.262	-2407
1036.326	-1286
1036.390	-2578
1036.454	-2213
1036.517	-2240
1036.581	-1907
1036.645	-1930
1036.709	-1850
1036.772	-2522
1036.836	-1834
1036.900	-2628
1036.963	-2351
1037.026	-2530
1037.090	-1995
1037.154	-2750
1037.217	-1248
1037.280	-2460
1037.344	-2610
1037.407	-2219
1037.471	-1999
1037.534	-2263
1037.597	-2768
1037.661	-2787
1037.724	-2366
1037.787	-2087
1037.850	-1837
1037.913	-2500
1037.977	-1702
1038.040	-2561
1038.103	-1943
1038.166	-2227
1038.229	-1519
1038.292	-2436
1038.355	-2074
1038.418	-2232
1038.481	-1886
1038.544	-2107
1038.607	-2595
1038.670	-2667
1038.732	-2087
1038.795	-2425
1038.858	-2558
1038.921	-1705
1038.984	-1924
1039.046	-3510
1039.109	-2360
1039.172	-1865
1039.234	-2311
1039.297	-2632
1039.360	-2692
1039.422	-1712
1039.485	-1792
1039.547	-3121
1039.610	-2295
1039.672	-2139
1039.734	-2254
1039.797	-2651
1039.859	-2351
1039.922	-2791
1039.984	-1752
1040.046	-2057
1040.109	-1823
1040.171	-2404
1040.233	-2336
1040.295	-2020
1040.358	-2490
1040.420	-1906
1040.482	-2976
1040.544	-1931
1040.606	-1476
1040.668	-3080
1040.730	-1464
1040.792	-2249
1040.854	-2599
1040.916	-1737
1040.978	-1852
1041.040	-827
1041.102	-2344
1041.164	-2444
1041.225	-2689
1041.287	-2923
1041.349	-1830
1041.411	-2298
1041.472	-1641
1041.534	-2916
1041.596	-2476
1041.657	-2517
1041.719	-2601
1041.781	-2638
1041.842	-2141
1041.904	-2489
1041.965	-1885
1042.027	-2178
1042.088	-2030
1042.150	-2669
1042.211	-2232
1042.272	-2403
1042.334	-2236
1042.395	-1984
1042.456	-2288
1042.518	-2748
1042.579	-1825
1042.640	-1879
1042.701	-1727
1042.763	-2315
1042.824	-1713
1042.885	-2530
1042.946	-1273
1043.007	-1216
1043.068	-2388
1043.129	-2080
1043.190	-2549
1043.251	-2046
1043.312	-1868
1043.373	-2399
1043.434	-1074
1043.495	-2432
1043.556	-1853
1043.616	-2569
1043.677	-2246
1043.738	-2532
1043.799	-2264
1043.859	-2298
1043.920	-1444
1043.981	-1505
1044.041	-2166
1044.102	-2406
1044.162	-1725
1044.223	-2665
1044.284	-2083
1044.344	-2481
1044.405	-2111
1044.465	-2789
1044.525	-1728
1044.586	-2748
1044.646	-2015
1044.707	-1094
1044.767	-2639
1044.827	-2526
1044.887	-2279
1044.948	-2041
1045.008	-2055
1045.068	-2599
1045.128	-1668
1045.188	-2136
1045.249	-1011
1045.309	-2561
1045.369	-1975
1045.429	-2330
1045.489	-2639
1045.549	-2063
1045.609	-3070
1045.669	-2078
1045.729	-1637
1045.789	-2792
1045.848	-1998
1045.908	-1233
1045.968	-2087
1046.028	-1496
1046.088	-2054
1046.147	-2153
1046.207	-1828
1046.267	-1584
1046.326	-1232
1046.386	-1528
1046.446	-1144
1046.505	-1467
1046.565	-1345
1046.624	-1861
1046.684	-740
1046.743	-1293
1046.803	-823
1046.862	-866
1046.922	0
