'Start Wavelength	183.907
'End Wavelength	1046.922
'Gate Delay	5.000
'Gate Width (ms)	1.050
'Laser Output Level	0.000
'X Position	0.000
'Y Position	0.000
'Z Position	0.000
'Grid Point Number	1.000
'Shot Number	100.000
183.907	1443.000
183.977	831.000
184.047	502
184.116	738
184.186	353
184.256	220
184.325	-234
184.395	-867
184.465	402
184.534	480
184.604	-154
184.674	952
184.743	87
184.813	783
184.883	440
184.952	350
185.022	678
185.092	-271
185.161	92
185.231	394
185.301	-168
185.370	616
185.440	-262
185.509	237
185.579	679
185.649	-33
185.718	908
185.788	276
185.857	36
185.927	350
185.996	144
186.066	526
186.136	59
186.205	-56
186.275	283
186.344	-97
186.414	110
186.483	-383
186.553	1489
186.622	1595
186.692	1154
186.761	294
186.831	469
186.900	164
186.970	1074
187.039	581
187.109	435
187.178	565
187.248	711
187.317	57
187.387	315
187.456	1472
187.526	66
187.595	1098
187.664	693
187.734	788
187.803	317
187.873	1202
187.942	560
188.012	898
188.081	646
188.150	773
188.220	719
188.289	881
188.358	1452
188.428	902
188.497	-358
188.567	1034
188.636	63
188.705	209
188.775	564
188.844	-566
188.913	454
188.983	553
189.052	255
189.121	113
189.191	-261
189.260	636
189.329	313
189.399	299
189.468	428
189.537	99
189.606	670
189.676	295
189.745	373
189.814	113
189.883	-581
189.953	1157
190.022	435
190.091	752
190.161	1351
190.230	1155
190.299	690
190.368	919
190.437	-307
190.507	125
190.576	303
190.645	43
190.714	972
190.783	-253
190.853	1040
190.922	418
190.991	280
191.060	144
191.129	85
191.198	311
191.268	320
191.337	595
191.406	970
191.475	112
191.544	224
191.613	291
191.682	-76
191.752	924
191.821	-212
191.890	-462
191.959	234
192.028	-93
192.097	-52
192.166	-74
192.235	-539
192.304	350
192.373	-215
192.442	726
192.511	181
192.580	514
192.650	305
192.719	47
192.788	782
192.857	624
192.926	621
192.995	496
193.064	655
193.133	1195
193.202	-232
193.271	356
193.340	759
193.409	-52
193.478	336
193.547	637
193.615	768
193.684	906
193.753	452
193.822	1082
193.891	195
193.960	935
194.029	539
194.098	93
194.167	-9
194.236	1066
194.305	18
194.374	675
194.443	236
194.512	392
194.580	341
194.649	484
194.718	360
194.787	567
194.856	326
194.925	342
194.994	482
195.062	746
195.131	494
195.200	250
195.269	425
195.338	1294
195.407	1471
195.475	365
195.544	113
195.613	-98
195.682	832
195.751	469
195.819	47
195.888	488
195.957	966
196.026	458
196.094	718
196.163	816
196.232	492
196.301	496
196.369	-82
196.438	944
196.507	785
196.576	390
196.644	556
196.713	-170
196.782	653
196.850	558
196.919	733
196.988	926
197.056	687
197.125	567
197.194	327
197.262	354
197.331	-391
197.400	286
197.468	21
197.537	93
197.606	-66
197.674	334
197.743	708
197.812	586
197.880	254
197.949	554
198.017	833
198.086	898
198.155	474
198.223	151
198.292	1265
198.360	344
198.429	339
198.497	431
198.566	139
198.635	920
198.703	441
198.772	875
198.840	1582
198.909	935
198.977	827
199.046	440
199.114	462
199.183	-123
199.251	383
199.320	944
199.388	232
199.457	116
199.525	577
199.594	488
199.662	824
199.731	682
199.799	991
199.867	1382
199.936	1010
200.004	860
200.073	323
200.141	275
200.210	38
200.278	508
200.346	288
200.415	928
200.483	416
200.552	656
200.620	749
200.688	590
200.757	-21
200.825	708
200.893	-677
200.962	-141
201.030	587
201.098	238
201.167	440
201.235	629
201.303	409
201.372	1124
201.440	900
201.508	1387
201.577	981
201.645	751
201.713	246
201.781	679
201.850	751
201.918	1110
201.986	824
202.055	914
202.123	981
202.191	912
202.259	779
202.327	969
202.396	541
202.464	936
202.532	595
202.600	2735
202.669	2537
202.737	2320
202.805	-167
202.873	1570
202.941	839
203.009	818
203.078	225
203.146	383
203.214	-257
203.282	540
203.350	56
203.418	232
203.487	1035
203.555	-15
203.623	463
203.691	1402
203.759	213
203.827	398
203.895	921
203.963	255
204.031	240
204.099	854
204.168	171
204.236	587
204.304	748
204.372	-523
204.440	1021
204.508	73
204.576	-163
204.644	344
204.712	501
204.780	157
204.848	1
204.916	511
204.984	395
205.052	1063
205.120	333
205.188	331
205.256	242
205.324	-347
205.392	157
205.460	898
205.528	-384
205.596	469
205.664	326
205.732	617
205.799	260
205.867	890
205.935	-128
206.003	1175
206.071	-110
206.139	-161
206.207	454
206.275	1236
206.343	467
206.411	70
206.478	928
206.546	918
206.614	24
206.682	620
206.750	-119
206.818	1416
206.885	1600
206.953	114
207.021	1149
207.089	938
207.157	-266
207.225	-41
207.292	-547
207.360	114
207.428	-799
207.496	113
207.563	494
207.631	663
207.699	359
207.767	224
207.834	-34
207.902	1436
207.970	316
208.038	95
208.105	798
208.173	-184
208.241	-37
208.309	610
208.376	1200
208.444	1613
208.512	257
208.579	-646
208.647	1628
208.715	1386
208.782	-187
208.850	94
208.918	-42
208.985	654
209.053	440
209.120	732
209.188	-190
209.256	966
209.323	-789
209.391	39
209.459	1656
209.526	751
209.594	1148
209.661	324
209.729	528
209.796	1176
209.864	1270
209.932	-196
209.999	1305
210.067	404
210.134	-307
210.202	131
210.269	1273
210.337	1222
210.404	52
210.472	363
210.539	680
210.607	232
210.674	-274
210.742	1092
210.809	363
210.877	503
210.944	1072
211.012	-342
211.079	2071
211.146	644
211.214	863
211.281	1812
211.349	1750
211.416	1578
211.484	447
211.551	-16
211.618	-39
211.686	294
211.753	-199
211.821	-11
211.888	903
211.955	432
212.023	374
212.090	1040
212.157	207
212.225	616
212.292	879
212.359	1389
212.427	3932
212.494	2967
212.561	692
212.629	118
212.696	791
212.763	791
212.831	98
212.898	1277
212.965	211
213.032	1242
213.100	461
213.167	-403
213.234	1695
213.301	1276
213.369	679
213.436	1115
213.503	253
213.570	473
213.638	667
213.705	142
213.772	353
213.839	0
213.906	1548
213.973	428
214.041	457
214.108	710
214.175	828
214.242	-469
214.309	712
214.376	22
214.444	330
214.511	1198
214.578	1034
214.645	1366
214.712	1299
214.779	1367
214.846	426
214.913	1566
214.980	1719
215.048	2140
215.115	3008
215.182	1201
215.249	326
215.316	183
215.383	548
215.450	755
215.517	865
215.584	1014
215.651	-510
215.718	1110
215.785	520
215.852	-166
215.919	953
215.986	462
216.053	336
216.120	226
216.187	-31
216.254	1265
216.321	68
216.388	651
216.455	1070
216.522	682
216.589	658
216.656	160
216.722	1188
216.789	305
216.856	397
216.923	423
216.990	664
217.057	148
217.124	921
217.191	511
217.258	1262
217.324	1098
217.391	677
217.458	1608
217.525	796
217.592	295
217.659	-569
217.725	1053
217.792	-138
217.859	844
217.926	-157
217.993	816
218.059	1105
218.126	480
218.193	-344
218.260	55
218.327	-659
218.393	789
218.460	431
218.527	131
218.594	614
218.660	379
218.727	1000
218.794	405
218.860	1782
218.927	234
218.994	736
219.061	44
219.127	1385
219.194	1159
219.261	93
219.327	515
219.394	1188
219.461	-416
219.527	173
219.594	807
219.661	728
219.727	-334
219.794	1751
219.860	-47
219.927	992
219.994	1742
220.060	4499
220.127	4794
220.193	3011
220.260	1375
220.326	2471
220.393	1540
220.460	2275
220.526	824
220.593	273
220.659	2369
220.726	777
220.792	3280
220.859	1531
220.925	2715
220.992	4686
221.058	4095
221.125	4036
221.191	2631
221.258	756
221.324	1533
221.391	536
221.457	267
221.524	1024
221.590	1596
221.657	3011
221.723	2270
221.789	1587
221.856	3021
221.922	34
221.989	1715
222.055	317
222.121	-30
222.188	2783
222.254	765
222.321	646
222.387	540
222.453	700
222.520	436
222.586	567
222.652	831
222.719	-641
222.785	1431
222.851	-429
222.918	407
222.984	-63
223.050	450
223.116	-1144
223.183	506
223.249	371
223.315	574
223.382	694
223.448	212
223.514	-52
223.580	572
223.647	-536
223.713	-540
223.779	-2
223.845	105
223.911	587
223.978	-442
224.044	803
224.110	389
224.176	637
224.242	80
224.309	-412
224.375	442
224.441	210
224.507	683
224.573	-649
224.639	1001
224.705	-59
224.772	150
224.838	420
224.904	767
224.970	-384
225.036	-206
225.102	238
225.168	1256
225.234	846
225.300	513
225.366	945
225.432	654
225.499	596
225.565	1194
225.631	395
225.697	-13
225.763	1097
225.829	1499
225.895	952
225.961	687
226.027	1631
226.093	337
226.159	1672
226.225	2163
226.291	3279
226.357	7094
226.423	3372
226.489	1794
226.554	1071
226.620	1534
226.686	964
226.752	1927
226.818	2707
226.884	9778
226.950	9965
227.016	3559
227.082	2219
227.148	1133
227.214	1271
227.279	1354
227.345	1121
227.411	2084
227.477	3536
227.543	9097
227.609	8589
227.674	5504
227.740	2446
227.806	906
227.872	667
227.938	773
228.003	1533
228.069	456
228.135	-198
228.201	1852
228.267	-41
228.332	518
228.398	-638
228.464	692
228.530	9
228.595	886
228.661	-530
228.727	13
228.792	1828
228.858	923
228.924	-964
228.990	1642
229.055	285
229.121	688
229.187	883
229.252	-175
229.318	-833
229.384	769
229.449	289
229.515	-1633
229.581	-453
229.646	1563
229.712	217
229.777	750
229.843	696
229.909	419
229.974	1179
230.040	856
230.105	614
230.171	830
230.236	1118
230.302	495
230.368	295
230.433	-736
230.499	726
230.564	1418
230.630	-311
230.695	330
230.761	1639
230.826	-1452
230.892	1510
230.957	-530
231.023	-14
231.088	412
231.154	322
231.219	909
231.284	35
231.350	1564
231.415	-459
231.481	308
231.546	399
231.612	861
231.677	-540
231.742	-767
231.808	1089
231.873	-1282
231.939	-1613
232.004	1897
232.069	1419
232.135	-728
232.200	-949
232.265	1067
232.331	96
232.396	559
232.461	20
232.527	-226
232.592	-340
232.657	1233
232.723	415
232.788	-122
232.853	1336
232.918	571
232.984	-493
233.049	-268
233.114	-284
233.179	582
233.245	1724
233.310	866
233.375	-512
233.440	782
233.506	11
233.571	-135
233.636	358
233.701	180
233.766	8
233.832	760
233.897	-173
233.962	-1392
234.027	909
234.092	281
234.157	491
234.222	498
234.288	1091
234.353	700
234.418	1625
234.483	1322
234.548	215
234.613	-261
234.678	998
234.743	-56
234.808	1328
234.873	6
234.938	1337
235.004	307
235.069	432
235.134	149
235.199	549
235.264	-160
235.329	-301
235.394	922
235.459	1421
235.524	-512
235.589	711
235.654	399
235.719	-1190
235.784	1173
235.849	95
235.913	377
235.978	923
236.043	1090
236.108	298
236.173	-97
236.238	901
236.303	-28
236.368	-67
236.433	921
236.498	54
236.563	1312
236.627	2080
236.692	13084
236.757	11634
236.822	3245
236.887	1381
236.952	1939
237.017	-297
237.081	2536
237.146	1474
237.211	4418
237.276	11704
237.341	25075
237.405	8358
237.470	3129
237.535	1953
237.600	1872
237.664	705
237.729	60
237.794	216
237.859	3082
237.923	1126
237.988	499
238.053	1899
238.118	154
238.182	1574
238.247	2979
238.312	-729
238.376	767
238.441	-566
238.506	1687
238.570	-285
238.635	941
238.700	1274
238.764	585
238.829	1204
238.893	145
238.958	1114
239.023	704
239.087	314
239.152	1313
239.216	-110
239.281	565
239.346	376
239.410	1051
239.475	-127
239.539	3360
239.604	905
239.668	2376
239.733	1765
239.797	7097
239.862	17277
239.926	12124
239.991	5258
240.055	2503
240.120	1189
240.184	1860
240.249	663
240.313	287
240.378	507
240.442	956
240.507	1921
240.571	495
240.635	324
240.700	777
240.764	705
240.829	683
240.893	-318
240.957	464
241.022	1582
241.086	2055
241.151	11
241.215	-394
241.279	1399
241.344	-545
241.408	107
241.472	74
241.537	1879
241.601	946
241.665	224
241.730	262
241.794	1019
241.858	-297
241.922	1282
241.987	760
242.051	594
242.115	-94
242.179	702
242.244	1003
242.308	1085
242.372	1657
242.436	-993
242.501	659
242.565	191
242.629	130
242.693	1172
242.757	-242
242.822	663
242.886	1663
242.950	694
243.014	-331
243.078	582
243.142	663
243.206	123
243.271	1005
243.335	210
243.399	1725
243.463	4307
243.527	14890
243.591	3848
243.655	695
243.719	1059
243.783	2353
243.847	976
243.911	2850
243.975	1048
244.040	-501
244.104	2789
244.168	75
244.232	69
244.296	1375
244.360	1766
244.424	188
244.488	1063
244.552	625
244.615	-364
244.679	727
244.743	631
244.807	12
244.871	1070
244.935	426
244.999	-513
245.063	446
245.127	1851
245.191	311
245.255	1421
245.319	2109
245.383	-1183
245.446	1285
245.510	-993
245.574	81
245.638	972
245.702	336
245.766	949
245.829	2535
245.893	-274
245.957	379
246.021	1476
246.085	372
246.149	1352
246.212	2272
246.276	2097
246.340	951
246.404	733
246.467	1816
246.531	-491
246.595	910
246.659	1643
246.722	-1228
246.786	514
246.850	836
246.913	1348
246.977	104
247.041	1155
247.104	921
247.168	1372
247.232	1661
247.295	4590
247.359	2426
247.423	777
247.486	1628
247.550	1539
247.614	994
247.677	1121
247.741	815
247.804	851
247.868	3297
247.932	1382
247.995	5887
248.059	1185
248.122	-13
248.186	1828
248.249	2069
248.313	7226
248.376	7792
248.440	4175
248.503	833
248.567	2426
248.630	1138
248.694	1341
248.757	3852
248.821	9416
248.884	5450
248.948	2771
249.011	5455
249.075	9485
249.138	9322
249.202	2937
249.265	902
249.328	2673
249.392	482
249.455	2002
249.519	1077
249.582	1325
249.645	1892
249.709	2191
249.772	2300
249.835	1094
249.899	1245
249.962	2192
250.025	647
250.089	3032
250.152	4200
250.215	1350
250.279	595
250.342	1669
250.405	1905
250.468	1309
250.532	1559
250.595	3984
250.658	12661
250.721	28421
250.785	7501
250.848	4792
250.911	2014
250.974	2445
251.038	1984
251.101	5846
251.164	2253
251.227	2256
251.290	2464
251.354	4438
251.417	20219
251.480	22793
251.543	11048
251.606	39789
251.669	31381
251.732	8163
251.795	7633
251.859	8940
251.922	25214
251.985	14255
252.048	5008
252.111	3414
252.174	1595
252.237	3427
252.300	10829
252.363	11076
252.426	33572
252.489	11948
252.552	4316
252.615	1778
252.678	3486
252.741	8107
252.804	11239
252.867	35259
252.930	16774
252.993	6690
253.056	5032
253.119	2697
253.182	2026
253.245	2649
253.308	3147
253.371	1470
253.434	2554
253.497	2530
253.559	4718
253.622	2803
253.685	1827
253.748	2357
253.811	499
253.874	2495
253.937	1242
254.000	1570
254.062	2236
254.125	4929
254.188	4375
254.251	2799
254.314	1211
254.376	1497
254.439	2413
254.502	2177
254.565	2610
254.628	6183
254.690	2146
254.753	740
254.816	1115
254.878	1237
254.941	3002
255.004	3861
255.067	2259
255.129	1209
255.192	1010
255.255	992
255.317	1603
255.380	2117
255.443	651
255.505	1305
255.568	987
255.631	209
255.693	1524
255.756	770
255.819	2036
255.881	1250
255.944	1679
256.006	1498
256.069	1187
256.132	964
256.194	968
256.257	1929
256.319	1026
256.382	2450
256.444	3554
256.507	2613
256.569	1489
256.632	1325
256.694	1982
256.757	5961
256.819	22845
256.882	7972
256.944	3404
257.007	2488
257.069	1693
257.132	1201
257.194	2903
257.257	1042
257.319	847
257.381	1444
257.444	4971
257.506	23859
257.569	28076
257.631	8054
257.693	5182
257.756	2630
257.818	1561
257.880	949
257.943	2061
258.005	291
258.067	1407
258.130	1638
258.192	1670
258.254	702
258.317	1149
258.379	2243
258.441	2323
258.503	3181
258.566	2097
258.628	3827
258.690	584
258.753	2139
258.815	2305
258.877	1238
258.939	1412
259.001	1411
259.064	1477
259.126	726
259.188	1173
259.250	1951
259.312	1695
259.375	1788
259.437	1506
259.499	1483
259.561	1537
259.623	1531
259.685	1345
259.747	1309
259.809	2907
259.872	3268
259.934	6316
259.996	7148
260.058	2335
260.120	726
260.182	1882
260.244	508
260.306	1753
260.368	1806
260.430	273
260.492	2742
260.554	4070
260.616	1852
260.678	3471
260.740	3697
260.802	1695
260.864	1222
260.926	47
260.988	1807
261.050	1502
261.112	2434
261.174	6550
261.236	4069
261.298	1429
261.359	2503
261.421	3095
261.483	1584
261.545	2648
261.607	1141
261.669	1711
261.731	1890
261.793	3057
261.854	831
261.916	1898
261.978	1459
262.040	2149
262.102	1415
262.164	1115
262.225	1697
262.287	1962
262.349	1888
262.411	1908
262.472	1733
262.534	1423
262.596	1819
262.658	2675
262.719	1383
262.781	2232
262.843	2145
262.904	2089
262.966	1318
263.028	1811
263.090	4862
263.151	15320
263.213	6500
263.275	3096
263.336	3080
263.398	2392
263.459	1211
263.521	1840
263.583	2288
263.644	2611
263.706	2101
263.767	1305
263.829	2021
263.891	1121
263.952	1151
264.014	1302
264.075	1958
264.137	4201
264.198	2774
264.260	1238
264.321	1804
264.383	2952
264.444	5487
264.506	1942
264.567	2171
264.629	2420
264.690	4306
264.752	2206
264.813	1465
264.875	922
264.936	2448
264.998	1512
265.059	1857
265.120	2687
265.182	2260
265.243	8262
265.305	10712
265.366	3297
265.427	1685
265.489	3402
265.550	1200
265.611	2206
265.673	1205
265.734	1818
265.795	1853
265.857	1370
265.918	2063
265.979	4151
266.040	16160
266.102	15757
266.163	4801
266.224	3182
266.286	2240
266.347	1927
266.408	1839
266.469	3113
266.530	1686
266.592	2369
266.653	2493
266.714	3027
266.775	1725
266.836	2074
266.898	2699
266.959	3675
267.020	2461
267.081	3686
267.142	3253
267.203	2477
267.264	2363
267.326	3858
267.387	3100
267.448	2700
267.509	2878
267.570	2448
267.631	2385
267.692	1574
267.753	2661
267.814	697
267.875	1633
267.936	3468
267.997	2130
268.058	2047
268.119	1256
268.180	921
268.241	896
268.302	1484
268.363	807
268.424	1307
268.485	1624
268.546	608
268.607	1235
268.668	909
268.729	1039
268.790	1103
268.851	966
268.912	1926
268.972	2189
269.033	1590
269.094	693
269.155	1914
269.216	1143
269.277	1061
269.338	1111
269.398	1514
269.459	286
269.520	1759
269.581	1865
269.642	2090
269.702	1046
269.763	1005
269.824	1346
269.885	2161
269.945	1958
270.006	1195
270.067	895
270.128	598
270.188	723
270.249	801
270.310	1288
270.370	1178
270.431	1331
270.492	1009
270.553	1195
270.613	1486
270.674	2581
270.734	945
270.795	861
270.856	1820
270.916	573
270.977	1076
271.038	1625
271.098	936
271.159	1566
271.219	1455
271.280	1919
271.340	2237
271.401	884
271.462	1280
271.522	1456
271.583	1778
271.643	570
271.704	1921
271.764	914
271.825	2327
271.885	7061
271.946	11171
272.006	4592
272.066	5682
272.127	10841
272.187	10595
272.248	5798
272.308	2661
272.369	7139
272.429	5241
272.489	3222
272.550	3918
272.610	3777
272.671	2751
272.731	3185
272.791	3779
272.852	2903
272.912	3250
272.972	3086
273.033	3467
273.093	2712
273.153	4453
273.214	4140
273.274	4325
273.334	7139
273.394	13033
273.455	7114
273.515	7827
273.575	10386
273.635	9024
273.696	9998
273.756	14677
273.816	9597
273.876	6941
273.936	7206
273.997	8017
274.057	4647
274.117	3644
274.177	4148
274.237	10057
274.297	9597
274.358	5106
274.418	6936
274.478	5217
274.538	2509
274.598	2161
274.658	3492
274.718	4449
274.778	3251
274.838	2966
274.898	3055
274.958	5516
275.018	8081
275.078	6207
275.138	2459
275.198	1913
275.258	2299
275.318	2252
275.378	2122
275.438	3142
275.498	3021
275.558	2544
275.618	5377
275.678	5348
275.738	3685
275.798	3708
275.858	1825
275.918	2471
275.978	1745
276.038	1664
276.098	2132
276.157	2556
276.217	5046
276.277	3109
276.337	2053
276.397	1996
276.457	2851
276.517	2532
276.576	2892
276.636	1901
276.696	2187
276.756	3009
276.815	3059
276.875	3422
276.935	3139
276.995	2639
277.055	2663
277.114	3789
277.174	3095
277.234	5102
277.293	3385
277.353	2839
277.413	3053
277.472	3237
277.532	3140
277.592	5913
277.651	19835
277.711	42084
277.771	15670
277.830	38939
277.890	38084
277.950	28230
278.009	73301
278.069	33845
278.128	30510
278.188	45515
278.248	22064
278.307	48270
278.367	31851
278.426	8910
278.486	7312
278.545	5299
278.605	4982
278.664	4172
278.724	4393
278.783	6924
278.843	11947
278.902	6700
278.962	5306
279.021	6144
279.081	11561
279.140	11874
279.199	7814
279.259	8668
279.318	10936
279.378	15429
279.437	24908
279.496	59232
279.556	172909
279.615	158280
279.675	58262
279.734	32106
279.793	28970
279.853	33662
279.912	17592
279.971	13150
280.031	11182
280.090	15448
280.149	22865
280.208	35873
280.268	121478
280.327	138863
280.386	44009
280.445	23004
280.505	16040
280.564	12521
280.623	8756
280.682	8441
280.742	8812
280.801	5818
280.860	5596
280.919	5240
280.978	5650
281.037	5729
281.097	4800
281.156	5958
281.215	5590
281.274	4790
281.333	7594
281.392	6006
281.451	4669
281.510	4431
281.569	4558
281.628	4252
281.688	4322
281.747	4600
281.806	3811
281.865	4518
281.924	3764
281.983	3615
282.042	2689
282.101	3450
282.160	3249
282.219	3068
282.278	3800
282.337	4009
282.396	3816
282.454	4004
282.513	3937
282.572	4896
282.631	4028
282.690	3140
282.749	3475
282.808	3653
282.867	4332
282.926	3869
282.985	5077
283.043	3322
283.102	4899
283.161	4628
283.220	6118
283.279	7554
283.338	5731
283.396	4426
283.455	4966
283.514	4775
283.573	6198
283.631	5786
283.690	5968
283.749	5608
283.808	6172
283.866	6990
283.925	6470
283.984	6889
284.043	7701
284.101	7687
284.160	8268
284.219	9568
284.277	9916
284.336	11280
284.395	13936
284.453	15265
284.512	15598
284.570	16273
284.629	20409
284.688	24680
284.746	30340
284.805	36366
284.863	45976
284.922	55956
284.981	68375
285.039	89914
285.098	117874
285.156	136634
285.215	100144
285.273	89929
285.332	127839
285.390	124883
285.449	98213
285.507	75615
285.566	58523
285.624	45642
285.683	36318
285.741	30085
285.799	26034
285.858	21121
285.916	18358
285.975	16494
286.033	13931
286.091	13173
286.150	11636
286.208	10634
286.267	9881
286.325	9104
286.383	8886
286.442	7885
286.500	7402
286.558	7713
286.616	6071
286.675	7815
286.733	5664
286.791	5488
286.850	6188
286.908	5537
286.966	4939
287.024	5232
287.083	4458
287.141	4227
287.199	4743
287.257	4010
287.315	4324
287.374	4291
287.432	4722
287.490	4845
287.548	3660
287.606	4408
287.664	3402
287.723	4382
287.781	4394
287.839	3819
287.897	3380
287.955	4763
288.013	5633
288.071	9699
288.129	27937
288.187	92287
288.245	42001
288.303	13186
288.361	8573
288.419	6952
288.477	5289
288.535	5322
288.593	3697
288.651	3520
288.709	3268
288.767	2985
288.825	3021
288.883	3496
288.941	2641
288.999	2244
289.057	2310
289.115	2655
289.173	2318
289.231	3017
289.289	3110
289.346	2449
289.404	2682
289.462	3278
289.520	2632
289.578	1849
289.636	2672
289.694	2175
289.751	3045
289.809	2191
289.867	2821
289.925	2741
289.983	2996
290.040	2462
290.098	1921
290.156	1924
290.214	2496
290.271	2063
290.329	2316
290.387	2494
290.444	1806
290.502	1891
290.560	1565
290.617	2149
290.675	1895
290.733	1382
290.790	2293
290.848	2611
290.906	1492
290.963	1875
291.021	2208
291.078	2203
291.136	1954
291.194	3374
291.251	5859
291.309	3413
291.366	2112
291.424	2644
291.481	2310
291.539	3616
291.596	5300
291.654	3112
291.711	2535
291.769	1775
291.826	2209
291.884	2587
291.941	1928
291.999	2017
292.056	1872
292.114	2246
292.171	1478
292.228	3206
292.286	3265
292.343	2587
292.401	2755
292.458	2840
292.515	2088
292.573	3397
292.630	3214
292.687	1857
292.745	2279
292.802	2118
292.859	5524
292.917	7502
292.974	4165
293.031	3147
293.089	2715
293.146	2304
293.203	1989
293.260	1916
293.318	2249
293.375	3434
293.432	1943
293.489	3312
293.546	3045
293.604	3815
293.661	6065
293.718	14425
293.775	8069
293.832	5784
293.889	9398
293.947	7433
294.004	3858
294.061	2790
294.118	4243
294.175	8391
294.232	16673
294.289	10439
294.346	5083
294.403	3799
294.460	2590
294.517	2573
294.574	2493
294.631	2407
294.688	2651
294.745	4317
294.802	11623
294.859	13484
294.916	4807
294.973	2332
295.030	2136
295.087	2115
295.144	1547
295.201	2944
295.258	772
295.315	2256
295.372	3798
295.429	7517
295.486	3785
295.542	2908
295.599	5898
295.656	9736
295.713	6095
295.770	7510
295.827	2982
295.883	2915
295.940	2158
295.997	2868
296.054	2274
296.111	2403
296.167	1826
296.224	1757
296.281	1232
296.338	1196
296.394	2467
296.451	1744
296.508	2953
296.564	6089
296.621	5580
296.678	8223
296.734	12621
296.791	5144
296.848	3111
296.904	3045
296.961	4331
297.018	6950
297.074	6748
297.131	3756
297.187	2714
297.244	3152
297.301	7147
297.357	15831
297.414	6882
297.470	3361
297.527	2277
297.583	2500
297.640	2510
297.696	2164
297.753	2411
297.809	2098
297.866	1964
297.922	1982
297.979	1688
298.035	1322
298.092	2894
298.148	4284
298.204	4323
298.261	2371
298.317	4707
298.374	10923
298.430	7368
298.486	3098
298.543	2689
298.599	3139
298.656	2134
298.712	3262
298.768	7720
298.824	5768
298.881	2835
298.937	2433
298.993	1901
299.050	1530
299.106	2598
299.162	2555
299.218	2132
299.275	2722
299.331	2214
299.387	5300
299.443	12755
299.500	26025
299.556	20573
299.612	8760
299.668	8173
299.724	18359
299.780	25030
299.837	10499
299.893	7670
299.949	17141
300.005	26521
300.061	20042
300.117	31989
300.173	17087
300.229	6365
300.285	5275
300.341	5125
300.397	4008
300.453	3398
300.510	4206
300.566	6271
300.622	9598
300.678	27729
300.734	40115
300.790	19203
300.845	16517
300.901	17642
300.957	28334
301.013	14936
301.069	6584
301.125	4197
301.181	4211
301.237	3836
301.293	2874
301.349	2926
301.405	2580
301.461	2417
301.516	2358
301.572	1908
301.628	2935
301.684	1769
301.740	3181
301.796	4733
301.851	4344
301.907	4995
301.963	5282
302.019	8661
302.074	23834
302.130	25243
302.186	12583
302.242	5573
302.297	3790
302.353	3773
302.409	4801
302.464	4228
302.520	4353
302.576	7115
302.631	9050
302.687	4695
302.743	2960
302.798	2156
302.854	2598
302.910	2465
302.965	1945
303.021	2112
303.076	2593
303.132	3396
303.187	3369
303.243	2317
303.299	2755
303.354	1445
303.410	2662
303.465	1275
303.521	2401
303.576	1720
303.632	2188
303.687	4224
303.743	8856
303.798	8908
303.853	3890
303.909	2372
303.964	3069
304.020	2202
304.075	2979
304.130	2927
304.186	3415
304.241	3854
304.297	3208
304.352	2561
304.358	2484
304.407	1854
304.449	2020
304.463	2082
304.518	2467
304.539	2166
304.573	1667
304.629	2061
304.630	2094
304.684	3624
304.720	5285
304.739	6097
304.794	10776
304.811	9289
304.850	5693
304.902	3699
304.905	3579
304.960	2852
304.992	2912
305.015	2930
305.071	3262
305.083	2999
305.126	2064
305.173	1614
305.181	1554
305.236	1745
305.264	2188
305.292	2574
305.347	2074
305.354	2098
305.402	2348
305.445	2991
305.457	3134
305.512	2562
305.535	2203
305.567	1831
305.622	2361
305.626	2472
305.678	4363
305.716	5871
305.733	6409
305.788	8480
305.807	7406
305.843	5660
305.897	8606
305.898	8636
305.953	8712
305.988	6149
306.008	4831
306.063	3214
306.078	3121
306.118	2989
306.168	2931
306.173	2904
306.228	2902
306.259	2264
306.283	1909
306.338	1739
306.349	1786
306.393	1872
306.440	1870
306.448	1891
306.503	2872
306.530	2723
306.558	2606
306.613	4308
306.620	4384
306.668	5020
306.711	5549
306.723	5491
306.778	4933
306.801	4264
306.833	3643
306.888	2425
306.892	2397
306.943	2102
306.982	2107
306.997	2114
307.052	2193
307.072	2264
307.107	2484
307.162	2531
307.163	2537
307.217	3229
307.253	3876
307.272	4100
307.327	3634
307.343	3597
307.381	3723
307.434	3284
307.436	3276
307.491	4640
307.524	5729
307.546	6142
307.600	6353
307.614	5880
307.655	4351
307.704	3301
307.710	3294
307.765	3647
307.795	4342
307.819	4670
307.874	6177
307.885	6213
307.929	6444
307.975	6598
307.984	6828
308.038	9021
308.065	10897
308.093	18797
308.148	39477
308.156	44453
308.202	66478
308.246	82472
308.257	81457
308.312	40992
308.336	26546
308.366	18139
308.421	11426
308.426	11018
308.475	9265
308.517	8303
308.530	8068
308.585	8200
308.607	7995
308.639	7622
308.694	8104
308.697	8145
308.748	9838
308.787	11572
308.803	11793
308.857	11105
308.877	10951
308.912	11747
308.967	14040
308.967	14091
309.021	21899
309.058	29671
309.076	34744
309.130	52402
309.148	58096
309.185	87947
309.238	137305
309.239	137652
309.293	158783
309.328	153969
309.348	139136
309.402	81381
309.418	66495
309.457	50845
309.508	36908
309.511	36895
309.566	44741
309.598	51587
309.620	63001
309.674	99044
309.688	109005
309.729	106942
309.778	87732
309.783	85405
309.837	54275
309.868	38538
309.892	32768
309.946	23185
309.959	21610
310.001	18589
310.049	15956
310.055	15503
310.109	11947
310.139	9826
310.163	8473
310.218	6768
310.229	6420
310.272	6141
310.319	6398
310.326	6239
310.381	4808
310.409	4285
310.435	4231
310.489	4007
310.499	3962
310.543	3591
310.589	3508
310.598	3525
310.652	3682
310.679	3661
310.706	3507
310.760	3252
310.769	3222
310.814	3473
310.859	3785
310.868	3759
310.923	3435
310.948	3389
310.977	3395
311.031	3282
311.038	3279
311.085	2955
311.128	2543
311.139	2579
311.193	2943
311.218	3055
311.247	2916
311.301	2747
311.308	2721
311.356	2671
311.398	2616
311.410	2499
311.464	1995
311.488	1786
311.518	2128
311.572	2702
311.578	2773
311.626	3055
311.668	3280
311.680	3322
311.734	3485
311.758	3570
311.788	3408
311.842	3087
311.847	3055
311.896	3670
311.937	4196
311.950	3950
312.004	2867
312.027	2396
312.058	2552
312.112	2848
312.117	2879
312.165	2481
312.207	2150
312.297	2332
312.386	2731
312.476	3075
312.566	2976
312.656	2809
312.745	2950
312.835	2946
312.925	3082
313.015	3488
313.104	3137
313.194	3465
313.284	3690
313.374	3565
313.463	4238
313.553	4375
313.643	3423
313.732	4585
313.822	4585
313.912	4745
314.001	4577
314.091	5629
314.180	5274
314.270	5698
314.360	5026
314.449	5116
314.539	4507
314.628	5513
314.718	4730
314.808	5817
314.897	5510
314.987	6207
315.076	6134
315.166	6862
315.255	6327
315.345	5807
315.434	5088
315.524	5772
315.613	6453
315.703	10006
315.792	26375
315.881	87259
315.971	24047
316.060	8235
316.150	6618
316.239	6180
316.328	4542
316.418	5515
316.507	5468
316.597	7196
316.686	6569
316.775	7781
316.865	6298
316.954	5830
317.043	4718
317.133	4687
317.222	3911
317.311	3780
317.400	2709
317.490	6272
317.579	5427
317.668	8321
317.757	13572
317.847	44733
317.936	136672
318.025	36723
318.114	30994
318.203	13440
318.293	6348
318.382	9984
318.471	9895
318.560	11803
318.649	13545
318.738	6136
318.828	4209
318.917	3182
319.006	3904
319.095	6964
319.184	13858
319.273	6261
319.362	3947
319.451	3472
319.540	2830
319.629	4157
319.718	4945
319.807	4271
319.896	7504
319.985	17240
320.074	5650
320.163	3907
320.252	4306
320.341	4869
320.430	4268
320.519	4404
320.608	3440
320.697	7170
320.786	6305
320.875	8246
320.964	8795
321.053	9386
321.142	10117
321.230	11432
321.319	12442
321.408	15949
321.497	13010
321.586	10949
321.675	9950
321.764	9698
321.852	8854
321.941	10068
322.030	8474
322.119	10614
322.207	13633
322.296	14994
322.385	16316
322.474	18645
322.562	20484
322.651	14869
322.740	11204
322.829	10365
322.917	9200
323.006	8064
323.095	5950
323.183	6876
323.272	6351
323.361	8701
323.449	14097
323.538	7156
323.626	11008
323.715	7243
323.804	5222
323.892	9659
323.981	5273
324.069	5161
324.158	6454
324.246	5637
324.335	4449
324.424	4507
324.512	4275
324.601	4576
324.689	4534
324.778	6160
324.866	4224
324.954	3745
325.043	3798
325.131	3643
325.220	6378
325.308	4664
325.397	3876
325.485	3788
325.574	3442
325.662	2959
325.750	2757
325.839	3660
325.927	2719
326.015	3246
326.104	3366
326.192	3659
326.280	2507
326.369	2616
326.457	1949
326.545	3646
326.634	2184
326.722	3562
326.810	2977
326.898	5508
326.987	3949
327.075	4160
327.163	3980
327.251	3461
327.340	4656
327.428	7045
327.516	5795
327.604	5344
327.692	3160
327.781	3469
327.869	3093
327.957	3088
328.045	2755
328.133	3333
328.221	2794
328.309	2711
328.397	2357
328.485	3778
328.574	7221
328.662	9408
328.750	5282
328.838	4039
328.926	2922
329.014	3650
329.102	2139
329.190	4055
329.278	2515
329.366	3304
329.454	2529
329.542	2841
329.630	1846
329.718	3765
329.806	1958
329.893	3223
329.981	1555
330.069	3729
330.157	3409
330.245	4557
330.333	2601
330.421	2921
330.509	2649
330.597	5174
330.684	3059
330.772	2315
330.860	2615
330.948	4425
331.036	2485
331.123	2556
331.211	2600
331.299	2984
331.387	3827
331.475	4261
331.562	3051
331.650	3171
331.738	2672
331.825	2762
331.913	2861
332.001	3360
332.089	3367
332.176	3865
332.264	4649
332.352	4711
332.439	3053
332.527	3806
332.614	2207
332.702	4657
332.790	3114
332.877	6503
332.965	13191
333.052	11666
333.140	14590
333.228	33074
333.315	8948
333.403	5486
333.490	7606
333.578	17899
333.665	49762
333.753	18878
333.840	5079
333.928	6387
334.015	7874
334.103	12663
334.190	21808
334.278	16655
334.365	20641
334.452	19444
334.540	12037
334.627	12647
334.715	15651
334.802	26021
334.889	51203
334.977	57927
335.064	31602
335.151	15886
335.239	10307
335.326	10795
335.413	17201
335.501	16850
335.588	9803
335.675	10303
335.762	14121
335.850	19558
335.937	27837
336.024	50921
336.111	83506
336.199	64526
336.286	27857
336.373	15803
336.460	9641
336.547	7403
336.635	6518
336.722	6547
336.809	5491
336.896	5457
336.983	9544
337.070	16670
337.157	20215
337.245	13914
337.332	8836
337.419	4568
337.506	4691
337.593	5001
337.680	8642
337.767	12140
337.854	5717
337.941	6027
338.028	4337
338.115	3634
338.202	5561
338.289	6516
338.376	10344
338.463	6467
338.550	8632
338.637	8105
338.724	3977
338.811	4878
338.898	2940
338.984	3900
339.071	2905
339.158	3791
339.245	3469
339.332	3604
339.419	3622
339.506	4774
339.593	2177
339.679	4096
339.766	2137
339.853	3534
339.940	3438
340.027	3522
340.113	2865
340.200	3944
340.287	3635
340.374	2907
340.460	2805
340.547	1692
340.634	4067
340.720	5171
340.807	3432
340.894	3096
340.980	2990
341.067	3096
341.154	3398
341.240	3778
341.327	3766
341.414	3114
341.500	3046
341.587	3457
341.674	3242
341.760	3818
341.847	3339
341.933	4010
342.020	1638
342.106	3361
342.193	2838
342.279	3043
342.366	2298
342.452	3820
342.539	3077
342.625	3353
342.712	3975
342.798	3010
342.885	2470
342.971	2547
343.058	1779
343.144	3751
343.230	2865
343.317	3643
343.403	2689
343.490	3206
343.576	2051
343.662	2825
343.749	1921
343.835	3483
343.921	5297
344.008	18423
344.094	28097
344.180	6832
344.267	3928
344.353	6983
344.439	6083
344.525	3556
344.612	3604
344.698	3340
344.784	2062
344.870	3495
344.957	1978
345.043	3972
345.129	2223
345.215	4327
345.301	2707
345.387	2578
345.474	2699
345.560	2247
345.646	1834
345.732	3555
345.818	1499
345.904	2993
345.990	2463
346.076	3048
346.162	2894
346.249	4351
346.335	1954
346.421	3077
346.507	4418
346.593	9804
346.679	2565
346.765	4570
346.851	7319
346.937	5043
347.023	4331
347.108	3734
347.194	2694
347.280	4226
347.366	5223
347.452	15965
347.538	21627
347.624	11915
347.710	6597
347.796	4086
347.882	2705
347.967	3312
348.053	3552
348.139	2961
348.225	2709
348.311	3094
348.397	2640
348.482	3967
348.568	4631
348.654	7047
348.740	19954
348.825	17465
348.911	8286
348.997	9670
349.083	11960
349.168	3512
349.254	3826
349.340	3094
349.425	2568
349.511	3991
349.597	2245
349.682	4158
349.768	6489
349.854	4086
349.939	3475
350.025	3647
350.110	3008
350.196	3575
350.282	1568
350.367	3879
350.453	3264
350.538	3752
350.624	2610
350.709	3779
350.795	2068
350.880	3105
350.966	3380
351.051	4463
351.137	2305
351.222	3371
351.308	3975
351.393	5102
351.479	2544
351.564	3031
351.649	2669
351.735	3284
351.820	2806
351.906	3193
351.991	2279
352.076	4171
352.162	4758
352.247	2924
352.332	2774
352.418	3069
352.503	2830
352.588	7352
352.673	4415
352.759	3062
352.844	1906
352.929	3378
353.014	1891
353.100	3940
353.185	2933
353.270	3612
353.355	3482
353.441	3063
353.526	2256
353.611	3917
353.696	2466
353.781	4567
353.866	1620
353.952	3584
354.037	2206
354.122	4522
354.207	2788
354.292	3706
354.377	3183
354.462	4219
354.547	3269
354.632	4231
354.717	3551
354.802	2980
354.887	1454
354.972	3891
355.057	2836
355.142	2706
355.227	2619
355.312	4073
355.397	3517
355.482	5222
355.567	3512
355.652	4488
355.737	3928
355.822	7935
355.907	4548
355.991	5205
356.076	2327
356.161	3139
356.246	2490
356.331	3832
356.416	4096
356.501	16389
356.585	11089
356.670	3312
356.755	5440
356.840	5193
356.924	13689
357.009	32341
357.094	11659
357.179	4600
357.263	3986
357.348	4438
357.433	3108
357.517	4060
357.602	3323
357.687	3280
357.771	4517
357.856	6674
357.941	4901
358.025	15074
358.110	43474
358.195	17346
358.279	4338
358.364	4934
358.448	6400
358.533	11727
358.617	7584
358.702	8675
358.787	4504
358.871	4316
358.956	3839
359.040	3970
359.125	3392
359.209	4208
359.294	5573
359.378	7553
359.462	6418
359.547	3375
359.631	3258
359.716	2862
359.800	3688
359.885	5718
359.969	2457
360.053	4010
360.138	2647
360.222	2777
360.306	3595
360.391	4342
360.475	4221
360.559	6300
360.644	5160
360.728	4433
360.812	11547
360.896	20121
360.981	7329
361.065	5404
361.149	4526
361.233	4590
361.318	2743
361.402	4583
361.486	5132
361.570	4869
361.654	4202
361.739	6227
361.823	17420
361.907	21893
361.991	7818
362.075	9099
362.159	11218
362.243	23970
362.327	58037
362.411	76998
362.495	28303
362.580	14183
362.664	12306
362.748	15092
362.832	24839
362.916	55004
363.000	155570
363.084	198818
363.168	80128
363.252	23952
363.336	14289
363.420	13591
363.503	22528
363.587	18508
363.671	8912
363.755	8650
363.839	10962
363.923	10326
364.007	13560
364.091	19485
364.175	33935
364.258	85705
364.342	183804
364.426	297999
364.510	139615
364.594	43028
364.677	22835
364.761	26469
364.845	17207
364.929	8574
365.013	7547
365.096	6579
365.180	6194
365.264	14362
365.347	25813
365.431	10532
365.515	4642
365.598	4107
365.682	6053
365.766	4867
365.849	4617
365.933	4318
366.017	6194
366.100	4782
366.184	4206
366.267	6473
366.351	4555
366.435	4805
366.518	2999
366.602	4385
366.685	4344
366.769	4988
366.852	5393
366.936	5509
367.019	4027
367.103	4586
367.186	6221
367.270	5187
367.353	4191
367.436	6427
367.520	4530
367.603	6574
367.687	4141
367.770	6178
367.853	6242
367.937	9298
368.020	8397
368.104	4780
368.187	5986
368.270	5750
368.353	4275
368.437	6667
368.520	8240
368.603	5462
368.687	5659
368.770	7740
368.853	3908
368.936	5356
369.020	5275
369.103	3871
369.186	2924
369.269	2857
369.352	4746
369.436	3432
369.519	3947
369.602	2799
369.685	5649
369.768	2762
369.851	4128
369.934	3321
370.018	2951
370.101	3394
370.184	6072
370.267	5104
370.350	5091
370.433	7052
370.516	21987
370.599	48509
370.682	18427
370.765	9098
370.848	10440
370.931	11122
371.014	7781
371.097	4643
371.180	4856
371.263	5315
371.346	2849
371.429	5530
371.511	3902
371.594	5346
371.677	5858
371.760	8409
371.843	7932
371.926	23531
372.009	39136
372.091	17986
372.174	11860
372.257	17349
372.340	9768
372.423	9989
372.505	9804
372.588	7136
372.671	8880
372.754	12266
372.836	7978
372.919	12392
373.002	13935
373.085	7463
373.167	8589
373.250	9897
373.332	14598
373.415	28760
373.498	46303
373.580	28934
373.663	83225
373.746	70938
373.828	13014
373.911	8025
373.993	8120
374.076	16288
374.159	10795
374.241	8490
374.324	11256
374.406	10559
374.489	17994
374.571	32703
374.654	12579
374.736	12081
374.819	23268
374.901	35044
374.983	31278
375.066	10543
375.148	8920
375.231	17932
375.313	21171
375.395	9913
375.478	7538
375.560	7086
375.643	6635
375.725	11575
375.807	28695
375.890	20735
375.972	7997
376.054	8495
376.136	8629
376.219	6527
376.301	10925
376.383	18420
376.465	7763
376.548	6128
376.630	7604
376.712	15152
376.794	7296
376.877	4772
376.959	3285
377.041	4623
377.123	4307
377.205	5032
377.287	3323
377.369	4700
377.452	4271
377.534	4240
377.616	4460
377.698	3897
377.780	2969
377.862	3723
377.944	4693
378.026	3335
378.108	4405
378.190	3968
378.272	5175
378.354	4298
378.436	3041
378.518	4782
378.600	6247
378.682	5557
378.764	6864
378.846	6606
378.928	4686
379.010	4250
379.091	5053
379.173	4046
379.255	3236
379.337	4392
379.419	5861
379.501	10359
379.583	4994
379.664	5102
379.746	3981
379.828	8525
379.910	8169
379.991	8632
380.073	3267
380.155	4370
380.237	3990
380.318	4590
380.400	4364
380.482	5911
380.564	5677
380.645	5792
380.727	4928
380.809	6449
380.890	4804
380.972	4889
381.053	5863
381.135	7240
381.217	5874
381.298	10896
381.380	6373
381.461	8722
381.543	19217
381.624	18568
381.706	8384
381.787	8306
381.869	8945
381.951	16750
382.032	37711
382.113	25552
382.195	9903
382.276	13572
382.358	14282
382.439	23341
382.521	31352
382.602	41911
382.684	34225
382.765	63002
382.846	179163
382.928	359053
383.009	187842
383.090	176140
383.172	484654
383.253	548211
383.334	172552
383.416	75696
383.497	56533
383.578	69304
383.659	147244
383.741	437803
383.822	743420
383.903	363418
383.984	103006
384.066	59042
384.147	34833
384.228	23351
384.309	20907
384.390	19734
384.471	16365
384.553	15527
384.634	14279
384.715	14169
384.796	13393
384.877	14352
384.958	17494
385.039	14446
385.120	11169
385.201	11479
385.282	11759
385.363	14649
385.444	16285
385.525	17885
385.606	22015
385.687	17635
385.768	12908
385.849	11883
385.930	26226
386.011	33702
386.092	13314
386.173	11896
386.254	10077
386.335	10003
386.416	8936
386.496	10615
386.577	11559
386.658	9836
386.739	8360
386.820	10222
386.901	8662
386.981	11886
387.062	12600
387.143	14331
387.224	16941
387.304	17299
387.385	16761
387.466	13827
387.547	16718
387.627	16231
387.708	17222
387.789	23327
387.869	21360
387.950	14773
388.031	11352
388.111	10408
388.192	14515
388.273	16177
388.353	11601
388.434	8571
388.514	9660
388.595	19608
388.676	16803
388.756	10271
388.837	9667
388.917	7734
388.998	5286
389.078	7796
389.159	6703
389.239	5409
389.320	7994
389.400	4861
389.480	7626
389.561	10350
389.641	8048
389.722	6820
389.802	6062
389.883	8445
389.963	13053
390.043	9168
390.124	4672
390.204	7563
390.284	9842
390.365	8296
390.445	13011
390.525	19986
390.605	15286
390.686	6718
390.766	6782
390.846	7842
390.927	6450
391.007	6168
391.087	7661
391.167	7385
391.247	6150
391.328	9597
391.408	9364
391.488	8983
391.568	7019
391.648	8326
391.728	9864
391.808	11169
391.888	9552
391.969	14311
392.049	12867
392.129	14263
392.209	14463
392.289	20633
392.369	18475
392.449	20276
392.529	19947
392.609	22947
392.689	26621
392.769	33365
392.849	39170
392.929	52362
393.009	72721
393.089	106123
393.169	210282
393.248	504720
393.328	934493
393.408	859215
393.488	408742
393.568	170251
393.648	88601
393.728	56566
393.807	39615
393.887	32132
393.967	26557
394.047	22759
394.127	19259
394.206	21886
394.286	50565
394.366	165429
394.446	141430
394.525	31381
394.605	15286
394.685	14886
394.764	20837
394.844	32774
394.924	31599
395.003	14254
395.083	10731
395.163	10626
395.242	8927
395.322	10159
395.402	9047
395.481	13343
395.561	19151
395.640	49828
395.720	75608
395.799	43899
395.879	22166
395.958	21452
396.038	63091
396.117	210625
396.197	190163
396.276	51963
396.356	30292
396.435	35507
396.515	45425
396.594	72193
396.673	161676
396.753	461404
396.832	822924
396.912	567586
396.991	191958
397.070	79017
397.150	45142
397.229	41513
397.308	72581
397.388	109160
397.467	46714
397.546	19615
397.625	11899
397.705	14001
397.784	11021
397.863	10318
397.942	9330
398.022	9763
398.101	12878
398.180	18717
398.259	10515
398.338	7660
398.417	5946
398.497	6666
398.576	7116
398.655	5175
398.734	5573
398.813	6854
398.892	10899
398.971	18062
399.050	7685
399.129	4959
399.208	5200
399.287	4569
399.366	4052
399.445	4288
399.524	3553
399.603	3372
399.682	4306
399.761	8799
399.840	19877
399.919	12088
399.998	4323
400.077	3525
400.156	2948
400.235	6000
400.313	2903
400.392	3334
400.471	5184
400.550	6491
400.629	2959
400.708	3978
400.786	3300
400.865	5925
400.944	3593
401.023	4595
401.102	1850
401.180	3251
401.259	3069
401.338	2995
401.416	2941
401.495	2053
401.574	3518
401.652	2493
401.731	3055
401.810	1181
401.888	1899
401.967	2312
402.046	2171
402.124	3199
402.203	1865
402.281	2735
402.360	3288
402.438	6279
402.517	1676
402.596	3467
402.674	2678
402.753	2928
402.831	2656
402.910	4247
402.988	4317
403.066	9334
403.145	6191
403.223	6573
403.302	7710
403.380	7829
403.459	6825
403.537	4736
403.615	4105
403.694	3066
403.772	4023
403.850	3341
403.929	2080
404.007	2809
404.085	4676
404.164	2789
404.242	2862
404.320	8596
404.398	15614
404.477	12627
404.555	20546
404.633	17356
404.711	10908
404.789	7003
404.868	2567
404.946	1999
405.024	1977
405.102	2365
405.180	1469
405.258	1249
405.336	2221
405.415	2106
405.493	3652
405.571	3561
405.649	2293
405.727	2237
405.805	4352
405.883	4384
405.961	4458
406.039	2925
406.117	1932
406.195	3530
406.273	4411
406.351	12843
406.429	7720
406.507	2490
406.585	1722
406.663	3174
406.740	1083
406.818	1549
406.896	1887
406.974	3181
407.052	1919
407.130	9340
407.208	8206
407.285	4273
407.363	1210
407.441	2232
407.519	1500
407.596	3150
407.674	4374
407.752	10548
407.830	8423
407.907	3937
407.985	1381
408.063	2236
408.141	1867
408.218	3494
408.296	1328
408.373	3065
408.451	2416
408.529	2286
408.606	1736
408.684	3427
408.762	3729
408.839	2938
408.917	2898
408.994	4945
409.072	4469
409.149	7635
409.227	13668
409.304	20233
409.382	19987
409.459	25763
409.537	31194
409.614	27252
409.692	19976
409.769	22740
409.846	33191
409.924	39122
410.001	24135
410.079	16691
410.156	12975
410.233	9681
410.311	7220
410.388	6354
410.465	6148
410.543	5207
410.620	5350
410.697	5195
410.775	5622
410.852	4808
410.929	6244
411.006	6743
411.083	5513
411.161	5658
411.238	6090
411.315	4490
411.392	3362
411.469	4959
411.547	3882
411.624	2543
411.701	2734
411.778	3831
411.855	2608
411.932	2457
412.009	2722
412.086	2912
412.163	2176
412.240	2286
412.317	2975
412.394	2400
412.471	1812
412.548	2247
412.625	996
412.702	2352
412.779	2424
412.856	2673
412.933	1242
413.010	2008
413.087	1425
413.164	2806
413.241	3757
413.318	1426
413.395	2628
413.471	2146
413.548	1062
413.625	3068
413.702	1218
413.779	2137
413.855	1156
413.932	1571
414.009	834
414.086	1525
414.162	1847
414.239	2767
414.316	2909
414.393	6369
414.469	1680
414.546	1460
414.623	1399
414.699	1783
414.776	1301
414.853	1361
414.929	2246
415.006	1902
415.082	1665
415.159	1722
415.236	1637
415.312	2777
415.389	2047
415.465	876
415.542	2025
415.618	954
415.695	2282
415.771	1086
415.848	1345
415.924	1702
416.000	1495
416.077	2381
416.153	356
416.230	1086
416.306	1419
416.383	1100
416.459	1854
416.535	1349
416.612	1262
416.688	3274
416.764	2899
416.841	1959
416.917	2570
416.993	2443
417.069	1732
417.146	1110
417.222	1503
417.298	1808
417.374	413
417.451	2318
417.527	506
417.603	1447
417.679	802
417.755	2217
417.831	837
417.908	1814
417.984	1181
418.060	987
418.136	1917
418.212	2049
418.288	981
418.364	2211
418.440	487
418.516	2260
418.592	2621
418.668	2213
418.744	1128
418.820	2211
418.896	1709
418.972	1015
419.048	1760
419.124	3350
419.200	675
419.276	897
419.352	535
419.428	2530
419.504	1671
419.579	2585
419.655	2253
419.731	2363
419.807	2876
419.883	2857
419.959	3073
420.034	3879
420.110	3449
420.186	4830
420.262	4731
420.337	3557
420.413	2483
420.489	4001
420.565	3999
420.640	3700
420.716	5104
420.792	4012
420.867	4719
420.943	5662
421.019	5628
421.094	5404
421.170	6221
421.245	6343
421.321	6992
421.397	7923
421.472	9400
421.548	13563
421.623	11575
421.699	12486
421.774	13087
421.850	15622
421.925	19249
422.001	22457
422.076	27082
422.152	35965
422.227	46849
422.302	68378
422.378	105278
422.453	178126
422.529	298092
422.604	363967
422.679	324663
422.755	368682
422.830	278238
422.905	164456
422.981	101135
423.056	70425
423.131	50308
423.207	38800
423.282	30843
423.357	25881
423.432	20391
423.508	18510
423.583	15156
423.658	13823
423.733	12655
423.808	13325
423.883	12585
423.959	14447
424.034	15872
424.109	15016
424.184	9087
424.259	7790
424.334	6780
424.409	6017
424.484	5128
424.559	5076
424.634	4518
424.709	3858
424.784	4085
424.859	3822
424.934	3087
425.009	5246
425.084	5696
425.159	3244
425.234	2994
425.309	2637
425.384	3394
425.459	2730
425.534	2973
425.609	1999
425.683	2090
425.758	2188
425.833	1965
425.908	3361
425.983	2245
426.058	4705
426.132	2829
426.207	2481
426.282	3438
426.357	1625
426.431	1540
426.506	1955
426.581	2134
426.655	2552
426.730	1795
426.805	2046
426.879	2205
426.954	2124
427.029	2205
427.103	5615
427.178	9521
427.253	4342
427.327	1931
427.402	2664
427.476	3415
427.551	2128
427.625	1734
427.700	2355
427.774	1299
427.849	2231
427.923	1380
427.998	3181
428.072	4088
428.147	12440
428.221	60722
428.296	154121
428.370	67693
428.444	10721
428.519	5714
428.593	4556
428.667	5620
428.742	8369
428.816	23574
428.890	105460
428.965	126537
429.039	29024
429.113	6850
429.188	3198
429.262	2003
429.336	3331
429.410	3104
429.485	3620
429.559	4010
429.633	4223
429.707	5588
429.781	22535
429.855	100566
429.930	114976
430.004	31764
430.078	28878
430.152	70520
430.226	213302
430.300	167760
430.374	33760
430.448	10843
430.522	13249
430.596	18243
430.670	36625
430.744	127161
430.818	108866
430.892	17824
430.966	4560
431.040	3389
431.114	1706
431.188	1498
431.262	1700
431.336	701
431.410	3856
431.484	3054
431.557	3447
431.631	2482
431.705	8795
431.779	48983
431.853	148747
431.927	79785
432.000	11435
432.074	3628
432.148	2170
432.222	646
432.295	1791
432.369	423
432.443	1774
432.516	4580
432.590	9862
432.664	2206
432.737	439
432.811	-111
432.885	124
432.958	984
433.032	-145
433.106	-293
433.179	771
433.253	-565
433.326	832
433.400	-777
433.473	738
433.547	-451
433.620	1229
433.694	-30
433.767	1012
433.841	240
433.914	616
433.988	280
434.061	567
434.134	90
434.208	1112
434.281	17
434.355	622
434.428	206
434.501	857
434.575	-640
434.648	703
434.721	-114
434.795	438
434.868	49
434.941	1344
435.014	1433
435.088	2468
435.161	3138
435.234	5961
435.307	5521
435.381	5804
435.454	10266
435.527	16529
435.600	16215
435.673	13704
435.746	8903
435.819	6515
435.892	4415
435.966	3175
436.039	2421
436.112	2855
436.185	1401
436.258	1252
436.331	-80
436.404	551
436.477	147
436.550	1087
436.623	232
436.696	606
436.769	407
436.842	191
436.915	-18
436.987	555
437.060	-162
437.133	703
437.206	-688
437.279	1271
437.352	-111
437.425	-145
437.498	190
437.570	481
437.643	285
437.716	613
437.789	-81
437.861	372
437.934	894
438.007	313
438.080	-498
438.152	538
438.225	486
438.298	7300
438.370	15077
438.443	5548
438.516	353
438.588	289
438.661	-124
438.734	590
438.806	-268
438.879	-144
438.951	-1057
439.024	860
439.096	-242
439.169	1101
439.241	-499
439.314	-56
439.386	-217
439.459	656
439.531	-98
439.604	249
439.676	1025
439.749	-517
439.821	-524
439.893	295
439.966	-840
440.038	-325
440.110	-422
440.183	-603
440.255	163
440.327	330
440.400	3004
440.472	8415
440.544	2376
440.617	757
440.689	1323
440.761	805
440.833	36
440.905	1397
440.978	-255
441.050	4
441.122	227
441.194	309
441.266	288
441.338	304
441.411	88
441.483	2501
441.555	2580
441.627	1332
441.699	798
441.771	1354
441.843	671
441.915	1237
441.987	722
442.059	2027
442.131	1803
442.203	3160
442.275	4985
442.347	10322
442.419	28320
442.491	132043
442.563	218587
442.635	73311
442.706	16313
442.778	7463
442.850	4203
442.922	3746
442.994	3974
443.066	4478
443.137	6293
443.209	8973
443.281	15646
443.353	40595
443.425	148596
443.496	369164
443.568	335215
443.640	120721
443.711	27129
443.783	11383
443.855	6119
443.926	5352
443.998	2861
444.070	3737
444.141	2684
444.213	3290
444.285	2931
444.356	3385
444.428	1727
444.499	2118
444.571	2210
444.642	3176
444.714	2726
444.785	3890
444.857	3721
444.928	5199
445.000	5386
445.071	7395
445.143	9375
445.214	15532
445.285	28286
445.357	81015
445.428	263949
445.500	413584
445.571	312037
445.642	185033
445.714	57737
445.785	20298
445.856	7745
445.928	6020
445.999	4998
446.070	3734
446.141	2482
446.213	1990
446.284	1329
446.355	1789
446.426	1278
446.497	974
446.569	1021
446.640	1595
446.711	1079
446.782	773
446.853	184
446.924	1157
446.995	-236
447.066	995
447.138	611
447.209	795
447.280	-310
447.351	848
447.422	-967
447.493	556
447.564	271
447.635	114
447.706	-373
447.777	-767
447.847	-710
447.918	-760
447.989	-787
448.060	1056
448.131	641
448.202	614
448.273	-292
448.344	323
448.414	-2
448.485	-73
448.556	418
448.627	-96
448.698	833
448.768	-280
448.839	-546
448.910	-228
448.981	1
449.051	-745
449.122	-934
449.193	-76
449.263	-870
449.334	15
449.405	-161
449.475	366
449.546	367
449.616	1399
449.687	-184
449.758	934
449.828	-1059
449.899	-221
449.969	-1303
450.040	-68
450.110	118
450.181	-329
450.251	-891
450.322	-147
450.392	-531
450.463	902
450.533	-564
450.604	144
450.674	-213
450.744	1176
450.815	782
450.885	1344
450.955	1566
451.026	721
451.096	235
451.166	1203
451.237	2017
451.307	3542
451.377	1251
451.447	546
451.518	-58
451.588	436
451.658	-276
451.728	917
451.799	1386
451.869	1668
451.939	-981
452.009	-218
452.079	-642
452.149	742
452.219	268
452.289	2937
452.360	1015
452.430	1214
452.500	1823
452.570	4724
452.640	14404
452.710	35572
452.780	31253
452.850	13768
452.920	4831
452.990	3266
453.060	1575
453.129	646
453.199	477
453.269	6648
453.339	7108
453.409	7607
453.479	10423
453.549	12921
453.619	11701
453.688	2430
453.758	-493
453.828	-340
453.898	-766
453.968	71
454.037	-701
454.087	-622
454.107	-617
454.168	-874
454.177	-938
454.247	-478
454.249	-456
454.316	-698
454.330	-398
454.386	618
454.411	1106
454.456	1444
454.492	1350
454.525	1220
454.574	256
454.595	-151
454.655	-218
454.665	-224
454.734	111
454.736	215
454.804	1780
454.817	2318
454.873	3292
454.898	3144
454.943	2457
454.979	1270
455.013	447
455.060	1269
455.082	1894
455.141	2200
455.152	2087
455.221	4796
455.222	4906
455.291	4109
455.303	4366
455.360	5310
455.384	6306
455.430	7436
455.465	6184
455.499	4868
455.546	4612
455.569	4027
455.627	2010
455.638	1742
455.707	729
455.708	761
455.777	847
455.789	831
455.846	607
455.869	728
455.916	932
455.950	960
455.985	810
456.031	1012
456.054	1094
456.112	870
456.124	854
456.193	1687
456.193	1655
456.262	1234
456.274	1527
456.332	2715
456.355	2365
456.401	1235
456.436	1897
456.470	2623
456.516	1594
456.540	1055
456.597	1324
456.609	1346
456.678	1881
456.678	1855
456.747	1436
456.759	1427
456.817	1432
456.840	1633
456.886	1906
456.920	1945
456.955	2124
457.001	3021
457.024	3463
457.082	4182
457.093	4165
457.162	4596
457.163	4635
457.232	3690
457.243	3692
457.301	3375
457.324	3212
457.370	3235
457.405	4213
457.439	5288
457.485	5485
457.508	5619
457.566	6659
457.577	7183
457.646	11750
457.647	11860
457.715	30978
457.727	35474
457.784	67285
457.808	87525
457.853	108652
457.889	118655
457.922	105101
457.969	65579
457.991	70038
458.050	100321
458.060	106492
458.129	182018
458.130	184022
458.198	154236
458.211	138705
458.267	67952
458.292	43048
458.336	32306
458.372	31402
458.405	48700
458.453	77794
458.474	102318
458.533	189789
458.543	196181
458.611	278040
458.614	279321
458.680	139527
458.694	106057
458.749	46987
458.775	30138
458.818	19844
458.855	15051
458.887	12735
458.936	10507
458.955	9906
459.016	8651
459.024	8494
459.093	7694
459.097	7647
459.162	6342
459.177	6320
459.230	6572
459.257	6537
459.299	6493
459.338	6647
459.368	6778
459.418	6512
459.437	6221
459.499	5886
459.505	5853
459.574	5529
459.579	5509
459.643	5286
459.659	5325
459.711	5618
459.740	5931
459.780	6158
459.820	5977
459.849	5940
459.900	6375
459.917	6323
459.981	5529
459.986	5457
460.054	5800
460.061	5740
460.123	5317
460.141	5329
460.191	5607
460.222	5761
460.260	5918
460.302	6125
460.328	6212
460.382	6262
460.397	6235
460.462	6583
460.465	6633
460.534	7386
460.543	7591
460.602	15374
460.623	18294
460.671	25827
460.703	32370
460.739	29183
460.783	21918
460.808	17774
460.864	6921
460.876	6415
460.944	6327
460.945	6314
461.013	6139
461.024	6031
461.081	5796
461.104	5994
461.150	6340
461.184	6554
461.218	6872
461.264	7105
461.286	6992
461.345	6415
461.355	6339
461.423	6184
461.425	6182
461.491	6730
461.505	7062
461.559	10769
461.585	11952
461.628	16414
461.665	21111
461.696	22662
461.745	24526
461.764	20563
461.825	7518
461.832	7499
461.901	7379
461.905	7389
461.969	6339
461.985	6173
462.037	7396
462.065	8006
462.105	8262
462.145	8269
462.173	10273
462.225	14482
462.241	15593
462.305	19746
462.310	19212
462.378	10569
462.385	9600
462.446	8021
462.465	7629
462.514	7690
462.545	7538
462.582	7061
462.625	6728
462.650	6842
462.705	6833
462.718	6910
462.785	7688
462.786	7731
462.854	9808
462.865	10170
462.922	11584
462.945	11987
462.990	9510
463.025	7855
463.058	8122
463.104	7965
463.126	7477
463.184	6838
463.194	6983
463.262	7162
463.264	7195
463.330	7975
463.344	7990
463.398	8172
463.424	8374
463.466	8284
463.504	8204
463.533	8448
463.583	8563
463.601	8557
463.663	8697
463.669	8819
463.737	10268
463.743	10370
463.805	15304
463.823	16760
463.873	22950
463.903	26806
463.940	27168
463.982	27383
464.008	22128
464.062	10660
464.076	10200
464.142	8193
464.144	8208
464.211	8101
464.221	8146
464.279	8039
464.301	7907
464.347	8781
464.381	9408
464.414	10032
464.461	10983
464.482	11055
464.540	11243
464.550	10994
464.617	8656
464.620	8573
464.685	9246
464.699	9353
464.753	9494
464.779	9616
464.820	10635
464.859	11390
464.888	11133
464.938	10850
464.956	11233
465.018	12402
465.023	12242
465.091	10009
465.098	9743
465.158	9332
465.177	9239
465.226	9855
465.257	10133
465.293	10092
465.336	9972
465.361	10406
465.416	11404
465.428	12098
465.495	15897
465.496	15989
465.563	25637
465.575	27339
465.631	31049
465.654	32512
465.698	20967
465.734	11317
465.765	10272
465.813	8623
465.833	9011
465.893	10223
465.900	10206
465.968	9864
465.972	9821
466.035	9795
466.052	9749
466.102	9685
466.131	9695
466.170	9852
466.210	9764
466.237	9704
466.290	9780
466.304	9915
466.369	10232
466.372	10282
466.439	11163
466.449	11260
466.506	11447
466.528	11499
466.573	14601
466.607	16814
466.641	23460
466.687	32720
466.708	35753
466.766	43859
466.775	40678
466.842	16080
466.845	14876
466.909	12292
466.925	11658
466.977	11097
467.004	10769
467.044	11625
467.083	12416
467.111	12918
467.163	13792
467.178	14057
467.242	15015
467.245	14998
467.312	13988
467.321	13827
467.379	14373
467.400	14522
467.446	15896
467.480	16834
467.559	16263
467.638	14315
467.717	14576
467.796	15799
467.875	17246
467.955	17299
468.034	27052
468.113	49030
468.192	69277
468.271	37633
468.350	43513
468.429	60946
468.508	62240
468.588	40755
468.667	26498
468.746	20837
468.825	18035
468.904	16983
468.983	17626
469.062	21114
469.141	24280
469.220	14014
469.299	15203
469.378	13684
469.456	16221
469.535	15040
469.614	14426
469.693	15815
469.772	20292
469.851	24718
469.930	19875
470.009	17857
470.088	21690
470.166	32867
470.245	57232
470.324	76680
470.403	51825
470.482	27807
470.560	20159
470.639	16703
470.718	16208
470.797	14491
470.875	15956
470.954	17862
471.033	19858
471.111	14040
471.190	13044
471.269	11451
471.347	12031
471.426	12854
471.505	14351
471.583	13202
471.662	12485
471.740	12557
471.819	12839
471.898	12864
471.976	12120
472.055	11920
472.133	13195
472.212	16821
472.290	16918
472.369	12920
472.447	13174
472.526	11592
472.604	13474
472.683	13070
472.761	11918
472.839	12682
472.918	13573
472.996	13223
473.075	15710
473.153	13934
473.231	12863
473.310	14911
473.388	14500
473.466	14390
473.545	13028
473.623	14135
473.701	13420
473.780	13199
473.858	11728
473.936	15369
474.014	13503
474.093	14683
474.171	18350
474.249	24878
474.327	17417
474.405	11888
474.484	13453
474.562	12808
474.640	12338
474.718	12883
474.796	13535
474.874	11847
474.952	11739
475.030	11707
475.108	12271
475.187	11369
475.265	12746
475.343	13413
475.421	13783
475.499	12355
475.577	13226
475.655	15973
475.733	26563
475.811	42861
475.889	38080
475.966	25741
476.044	12745
476.122	13214
476.200	13224
476.278	12441
476.356	12105
476.434	12502
476.512	12816
476.590	13643
476.667	14565
476.745	11942
476.823	13135
476.901	12306
476.979	13484
477.056	12986
477.134	12331
477.212	11445
477.290	11948
477.367	12412
477.445	12025
477.523	11789
477.601	11944
477.678	11746
477.756	14387
477.834	14472
477.911	11348
477.989	12206
478.066	12802
478.144	13144
478.222	12996
478.299	12928
478.377	13300
478.454	11636
478.532	10233
478.609	12021
478.687	12363
478.764	11547
478.842	11740
478.919	11645
478.997	11951
479.074	11979
479.152	13545
479.229	16979
479.307	11549
479.384	12051
479.461	11241
479.539	11612
479.616	13727
479.694	11497
479.771	14851
479.848	12836
479.926	16061
480.003	17342
480.080	12177
480.157	12564
480.235	12198
480.312	12919
480.389	13216
480.467	18976
480.544	22014
480.621	16884
480.698	16179
480.775	15621
480.853	16069
480.930	13018
481.007	12615
481.084	14776
481.161	14985
481.238	15707
481.315	12449
481.392	14016
481.470	13044
481.547	13679
481.624	13925
481.701	14075
481.778	15422
481.855	16361
481.932	21191
482.009	31034
482.086	24593
482.163	20268
482.240	23418
482.317	24562
482.393	21400
482.470	18551
482.547	18562
482.624	17621
482.701	18251
482.778	16681
482.855	15720
482.932	16194
483.009	17468
483.085	20235
483.162	21790
483.239	24402
483.316	25014
483.393	24637
483.469	21044
483.546	20708
483.623	20033
483.699	15792
483.776	14801
483.853	15373
483.930	19123
484.006	36407
484.083	56891
484.160	26435
484.236	28319
484.313	23671
484.389	23935
484.466	25005
484.543	28810
484.619	36467
484.696	40046
484.772	30351
484.849	25963
484.925	21092
485.002	19642
485.078	18953
485.155	18361
485.231	16420
485.308	17411
485.384	18272
485.461	21494
485.537	33750
485.614	40150
485.690	16848
485.766	15247
485.843	15686
485.919	16647
485.995	16630
486.072	16401
486.148	15300
486.224	16288
486.301	15954
486.377	18732
486.453	16111
486.530	17451
486.606	20160
486.682	21918
486.758	29016
486.835	33496
486.911	27884
486.987	43499
487.063	31691
487.139	27199
487.215	27791
487.292	31515
487.368	36170
487.444	46642
487.520	63162
487.596	92040
487.672	205113
487.748	656644
487.824	1013847
487.900	358541
487.976	94167
488.052	52351
488.128	38901
488.204	29368
488.280	26692
488.356	27964
488.432	44061
488.508	61275
488.584	23386
488.660	18042
488.736	17033
488.812	16510
488.888	17552
488.964	17227
489.039	20795
489.115	24660
489.191	20525
489.267	16419
489.343	16697
489.418	15425
489.494	14545
489.570	13079
489.646	16595
489.722	17091
489.797	16260
489.873	24832
489.949	47825
490.024	37566
490.100	16749
490.176	15908
490.251	15864
490.327	17224
490.403	15464
490.478	14775
490.554	13326
490.629	15041
490.705	14931
490.781	16039
490.856	14338
490.932	15323
491.007	14155
491.083	14345
491.158	13950
491.234	18441
491.309	36870
491.385	35361
491.460	15399
491.536	15828
491.611	13310
491.686	14663
491.762	14341
491.837	16862
491.913	23508
491.988	29554
492.063	26570
492.139	23514
492.214	19094
492.289	13354
492.365	12974
492.440	14190
492.515	14335
492.590	15297
492.666	12560
492.741	17448
492.816	23913
492.891	15147
492.967	13917
493.042	12214
493.117	13348
493.192	13371
493.267	16481
493.342	35993
493.418	43793
493.493	16501
493.568	12015
493.643	13320
493.718	13684
493.793	17919
493.868	14742
493.943	12863
494.018	12982
494.093	13329
494.168	14535
494.243	12668
494.318	13160
494.393	12402
494.468	13536
494.543	12750
494.618	13407
494.693	12970
494.768	14571
494.842	14337
494.917	13465
494.992	12878
495.067	12844
495.142	13181
495.217	12688
495.292	14058
495.366	13985
495.441	14389
495.516	16486
495.591	15852
495.665	23567
495.740	37152
495.815	22350
495.890	15969
495.964	13385
496.039	17762
496.114	15454
496.188	17223
496.263	17399
496.338	15681
496.412	15433
496.487	17765
496.561	15563
496.636	15826
496.710	14953
496.785	15715
496.860	17796
496.934	14255
497.009	15796
497.083	14806
497.158	16684
497.232	18052
497.307	21044
497.381	19849
497.455	22620
497.530	24193
497.604	17039
497.679	17397
497.753	24783
497.827	26847
497.902	23339
497.976	27538
498.050	62158
498.125	234095
498.199	210418
498.273	27420
498.348	19542
498.422	20849
498.496	22024
498.570	23863
498.645	17981
498.719	16751
498.793	21555
498.867	30353
498.941	37748
499.016	98912
499.090	257018
499.164	79528
499.238	19124
499.312	18234
499.386	18976
499.460	21773
499.534	23662
499.609	31080
499.683	32855
499.757	25111
499.831	46260
499.905	175161
499.979	147481
500.053	30392
500.127	26276
500.201	17460
500.275	18342
500.349	19144
500.422	21302
500.496	24903
500.570	35813
500.644	102036
500.718	183825
500.792	37451
500.866	16584
500.940	20153
501.013	17102
501.087	16762
501.161	19994
501.235	25277
501.309	64192
501.382	167508
501.456	124408
501.530	33769
501.603	57394
501.677	22181
501.751	12507
501.825	15998
501.898	27676
501.972	72435
502.046	40754
502.119	16750
502.193	31387
502.266	76487
502.340	33356
502.413	35857
502.487	66030
502.561	38805
502.634	16069
502.708	12751
502.781	11687
502.855	12780
502.928	11330
503.002	12187
503.075	11071
503.149	12910
503.222	13316
503.295	15438
503.369	17798
503.442	22501
503.516	59181
503.589	135937
503.662	85430
503.736	41755
503.809	82120
503.882	76068
503.956	117762
504.029	163437
504.102	360751
504.175	539262
504.249	215854
504.322	78658
504.395	42854
504.468	28036
504.542	21387
504.615	17193
504.688	15271
504.761	12613
504.834	14711
504.907	13020
504.980	12444
505.053	11366
505.127	9125
505.200	14396
505.273	15725
505.346	10875
505.419	9607
505.492	11025
505.565	8465
505.638	9406
505.711	7671
505.784	8021
505.857	8927
505.930	10790
506.003	8006
506.076	10605
506.149	11421
506.221	13392
506.294	14383
506.367	26587
506.440	87776
506.513	38556
506.586	13669
506.659	9012
506.731	7925
506.804	8797
506.877	8723
506.950	9939
507.022	8667
507.095	10327
507.168	11592
507.241	9450
507.313	6896
507.386	6827
507.459	8673
507.531	7544
507.604	6145
507.677	7917
507.749	5883
507.822	9231
507.894	9794
507.967	12797
508.040	8488
508.112	9140
508.185	9112
508.257	7167
508.330	9937
508.402	9239
508.475	9375
508.547	10063
508.620	10206
508.692	14581
508.765	9095
508.837	7600
508.909	8679
508.982	8608
509.054	8675
509.127	7247
509.199	6892
509.271	6883
509.344	8135
509.416	7819
509.488	7435
509.560	8837
509.633	7155
509.705	8065
509.777	8157
509.849	9598
509.922	8197
509.994	9014
510.066	9774
510.138	6961
510.210	12071
510.283	9957
510.355	9762
510.427	9939
510.499	8970
510.571	9714
510.643	8633
510.715	10165
510.787	6872
510.859	9611
510.931	9924
511.003	9996
511.076	10944
511.148	9061
511.219	9656
511.291	15155
511.363	15982
511.435	8514
511.507	7520
511.579	9704
511.651	8830
511.723	8103
511.795	7799
511.867	8244
511.939	10063
512.010	20573
512.082	14895
512.154	8491
512.226	9460
512.298	11860
512.369	11558
512.441	11341
512.513	9795
512.585	7959
512.656	9853
512.728	9270
512.800	7806
512.871	9108
512.943	7923
513.015	7121
513.086	8235
513.158	8821
513.230	7552
513.301	9546
513.373	10359
513.444	8855
513.516	8126
513.588	7599
513.659	9507
513.731	8585
513.802	7347
513.874	11064
513.945	12543
514.016	9094
514.088	9115
514.159	8204
514.231	10754
514.302	11858
514.374	11497
514.445	10648
514.516	23377
514.588	14612
514.659	11769
514.730	18955
514.802	12697
514.873	8114
514.944	11094
515.016	10236
515.087	10046
515.158	14603
515.229	18610
515.301	9724
515.372	11722
515.443	8842
515.514	10260
515.585	8978
515.656	11047
515.728	11986
515.799	10822
515.870	12646
515.941	12597
516.012	12845
516.083	16023
516.154	17040
516.225	21475
516.296	25881
516.367	30631
516.438	39396
516.509	51383
516.580	76872
516.651	278528
516.722	952874
516.793	374670
516.864	74481
516.935	67231
517.006	82545
517.077	103168
517.148	224737
517.219	993485
517.289	1476941
517.360	327608
517.431	83940
517.502	41031
517.573	34210
517.643	30705
517.714	30244
517.785	34464
517.856	39501
517.926	51483
517.997	66406
518.068	87120
518.138	118380
518.209	191030
518.280	658696
518.350	1954046
518.421	909426
518.492	175559
518.562	103648
518.633	104137
518.703	129935
518.774	268734
518.845	679800
518.915	633017
518.986	190054
519.056	80364
519.127	53991
519.197	50241
519.268	98846
519.338	61568
519.408	24775
519.479	19793
519.549	16201
519.620	16745
519.690	14550
519.760	13580
519.831	13227
519.901	12016
519.971	12867
520.042	12279
520.112	12985
520.182	12291
520.253	12207
520.323	11388
520.393	11052
520.463	14682
520.534	10495
520.604	19598
520.674	13499
520.744	12961
520.814	18435
520.885	18507
520.955	30715
521.025	105051
521.095	32324
521.165	12532
521.235	10968
521.305	9687
521.375	10549
521.445	10138
521.515	9654
521.585	10492
521.655	7962
521.725	10626
521.795	11367
521.865	8089
521.935	16172
522.005	11557
522.075	9308
522.145	11500
522.215	11778
522.285	14594
522.355	18528
522.424	32580
522.494	25759
522.564	13242
522.634	11618
522.704	21079
522.774	11764
522.843	11559
522.913	10264
522.983	9192
523.053	8442
523.122	10613
523.192	9421
523.262	13668
523.331	12170
523.401	9935
523.471	9281
523.540	9388
523.610	8908
523.680	10050
523.749	10526
523.819	12826
523.888	12101
523.958	10588
524.027	10502
524.097	10790
524.166	9549
524.236	8378
524.305	12421
524.375	8581
524.444	8540
524.514	13094
524.583	11348
524.653	11417
524.722	14182
524.791	10340
524.861	13608
524.930	9922
524.999	10662
525.069	13566
525.138	12984
525.207	16099
525.277	14843
525.346	13722
525.415	16420
525.484	17884
525.554	22597
525.623	26521
525.692	31070
525.761	40728
525.830	52254
525.900	70494
525.969	109691
526.038	204093
526.107	414904
526.176	1186067
526.245	921061
526.314	274000
526.383	585946
526.452	777464
526.522	1051973
526.591	973818
526.660	180871
526.729	104825
526.797	109502
526.867	148998
526.935	422468
527.004	1465709
527.073	972800
527.142	148357
527.211	58957
527.280	37803
527.349	28618
527.418	20764
527.487	19728
527.555	14705
527.624	14685
527.693	12934
527.762	14397
527.831	12200
527.899	13146
527.968	12099
528.037	10100
528.106	11410
528.174	12174
528.243	13762
528.312	15141
528.380	13897
528.449	9794
528.518	11549
528.586	8309
528.655	10373
528.723	9065
528.792	8355
528.861	9444
528.929	8151
528.998	9870
529.066	8075
529.135	9996
529.203	9026
529.272	10321
529.340	12057
529.409	12829
529.477	10168
529.545	12209
529.614	14036
529.682	12412
529.751	15408
529.819	17912
529.887	14667
529.956	12855
530.024	13082
530.092	11435
530.161	12303
530.229	12705
530.297	12630
530.365	12838
530.434	12284
530.502	11732
530.570	11781
530.638	10306
530.707	12634
530.775	13153
530.843	11431
530.911	12660
530.979	12607
531.047	12945
531.115	13257
531.183	11431
531.252	12071
531.320	12927
531.388	11235
531.456	13896
531.524	10458
531.592	13169
531.660	15074
531.728	12368
531.796	11501
531.864	13148
531.932	13107
532.000	12963
532.067	13335
532.135	14345
532.203	16212
532.271	15659
532.339	17931
532.407	19353
532.475	17736
532.542	15363
532.610	16073
532.678	15027
532.746	25014
532.814	35335
532.881	19088
532.949	15874
533.017	14481
533.084	14963
533.152	14276
533.220	15273
533.287	13490
533.355	14475
533.423	14559
533.490	15067
533.558	15245
533.625	15093
533.693	14527
533.761	15477
533.828	16122
533.896	14576
533.963	19297
534.031	20171
534.098	23066
534.166	23184
534.233	21153
534.300	25059
534.368	25643
534.435	24747
534.503	26672
534.570	32334
534.637	37600
534.705	45127
534.772	52981
534.840	103156
534.907	492572
534.974	605420
535.041	81126
535.109	34331
535.176	25034
535.243	22331
535.310	19853
535.378	19224
535.445	18714
535.512	19586
535.579	19996
535.646	18256
535.714	20360
535.781	21394
535.848	21221
535.915	21403
535.982	21901
536.049	20442
536.116	20947
536.183	18872
536.250	18735
536.317	17983
536.384	19459
536.451	19730
536.518	20128
536.585	17836
536.652	21310
536.719	20960
536.786	18552
536.853	18719
536.920	21205
536.987	22198
537.053	18652
537.120	29481
537.187	27220
537.254	20861
537.321	20351
537.388	22172
537.454	19781
537.521	20528
537.588	18746
537.654	20226
537.721	22103
537.788	21411
537.855	20233
537.921	21262
537.988	19563
538.055	20026
538.121	17832
538.188	17951
538.254	18018
538.321	19508
538.388	19833
538.454	22283
538.521	21855
538.587	21759
538.654	21090
538.720	20010
538.787	20236
538.853	20535
538.920	20340
538.986	19628
539.053	17908
539.119	19580
539.185	18559
539.252	21314
539.318	20285
539.385	23310
539.451	20116
539.517	20492
539.583	21124
539.650	23919
539.716	26214
539.782	20323
539.849	18550
539.915	19500
539.981	18993
540.047	18695
540.114	19221
540.180	21144
540.246	19439
540.312	22126
540.378	23050
540.444	22777
540.510	23487
540.576	28043
540.643	20813
540.709	18147
540.775	19953
540.841	19360
540.907	20398
540.973	23582
541.039	20846
541.105	20556
541.171	21682
541.237	21520
541.303	21501
541.369	22705
541.435	20622
541.500	20690
541.566	18183
541.632	19562
541.698	18734
541.764	21030
541.830	18816
541.896	19315
541.961	19079
542.027	19008
542.093	20658
542.159	22319
542.224	18062
542.290	21528
542.356	20441
542.421	21054
542.487	19564
542.553	18785
542.618	20022
542.684	19047
542.750	19601
542.815	21696
542.881	21222
542.947	27318
543.012	24760
543.078	18779
543.143	18016
543.209	20098
543.274	18216
543.340	19468
543.405	21167
543.471	22691
543.536	19707
543.602	20325
543.667	19046
543.732	19821
543.798	20042
543.863	21763
543.928	19822
543.994	20975
544.059	19838
544.124	20372
544.190	20460
544.255	21259
544.320	21401
544.386	20200
544.451	22682
544.516	21438
544.581	21978
544.646	26889
544.712	26883
544.777	22989
544.842	25249
544.907	23578
544.972	22281
545.037	23205
545.102	25537
545.168	25145
545.233	25497
545.298	25860
545.363	26247
545.428	27836
545.493	29087
545.558	30211
545.623	27763
545.688	27720
545.753	28035
545.818	28971
545.883	30891
545.947	30644
546.012	33672
546.077	33066
546.142	35051
546.207	34924
546.272	37344
546.337	38324
546.401	39354
546.466	40283
546.531	41381
546.596	46117
546.661	46946
546.725	49398
546.790	52070
546.855	56316
546.919	61707
546.984	69653
547.049	73105
547.113	84332
547.178	92300
547.243	104811
547.307	121405
547.372	136110
547.436	134729
547.501	141598
547.565	149127
547.630	137525
547.695	133610
547.759	136384
547.823	136844
547.888	137694
547.952	140515
548.017	147158
548.081	149137
548.146	148504
548.210	153889
548.274	163449
548.339	160385
548.403	146980
548.468	137013
548.532	136136
548.596	138809
548.660	138319
548.725	153869
548.789	165613
548.853	159720
548.917	152958
548.982	150243
549.046	134847
549.110	120952
549.174	123954
549.238	145437
549.303	158055
549.367	161985
549.431	154677
549.495	143947
549.559	145976
549.623	168965
549.687	182057
549.751	178397
549.815	215342
549.879	214188
549.943	206400
550.007	216175
550.071	212289
550.135	190231
550.199	182701
550.263	177647
550.327	170184
550.391	175730
550.455	192548
550.519	203020
550.582	216414
550.646	245342
550.710	247996
550.774	244815
550.838	251753
550.901	259456
550.965	273886
551.029	290342
551.093	317737
551.156	357739
551.220	436288
551.284	484193
551.347	356078
551.411	295061
551.475	275378
551.538	262965
551.602	243955
551.666	229150
551.729	213812
551.793	207457
551.856	202104
551.920	201410
551.983	199485
552.047	196650
552.110	197103
552.174	198571
552.237	203968
552.301	189800
552.364	180194
552.428	177507
552.491	183022
552.554	187099
552.618	189333
552.681	194574
552.745	194384
552.808	238857
552.871	287954
552.934	227207
552.998	195053
553.061	184454
553.124	174462
553.187	172964
553.251	178549
553.314	177518
553.377	178031
553.440	191994
553.503	206298
553.567	211492
553.630	189597
553.693	184849
553.756	184806
553.819	180473
553.882	169531
553.945	171629
554.008	171841
554.071	176998
554.134	176220
554.197	163626
554.260	159403
554.323	163833
554.386	164879
554.449	174428
554.512	175312
554.575	165691
554.638	164298
554.701	161068
554.764	160578
554.827	155219
554.889	150353
554.952	139881
555.015	137624
555.078	141355
555.141	143209
555.203	138730
555.266	138185
555.329	139399
555.391	132411
555.454	131993
555.517	127292
555.580	124869
555.642	118930
555.705	116425
555.768	115714
555.830	112643
555.893	108838
555.955	105706
556.018	103381
556.080	103712
556.143	106770
556.206	105529
556.268	102916
556.330	101433
556.393	97444
556.455	96592
556.518	96187
556.580	93068
556.643	87347
556.705	86272
556.767	84150
556.830	82760
556.892	81744
556.955	81094
557.017	78252
557.079	78185
557.142	76344
557.204	75755
557.266	80438
557.328	72516
557.391	68249
557.453	67174
557.515	67349
557.577	69252
557.639	71027
557.701	71993
557.764	72978
557.826	76304
557.888	82393
557.950	85694
558.012	94600
558.074	123811
558.136	304079
558.198	724089
558.260	249487
558.322	95958
558.384	91505
558.446	98867
558.508	111355
558.570	126241
558.632	149524
558.694	186048
558.756	308825
558.818	848570
558.880	1707096
558.942	773437
559.003	785316
559.065	369368
559.127	142585
559.189	131395
559.251	140413
559.312	197188
559.374	468935
559.436	1327336
559.498	693740
559.559	172581
559.621	134639
559.683	146117
559.744	235329
559.806	744216
559.868	1048902
559.929	250622
559.991	150636
560.052	246559
560.114	703615
560.176	429678
560.237	405485
560.299	636938
560.360	136615
560.422	55100
560.483	43497
560.545	37911
560.606	35552
560.667	34631
560.729	32631
560.790	30303
560.852	29905
560.913	28884
560.974	28378
561.036	28461
561.097	28337
561.158	27629
561.220	27018
561.281	25297
561.342	24193
561.403	25409
561.465	24102
561.526	27636
561.587	27789
561.648	23487
561.709	22474
561.771	23645
561.832	22632
561.893	21818
561.954	22281
562.015	21222
562.076	22181
562.137	21329
562.198	21005
562.259	22385
562.320	21402
562.381	21098
562.442	21130
562.503	20831
562.564	20744
562.625	19732
562.686	19369
562.747	19039
562.808	20070
562.869	20265
562.930	21855
562.991	19175
563.051	19421
563.112	18276
563.173	18480
563.234	17508
563.294	18501
563.355	17994
563.416	17570
563.477	17736
563.537	18258
563.598	17644
563.659	17678
563.720	17703
563.780	17334
563.841	17285
563.901	18289
563.962	16928
564.023	17161
564.083	17225
564.144	17387
564.204	17970
564.265	17135
564.325	18513
564.386	25061
564.446	21369
564.507	15520
564.567	15363
564.628	15404
564.688	15572
564.749	16175
564.809	17033
564.869	17359
564.930	15726
564.990	16043
565.050	15273
565.111	15779
565.171	15401
565.231	14633
565.292	15484
565.352	14751
565.412	14674
565.472	15320
565.532	14723
565.593	14849
565.653	14540
565.713	13752
565.773	14868
565.833	15152
565.893	16050
565.953	15286
566.013	14332
566.074	15171
566.134	15953
566.194	19512
566.254	18609
566.314	16079
566.374	13820
566.434	14696
566.494	13480
566.554	13703
566.614	13009
566.673	15245
566.733	15513
566.793	14927
566.853	14956
566.913	14812
566.973	15544
567.033	15824
567.092	15049
567.152	15027
567.212	15450
567.272	15605
567.331	16246
567.391	15890
567.451	16743
567.511	19431
567.570	18110
567.630	15301
567.690	14562
567.749	14346
567.809	14863
567.868	15412
567.928	15211
567.988	16236
568.047	15554
568.107	15399
568.166	15113
568.226	15664
568.285	15763
568.345	16729
568.404	15617
568.464	16368
568.523	14514
568.582	15719
568.642	14885
568.701	14953
568.761	16020
568.820	16018
568.879	16466
568.939	18723
568.998	16535
569.057	15275
569.116	15002
569.176	15371
569.235	14881
569.294	14964
569.353	13664
569.413	14511
569.472	13871
569.531	14657
569.590	12668
569.649	14235
569.708	13747
569.767	15028
569.827	13843
569.886	14249
569.945	13307
570.004	14728
570.063	14257
570.122	15152
570.181	14627
570.240	15886
570.299	15555
570.358	14840
570.417	14863
570.475	15403
570.534	15952
570.593	15065
570.652	15435
570.711	15713
570.770	15539
570.829	15766
570.887	14939
570.946	16661
571.005	16454
571.064	19233
571.122	20832
571.181	19021
571.240	16181
571.299	15466
571.357	15380
571.416	16150
571.475	16471
571.533	16928
571.592	17435
571.650	16590
571.709	17657
571.768	19937
571.826	20278
571.885	17741
571.943	15738
572.002	15186
572.060	15634
572.119	15032
572.177	14588
572.236	14115
572.294	14206
572.352	16375
572.411	15817
572.469	14898
572.528	13622
572.586	13759
572.644	14483
572.703	14578
572.761	13407
572.819	13079
572.877	12999
572.936	12822
572.994	12563
573.052	12897
573.110	12776
573.169	14877
573.227	13055
573.285	15035
573.343	14087
573.401	14639
573.459	14454
573.517	15184
573.576	16392
573.634	15368
573.692	14354
573.750	15643
573.808	13743
573.866	14453
573.924	15087
573.982	15113
574.040	13736
574.098	14543
574.155	13659
574.213	12950
574.271	13834
574.329	16319
574.387	13918
574.445	13087
574.503	11656
574.560	13086
574.618	12830
574.676	13065
574.734	13513
574.792	12408
574.849	12471
574.907	10565
574.965	11396
575.022	10076
575.080	10183
575.138	10738
575.195	9946
575.253	10087
575.311	10613
575.368	10539
575.426	10454
575.483	10741
575.541	11207
575.598	10929
575.656	11034
575.713	12818
575.771	13317
575.828	11139
575.886	10371
575.943	10438
576.001	9677
576.058	9731
576.115	9980
576.173	11353
576.230	11832
576.287	11384
576.345	11050
576.402	11723
576.459	11690
576.517	11209
576.574	10761
576.631	10930
576.688	10289
576.746	9867
576.803	9042
576.860	9406
576.917	9669
576.974	9284
577.031	9824
577.089	9976
577.146	8933
577.203	9624
577.260	9956
577.317	9479
577.374	9818
577.431	10153
577.488	8689
577.545	8453
577.602	10373
577.659	9052
577.716	9724
577.773	9140
577.830	10012
577.886	9869
577.943	8188
578.000	8817
578.057	9456
578.114	10000
578.171	10174
578.227	12341
578.284	11896
578.341	10960
578.398	9773
578.454	10595
578.511	10322
578.568	11007
578.625	10104
578.681	8974
578.738	9224
578.794	9272
578.851	9936
578.908	9712
578.964	9417
579.021	9642
579.077	8552
579.134	8398
579.190	8898
579.247	9102
579.303	8243
579.360	9513
579.416	9139
579.473	9740
579.529	8394
579.586	9121
579.642	9602
579.698	10636
579.755	9614
579.811	10371
579.867	10085
579.924	9999
579.980	10519
580.036	11803
580.093	12316
580.149	16349
580.205	16715
580.261	12779
580.317	11694
580.374	11470
580.430	13068
580.486	12011
580.542	10639
580.598	10726
580.619	10972
580.654	11413
580.692	11170
580.710	11075
580.765	10479
580.767	10472
580.823	11508
580.838	11352
580.879	10982
580.911	10768
580.935	10631
580.984	10812
580.991	10854
581.047	11710
581.057	11561
581.103	10944
581.130	11186
581.159	11449
581.203	12106
581.215	12310
581.270	11074
581.276	11026
581.326	10598
581.349	10351
581.382	10025
581.422	10415
581.438	10583
581.494	10075
581.494	10063
581.550	9728
581.567	9881
581.606	10203
581.640	10004
581.661	9913
581.713	11196
581.717	11304
581.773	10364
581.786	10359
581.829	10393
581.859	10067
581.885	9790
581.932	9857
581.940	9898
581.996	10446
582.004	10397
582.052	10017
582.077	9518
582.107	8901
582.150	9732
582.163	10013
582.219	10295
582.223	10228
582.274	9585
582.296	9796
582.330	10060
582.368	9725
582.386	9633
582.441	10063
582.441	10066
582.497	9942
582.514	10114
582.552	10596
582.587	10731
582.608	10826
582.659	10598
582.663	10571
582.719	10725
582.732	10652
582.774	10591
582.805	10648
582.830	10587
582.877	10540
582.885	10582
582.941	10764
582.950	10847
582.996	10973
583.023	10835
583.052	10850
583.095	11034
583.107	11090
583.162	13118
583.168	13132
583.218	13011
583.240	12255
583.273	11266
583.313	10194
583.328	9803
583.384	10756
583.385	10735
583.439	9714
583.458	9693
583.494	9908
583.531	9954
583.549	10007
583.603	9668
583.605	9652
583.660	9665
583.676	9828
583.715	10116
583.748	9838
583.770	9731
583.820	9293
583.825	9247
583.881	10050
583.893	9989
583.936	9788
583.965	9575
583.991	9255
584.038	9199
584.046	9238
584.101	9716
584.110	9683
584.156	9444
584.183	9780
584.211	10170
584.255	9881
584.266	9800
584.321	10511
584.328	10536
584.376	10761
584.400	10702
584.431	10474
584.472	10545
584.486	10567
584.541	11263
584.545	11240
584.596	10948
584.617	10969
584.651	11396
584.689	12596
584.706	12762
584.761	11912
584.762	11920
584.816	13251
584.834	13542
584.871	13866
584.906	14604
584.926	14985
584.978	16389
584.980	16446
585.035	18313
585.051	18770
585.090	20044
585.123	22023
585.145	23496
585.195	27088
585.200	27498
585.254	33945
585.267	35531
585.309	40301
585.340	45021
585.364	49108
585.412	56605
585.419	57871
585.473	71734
585.484	75743
585.528	98157
585.556	123452
585.583	167875
585.628	282191
585.637	319934
585.692	676664
585.700	734563
585.747	936817
585.772	781439
585.801	493524
585.845	180847
585.856	135740
585.910	65915
585.917	59831
585.965	41785
585.989	35923
586.019	30621
586.061	26304
586.074	25398
586.128	22729
586.133	22556
586.183	20731
586.205	20225
586.237	19670
586.277	19076
586.292	18901
586.346	19040
586.349	18994
586.401	17724
586.421	17929
586.455	18587
586.493	19064
586.509	19339
586.564	20204
586.565	20301
586.618	24928
586.637	25494
586.672	26942
586.709	29547
586.727	30872
586.781	35644
586.781	35621
586.835	25012
586.853	22651
586.889	19811
586.925	17802
586.944	17253
586.996	17287
586.998	17282
587.052	17427
587.068	17433
587.106	17409
587.140	16922
587.161	16707
587.212	16842
587.215	16829
587.269	16797
587.284	16944
587.323	17393
587.356	17362
587.377	17478
587.427	17993
587.431	18013
587.485	18008
587.499	18205
587.539	18771
587.571	19086
587.593	19534
587.643	20931
587.648	20991
587.702	21165
587.715	21217
587.755	20589
587.786	20213
587.810	20495
587.858	20919
587.864	20964
587.917	21950
587.930	22010
587.971	21768
588.001	22114
588.025	22143
588.073	21611
588.079	21655
588.133	22081
588.145	22355
588.187	22522
588.217	22422
588.241	22907
588.288	24166
588.295	24267
588.348	25638
588.360	25834
588.402	26648
588.431	27398
588.456	28250
588.503	30567
588.510	30917
588.564	33403
588.575	34113
588.617	36722
588.646	38847
588.671	40806
588.718	44392
588.725	45435
588.778	56580
588.789	59999
588.832	96848
588.861	127886
588.886	191461
588.932	331918
588.939	344093
588.993	419517
589.004	415624
589.047	218440
589.075	103272
589.100	75514
589.147	45089
589.154	43872
589.207	38501
589.218	37735
589.261	38847
589.290	40032
589.314	41164
589.361	45067
589.368	47065
589.421	65838
589.433	71204
589.475	131402
589.504	181136
589.528	244301
589.576	373448
589.582	360831
589.635	173077
589.647	135709
589.689	70661
589.718	35901
589.742	32378
589.790	27531
589.795	27288
589.849	25847
589.861	25733
589.902	25676
589.932	24960
589.955	24021
590.004	22451
590.009	22393
590.062	22448
590.075	22434
590.115	22073
590.146	22014
590.168	22170
590.218	22425
590.222	22365
590.275	21765
590.289	21668
590.328	22610
590.360	23193
590.381	23086
590.431	22990
590.435	22979
590.488	23120
590.503	23153
590.541	23353
590.574	23557
590.594	23824
590.645	24645
590.647	24645
590.700	24816
590.716	24886
590.753	25500
590.787	26150
590.806	26441
590.859	27359
590.859	27359
590.912	27688
590.930	27904
590.965	27879
591.001	27680
591.018	27668
591.071	27655
591.072	27665
591.124	27395
591.143	27363
591.177	27273
591.214	27145
591.230	27331
591.283	27922
591.285	27957
591.336	27425
591.356	27241
591.389	27308
591.427	27341
591.442	27200
591.495	26723
591.498	26703
591.547	27252
591.569	27566
591.600	27846
591.640	28292
591.653	28439
591.706	29010
591.711	29085
591.759	29642
591.782	30005
591.811	30735
591.853	31742
591.864	31593
591.917	30909
591.924	30817
591.969	31018
591.995	31195
592.022	30874
592.066	30426
592.075	30643
592.127	32048
592.137	32352
592.180	33395
592.208	34082
592.233	34152
592.279	34297
592.285	34333
592.338	34833
592.350	34964
592.390	34804
592.421	34706
592.443	35104
592.491	36085
592.495	36110
592.548	36680
592.562	36854
592.600	36127
592.633	35553
592.653	35393
592.704	34861
592.705	35107
592.775	37611
592.846	37777
592.916	38398
592.987	37960
593.058	39986
593.128	38945
593.199	40014
593.270	39802
593.341	40515
593.411	43320
593.482	44025
593.553	45122
593.623	45030
593.694	46759
593.764	47927
593.835	46594
593.906	46623
593.976	47901
594.047	48890
594.117	52137
594.188	53523
594.258	53280
594.329	53306
594.399	54984
594.470	55509
594.540	59358
594.611	59895
594.681	57866
594.751	58188
594.822	61289
594.892	64588
594.963	65033
595.033	67457
595.103	69248
595.174	70348
595.244	72767
595.314	74767
595.384	75437
595.455	77350
595.525	81819
595.595	84718
595.665	83701
595.736	81130
595.806	83249
595.876	83871
595.946	84182
596.016	89463
596.087	91719
596.157	91105
596.227	92206
596.297	98050
596.367	104713
596.437	109676
596.507	110228
596.577	108784
596.647	112675
596.717	119081
596.787	120573
596.857	121129
596.927	121694
596.997	121517
597.067	122453
597.137	124285
597.207	125116
597.277	126601
597.347	119260
597.417	115932
597.487	116343
597.557	119130
597.626	123849
597.696	125481
597.766	124372
597.836	115253
597.906	112183
597.975	109290
598.045	110817
598.115	115185
598.185	125528
598.254	140225
598.324	152270
598.394	153288
598.464	148750
598.533	147142
598.603	137515
598.672	131769
598.742	136412
598.812	136044
598.881	141250
598.951	138946
599.020	141473
599.090	145722
599.159	146602
599.229	143018
599.299	141019
599.368	144160
599.437	140511
599.507	128754
599.576	125391
599.646	124020
599.715	122547
599.785	120318
599.854	116104
599.924	115384
599.993	114732
600.062	118190
600.132	121534
600.201	128241
600.270	149559
600.340	157561
600.409	153844
600.478	153666
600.547	156814
600.617	138874
600.686	111911
600.755	100745
600.824	95122
600.894	93222
600.963	95502
601.032	92659
601.101	91014
601.170	84171
601.239	82350
601.308	82819
601.378	82371
601.447	80779
601.516	83145
601.585	84398
601.654	86089
601.723	85099
601.792	88626
601.861	90715
601.930	95558
601.999	94191
602.068	94092
602.137	95792
602.206	98124
602.275	98191
602.343	100453
602.412	101041
602.481	101752
602.550	102835
602.619	106831
602.688	108641
602.756	106968
602.825	108819
602.894	112399
602.963	113895
603.032	116801
603.100	115857
603.169	115965
603.238	117884
603.307	118823
603.375	120082
603.444	122720
603.513	124179
603.581	125800
603.650	127560
603.719	127176
603.787	128901
603.856	133822
603.924	135117
603.993	143816
604.061	149110
604.130	152803
604.198	156397
604.267	159230
604.335	161762
604.404	163473
604.472	167217
604.541	168801
604.609	169496
604.678	169173
604.746	171729
604.815	178141
604.883	177407
604.951	179611
605.020	183054
605.088	187101
605.156	190456
605.225	193710
605.293	194587
605.361	193529
605.429	197191
605.498	201502
605.566	204022
605.634	216207
605.702	223953
605.771	230225
605.839	230289
605.907	225485
605.975	216721
606.043	210810
606.111	212789
606.180	213011
606.248	208826
606.316	206596
606.384	205102
606.452	207835
606.520	215351
606.588	222561
606.656	225827
606.724	217733
606.792	206376
606.860	184644
606.928	168667
606.996	162070
607.064	159765
607.132	165899
607.200	174301
607.267	180616
607.335	184618
607.403	188729
607.471	179966
607.539	176628
607.607	177726
607.674	156225
607.742	156028
607.810	155720
607.878	156757
607.946	159398
608.013	167071
608.081	169318
608.149	171478
608.216	176987
608.284	183553
608.352	183102
608.419	180520
608.487	175505
608.555	174381
608.622	180711
608.690	191225
608.757	213636
608.825	216939
608.893	208525
608.960	196822
609.028	189193
609.095	188715
609.163	187694
609.230	166302
609.298	153165
609.365	162794
609.432	176787
609.500	191929
609.567	221042
609.635	250444
609.702	263283
609.769	249775
609.837	191349
609.904	170923
609.971	180175
610.039	208375
610.106	278744
610.173	541862
610.241	1147924
610.308	604432
610.375	231477
610.442	190146
610.509	177287
610.577	177948
610.644	180821
610.711	185291
610.778	189277
610.845	197558
610.912	212150
610.980	217238
611.047	220355
611.114	213901
611.181	205637
611.248	205673
611.315	219236
611.382	222514
611.449	232781
611.516	232650
611.583	231116
611.650	234065
611.717	238114
611.784	244450
611.851	257482
611.918	276752
611.984	332266
612.051	467535
612.118	886898
612.185	1820228
612.252	1138676
612.319	405367
612.386	322602
612.452	287533
612.519	269474
612.586	261553
612.653	265866
612.719	273738
612.786	262226
612.853	243837
612.919	239293
612.986	242290
613.053	225515
613.120	214302
613.186	206769
613.253	208482
613.319	207130
613.386	210804
613.453	214147
613.519	212543
613.586	208669
613.652	213344
613.719	207782
613.785	214495
613.852	216689
613.918	213123
613.985	217516
614.051	226269
614.118	226304
614.184	214746
614.250	213484
614.317	218327
614.383	216820
614.449	218996
614.516	218611
614.582	218705
614.648	213828
614.715	212761
614.781	207727
614.847	208007
614.914	206172
614.980	198525
615.046	200744
615.112	208705
615.179	208166
615.245	210846
615.311	207778
615.377	212739
615.443	213442
615.509	220014
615.575	227434
615.642	225468
615.708	230686
615.774	243209
615.840	261519
615.906	287126
615.972	355359
616.038	533793
616.104	1057305
616.170	2038412
616.236	1620665
616.302	591259
616.368	451240
616.434	318822
616.500	289762
616.565	334181
616.631	427232
616.697	338452
616.763	355008
616.829	562797
616.895	992143
616.961	886588
617.026	374384
617.092	250690
617.158	230315
617.224	220929
617.289	202438
617.355	190200
617.421	187297
617.487	188472
617.552	177550
617.618	176727
617.684	177767
617.749	177656
617.815	170143
617.880	165485
617.946	166392
618.012	169341
618.077	172109
618.143	164124
618.208	167638
618.274	179081
618.339	179366
618.405	145824
618.470	148494
618.536	144541
618.601	143594
618.667	131963
618.732	127175
618.798	125009
618.863	124179
618.928	122486
618.994	128297
619.059	123928
619.124	125166
619.190	122890
619.255	124305
619.320	121790
619.386	125001
619.451	122754
619.516	118657
619.581	119080
619.647	123592
619.712	123522
619.777	117867
619.842	120158
619.907	122270
619.972	124065
620.038	123345
620.103	119023
620.168	119033
620.233	120993
620.298	120851
620.363	124335
620.428	127603
620.493	130617
620.558	131647
620.623	131995
620.688	132014
620.753	130134
620.818	132958
620.883	133015
620.948	133004
621.013	132317
621.078	129491
621.143	128869
621.207	133382
621.272	129128
621.337	125193
621.402	124764
621.467	123402
621.532	122843
621.596	124593
621.661	119152
621.726	119143
621.791	118250
621.855	119955
621.920	118178
621.985	120129
622.049	123344
622.114	122462
622.179	125421
622.243	128536
622.308	133829
622.373	136605
622.437	133445
622.502	126343
622.566	125417
622.631	123598
622.695	127503
622.760	124881
622.824	125994
622.889	126781
622.953	126088
623.018	135206
623.082	136164
623.147	135013
623.211	132111
623.276	130604
623.340	124809
623.404	121970
623.469	121591
623.533	123821
623.597	119384
623.662	120877
623.726	109515
623.790	104543
623.854	100491
623.919	103085
623.983	105984
624.047	108206
624.111	107472
624.176	109699
624.240	110360
624.304	114983
624.368	108743
624.432	110359
624.496	112427
624.560	119972
624.625	119783
624.689	118475
624.753	124622
624.817	118632
624.881	115701
624.945	102377
625.009	99054
625.073	102235
625.137	107032
625.201	112826
625.265	111416
625.329	106105
625.393	106611
625.456	109796
625.520	111773
625.584	113886
625.648	116808
625.712	121132
625.776	121034
625.839	114316
625.903	93386
625.967	87050
626.031	96762
626.095	117115
626.158	102462
626.222	79970
626.286	77088
626.349	72878
626.413	66680
626.477	67283
626.540	68095
626.604	67991
626.668	67059
626.731	64852
626.795	65733
626.858	67491
626.922	65168
626.986	64450
627.049	64016
627.113	69212
627.176	66118
627.240	64261
627.303	63972
627.366	63091
627.430	64530
627.493	62596
627.557	60842
627.620	65281
627.684	67299
627.747	68325
627.810	59286
627.874	55770
627.937	52909
628.000	58282
628.064	53522
628.127	46718
628.190	48622
628.253	46285
628.317	43306
628.380	41918
628.443	40481
628.506	40753
628.569	39732
628.632	37096
628.696	37198
628.759	36748
628.822	35199
628.885	33411
628.948	33541
629.011	32870
629.074	31107
629.137	30778
629.200	29831
629.263	30828
629.326	29686
629.389	30623
629.452	30240
629.515	28860
629.578	27642
629.641	30204
629.704	29022
629.767	29709
629.830	29070
629.892	28414
629.955	27202
630.018	30154
630.081	27089
630.144	29553
630.207	26167
630.269	29460
630.332	26731
630.395	27362
630.458	26428
630.520	25206
630.583	25983
630.646	27008
630.708	26366
630.771	26377
630.834	29098
630.896	27443
630.959	27745
631.021	27791
631.084	26984
631.146	28334
631.209	27772
631.272	28163
631.334	29153
631.397	29289
631.459	30193
631.522	33182
631.584	34557
631.646	37990
631.709	39090
631.771	39776
631.834	37422
631.896	34042
631.958	30581
632.021	30889
632.083	27984
632.145	28689
632.208	26068
632.270	27480
632.332	26394
632.395	26232
632.457	26903
632.519	26060
632.581	26643
632.643	25618
632.706	26761
632.768	24318
632.830	26426
632.892	26508
632.954	26268
633.016	28178
633.078	25714
633.141	26308
633.203	26216
633.265	25607
633.327	26175
633.389	25514
633.451	26752
633.513	26341
633.575	27863
633.637	27103
633.698	28341
633.760	31029
633.822	31587
633.884	31575
633.946	34325
634.008	35158
634.070	37627
634.132	41592
634.193	45318
634.255	50822
634.317	52050
634.379	51221
634.441	42084
634.502	38709
634.564	34114
634.626	31000
634.687	29399
634.749	27107
634.811	27959
634.873	25897
634.934	26243
634.996	26698
635.057	26706
635.119	27671
635.181	28840
635.242	29821
635.304	27654
635.365	30810
635.427	27878
635.488	28490
635.550	27572
635.611	29354
635.673	27552
635.734	33410
635.796	34744
635.857	40226
635.918	42133
635.980	50253
636.041	52934
636.102	57570
636.164	57309
636.225	54597
636.286	45302
636.348	38826
636.409	33893
636.470	31139
636.531	29724
636.593	27624
636.654	26661
636.715	25299
636.776	24081
636.838	22609
636.899	22726
636.960	22825
637.021	22742
637.082	21701
637.143	20806
637.204	20981
637.265	20427
637.326	21738
637.387	22366
637.448	20690
637.509	22088
637.570	20908
637.631	21306
637.692	19140
637.753	18556
637.814	19938
637.875	18184
637.936	19558
637.997	18330
638.058	18598
638.119	20011
638.179	19583
638.240	17779
638.301	18877
638.362	17435
638.423	17552
638.483	19621
638.544	15308
638.605	17748
638.666	16483
638.726	16891
638.787	18236
638.848	17830
638.908	16695
638.969	16138
639.030	16451
639.090	15294
639.151	16461
639.211	16490
639.272	17727
639.332	18328
639.393	18671
639.453	20177
639.514	21930
639.574	17227
639.635	14769
639.695	15956
639.756	15252
639.816	14960
639.877	15154
639.937	16178
639.997	16761
640.058	13853
640.118	15083
640.178	16539
640.239	15649
640.299	14724
640.359	16360
640.420	17479
640.480	22794
640.540	26191
640.600	26266
640.661	20541
640.721	18842
640.781	20342
640.841	15353
640.901	15216
640.961	16243
641.021	17612
641.082	19188
641.142	15505
641.202	15891
641.262	12008
641.322	15084
641.382	12761
641.442	14920
641.502	13742
641.562	15961
641.622	14329
641.682	18554
641.742	21000
641.802	18289
641.861	15889
641.921	13346
641.981	13595
642.041	13618
642.101	11908
642.161	11157
642.221	13182
642.280	13318
642.340	12977
642.400	12353
642.460	14812
642.519	13180
642.579	13896
642.639	14816
642.698	12284
642.758	16853
642.818	14518
642.877	13649
642.937	14323
642.997	14807
643.056	14503
643.116	12761
643.175	16433
643.235	15425
643.294	16642
643.354	17982
643.414	20504
643.473	26325
643.532	32602
643.592	47553
643.651	77390
643.711	135356
643.770	266614
643.830	636246
643.889	1091635
643.948	284615
644.008	65780
644.067	38476
644.126	27580
644.186	23166
644.245	20332
644.304	16720
644.363	18676
644.423	15477
644.482	16894
644.541	18007
644.600	18807
644.659	26344
644.719	35163
644.778	56840
644.837	103426
644.896	224418
644.955	470871
645.014	131689
645.073	32351
645.132	22389
645.191	19637
645.250	18640
645.309	20494
645.368	23510
645.427	35357
645.486	69169
645.545	112838
645.604	27561
645.663	17002
645.722	16376
645.781	19296
645.840	23524
645.898	31178
645.957	45027
646.016	71966
646.075	129638
646.134	254384
646.192	673886
646.251	817433
646.310	142386
646.369	46837
646.427	37795
646.486	24750
646.545	20162
646.603	17095
646.662	16052
646.721	15133
646.779	15444
646.838	16668
646.896	24115
646.955	33733
647.014	60401
647.072	125011
647.131	334731
647.189	131630
647.248	20332
647.306	15606
647.365	13859
647.423	9419
647.481	12561
647.540	8901
647.598	11003
647.657	10429
647.715	10961
647.773	8174
647.832	10138
647.890	7426
647.948	8953
648.007	8821
648.065	7540
648.123	7420
648.181	8959
648.240	8651
648.298	6992
648.356	7804
648.414	8595
648.472	7901
648.531	8164
648.589	7257
648.647	8078
648.705	7631
648.763	8354
648.821	9382
648.879	9561
648.937	11670
648.995	16739
649.053	22573
649.111	35158
649.169	61271
649.227	114982
649.285	246767
649.343	640317
649.401	259913
649.459	37287
649.516	21707
649.574	16015
649.632	19111
649.690	22635
649.748	27719
649.806	43131
649.863	86368
649.921	246332
649.979	136447
650.037	18084
650.094	9456
650.152	9237
650.210	7556
650.268	7830
650.325	5960
650.383	6067
650.440	4256
650.498	6132
650.556	5803
650.613	5997
650.671	5577
650.728	7139
650.786	7288
650.843	11773
650.901	6088
650.958	5501
651.016	5626
651.073	4679
651.131	3417
651.188	3748
651.246	4244
651.303	3763
651.360	4336
651.418	3939
651.475	4952
651.532	4177
651.590	4521
651.647	3706
651.704	4166
651.762	4141
651.819	4404
651.876	2796
651.933	3665
651.990	4045
652.048	1951
652.105	2785
652.162	3675
652.219	2968
652.276	3749
652.333	4868
652.390	2058
652.448	2859
652.505	3495
652.562	3787
652.619	2876
652.676	4202
652.733	4173
652.790	2806
652.847	2056
652.904	2775
652.961	1555
653.017	2527
653.074	3258
653.131	2989
653.188	2154
653.245	3460
653.302	2729
653.359	2979
653.415	3524
653.472	2384
653.529	3482
653.586	2666
653.642	2016
653.699	3725
653.756	1939
653.813	2858
653.869	4903
653.926	3724
653.983	2122
654.039	3965
654.096	2606
654.152	4093
654.209	1669
654.266	2372
654.322	2541
654.379	3005
654.435	3679
654.492	1727
654.548	3780
654.605	2942
654.661	3406
654.717	2848
654.774	2903
654.830	2726
654.887	2570
654.943	1906
655.000	2599
655.056	2963
655.112	2404
655.168	2164
655.225	2676
655.281	2939
655.337	2684
655.394	2668
655.450	2396
655.506	3161
655.562	3048
655.618	2901
655.675	1997
655.731	2689
655.787	2429
655.843	3414
655.899	2099
655.955	3245
656.011	2299
656.067	2494
656.123	2956
656.179	2716
656.235	4050
656.291	1972
656.347	3688
656.403	2390
656.459	1915
656.515	2702
656.571	2612
656.627	1847
656.683	2173
656.739	2740
656.795	2088
656.850	1396
656.906	3104
656.962	3852
657.018	2550
657.074	5550
657.129	6376
657.185	13771
657.241	32499
657.297	14406
657.352	4029
657.408	2102
657.464	3332
657.519	2347
657.575	984
657.630	2187
657.686	1185
657.742	1975
657.797	1662
657.853	1451
657.908	2571
657.964	431
658.019	1903
658.075	1450
658.130	1800
658.186	1313
658.241	2598
658.297	1811
658.352	1436
658.407	2936
658.463	509
658.518	1615
658.573	1814
658.629	1676
658.684	1342
658.739	3001
658.795	970
658.850	1860
658.905	1060
658.960	2080
659.016	337
659.071	1687
659.126	982
659.181	1598
659.236	2382
659.291	2766
659.346	1071
659.401	1861
659.457	2044
659.512	1884
659.567	2047
659.622	1335
659.677	1632
659.732	1292
659.787	1884
659.842	1336
659.897	1939
659.952	1098
660.007	1154
660.061	1603
660.116	729
660.171	591
660.226	1483
660.281	3066
660.336	490
660.391	2012
660.445	1429
660.500	1821
660.555	1771
660.610	474
660.664	1766
660.719	1000
660.774	1452
660.828	2880
660.883	1456
660.938	740
660.992	693
661.047	2345
661.101	419
661.156	451
661.211	804
661.265	1415
661.320	1407
661.374	1170
661.429	570
661.483	1850
661.538	705
661.592	1340
661.647	1419
661.701	1846
661.755	1877
661.810	1126
661.864	667
661.919	1266
661.973	1154
662.027	1083
662.081	478
662.136	1367
662.190	1775
662.244	1570
662.299	689
662.353	1527
662.407	765
662.461	915
662.515	1876
662.569	935
662.624	757
662.678	1248
662.732	1361
662.786	1737
662.840	1105
662.894	1386
662.948	1185
663.002	1066
663.056	1385
663.110	1666
663.164	1146
663.218	919
663.272	1208
663.326	1200
663.380	918
663.434	1379
663.488	428
663.542	1707
663.595	1633
663.649	1281
663.703	2661
663.757	2191
663.811	1152
663.864	495
663.918	1676
663.972	923
664.026	889
664.079	798
664.133	1858
664.187	1230
664.240	759
664.294	1464
664.348	1266
664.401	2115
664.455	1432
664.508	2305
664.562	719
664.615	1726
664.669	910
664.722	1926
664.776	1020
664.829	1674
664.883	652
664.936	537
664.990	933
665.043	1483
665.097	691
665.150	2448
665.203	1174
665.257	1301
665.310	847
665.363	2354
665.417	1661
665.470	1953
665.523	1474
665.576	1535
665.630	1306
665.683	1796
665.736	1074
665.789	2211
665.842	1121
665.895	1648
665.949	1246
666.002	1769
666.055	1538
666.108	2464
666.161	799
666.214	3236
666.267	1320
666.320	2270
666.373	1463
666.426	2063
666.479	1305
666.532	2329
666.585	1904
666.638	2743
666.691	1982
666.744	1619
666.796	867
666.849	1165
666.902	2091
666.955	1314
667.008	939
667.060	1395
667.113	1071
667.166	2311
667.219	1484
667.271	2239
667.324	1244
667.377	1625
667.430	898
667.482	2962
667.535	1275
667.587	2152
667.640	689
667.693	1701
667.745	1577
667.798	2165
667.850	1661
667.903	1322
667.955	1714
668.008	1844
668.060	1158
668.113	2006
668.165	1088
668.218	1269
668.270	1275
668.322	2027
668.375	1717
668.427	1941
668.479	1333
668.532	2240
668.584	725
668.636	1569
668.689	1892
668.741	1109
668.793	1535
668.845	2189
668.898	1745
668.950	1769
669.002	1584
669.054	1434
669.106	619
669.158	1298
669.211	1612
669.263	1363
669.315	1546
669.367	2862
669.419	-211
669.471	1914
669.523	1862
669.575	1919
669.627	1356
669.679	1140
669.731	1256
669.783	1961
669.835	1558
669.886	1235
669.938	1554
669.990	1616
670.042	968
670.094	2017
670.146	1457
670.197	1230
670.249	1864
670.301	2177
670.353	2134
670.404	3857
670.456	4480
670.508	5527
670.560	8980
670.611	14719
670.663	26420
670.715	69991
670.766	98574
670.818	25423
670.869	5157
670.921	3806
670.972	3650
671.024	2982
671.075	2681
671.127	2703
671.178	2229
671.230	2972
671.281	3587
671.333	4887
671.384	5327
671.436	8505
671.487	13326
671.538	18868
671.590	32627
671.641	55356
671.692	103327
671.744	192616
671.795	126443
671.846	42156
671.897	18441
671.949	11842
672.000	8058
672.051	5153
672.102	4785
672.153	3380
672.204	2685
672.256	2992
672.307	3447
672.358	1848
672.409	2108
672.460	2423
672.511	1317
672.562	1113
672.613	679
672.664	1258
672.715	1448
672.766	1559
672.817	767
672.868	2054
672.919	499
672.970	186
673.021	177
673.071	450
673.122	1690
673.173	1147
673.224	453
673.275	1157
673.326	796
673.376	1064
673.427	1545
673.478	1316
673.528	1004
673.579	659
673.630	985
673.680	2010
673.731	392
673.782	822
673.832	1029
673.883	1085
673.934	699
673.984	1611
674.035	1454
674.085	1022
674.136	1045
674.186	1396
674.237	978
674.287	1253
674.338	1491
674.388	1426
674.438	1335
674.489	2092
674.539	1290
674.589	1727
674.640	2412
674.690	1957
674.740	1399
674.791	977
674.841	1167
674.891	1612
674.942	1145
674.992	506
675.042	975
675.092	983
675.142	673
675.193	138
675.243	390
675.293	1467
675.343	546
675.393	883
675.443	1527
675.493	645
675.543	930
675.593	850
675.643	338
675.693	981
675.743	728
675.793	962
675.843	134
675.893	430
675.943	498
675.993	458
676.043	-288
676.093	658
676.142	689
676.192	723
676.242	-99
676.292	586
676.341	449
676.391	53
676.441	112
676.491	-22
676.540	170
676.590	976
676.640	107
676.689	988
676.739	-181
676.789	92
676.838	574
676.888	153
676.937	-133
676.987	497
677.037	-476
677.086	97
677.136	-18
677.185	571
677.235	-265
677.284	712
677.333	-51
677.383	284
677.432	-212
677.482	27
677.531	-344
677.580	144
677.630	39
677.679	251
677.728	19
677.778	1047
677.827	-81
677.876	272
677.925	490
677.975	-101
678.024	-385
678.073	852
678.122	-435
678.171	195
678.220	729
678.269	1450
678.319	1904
678.368	2087
678.417	1368
678.466	1384
678.515	642
678.564	-433
678.613	-228
678.662	-237
678.711	174
678.760	304
678.809	-83
678.857	-317
678.906	1534
678.955	-60
679.004	261
679.053	-361
679.102	-169
679.151	45
679.199	-78
679.248	-369
679.297	-627
679.346	152
679.394	-447
679.443	215
679.492	-768
679.540	581
679.589	89
679.638	-548
679.686	848
679.735	766
679.784	983
679.832	2231
679.881	1082
679.929	-224
679.978	-48
680.026	-114
680.075	644
680.123	-82
680.172	-973
680.220	-59
680.268	-547
680.317	59
680.365	-172
680.414	-701
680.462	168
680.510	747
680.559	-118
680.607	55
680.655	-692
680.703	-183
680.752	175
680.800	-134
680.848	-543
680.896	156
680.945	-254
680.993	-686
681.041	-531
681.089	463
681.137	-212
681.185	-547
681.233	61
681.258	-335
681.281	-724
681.329	-866
681.377	-658
681.380	-590
681.425	356
681.473	147
681.502	-38
681.521	-198
681.569	1349
681.617	380
681.624	397
681.665	391
681.713	-44
681.745	140
681.761	202
681.809	-583
681.857	656
681.867	614
681.904	401
681.952	626
681.989	-51
682.000	-277
682.048	998
682.096	-655
682.111	-381
682.143	168
682.191	-78
682.233	885
682.239	1015
682.286	611
682.334	1437
682.354	761
682.382	-205
682.430	1279
682.476	405
682.477	373
682.525	730
682.572	843
682.598	748
682.620	628
682.667	1159
682.715	741
682.720	749
682.763	644
682.810	654
682.841	384
682.857	233
682.905	656
682.952	1237
682.963	1285
683.000	1373
683.047	626
683.085	1486
683.095	1715
683.142	992
683.190	917
683.206	861
683.237	679
683.284	1280
683.328	170
683.332	66
683.379	1155
683.426	866
683.449	1110
683.473	1387
683.521	1112
683.568	1721
683.571	1688
683.615	966
683.662	1255
683.693	1054
683.709	946
683.757	1056
683.804	1727
683.814	1570
683.851	948
683.898	1361
683.936	1305
683.945	1284
683.992	963
684.039	1372
684.057	1311
684.086	1158
684.133	2361
684.179	851
684.180	792
684.227	1811
684.274	1701
684.300	1700
684.321	1671
684.368	1494
684.415	2257
684.422	2101
684.462	1217
684.509	1743
684.543	2047
684.556	2112
684.603	2490
684.649	1847
684.665	1982
684.696	2313
684.743	2015
684.786	2210
684.790	2206
684.837	1567
684.883	1424
684.908	1867
684.930	2359
684.977	2559
685.023	2091
685.029	2131
685.070	2158
685.117	2055
685.150	2215
685.164	2312
685.210	2457
685.257	1832
685.272	2220
685.303	2999
685.350	2356
685.393	2025
685.396	1986
685.443	2063
685.490	2516
685.514	2297
685.536	2167
685.583	2216
685.629	2502
685.636	2454
685.675	2093
685.722	2476
685.757	2224
685.768	2118
685.815	2587
685.861	2536
685.878	2476
685.908	2434
685.954	2635
686.000	3043
686.000	3043
686.047	2926
686.093	2844
686.121	2647
686.139	2540
686.185	2845
686.232	3020
686.242	3066
686.278	3196
686.324	2964
686.363	3195
686.370	3248
686.416	2850
686.463	3621
686.484	3426
686.509	3136
686.555	2999
686.601	2598
686.606	2704
686.647	3700
686.693	2870
686.727	3058
686.739	3100
686.785	2947
686.831	3528
686.848	3380
686.877	3219
686.923	2744
686.969	3522
686.969	3526
687.015	3228
687.061	3228
687.090	3632
687.107	3810
687.153	3784
687.199	3932
687.211	3761
687.245	3318
687.291	3191
687.332	4065
687.336	4152
687.382	3411
687.428	3464
687.453	3553
687.474	3584
687.520	3595
687.565	3509
687.574	3407
687.611	3235
687.657	4502
687.695	3576
687.702	3393
687.748	4059
687.794	4176
687.816	4330
687.839	4381
687.885	4195
687.931	4151
687.937	4070
687.976	3775
688.022	4286
688.058	4042
688.067	3983
688.113	4590
688.158	3647
688.179	3737
688.204	3863
688.249	3337
688.295	4238
688.300	4262
688.340	4419
688.386	4600
688.421	3907
688.431	3699
688.477	3973
688.522	3790
688.542	3933
688.567	4403
688.613	4905
688.658	5166
688.663	5111
688.703	4147
688.749	4752
688.784	4676
688.794	4721
688.839	4832
688.884	4822
688.905	4932
688.930	4990
688.975	4271
689.020	4644
689.026	4559
689.065	4112
689.110	4316
689.146	4271
689.155	4275
689.201	4491
689.246	5008
689.267	4888
689.291	4834
689.336	5342
689.381	5133
689.388	5130
689.426	4892
689.471	4972
689.509	4764
689.516	4766
689.561	4797
689.606	5169
689.630	5204
689.651	5237
689.696	4699
689.741	5472
689.750	5414
689.785	5305
689.830	5706
689.871	5238
689.875	5167
689.920	5215
689.965	4959
689.992	4794
690.010	4838
690.054	4825
690.099	4973
690.112	5053
690.144	5188
690.189	5168
690.233	5026
690.233	5034
690.278	5004
690.323	5092
690.354	5260
690.367	5321
690.412	5608
690.457	5633
690.474	5596
690.501	5526
690.546	5569
690.590	5437
690.595	5407
690.635	5218
690.680	4997
690.716	5201
690.724	5306
690.769	5619
690.813	6048
690.836	5897
690.857	6235
690.902	8092
690.946	8999
690.957	9295
690.991	11581
691.035	14799
691.077	18136
691.080	18080
691.124	14988
691.168	12704
691.198	10657
691.213	9982
691.257	8937
691.301	7323
691.318	6770
691.346	6627
691.390	6323
691.434	5801
691.439	5796
691.478	6174
691.522	6310
691.559	6157
691.567	6159
691.611	6744
691.655	6526
691.680	6612
691.699	6482
691.743	6121
691.787	5726
691.800	5646
691.831	5835
691.875	5595
691.919	6218
691.921	6197
691.964	5664
692.008	5681
692.041	5628
692.052	5728
692.096	5628
692.139	6354
692.162	6397
692.183	6174
692.227	6043
692.271	5169
692.282	5168
692.315	5723
692.359	5818
692.402	6055
692.403	6068
692.447	6017
692.490	6006
692.523	5667
692.534	5659
692.578	6003
692.622	5847
692.643	6087
692.666	6200
692.709	5758
692.753	6287
692.763	6156
692.797	6090
692.840	6187
692.884	6601
692.884	6618
692.928	6555
692.971	6720
693.004	6635
693.015	6615
693.059	6358
693.102	6510
693.124	6548
693.146	6636
693.189	6267
693.233	6596
693.245	6594
693.276	6676
693.320	6739
693.363	6707
693.365	6695
693.407	7179
693.450	7707
693.485	7858
693.493	7945
693.537	8587
693.580	9088
693.605	9510
693.624	10671
693.667	12987
693.710	15578
693.725	16481
693.753	20712
693.797	27723
693.840	34549
693.845	35212
693.883	29961
693.926	23385
693.966	18274
693.970	17982
694.013	14321
694.056	10618
694.086	8180
694.099	8063
694.142	7646
694.185	7201
694.206	6985
694.229	7155
694.272	7055
694.315	7485
694.326	7512
694.358	7495
694.401	7521
694.444	7524
694.446	7506
694.487	7344
694.530	7195
694.566	6876
694.573	6882
694.616	6743
694.659	6977
694.686	6979
694.702	7045
694.745	7304
694.787	7436
694.806	7433
694.830	7271
694.873	6868
694.916	6864
694.926	6772
694.959	7035
695.002	7478
695.044	7681
695.046	7684
695.087	7982
695.130	7935
695.166	8150
695.172	8233
695.215	8194
695.258	8559
695.286	8642
695.301	8594
695.343	8552
695.386	8331
695.406	8224
695.428	8628
695.471	9428
695.514	10271
695.526	10415
695.556	10863
695.599	11858
695.641	12534
695.646	12594
695.684	11794
695.726	10691
695.766	9765
695.769	9810
695.811	10017
695.854	10196
695.886	10391
695.896	10445
695.938	10486
695.981	10367
696.005	10409
696.023	10701
696.065	11323
696.108	11884
696.125	12056
696.150	12273
696.192	12786
696.235	13127
696.245	13193
696.277	13153
696.319	12942
696.361	12901
696.365	12852
696.404	12617
696.446	12499
696.485	12022
696.488	12049
696.530	12341
696.572	12376
696.604	12447
696.614	12454
696.656	12326
696.698	12233
696.724	12194
696.740	12381
696.783	12595
696.825	12899
696.844	12988
696.867	12934
696.909	12811
696.951	12590
696.964	12545
696.992	12871
697.034	13141
697.076	13309
697.083	13351
697.118	13870
697.160	14236
697.202	14600
697.203	14573
697.244	14499
697.286	14295
697.323	13953
697.327	13995
697.369	14212
697.411	14305
697.442	14346
697.453	14344
697.494	14207
697.536	14090
697.562	13874
697.578	13854
697.620	13927
697.661	13871
697.682	13814
697.703	14137
697.744	14693
697.786	15289
697.801	15437
697.828	15504
697.869	15613
697.911	15692
697.921	15672
697.952	15333
697.994	14829
698.035	14284
698.040	14180
698.077	14346
698.118	14506
698.160	14667
698.160	14627
698.201	15575
698.243	16432
698.279	17165
698.284	17194
698.325	17060
698.367	16896
698.399	16701
698.408	16757
698.449	16832
698.491	16870
698.518	16880
698.532	17001
698.573	17214
698.614	17434
698.638	17501
698.656	17567
698.697	17629
698.738	17657
698.757	17638
698.779	17565
698.820	17330
698.862	17087
698.877	16952
698.903	17187
698.944	17484
698.985	17780
698.996	17817
699.026	17756
699.067	17599
699.116	17367
699.235	17277
699.354	16799
699.474	16605
699.593	15725
699.713	16784
699.832	16080
699.951	16937
700.070	16319
700.190	15923
700.309	15023
700.428	15469
700.547	14132
700.667	15166
700.786	15160
700.905	13364
701.024	14686
701.143	14606
701.262	14963
701.381	14459
701.500	14310
701.619	14690
701.738	14813
701.857	15238
701.976	13369
702.095	14384
702.214	14749
702.333	13897
702.452	14662
702.571	15892
702.690	14626
702.809	13979
702.928	13929
703.047	13622
703.165	14048
703.284	12431
703.403	12612
703.522	13556
703.640	12255
703.759	13320
703.878	12598
703.997	12465
704.115	12665
704.234	13295
704.353	13229
704.471	11888
704.590	12390
704.708	11635
704.827	11716
704.946	11262
705.064	11931
705.183	11223
705.301	12076
705.420	12575
705.538	11856
705.656	10120
705.775	10048
705.893	12308
706.012	11139
706.130	11562
706.249	11191
706.367	11250
706.485	10943
706.604	9702
706.722	9950
706.840	10717
706.958	10207
707.077	9669
707.195	10356
707.313	9190
707.431	8749
707.549	9288
707.668	8681
707.786	10747
707.904	10031
708.022	9982
708.140	9416
708.258	9526
708.376	9690
708.494	8656
708.612	9654
708.730	9398
708.848	8816
708.966	10555
709.084	9310
709.202	9343
709.320	9207
709.438	8990
709.556	9114
709.674	8585
709.791	9102
709.909	8485
710.027	8805
710.145	8244
710.263	8514
710.380	8308
710.498	7380
710.616	8149
710.733	7448
710.851	7545
710.969	8461
711.086	8226
711.204	8419
711.322	7362
711.439	7567
711.557	7833
711.674	7663
711.792	7365
711.909	7193
712.027	7830
712.144	7540
712.262	7928
712.379	7905
712.497	8649
712.614	8143
712.732	7930
712.849	6940
712.966	7007
713.084	8033
713.201	7627
713.318	7489
713.436	8819
713.553	8115
713.670	9114
713.787	8563
713.905	7965
714.022	8374
714.139	9046
714.256	12988
714.373	21066
714.490	43597
714.608	137153
714.725	543584
714.842	356613
714.959	31182
715.076	14155
715.193	11832
715.310	9591
715.427	6978
715.544	8414
715.661	8022
715.778	6911
715.895	6673
716.011	7098
716.128	6565
716.245	7467
716.362	6037
716.479	5854
716.596	6729
716.713	6573
716.829	5998
716.946	5872
717.063	5600
717.180	6187
717.296	5961
717.413	5926
717.530	5604
717.646	5211
717.763	5956
717.880	4857
717.996	4752
718.113	5204
718.229	5904
718.346	5373
718.462	4650
718.579	6574
718.695	6035
718.812	6054
718.928	5282
719.045	5211
719.161	5641
719.277	6314
719.394	6163
719.510	6483
719.626	7788
719.743	9447
719.859	18934
719.975	46186
720.092	203572
720.208	323502
720.324	28015
720.440	9635
720.557	6974
720.673	6794
720.789	5236
720.905	7641
721.021	5731
721.137	4360
721.253	4653
721.369	4664
721.486	5193
721.602	5200
721.718	4734
721.834	5058
721.950	5447
722.066	4914
722.181	4357
722.297	4626
722.413	4470
722.529	4798
722.645	5306
722.761	5300
722.877	4566
722.993	6279
723.108	7857
723.224	5789
723.340	4440
723.456	4081
723.571	3772
723.687	4094
723.803	4237
723.918	3823
724.034	3376
724.150	3981
724.265	4189
724.381	4163
724.497	4184
724.612	3800
724.728	3638
724.843	4161
724.959	3815
725.074	4363
725.190	3929
725.305	3772
725.421	3059
725.536	4213
725.651	3484
725.767	4047
725.882	4602
725.997	3022
726.113	3896
726.228	4088
726.343	3327
726.459	3797
726.574	3843
726.689	2882
726.804	3583
726.920	3147
727.035	3270
727.150	3883
727.265	3052
727.380	3605
727.495	3626
727.610	3443
727.725	2939
727.841	3649
727.956	4123
728.071	3506
728.186	2925
728.301	2992
728.416	4232
728.531	3356
728.645	2918
728.760	3248
728.875	3380
728.990	3501
729.105	3372
729.220	3599
729.335	3491
729.449	3688
729.564	3493
729.679	3190
729.794	3648
729.908	3389
730.023	3558
730.138	3545
730.253	4237
730.367	3803
730.482	2825
730.596	3459
730.711	4047
730.826	5155
730.940	4681
731.055	4539
731.169	4263
731.284	5238
731.398	4695
731.513	4929
731.627	6475
731.742	7387
731.856	9137
731.970	9418
732.085	12781
732.199	19675
732.313	38381
732.428	114538
732.542	315729
732.656	128065
732.771	24347
732.885	14225
732.999	12675
733.113	13636
733.227	11687
733.342	11032
733.456	10149
733.570	10626
733.684	9159
733.798	9271
733.912	9611
734.026	8748
734.140	9490
734.254	9286
734.368	9699
734.482	8917
734.596	9055
734.710	9626
734.824	8922
734.938	8617
735.052	8017
735.166	9216
735.280	8210
735.393	7786
735.507	8177
735.621	8173
735.735	8035
735.849	8893
735.962	7212
736.076	8649
736.190	7754
736.303	8368
736.417	7864
736.531	7577
736.644	7196
736.758	6999
736.872	7520
736.985	7649
737.099	6790
737.212	6585
737.326	7202
737.439	8154
737.553	6278
737.666	6870
737.780	6146
737.893	7197
738.007	6812
738.120	7359
738.233	6284
738.347	6722
738.460	6542
738.573	7778
738.687	5534
738.800	6604
738.913	6864
739.026	6631
739.140	5903
739.253	6889
739.366	6190
739.479	6743
739.592	5904
739.705	6231
739.818	7480
739.932	5508
740.045	6866
740.158	6088
740.271	6913
740.384	5423
740.497	5439
740.610	6271
740.723	6014
740.836	6236
740.949	6206
741.062	6148
741.174	6377
741.287	5834
741.400	6059
741.513	4797
741.626	5770
741.739	5353
741.851	5244
741.964	5702
742.077	6104
742.189	4781
742.302	5842
742.415	5226
742.527	5858
742.640	5730
742.753	5376
742.865	5677
742.978	5370
743.090	5202
743.203	5520
743.316	5029
743.428	4324
743.541	5458
743.653	4656
743.766	4570
743.878	4466
743.990	3930
744.103	5727
744.215	5006
744.327	4440
744.440	5902
744.552	5550
744.664	4605
744.777	5409
744.889	3558
745.001	5552
745.113	5636
745.226	4289
745.338	4701
745.450	4761
745.562	4400
745.674	5318
745.786	5847
745.898	4471
746.010	4398
746.122	4254
746.234	3876
746.347	4797
746.459	5514
746.570	3478
746.682	5288
746.794	4949
746.906	4251
747.018	4457
747.130	4143
747.242	3864
747.354	4296
747.466	4702
747.577	4031
747.689	4054
747.801	5503
747.913	2862
748.024	3763
748.136	3304
748.248	3736
748.359	3776
748.471	4086
748.583	3702
748.694	3167
748.806	5008
748.918	2960
749.029	3605
749.141	3869
749.252	4702
749.364	3573
749.475	3696
749.587	3548
749.698	3246
749.809	4007
749.921	3600
750.032	3973
750.144	2717
750.255	2465
750.366	3084
750.478	3497
750.589	3532
750.700	2588
750.811	3452
750.923	3924
751.034	3105
751.145	4569
751.256	2503
751.367	2724
751.479	2723
751.590	4077
751.701	3503
751.812	2292
751.923	3022
752.034	4264
752.145	3236
752.256	3813
752.367	3101
752.478	3349
752.589	2975
752.700	3343
752.811	2456
752.922	3392
753.032	2450
753.143	3814
753.254	2350
753.365	4824
753.476	3594
753.586	3261
753.697	2716
753.808	3397
753.919	2767
754.029	3142
754.140	3240
754.251	3251
754.361	2314
754.472	3871
754.582	2397
754.693	2619
754.804	3034
754.914	2733
755.025	2965
755.135	3458
755.246	3454
755.356	2459
755.466	3484
755.577	2548
755.687	3039
755.798	3112
755.908	2509
756.018	3077
756.129	3157
756.239	2979
756.349	3133
756.460	3112
756.570	3542
756.680	2638
756.790	3213
756.900	3679
757.011	2605
757.121	2517
757.231	2652
757.341	3088
757.451	2195
757.561	2064
757.671	3174
757.781	2134
757.891	3681
758.001	2196
758.111	3861
758.221	3714
758.331	4018
758.441	3666
758.551	2990
758.661	4112
758.771	3205
758.880	3371
758.990	3106
759.100	3635
759.210	2880
759.320	2723
759.429	3428
759.539	4352
759.649	4330
759.758	6195
759.868	4803
759.978	4298
760.087	5083
760.197	6607
760.307	5842
760.416	4462
760.526	3782
760.635	5551
760.745	5967
760.854	6495
760.964	6735
761.073	6214
761.182	6262
761.292	4699
761.401	4739
761.511	3626
761.620	3378
761.729	4027
761.839	2796
761.948	3272
762.057	3162
762.166	4049
762.276	2192
762.385	4902
762.494	3209
762.603	3900
762.712	4537
762.822	3283
762.931	3918
763.040	3307
763.149	3720
763.258	3617
763.367	4627
763.476	4415
763.585	3792
763.694	3568
763.803	4450
763.912	5364
764.021	5126
764.130	4510
764.238	5491
764.347	5894
764.456	5400
764.565	7337
764.674	6379
764.783	7060
764.891	5813
765.000	8522
765.109	9318
765.217	10056
765.326	11971
765.435	13334
765.543	15770
765.652	20907
765.761	26629
765.869	39069
765.978	57598
766.086	93957
766.195	167500
766.303	312054
766.412	399443
766.520	312506
766.629	221210
766.737	120400
766.846	72115
766.954	47998
767.062	35188
767.171	26894
767.279	21213
767.387	16933
767.496	14397
767.604	12193
767.712	10838
767.820	10112
767.928	9947
768.037	7818
768.145	8788
768.253	8255
768.361	6264
768.469	7788
768.577	6936
768.685	8576
768.793	8893
768.901	9892
769.009	11731
769.117	11943
769.225	16300
769.333	24150
769.441	37801
769.549	68375
769.657	140202
769.765	298989
769.873	309182
769.981	203552
770.088	92494
770.196	49645
770.304	31085
770.412	23492
770.519	16467
770.627	14502
770.735	11577
770.842	10826
770.950	9076
771.058	8492
771.165	9592
771.273	7940
771.380	7602
771.488	9616
771.595	9285
771.703	8967
771.810	8519
771.918	7593
772.025	8767
772.133	10304
772.240	8736
772.348	9884
772.455	9684
772.562	8081
772.670	7348
772.777	8792
772.884	7725
772.991	7217
773.099	8310
773.206	7473
773.313	7597
773.420	7077
773.528	6977
773.635	7068
773.742	7629
773.849	7094
773.956	6802
774.063	5829
774.170	6636
774.277	7412
774.384	6003
774.491	6197
774.598	7298
774.705	6779
774.812	6407
774.919	6279
775.026	6009
775.133	6434
775.239	5849
775.346	6337
775.453	6265
775.560	5726
775.667	6421
775.773	4873
775.880	6209
775.987	5529
776.093	6507
776.200	6199
776.307	4195
776.413	5412
776.520	6119
776.627	5576
776.733	5699
776.840	3651
776.946	7517
777.053	5656
777.159	5813
777.266	5027
777.372	6503
777.478	6437
777.585	5099
777.691	4836
777.798	4962
777.904	4779
778.010	4161
778.117	5058
778.223	4754
778.329	4602
778.435	4289
778.542	5562
778.648	3571
778.754	3301
778.860	3649
778.966	4585
779.072	4536
779.178	4544
779.284	3234
779.391	3999
779.497	3939
779.603	6210
779.708	3452
779.815	5960
779.920	14297
780.026	19283
780.132	4966
780.238	3890
780.344	4622
780.450	5970
780.556	2974
780.661	4387
780.767	3950
780.873	2398
780.979	2658
781.085	4044
781.190	3140
781.296	3194
781.402	4396
781.507	3119
781.613	2844
781.719	3175
781.824	3408
781.930	3994
782.035	3494
782.141	4191
782.246	2874
782.352	3591
782.457	3073
782.563	3115
782.668	3054
782.773	2798
782.879	2581
782.984	4073
783.090	3557
783.195	3946
783.300	3622
783.405	2870
783.511	2341
783.616	3124
783.721	2997
783.826	2867
783.932	2887
784.037	2455
784.142	2942
784.247	2096
784.352	2532
784.457	2405
784.562	3881
784.667	3025
784.772	2425
784.877	1493
784.982	3770
785.087	3297
785.192	2877
785.297	1921
785.402	2766
785.507	2163
785.611	2622
785.716	2005
785.821	2650
785.926	2796
786.031	2530
786.135	2412
786.240	2470
786.345	1202
786.450	2744
786.554	1995
786.659	1476
786.763	1419
786.868	2516
786.973	2787
787.077	1477
787.182	1590
787.286	2676
787.391	2294
787.495	1627
787.600	2319
787.704	2456
787.809	2702
787.913	1244
788.017	2983
788.122	3372
788.226	2238
788.330	1394
788.435	1914
788.539	3095
788.643	2026
788.747	1571
788.852	1983
788.956	2019
789.060	3321
789.164	1944
789.268	1955
789.372	2267
789.476	1766
789.580	1992
789.684	1143
789.788	2610
789.892	1027
789.996	1481
790.100	767
790.204	2286
790.308	2367
790.412	723
790.516	1364
790.620	1532
790.724	2216
790.828	950
790.931	612
791.035	2200
791.139	1006
791.242	690
791.346	2194
791.450	1528
791.554	1804
791.657	139
791.761	2740
791.864	2176
791.968	1970
792.072	1769
792.175	1021
792.279	1183
792.382	1265
792.486	1742
792.589	2010
792.693	1963
792.796	786
792.899	2174
793.003	2215
793.106	257
793.209	1340
793.313	2387
793.416	-16
793.519	2469
793.623	2752
793.726	1561
793.829	1146
793.932	1106
794.035	540
794.138	1563
794.242	2027
794.345	-164
794.448	1669
794.551	1078
794.654	6552
794.757	9788
794.860	2279
794.963	1801
795.066	1262
795.169	2813
795.272	724
795.375	1454
795.477	906
795.580	553
795.683	141
795.786	2092
795.889	7
795.991	2316
796.094	1415
796.197	-341
796.300	2717
796.402	1484
796.505	321
796.608	177
796.710	1734
796.813	1370
796.915	458
797.018	1858
797.120	1593
797.223	-154
797.326	2954
797.428	223
797.530	479
797.633	997
797.735	2589
797.838	576
797.940	1887
798.042	819
798.145	56
798.247	1824
798.349	-409
798.452	1635
798.554	1915
798.656	566
798.758	2998
798.860	1037
798.962	1188
799.065	562
799.167	175
799.269	1937
799.371	2133
799.473	2607
799.575	618
799.677	789
799.779	1935
799.881	-660
799.983	2256
800.085	824
800.187	1010
800.289	233
800.390	644
800.492	1532
800.594	1974
800.696	540
800.798	1287
800.899	1092
801.001	539
801.103	1055
801.205	518
801.306	1129
801.408	-10
801.509	1054
801.611	1659
801.713	1079
801.814	687
801.916	69
802.017	600
802.119	-273
802.220	1269
802.322	-1164
802.423	2428
802.525	-704
802.626	1066
802.727	1569
802.829	1275
802.930	-1209
803.031	2101
803.133	695
803.234	763
803.335	771
803.436	178
803.538	1101
803.639	205
803.740	875
803.841	-170
803.942	1510
804.043	1151
804.144	151
804.245	561
804.346	-9
804.447	-394
804.548	109
804.649	1849
804.750	382
804.851	390
804.952	144
805.053	577
805.154	-1040
805.255	1908
805.355	607
805.456	-166
805.557	-405
805.658	-29
805.758	999
805.859	514
805.960	-220
806.061	-7
806.161	140
806.262	680
806.362	278
806.463	-523
806.564	1191
806.664	809
806.765	447
806.865	306
806.966	333
807.066	-541
807.166	1110
807.267	1371
807.367	135
807.468	1706
807.568	-543
807.668	888
807.769	820
807.869	-28
807.969	644
808.069	517
808.170	558
808.270	-386
808.370	481
808.470	814
808.570	-1522
808.670	417
808.770	904
808.870	-187
808.970	1649
809.070	335
809.170	-15
809.271	1332
809.370	-15
809.470	468
809.570	-145
809.670	398
809.770	321
809.870	1279
809.970	109
810.070	981
810.169	763
810.269	-561
810.369	1387
810.469	578
810.568	603
810.668	2
810.768	-103
810.867	1024
810.967	-291
811.066	121
811.166	-153
811.265	979
811.365	-473
811.464	-123
811.564	847
811.663	1385
811.763	-926
811.862	1321
811.962	632
812.061	-114
812.160	-322
812.260	340
812.359	551
812.458	472
812.557	1117
812.657	749
812.756	825
812.855	623
812.954	318
813.053	401
813.153	-186
813.252	210
813.351	902
813.450	326
813.549	141
813.648	738
813.747	691
813.846	1120
813.945	170
814.044	446
814.143	668
814.242	1320
814.341	164
814.439	796
814.538	1422
814.637	662
814.736	674
814.835	1004
814.933	-140
815.032	1268
815.131	1798
815.229	4170
815.328	6416
815.427	3946
815.525	4392
815.624	4064
815.722	2412
815.821	2572
815.919	3900
816.018	2763
816.116	3901
816.215	3895
816.313	4349
816.412	5216
816.510	5017
816.609	5742
816.707	5671
816.805	5606
816.904	4875
817.002	5480
817.100	5535
817.198	6304
817.296	4391
817.395	5118
817.493	5557
817.591	4910
817.689	4311
817.787	4432
817.885	4343
817.983	4570
818.081	5257
818.179	5763
818.277	10280
818.375	7529
818.473	4413
818.571	4663
818.669	5779
818.767	4625
818.865	3684
818.963	4689
819.061	4986
819.158	5029
819.256	7006
819.354	7605
819.452	14976
819.549	7669
819.647	5442
819.745	3255
819.842	3720
819.940	3991
820.038	3502
820.135	2723
820.233	4780
820.330	3570
820.428	3425
820.525	4796
820.623	3145
820.720	2705
820.818	3971
820.915	3908
821.012	3700
821.110	2162
821.207	4736
821.304	3641
821.402	4092
821.499	4697
821.596	3284
821.693	4035
821.791	3606
821.888	3197
821.985	4094
822.082	2663
822.179	3856
822.276	3661
822.373	2344
822.470	3180
822.567	3851
822.664	2160
822.761	3440
822.858	2978
822.955	2506
823.052	2597
823.149	2692
823.246	3207
823.343	1249
823.440	2831
823.536	2617
823.633	2649
823.730	2412
823.827	3403
823.923	2536
824.020	3085
824.117	3542
824.213	2399
824.310	2184
824.407	2313
824.503	3864
824.600	3042
824.696	2517
824.793	3446
824.889	2287
824.986	2779
825.082	1221
825.179	2587
825.275	2959
825.371	3625
825.468	2447
825.564	1205
825.660	3273
825.757	3744
825.853	1954
825.949	1742
826.045	2050
826.142	2429
826.238	2548
826.334	1591
826.430	2566
826.526	1665
826.622	1110
826.718	3334
826.814	2765
826.910	2462
827.006	860
827.102	1196
827.198	3062
827.294	3626
827.390	2665
827.486	2292
827.582	87
827.678	1200
827.774	3125
827.869	1041
827.965	2888
828.061	1099
828.157	2601
828.252	2601
828.348	1141
828.444	2469
828.539	2024
828.635	2375
828.731	2520
828.826	648
828.922	2011
829.017	2564
829.113	3399
829.208	1717
829.304	1717
829.399	3708
829.495	1606
829.590	2588
829.685	1618
829.781	2543
829.876	1606
829.971	950
830.066	815
830.162	2160
830.257	3523
830.352	889
830.447	1415
830.543	2656
830.638	1212
830.733	3256
830.828	1232
830.923	1794
831.018	2673
831.113	2620
831.208	1040
831.303	1124
831.398	1276
831.493	1613
831.588	3434
831.683	321
831.778	839
831.873	1357
831.967	1977
832.062	1424
832.157	749
832.252	1570
832.346	962
832.441	2156
832.536	1546
832.631	2029
832.725	1096
832.820	1423
832.914	1407
833.009	506
833.104	1066
833.198	1260
833.293	533
833.387	1721
833.482	1629
833.576	1903
833.670	2261
833.765	1607
833.859	1265
833.954	1525
834.048	1351
834.142	785
834.237	461
834.331	1355
834.425	2343
834.519	685
834.613	1341
834.708	641
834.802	1143
834.896	1091
834.990	605
835.084	910
835.178	340
835.272	513
835.366	1290
835.460	1967
835.554	398
835.648	776
835.742	33
835.836	226
835.930	25
836.024	1292
836.117	1881
836.211	914
836.305	785
836.399	1250
836.493	217
836.586	1388
836.680	1233
836.774	-110
836.867	945
836.961	-226
837.055	947
837.148	605
837.242	1142
837.335	486
837.429	739
837.522	609
837.616	410
837.709	1688
837.803	-51
837.896	1366
837.989	256
838.083	251
838.176	236
838.269	-531
838.363	902
838.456	-199
838.549	1520
838.642	541
838.735	916
838.829	1291
838.922	4
839.015	607
839.108	4
839.201	582
839.294	1457
839.387	1697
839.480	-613
839.573	653
839.666	737
839.759	689
839.852	-169
839.945	866
840.038	-513
840.131	184
840.223	123
840.316	1287
840.409	538
840.502	729
840.594	1522
840.687	-511
840.780	664
840.873	307
840.965	-28
841.058	713
841.150	512
841.243	268
841.336	1049
841.428	1061
841.521	-632
841.613	1358
841.706	-279
841.798	336
841.890	993
841.983	-531
842.075	235
842.167	61
842.260	560
842.352	1984
842.444	521
842.537	556
842.629	792
842.721	-653
842.813	220
842.905	-699
842.997	-66
843.090	497
843.182	568
843.274	-410
843.366	2061
843.458	1749
843.550	1255
843.642	579
843.734	7
843.826	166
843.918	426
844.009	-52
844.101	-242
844.193	566
844.285	-348
844.377	655
844.469	637
844.560	-44
844.652	25
844.744	156
844.835	-121
844.927	877
845.019	1346
845.110	1007
845.202	988
845.293	-218
845.385	-1485
845.476	599
845.568	468
845.659	212
845.751	1351
845.842	217
845.934	-514
846.025	-35
846.116	299
846.208	208
846.299	-661
846.390	-123
846.482	-90
846.573	494
846.664	137
846.755	-433
846.846	500
846.937	-1022
847.029	-525
847.120	58
847.211	258
847.302	856
847.393	-339
847.484	735
847.575	-361
847.666	-301
847.757	-79
847.847	557
847.938	529
848.029	412
848.120	-557
848.211	-524
848.302	-659
848.392	-1152
848.483	921
848.574	-197
848.664	605
848.755	521
848.846	-79
848.936	11
849.027	95
849.118	1094
849.208	939
849.299	2493
849.389	4340
849.480	10555
849.570	20640
849.661	43612
849.751	54145
849.841	13598
849.932	2015
850.022	393
850.112	1215
850.203	973
850.293	150
850.383	585
850.474	-452
850.564	474
850.654	278
850.744	-714
850.834	87
850.924	-30
851.014	1255
851.104	9
851.194	-491
851.284	324
851.374	223
851.464	-242
851.554	808
851.644	-756
851.734	555
851.824	604
851.914	-276
852.004	1006
852.094	-492
852.183	-22
852.273	80
852.363	802
852.452	34
852.542	634
852.632	-460
852.721	-248
852.811	-190
852.901	1352
852.990	1114
853.080	328
853.169	950
853.259	1207
853.348	1259
853.438	2201
853.527	3341
853.617	5569
853.706	12010
853.795	22660
853.885	49581
853.974	86319
854.063	163195
854.152	179856
854.242	58779
854.331	14044
854.420	6715
854.509	4628
854.598	3043
854.687	2652
854.777	2515
854.866	960
854.955	313
855.044	512
855.133	93
855.222	689
855.311	-622
855.400	-153
855.488	-85
855.577	4
855.666	652
855.755	993
855.844	365
855.933	-177
856.021	832
856.110	439
856.199	-321
856.288	-207
856.376	300
856.465	121
856.554	370
856.642	353
856.731	-252
856.819	521
856.908	58
856.996	-33
857.085	-1012
857.173	98
857.262	-841
857.350	-204
857.438	-231
857.527	-84
857.615	-14
857.703	32
857.792	152
857.880	-679
857.968	-328
858.056	-322
858.145	-533
858.233	-7
858.321	-1170
858.409	514
858.497	160
858.585	-389
858.673	42
858.761	-663
858.849	-1234
858.937	-413
859.025	354
859.113	1356
859.201	-169
859.289	282
859.377	114
859.465	131
859.552	37
859.640	11
859.728	69
859.816	-527
859.903	-737
859.991	-420
860.079	-315
860.166	-231
860.254	359
860.342	501
860.429	-146
860.517	-71
860.604	217
860.692	-335
860.779	-706
860.867	-191
860.954	510
861.042	588
861.129	-111
861.216	608
861.304	541
861.391	858
861.478	-334
861.565	153
861.653	395
861.740	-468
861.827	-501
861.914	223
862.001	245
862.089	-118
862.176	112
862.263	546
862.350	-314
862.437	-16
862.524	-3
862.611	-147
862.698	412
862.785	1040
862.871	1344
862.958	668
863.045	-201
863.132	262
863.219	122
863.306	-619
863.392	55
863.479	644
863.566	626
863.652	-244
863.739	-223
863.826	758
863.912	336
863.999	-201
864.086	6
864.172	845
864.259	743
864.345	1100
864.432	856
864.518	889
864.604	1207
864.691	293
864.777	1270
864.863	1662
864.950	2842
865.036	4328
865.122	8707
865.209	8916
865.295	6830
865.381	6968
865.467	6774
865.553	8743
865.639	10004
865.726	17748
865.812	30379
865.898	52178
865.984	74409
866.070	136851
866.156	104543
866.242	29108
866.328	11040
866.414	8262
866.499	7516
866.585	6641
866.671	5816
866.757	6789
866.843	5970
866.928	5014
867.014	4872
867.100	5380
867.186	5183
867.271	4103
867.357	4687
867.442	4771
867.528	5253
867.614	4708
867.699	4517
867.785	4834
867.870	4206
867.956	4264
868.041	4770
868.127	4695
868.212	3486
868.297	3531
868.383	4743
868.468	4789
868.553	5143
868.639	5123
868.724	4374
868.809	4786
868.894	3240
868.979	4604
869.065	4356
869.150	2913
869.235	3724
869.320	3336
869.405	3437
869.490	4405
869.575	3675
869.660	3305
869.745	5029
869.830	3923
869.915	3261
870.000	3609
870.085	3013
870.169	5221
870.254	4605
870.339	2629
870.424	2243
870.509	3936
870.593	4496
870.678	4371
870.763	3176
870.847	3134
870.932	4241
871.016	4633
871.101	1671
871.186	3450
871.270	3507
871.355	2741
871.439	3430
871.523	3346
871.608	2561
871.692	3690
871.777	4793
871.861	3752
871.945	2441
872.030	3952
872.114	3325
872.198	2802
872.282	3603
872.367	2955
872.451	2896
872.535	2420
872.619	3009
872.703	2770
872.787	3535
872.871	2659
872.955	1632
873.039	1777
873.123	2861
873.207	3400
873.291	1511
873.375	2597
873.459	4025
873.543	2202
873.627	2040
873.711	1867
873.794	3270
873.878	2889
873.962	1308
874.045	1933
874.129	2518
874.137	2569
874.213	3075
874.245	2638
874.296	1938
874.352	1846
874.380	1796
874.460	2074
874.464	2085
874.547	2721
874.568	2768
874.631	2907
874.676	2738
874.714	2588
874.784	3286
874.798	3426
874.881	2558
874.892	2453
874.965	1755
874.999	2217
875.048	2836
875.107	2432
875.131	2257
875.215	1219
875.215	1219
875.298	1216
875.323	1828
875.381	3309
875.430	3127
875.465	2955
875.538	2433
875.548	2357
875.631	1109
875.646	1079
875.714	1050
875.753	1698
875.798	2429
875.861	2904
875.881	3035
875.964	2147
875.968	2119
876.047	1617
876.076	2088
876.130	3102
876.183	2831
876.213	2611
876.291	3132
876.296	3163
876.379	2054
876.398	1983
876.462	1735
876.506	1657
876.545	1691
876.613	2007
876.628	2066
876.711	2560
876.721	2519
876.794	2318
876.828	2224
876.877	1834
876.935	1278
876.960	1168
877.043	2316
877.043	2318
877.125	2834
877.150	3002
877.208	3179
877.258	2409
877.291	1885
877.365	1918
877.374	1947
877.456	1636
877.472	1547
877.539	1205
877.579	1954
877.622	2749
877.687	2020
877.704	1778
877.787	2254
877.794	2225
877.869	2141
877.901	2472
877.952	2757
878.008	1894
878.034	1543
878.115	999
878.117	995
878.199	1472
878.222	1901
878.282	3123
878.329	3014
878.364	2786
878.437	2954
878.447	2949
878.529	1291
878.544	1294
878.611	1535
878.651	1977
878.694	2717
878.758	2746
878.776	2677
878.858	2859
878.865	2851
878.941	2358
878.972	1918
879.023	1479
879.078	2209
879.105	2668
879.185	2856
879.187	2849
879.269	2710
879.292	2377
879.351	1876
879.399	1937
879.433	1923
879.506	2429
879.516	2508
879.598	1721
879.613	1827
879.680	2332
879.720	2592
879.762	2865
879.827	2341
879.844	2140
879.926	1945
879.933	1943
880.007	2718
880.040	2928
880.089	2746
880.147	3431
880.171	4149
880.253	7376
880.254	7383
880.335	8813
880.360	9514
880.417	13950
880.467	20161
880.499	23699
880.574	25509
880.580	24676
880.662	10410
880.680	7903
880.744	3586
880.787	2138
880.825	2472
880.893	2721
880.907	2671
880.989	2753
881.000	2802
881.070	3658
881.106	3293
881.152	2417
881.213	2023
881.233	2050
881.315	2787
881.319	2789
881.396	2552
881.426	2204
881.478	2112
881.532	3042
881.559	3203
881.639	2582
881.641	2576
881.722	2449
881.745	2462
881.803	2912
881.852	2894
881.885	2588
881.958	2283
881.966	2303
882.047	2909
882.064	2787
882.129	2268
882.171	2095
882.210	1806
882.277	2110
882.291	2287
882.372	2746
882.383	2860
882.454	3736
882.489	3645
882.535	3289
882.596	3133
882.616	3086
882.697	3167
882.702	3147
882.778	2467
882.808	2227
882.859	1987
882.914	1727
882.940	1861
883.020	2347
883.021	2357
883.102	2910
883.127	3008
883.183	3670
883.233	4020
883.264	3431
883.339	1869
883.345	1844
883.426	1927
883.445	1973
883.507	2114
883.551	1920
883.587	2204
883.657	3209
883.668	3289
883.749	3609
883.763	3577
883.830	2511
883.869	1985
883.910	1971
883.975	2172
883.991	2330
884.072	3154
884.081	3221
884.152	3770
884.187	3895
884.233	3842
884.292	3928
884.314	3615
884.394	1790
884.398	1739
884.475	1948
884.504	1802
884.555	1913
884.610	2134
884.636	2280
884.716	2881
884.716	2898
884.797	4429
884.821	4626
884.877	3610
884.927	2789
884.958	2694
885.033	2674
885.038	2650
885.118	2010
885.139	1871
885.199	1819
885.244	1892
885.279	2375
885.350	3177
885.359	3301
885.439	4179
885.456	4287
885.520	3224
885.561	2709
885.600	2275
885.667	1605
885.680	1817
885.760	2797
885.773	3001
885.840	2257
885.878	1643
885.920	1686
885.984	1719
886.000	1929
886.080	3141
886.089	3272
886.160	3258
886.195	3080
886.240	2810
886.300	2773
886.320	3049
886.400	3823
886.406	3861
886.480	2900
886.511	2508
886.560	2272
886.616	1985
886.640	2118
886.720	2662
886.722	2660
886.800	2593
886.827	2654
886.879	3019
886.932	3302
886.959	3612
887.038	4552
887.039	4558
887.119	3997
887.143	3764
887.198	3702
887.248	3655
887.278	3409
887.354	2714
887.358	2752
887.437	3367
887.459	3555
887.517	3829
887.564	3955
887.596	3610
887.669	2701
887.676	2638
887.755	1902
887.774	1691
887.835	1975
887.880	2297
887.914	2727
887.985	3382
887.994	3464
888.073	4354
888.090	4444
888.153	5129
888.195	5677
888.232	4943
888.300	3524
888.311	3463
888.391	2979
888.405	2875
888.470	2885
888.510	2865
888.549	2766
888.615	2716
888.628	2956
888.708	4199
888.720	4386
888.787	4140
888.825	3956
888.866	3571
888.930	3008
888.945	2956
889.024	2660
889.035	2602
889.103	3272
889.140	3641
889.182	3191
889.245	2508
889.261	2643
889.340	3265
889.349	3326
889.419	3009
889.454	2860
889.498	3118
889.559	3438
889.577	3507
889.656	3801
889.664	3822
889.735	4278
889.768	4482
889.814	4039
889.873	3424
889.978	3162
890.083	3031
890.187	4034
890.292	4595
890.397	4013
890.501	2947
890.606	3078
890.710	2976
890.815	5134
890.919	3323
891.024	3913
891.128	2663
891.233	3405
891.337	3763
891.442	4350
891.546	3939
891.650	3314
891.755	3026
891.859	3578
891.963	4472
892.068	3833
892.172	2992
892.276	2272
892.380	3001
892.484	4276
892.589	4551
892.693	3704
892.797	1829
892.901	2829
893.005	2893
893.109	4983
893.213	4581
893.317	3051
893.421	1841
893.525	2448
893.629	2330
893.733	5243
893.837	3534
893.941	2821
894.045	2658
894.148	1893
894.252	3012
894.356	4365
894.460	4434
894.564	2788
894.667	2502
894.771	2108
894.875	1309
894.978	2629
895.082	3029
895.186	3950
895.289	2723
895.393	2638
895.496	4082
895.600	2894
895.703	1768
895.807	2597
895.910	3631
896.014	3220
896.117	2800
896.221	4447
896.324	2897
896.427	2653
896.531	1943
896.634	2991
896.737	2333
896.840	4298
896.944	3547
897.047	3998
897.150	2301
897.253	2851
897.356	1951
897.460	2493
897.563	2292
897.666	4423
897.769	3024
897.872	2265
897.975	1674
898.078	2593
898.181	1737
898.284	2822
898.387	3481
898.490	3556
898.593	1503
898.695	2027
898.798	2204
898.901	2736
899.004	3152
899.107	2493
899.209	2532
899.312	4237
899.415	2685
899.518	916
899.620	2055
899.723	1860
899.826	2789
899.928	2376
900.031	3239
900.133	3159
900.236	2721
900.338	2075
900.441	1710
900.543	3110
900.646	2536
900.748	3031
900.851	2801
900.953	2450
901.055	2408
901.158	2681
901.260	1423
901.362	1425
901.465	1694
901.567	2807
901.669	3258
901.771	2768
901.873	2718
901.976	2523
902.078	3111
902.180	1783
902.282	1833
902.384	2150
902.486	2871
902.588	4116
902.690	1689
902.792	1603
902.894	1527
902.996	3555
903.098	2919
903.200	1978
903.302	2041
903.404	2254
903.505	1733
903.607	2153
903.709	3321
903.811	3354
903.913	2311
904.014	1792
904.116	1831
904.218	2027
904.319	2373
904.421	3747
904.523	3234
904.624	3173
904.726	2482
904.827	1479
904.929	1857
905.030	1990
905.132	3235
905.233	1866
905.335	1430
905.436	1873
905.537	1866
905.639	1889
905.740	2465
905.841	2988
905.943	2719
906.044	2397
906.145	2552
906.247	1351
906.348	1793
906.449	2752
906.550	2575
906.651	1856
906.752	2173
906.854	1270
906.955	1235
907.056	1863
907.157	2978
907.258	3192
907.359	1352
907.460	2141
907.561	1036
907.662	1568
907.762	1924
907.863	1825
907.964	1992
908.065	2212
908.166	1180
908.267	1618
908.367	1190
908.468	1908
908.569	2216
908.670	2488
908.770	2572
908.871	1715
908.971	2115
909.072	2835
909.173	2127
909.273	1852
909.374	2102
909.474	2345
909.575	2417
909.675	2119
909.776	1814
909.876	2220
909.977	1997
910.077	2509
910.177	2794
910.278	2646
910.378	1325
910.478	1888
910.579	3314
910.679	2524
910.779	2214
910.879	2126
910.980	2996
911.080	2825
911.180	1203
911.280	1353
911.380	762
911.480	1941
911.580	1763
911.680	1954
911.780	2033
911.880	2501
911.980	1611
912.080	2549
912.180	1782
912.280	2617
912.380	1694
912.480	1827
912.580	1548
912.679	1960
912.779	2878
912.879	1759
912.979	1872
913.078	1088
913.178	1008
913.278	997
913.377	1565
913.477	1685
913.577	2167
913.676	2492
913.776	2986
913.875	1834
913.975	1236
914.074	1758
914.174	2879
914.273	756
914.373	2459
914.472	1818
914.572	603
914.671	1267
914.770	1033
914.870	2062
914.969	1613
915.068	2743
915.167	2166
915.267	1832
915.366	1351
915.465	2243
915.564	1435
915.663	2791
915.763	1830
915.862	2487
915.961	1887
916.060	1661
916.159	1222
916.258	2048
916.357	2045
916.456	2084
916.555	2341
916.654	1915
916.752	2767
916.851	3100
916.950	1345
917.049	1305
917.148	1540
917.247	1384
917.345	1500
917.444	1007
917.543	1512
917.642	2055
917.740	2001
917.839	3252
917.937	2939
918.036	2586
918.135	1736
918.233	1927
918.332	1817
918.430	1423
918.529	1822
918.627	2066
918.726	2975
918.824	2466
918.923	1167
919.021	2393
919.119	2130
919.218	1724
919.316	1844
919.414	1801
919.512	3133
919.611	2733
919.709	1778
919.807	2677
919.905	3908
920.003	4146
920.102	2716
920.200	3305
920.298	3252
920.396	3758
920.494	2293
920.592	2281
920.690	3419
920.788	2449
920.886	3102
920.984	3970
921.082	3771
921.180	4780
921.277	3666
921.375	4957
921.473	6305
921.571	6185
921.669	5941
921.766	5201
921.864	5733
921.962	6256
922.060	5407
922.157	5316
922.255	5787
922.352	5871
922.450	5856
922.548	6852
922.645	7082
922.743	10187
922.840	14629
922.938	17036
923.035	14585
923.133	14347
923.230	16738
923.327	19788
923.425	18064
923.522	18318
923.619	16869
923.717	15245
923.814	14308
923.911	14554
924.008	15410
924.106	14089
924.203	13670
924.300	13861
924.397	14905
924.494	14884
924.591	14442
924.688	13139
924.786	13797
924.883	14435
924.979	13871
925.077	13382
925.173	13412
925.270	14790
925.367	13802
925.464	15563
925.561	15549
925.658	16598
925.755	13413
925.852	16243
925.948	14104
926.045	14989
926.142	14389
926.239	14265
926.335	11114
926.432	13891
926.529	14362
926.625	15412
926.722	11625
926.818	12222
926.915	14119
927.011	12993
927.108	12586
927.204	12681
927.301	10849
927.397	14315
927.494	14710
927.590	10267
927.687	11333
927.783	14534
927.879	13360
927.976	11640
928.072	10764
928.168	12598
928.264	12510
928.361	11335
928.457	13895
928.553	11464
928.649	11585
928.745	12914
928.841	11096
928.937	11538
929.033	10733
929.129	12080
929.225	14306
929.321	12158
929.417	9906
929.513	12587
929.609	10921
929.705	11240
929.801	12446
929.897	9830
929.993	9089
930.089	12245
930.184	10596
930.280	11888
930.376	14010
930.471	9599
930.567	8287
930.663	11088
930.758	8316
930.854	10147
930.950	10206
931.045	9253
931.141	10745
931.236	12936
931.332	10688
931.427	9425
931.523	12182
931.618	12181
931.714	7409
931.809	9462
931.905	11183
932.000	8005
932.095	7343
932.191	11961
932.286	12810
932.381	10825
932.476	6913
932.572	10339
932.667	8639
932.762	8298
932.857	9527
932.952	12022
933.047	9642
933.142	7815
933.237	10198
933.332	10202
933.427	11725
933.522	9336
933.617	7660
933.712	8857
933.807	11760
933.902	12508
933.997	10736
934.092	8874
934.187	7923
934.282	10250
934.376	9605
934.471	10942
934.566	8162
934.661	8509
934.755	10206
934.850	10209
934.945	8818
935.039	8345
935.134	6888
935.228	8832
935.323	12648
935.417	7930
935.512	5266
935.606	6122
935.701	9908
935.795	9586
935.890	9506
935.984	7654
936.079	5663
936.173	8228
936.267	7163
936.362	7540
936.456	8303
936.550	11177
936.644	8746
936.738	7324
936.833	6336
936.927	5741
937.021	6843
937.115	8151
937.209	8357
937.303	8172
937.397	5935
937.491	6800
937.585	9084
937.679	8960
937.773	7040
937.867	5688
937.961	6140
938.055	10180
938.149	7661
938.243	5130
938.337	5299
938.430	6705
938.524	9849
938.618	7156
938.712	5794
938.805	7677
938.899	8021
938.993	9515
939.086	6229
939.180	4191
939.274	4954
939.367	8229
939.461	8566
939.554	6397
939.648	5758
939.741	7599
939.835	6760
939.928	10032
940.022	8524
940.115	6770
940.208	8621
940.302	8912
940.395	9067
940.488	6676
940.582	6985
940.675	5929
940.768	5843
940.861	9084
940.954	8775
941.048	4413
941.141	4146
941.234	5400
941.327	6829
941.420	7698
941.513	7959
941.606	5947
941.699	5625
941.792	8407
941.885	7655
941.978	6610
942.071	7481
942.164	5274
942.257	5423
942.349	6410
942.442	6819
942.535	5327
942.628	5633
942.721	5954
942.813	5489
942.906	6863
942.999	5960
943.091	4614
943.184	5682
943.277	5337
943.369	5992
943.462	3902
943.554	5877
943.647	5932
943.739	6923
943.832	7212
943.924	3806
944.017	4357
944.109	4626
944.201	5077
944.294	5375
944.386	5151
944.478	4737
944.571	4416
944.663	5381
944.755	5911
944.847	5854
944.940	5736
945.032	3474
945.124	3219
945.216	5699
945.308	5291
945.400	5760
945.492	5150
945.584	6450
945.676	8110
945.768	5679
945.860	6733
945.952	7380
946.044	5596
946.136	5270
946.228	5021
946.320	4544
946.412	5215
946.503	6682
946.595	7451
946.687	4446
946.779	3494
946.870	3772
946.962	4935
947.054	4861
947.145	5987
947.237	4475
947.329	5081
947.420	4855
947.512	4513
947.603	3029
947.695	3468
947.786	3445
947.878	4141
947.969	5492
948.061	6211
948.152	3727
948.243	3775
948.335	3672
948.426	3867
948.517	4373
948.609	5935
948.700	4367
948.791	4446
948.882	3217
948.973	2941
949.065	4171
949.156	5181
949.247	3404
949.338	3788
949.429	2670
949.520	3326
949.611	4334
949.702	5667
949.793	3600
949.884	4342
949.975	3540
950.066	3160
950.157	2936
950.247	3895
950.338	2215
950.429	2496
950.520	3742
950.611	3253
950.701	3334
950.792	5805
950.883	4886
950.973	3724
951.064	4093
951.155	5210
951.245	4815
951.336	4215
951.427	4707
951.517	6442
951.608	4622
951.698	3903
951.788	3286
951.879	2946
951.969	2829
952.060	2792
952.150	3746
952.240	4531
952.331	4185
952.421	5292
952.511	2383
952.602	2224
952.692	1730
952.782	2915
952.872	3173
952.962	4644
953.052	3002
953.143	2484
953.233	2903
953.323	4524
953.413	3941
953.503	4599
953.593	3325
953.683	3974
953.773	2284
953.863	3326
953.953	1878
954.042	3990
954.132	3764
954.222	5366
954.312	2307
954.402	3382
954.492	3604
954.581	5049
954.671	3086
954.761	2674
954.850	3179
954.940	2058
955.030	2179
955.119	1961
955.209	2711
955.298	3220
955.388	3869
955.477	4860
955.567	1971
955.656	3015
955.746	2781
955.835	2779
955.925	1176
956.014	3772
956.103	3614
956.193	5320
956.282	3721
956.371	3390
956.461	3196
956.550	3492
956.639	3450
956.728	2378
956.817	3424
956.906	3048
956.995	4551
957.085	3278
957.174	3447
957.263	2097
957.352	3350
957.441	3277
957.530	2921
957.619	2748
957.708	2643
957.796	1746
957.885	3045
957.974	2999
958.063	2887
958.152	2282
958.241	1965
958.329	2420
958.418	2850
958.507	2661
958.596	4736
958.684	2384
958.773	3404
958.861	2836
958.950	1895
959.039	2838
959.127	2303
959.216	3940
959.304	2674
959.393	3798
959.481	2946
959.570	2992
959.658	2538
959.746	2437
959.835	2973
959.923	3254
960.011	2273
960.100	3597
960.188	3330
960.276	2441
960.365	1822
960.453	2180
960.541	1178
960.629	3200
960.717	1547
960.805	970
960.893	2769
960.981	2592
961.069	4337
961.158	4955
961.245	4890
961.333	4007
961.421	2318
961.509	3258
961.597	2888
961.685	2471
961.773	2939
961.861	3088
961.949	3984
962.036	2090
962.124	1958
962.212	1674
962.299	1853
962.387	1668
962.475	2091
962.562	1450
962.650	3031
962.738	2928
962.825	1259
962.913	1915
963.000	851
963.088	3196
963.175	2136
963.263	2252
963.350	2327
963.438	2094
963.525	1549
963.612	2861
963.700	3399
963.787	8990
963.874	4477
963.962	2535
964.049	1926
964.136	1778
964.223	1309
964.310	1712
964.398	1737
964.485	2885
964.572	2517
964.659	3371
964.746	2507
964.833	2380
964.920	2183
965.007	1825
965.094	1953
965.181	2513
965.268	2321
965.355	2510
965.441	2695
965.528	2238
965.615	2333
965.702	2417
965.789	1110
965.875	2166
965.962	2996
966.049	2423
966.136	4256
966.222	3732
966.309	3785
966.395	3412
966.482	3061
966.569	3498
966.655	3292
966.742	1821
966.828	2472
966.915	1662
967.001	2291
967.087	1042
967.174	2078
967.260	3017
967.347	2668
967.433	3717
967.519	6997
967.605	3652
967.692	1726
967.778	3107
967.864	1021
967.950	2163
968.036	1814
968.123	2254
968.209	2030
968.295	1440
968.381	2789
968.467	2271
968.553	1586
968.639	3074
968.725	1950
968.811	5468
968.897	3770
968.983	2274
969.069	826
969.154	2172
969.240	1986
969.326	647
969.412	1038
969.497	2218
969.583	1577
969.669	2326
969.755	2961
969.840	2719
969.926	5041
970.012	6203
970.097	7777
970.183	6070
970.268	2955
970.354	2509
970.439	1636
970.525	4831
970.610	1901
970.696	3646
970.781	1186
970.866	1580
970.952	2390
971.037	1718
971.122	2640
971.208	2445
971.293	2426
971.378	720
971.463	2768
971.549	2708
971.634	1917
971.719	1776
971.804	2333
971.889	2418
971.974	1364
972.059	2239
972.144	2700
972.229	1830
972.314	1292
972.399	2918
972.484	774
972.569	1790
972.654	1603
972.739	3663
972.824	2352
972.908	1984
972.993	1472
973.078	1215
973.163	1662
973.247	2630
973.332	741
973.417	2826
973.501	1543
973.586	2768
973.671	1965
973.755	1987
973.840	2630
973.924	3708
974.009	3580
974.093	3738
974.178	4501
974.262	3104
974.346	2564
974.431	2236
974.515	1475
974.600	2163
974.684	2390
974.768	2213
974.852	2587
974.937	761
975.021	2880
975.105	2042
975.189	1678
975.273	2882
975.358	1003
975.442	1163
975.526	3013
975.610	1528
975.694	774
975.778	3117
975.862	887
975.946	-530
976.030	3375
976.114	1542
976.198	2534
976.281	1931
976.365	2931
976.449	2631
976.533	2720
976.617	1000
976.700	1774
976.784	2111
976.868	1461
976.951	2331
977.035	2601
977.119	2254
977.202	1667
977.286	3313
977.369	3523
977.453	6305
977.536	4747
977.620	3420
977.703	3249
977.787	2566
977.870	3162
977.953	3717
978.037	1088
978.120	2908
978.203	2411
978.287	4213
978.370	3059
978.453	2407
978.536	1827
978.620	3391
978.703	2879
978.786	1913
978.869	1376
978.952	1071
979.035	3166
979.118	2482
979.201	1733
979.284	2852
979.367	2180
979.450	2613
979.533	1034
979.616	2291
979.699	1552
979.782	1638
979.865	2854
979.948	2110
980.030	1898
980.113	1641
980.196	1339
980.279	2712
980.361	2738
980.444	1802
980.526	3214
980.609	4208
980.692	5143
980.774	4802
980.857	2059
980.939	3944
981.022	3126
981.104	2552
981.187	2260
981.269	2916
981.352	2814
981.434	2379
981.516	1921
981.599	3944
981.681	3149
981.763	2250
981.846	1882
981.928	2777
982.010	1863
982.092	1924
982.174	3451
982.256	2603
982.339	1970
982.421	2686
982.503	2011
982.585	2278
982.667	1719
982.749	1809
982.831	2280
982.913	1827
982.995	3664
983.077	2784
983.158	4556
983.240	2873
983.322	4455
983.404	5926
983.486	4880
983.568	4811
983.649	3370
983.731	3760
983.813	3399
983.894	3460
983.976	3020
984.058	2816
984.139	3694
984.221	2801
984.302	3218
984.384	3188
984.465	2391
984.547	3610
984.628	2412
984.710	4028
984.791	2411
984.872	2748
984.954	1821
985.035	3423
985.116	3069
985.198	2522
985.279	3751
985.360	3130
985.441	2370
985.522	4282
985.604	2966
985.685	1446
985.766	4248
985.847	4533
985.928	2424
986.009	3459
986.090	3320
986.171	4224
986.252	2818
986.333	3180
986.414	3546
986.495	4155
986.576	3567
986.656	3894
986.737	3987
986.818	4028
986.899	3485
986.980	3763
987.060	4234
987.141	4031
987.222	5182
987.302	4879
987.383	5748
987.464	5462
987.544	4932
987.625	4343
987.705	5142
987.786	6005
987.866	4043
987.947	4276
988.027	4669
988.108	4930
988.188	5036
988.268	4069
988.349	4823
988.429	3878
988.509	3924
988.589	4399
988.670	2767
988.750	4814
988.830	3012
988.910	4806
988.990	3991
989.070	3675
989.151	3987
989.231	3830
989.311	3787
989.391	3317
989.471	3678
989.551	3505
989.631	3172
989.711	4622
989.791	2752
989.870	3225
989.950	4840
990.030	3322
990.110	4385
990.190	2926
990.269	2491
990.349	3122
990.429	3697
990.509	3196
990.588	2263
990.668	3239
990.747	2835
990.827	3289
990.907	3821
990.986	2701
991.066	4010
991.145	1786
991.225	3268
991.304	3174
991.383	3559
991.463	1970
991.542	2763
991.622	2099
991.701	2826
991.780	2216
991.859	2348
991.939	3044
992.018	3133
992.097	3475
992.176	1623
992.256	2591
992.335	2069
992.414	3274
992.493	1491
992.572	2328
992.651	3794
992.730	2912
992.809	2007
992.888	2189
992.967	2029
993.046	2784
993.125	1219
993.203	2234
993.282	2197
993.361	2248
993.440	2150
993.519	1673
993.597	2801
993.676	1510
993.755	2447
993.834	2453
993.912	931
993.991	2352
994.069	1798
994.148	2233
994.226	768
994.305	2741
994.384	1584
994.462	4157
994.540	1041
994.619	921
994.697	2445
994.776	2295
994.854	1614
994.932	1469
995.011	1329
995.089	1579
995.167	984
995.245	1772
995.324	1073
995.402	2530
995.480	544
995.558	1710
995.636	607
995.714	1381
995.792	1875
995.870	702
995.948	1838
996.026	1955
996.104	351
996.182	2105
996.260	396
996.338	1297
996.416	582
996.494	936
996.572	3005
996.649	580
996.727	-578
996.805	1133
996.883	959
996.960	863
997.038	2194
997.116	2154
997.193	574
997.271	797
997.348	-47
997.426	1223
997.504	1223
997.581	1785
997.658	1227
997.736	-958
997.813	-435
997.891	1727
997.968	117
998.046	1312
998.123	587
998.200	1814
998.277	-22
998.355	1572
998.432	-854
998.509	200
998.586	291
998.663	1491
998.741	1381
998.818	1119
998.895	-323
998.972	1807
999.049	1549
999.126	681
999.203	494
999.280	888
999.357	190
999.434	865
999.511	-180
999.587	1500
999.664	-1087
999.741	1161
999.818	682
999.895	207
999.971	48
1000.048	251
1000.125	1400
1000.202	-68
1000.278	507
1000.355	1049
1000.431	581
1000.508	-162
1000.584	246
1000.661	876
1000.738	-358
1000.814	-706
1000.890	841
1000.967	415
1001.043	659
1001.120	-485
1001.196	98
1001.272	-448
1001.349	768
1001.425	643
1001.501	-156
1001.577	-126
1001.654	-401
1001.730	-347
1001.806	629
1001.882	-128
1001.958	1250
1002.034	599
1002.110	-273
1002.186	-255
1002.262	-823
1002.338	-589
1002.414	152
1002.490	784
1002.566	-699
1002.642	-25
1002.718	-25
1002.794	-342
1002.870	203
1002.945	-525
1003.021	-509
1003.097	395
1003.173	54
1003.248	-236
1003.324	-318
1003.400	1087
1003.475	-1281
1003.551	-693
1003.626	-533
1003.702	-374
1003.777	-573
1003.853	-43
1003.928	-1142
1004.004	-646
1004.079	-359
1004.155	355
1004.230	-928
1004.305	1145
1004.381	-1441
1004.456	-375
1004.531	-924
1004.607	-8
1004.682	-203
1004.757	-828
1004.832	-1421
1004.907	-1077
1004.982	15
1005.057	-257
1005.133	-555
1005.208	-267
1005.283	-816
1005.358	223
1005.433	-1708
1005.508	-142
1005.583	-874
1005.657	-465
1005.732	-606
1005.807	-493
1005.882	-1048
1005.957	-668
1006.032	-184
1006.106	-615
1006.181	-267
1006.256	-29
1006.331	-1036
1006.405	-1116
1006.480	-999
1006.554	-1188
1006.629	-821
1006.704	-1128
1006.778	-478
1006.853	-602
1006.927	-1171
1007.002	-342
1007.076	-1441
1007.150	-1238
1007.225	-459
1007.299	29
1007.373	-978
1007.448	-519
1007.522	-687
1007.596	-1266
1007.671	-1633
1007.745	131
1007.819	-1097
1007.893	-997
1007.967	-471
1008.041	-1899
1008.115	-226
1008.190	-1446
1008.264	-1397
1008.338	-1945
1008.412	-1332
1008.486	-787
1008.560	-373
1008.633	-546
1008.707	-1267
1008.781	199
1008.855	-1145
1008.929	22
1009.003	-1180
1009.076	-1136
1009.150	-1226
1009.224	386
1009.298	-1486
1009.371	-1416
1009.445	-233
1009.519	-330
1009.592	-1982
1009.666	-722
1009.739	-725
1009.813	-1021
1009.886	-460
1009.960	-811
1010.033	-1284
1010.107	-410
1010.180	-1830
1010.253	-780
1010.327	-1556
1010.400	-2170
1010.473	-1705
1010.547	-437
1010.620	-1259
1010.693	-1455
1010.766	-1594
1010.840	-838
1010.913	-1064
1010.986	-1676
1011.059	-1049
1011.132	-1134
1011.205	-550
1011.278	-1881
1011.351	-2005
1011.424	-983
1011.497	-1662
1011.570	-1858
1011.643	-1201
1011.716	-944
1011.789	-1199
1011.862	-1002
1011.934	-1702
1012.007	-1768
1012.080	-1267
1012.153	-1035
1012.225	-1239
1012.298	-1572
1012.371	-1169
1012.443	-779
1012.516	-1561
1012.588	390
1012.661	-503
1012.733	-1156
1012.806	-832
1012.879	-1540
1012.951	-1211
1013.023	-1731
1013.096	-955
1013.168	-1345
1013.241	-448
1013.313	-1218
1013.385	-1015
1013.458	-1527
1013.530	-722
1013.602	-1877
1013.674	-749
1013.746	-1521
1013.819	-1893
1013.891	-361
1013.963	-988
1014.035	-1478
1014.107	-897
1014.179	-1035
1014.251	-1186
1014.323	-1377
1014.395	-1480
1014.467	-1275
1014.539	-909
1014.611	-1567
1014.683	-1505
1014.754	-1036
1014.826	-1777
1014.898	-551
1014.970	-2230
1015.042	-1577
1015.113	-1782
1015.185	-1344
1015.257	-2802
1015.328	-1343
1015.400	-1654
1015.471	-850
1015.543	-2529
1015.615	-1329
1015.686	-1732
1015.757	-1899
1015.829	-676
1015.901	-1592
1015.972	-1943
1016.043	-757
1016.115	-1820
1016.186	-1847
1016.257	-2274
1016.328	-1695
1016.400	-1014
1016.471	-1674
1016.542	-1290
1016.613	-864
1016.685	-1429
1016.756	-1232
1016.827	-2159
1016.898	-1391
1016.969	-682
1017.040	-1432
1017.111	-1372
1017.182	-1989
1017.253	-1748
1017.324	-982
1017.395	-1435
1017.466	-1312
1017.537	-1652
1017.608	-1185
1017.678	-1906
1017.749	-1766
1017.820	-1929
1017.891	-1623
1017.961	-2379
1018.032	-1852
1018.103	-1017
1018.173	-766
1018.244	-2169
1018.315	-1666
1018.385	-639
1018.456	-1602
1018.526	-2000
1018.597	-1407
1018.667	-1409
1018.738	-1233
1018.808	-1708
1018.878	-2256
1018.949	-1612
1019.019	-1670
1019.089	-1538
1019.160	-1034
1019.230	-1872
1019.300	-1046
1019.371	-2438
1019.441	-1027
1019.511	-1753
1019.581	-2097
1019.651	-1490
1019.721	-1453
1019.791	-1701
1019.861	-1249
1019.931	-1965
1020.001	-1775
1020.071	-1870
1020.141	-1872
1020.211	-2019
1020.281	-1211
1020.351	-2753
1020.421	-1379
1020.491	-1239
1020.560	-2028
1020.630	-2370
1020.700	-982
1020.770	-2302
1020.839	-1264
1020.909	-1956
1020.979	-1731
1021.048	-1797
1021.118	-1267
1021.187	-1751
1021.257	-450
1021.326	-1568
1021.396	-1263
1021.465	-2160
1021.535	-916
1021.604	-1821
1021.674	-1759
1021.743	-2004
1021.812	-2291
1021.882	-1735
1021.951	-2050
1022.020	-1886
1022.089	-563
1022.159	-1919
1022.228	-1245
1022.297	-1780
1022.366	-1772
1022.435	-2328
1022.504	-1799
1022.573	-1841
1022.642	-1469
1022.711	-1560
1022.781	-1489
1022.849	-1885
1022.918	-1702
1022.987	-2008
1023.056	-2006
1023.125	-1952
1023.194	-1753
1023.263	-1472
1023.331	-1730
1023.400	-2198
1023.469	-2036
1023.538	-1775
1023.606	-2122
1023.675	-1601
1023.744	-2763
1023.812	-2223
1023.881	-1909
1023.949	-1673
1024.018	-1989
1024.086	-2387
1024.155	-2731
1024.223	-2729
1024.292	-1722
1024.360	-1862
1024.429	-2068
1024.497	-2937
1024.565	-1721
1024.634	-1314
1024.702	-1707
1024.770	-1614
1024.838	-1698
1024.907	-1679
1024.975	-1506
1025.043	-1249
1025.111	-2588
1025.179	-1943
1025.247	-1906
1025.315	-1185
1025.383	-2228
1025.451	-1508
1025.519	-1806
1025.587	-2460
1025.655	-2166
1025.723	-1456
1025.791	-2077
1025.859	-2213
1025.927	-967
1025.995	-2611
1026.062	-2399
1026.130	-2188
1026.198	-1726
1026.266	-2039
1026.333	-1530
1026.401	-1340
1026.469	-1096
1026.536	-2343
1026.604	-1583
1026.671	-2005
1026.739	-2281
1026.806	-2027
1026.874	-1997
1026.941	-2508
1027.009	-2381
1027.076	-1430
1027.144	-1542
1027.211	-2484
1027.278	-2195
1027.345	-2341
1027.413	-1249
1027.480	-1842
1027.547	-1684
1027.614	-1927
1027.682	-1289
1027.749	-2292
1027.816	-2178
1027.883	-1902
1027.950	-2161
1028.017	-1995
1028.084	-1869
1028.151	-3261
1028.218	-2260
1028.285	-1882
1028.352	-1668
1028.419	-2017
1028.486	-2836
1028.553	-1545
1028.619	-2138
1028.686	-1533
1028.753	-1583
1028.820	-2233
1028.886	-2115
1028.953	-2657
1029.020	-1509
1029.086	-2246
1029.153	-1991
1029.220	-2066
1029.286	-2839
1029.353	-2245
1029.419	-2365
1029.486	-2309
1029.552	-1913
1029.619	-2032
1029.685	-1963
1029.751	-2661
1029.818	-1123
1029.884	-2399
1029.951	-734
1030.017	-2227
1030.083	-2675
1030.149	-1987
1030.216	-2326
1030.282	-1319
1030.348	-1720
1030.414	-2296
1030.480	-1988
1030.546	-2127
1030.612	-1612
1030.678	-2195
1030.744	-2145
1030.810	-2140
1030.876	-1649
1030.942	-2052
1031.008	-1398
1031.074	-2563
1031.140	-1840
1031.206	-1464
1031.272	-2797
1031.337	-2634
1031.403	-1261
1031.469	-2264
1031.534	-2444
1031.600	-2301
1031.666	-2245
1031.731	-2822
1031.797	-1489
1031.863	-2090
1031.928	-2301
1031.994	-2773
1032.059	-2156
1032.125	-2535
1032.190	-2606
1032.256	-3170
1032.321	-2554
1032.386	-2043
1032.452	-1480
1032.517	-2450
1032.582	-2328
1032.647	-1834
1032.713	-2014
1032.778	-1734
1032.843	-2155
1032.908	-1869
1032.974	-2022
1033.039	-2816
1033.104	-2049
1033.169	-2722
1033.234	-1818
1033.299	-1313
1033.364	-1269
1033.429	-1826
1033.494	-1788
1033.559	-2058
1033.624	-2249
1033.688	-2004
1033.753	-1879
1033.818	-2153
1033.883	-1320
1033.948	-1532
1034.013	-511
1034.077	504
1034.142	1348
1034.207	1418
1034.271	4811
1034.336	4545
1034.400	2638
1034.465	559
1034.530	-704
1034.594	-1954
1034.658	-2100
1034.723	-2174
1034.787	-2525
1034.852	-2490
1034.916	-2401
1034.981	-2231
1035.045	-1687
1035.109	-2336
1035.173	-1435
1035.238	-2992
1035.302	-1352
1035.366	-2695
1035.430	-2294
1035.495	-2264
1035.559	-1632
1035.623	-2623
1035.687	-2385
1035.751	-2989
1035.815	-1932
1035.879	-3782
1035.943	-1937
1036.007	-2836
1036.071	-2693
1036.135	-1918
1036.198	-2249
1036.262	-3248
1036.326	-1597
1036.390	-1954
1036.454	-1749
1036.517	-2915
1036.581	-1524
1036.645	-547
1036.709	-1512
1036.772	-2260
1036.836	-1656
1036.900	-2570
1036.963	-2001
1037.026	-2121
1037.090	-2455
1037.154	-2897
1037.217	-1829
1037.280	-1783
1037.344	-2206
1037.407	-2320
1037.471	-2619
1037.534	-2259
1037.597	-1785
1037.661	-1901
1037.724	-1037
1037.787	-1617
1037.850	-2733
1037.913	-1532
1037.977	-2134
1038.040	-2086
1038.103	-2509
1038.166	-2340
1038.229	-1787
1038.292	-2504
1038.355	-2085
1038.418	-2621
1038.481	-1417
1038.544	-2172
1038.607	-2354
1038.670	-2584
1038.732	-1889
1038.795	-2831
1038.858	-1358
1038.921	-2057
1038.984	-2135
1039.046	-2902
1039.109	-2924
1039.172	-1808
1039.234	-2488
1039.297	-2147
1039.360	-2315
1039.422	-3001
1039.485	-2615
1039.547	-3808
1039.610	-2089
1039.672	-2953
1039.734	-2403
1039.797	-2424
1039.859	-2597
1039.922	-2195
1039.984	-2305
1040.046	-2467
1040.109	-2241
1040.171	-2917
1040.233	-2310
1040.295	-2656
1040.358	-2188
1040.420	-2396
1040.482	-2791
1040.544	-2861
1040.606	-1960
1040.668	-2733
1040.730	-1977
1040.792	-2755
1040.854	-1990
1040.916	-2227
1040.978	-2838
1041.040	-1476
1041.102	-1973
1041.164	-2787
1041.225	-2432
1041.287	-3188
1041.349	-1837
1041.411	-2890
1041.472	-1882
1041.534	-2432
1041.596	-1299
1041.657	-2183
1041.719	-2381
1041.781	-2146
1041.842	-2879
1041.904	-2495
1041.965	-2226
1042.027	-3270
1042.088	-2554
1042.150	-1863
1042.211	-2325
1042.272	-2128
1042.334	-1989
1042.395	-1996
1042.456	-1874
1042.518	-2537
1042.579	-1822
1042.640	-2067
1042.701	-2254
1042.763	-3012
1042.824	-2524
1042.885	-2645
1042.946	-2275
1043.007	-2861
1043.068	-2667
1043.129	-3035
1043.190	-1412
1043.251	-2870
1043.312	-2524
1043.373	-2117
1043.434	-2105
1043.495	-2309
1043.556	-1455
1043.616	-1818
1043.677	-2776
1043.738	-2105
1043.799	-1952
1043.859	-2724
1043.920	-3360
1043.981	-3481
1044.041	-2351
1044.102	-2832
1044.162	-2009
1044.223	-3543
1044.284	-2295
1044.344	-2555
1044.405	-2152
1044.465	-2472
1044.525	-2369
1044.586	-2645
1044.646	-2589
1044.707	-2209
1044.767	-2017
1044.827	-2015
1044.887	-2682
1044.948	-2459
1045.008	-3303
1045.068	-2246
1045.128	-1262
1045.188	-2128
1045.249	-1407
1045.309	-2561
1045.369	-1831
1045.429	-2642
1045.489	-1714
1045.549	-2522
1045.609	-2031
1045.669	-2524
1045.729	-2719
1045.789	-2493
1045.848	-2414
1045.908	-2273
1045.968	-1895
1046.028	-1996
1046.088	-1854
1046.147	-1858
1046.207	-2397
1046.267	-2076
1046.326	-1452
1046.386	-2556
1046.446	-1419
1046.505	-1693
1046.565	-875
1046.624	-983
1046.684	-1165
1046.743	-905
1046.803	-447
1046.862	-901
1046.922	0
