'Start Wavelength	183.907
'End Wavelength	1046.922
'Gate Delay	5.000
'Gate Width (ms)	1.050
'Laser Output Level	0.000
'X Position	0.000
'Y Position	0.000
'Z Position	0.000
'Grid Point Number	1.000
'Shot Number	100.000
183.907	11.000
183.977	-66.000
184.047	-481
184.116	367
184.186	-590
184.256	579
184.325	625
184.395	-582
184.465	803
184.534	614
184.604	109
184.674	146
184.743	-15
184.813	52
184.883	290
184.952	525
185.022	634
185.092	-177
185.161	-21
185.231	352
185.301	336
185.370	700
185.440	-700
185.509	-208
185.579	314
185.649	417
185.718	139
185.788	595
185.857	-229
185.927	-481
185.996	341
186.066	-582
186.136	-18
186.205	-276
186.275	656
186.344	164
186.414	-289
186.483	-281
186.553	1647
186.622	830
186.692	1069
186.761	943
186.831	274
186.900	496
186.970	533
187.039	1119
187.109	211
187.178	624
187.248	1028
187.317	582
187.387	-163
187.456	-133
187.526	483
187.595	60
187.664	292
187.734	68
187.803	-455
187.873	331
187.942	-130
188.012	612
188.081	954
188.150	176
188.220	203
188.289	1151
188.358	153
188.428	582
188.497	-45
188.567	862
188.636	-482
188.705	184
188.775	310
188.844	132
188.913	428
188.983	148
189.052	300
189.121	210
189.191	222
189.260	276
189.329	220
189.399	634
189.468	439
189.537	306
189.606	148
189.676	45
189.745	480
189.814	210
189.883	52
189.953	90
190.022	869
190.091	602
190.161	709
190.230	1038
190.299	223
190.368	-129
190.437	-427
190.507	323
190.576	347
190.645	841
190.714	23
190.783	-231
190.853	623
190.922	1169
190.991	154
191.060	305
191.129	239
191.198	-393
191.268	-303
191.337	347
191.406	1134
191.475	131
191.544	-206
191.613	993
191.682	554
191.752	262
191.821	-596
191.890	439
191.959	738
192.028	-243
192.097	389
192.166	1117
192.235	-505
192.304	597
192.373	-75
192.442	331
192.511	48
192.580	-305
192.650	461
192.719	668
192.788	-345
192.857	411
192.926	-268
192.995	403
193.064	34
193.133	484
193.202	1118
193.271	1145
193.340	920
193.409	1008
193.478	491
193.547	914
193.615	779
193.684	1184
193.753	257
193.822	621
193.891	277
193.960	429
194.029	302
194.098	1141
194.167	351
194.236	1025
194.305	-17
194.374	585
194.443	861
194.512	157
194.580	904
194.649	373
194.718	1004
194.787	188
194.856	25
194.925	707
194.994	103
195.062	905
195.131	-58
195.200	222
195.269	1076
195.338	441
195.407	932
195.475	-233
195.544	14
195.613	683
195.682	63
195.751	718
195.819	375
195.888	747
195.957	1089
196.026	-79
196.094	1326
196.163	319
196.232	1102
196.301	909
196.369	-25
196.438	338
196.507	528
196.576	643
196.644	364
196.713	516
196.782	60
196.850	1436
196.919	853
196.988	704
197.056	-384
197.125	914
197.194	139
197.262	427
197.331	-43
197.400	235
197.468	70
197.537	53
197.606	506
197.674	313
197.743	1040
197.812	384
197.880	935
197.949	517
198.017	1140
198.086	983
198.155	605
198.223	831
198.292	662
198.360	-153
198.429	34
198.497	85
198.566	441
198.635	1530
198.703	440
198.772	1416
198.840	762
198.909	1431
198.977	832
199.046	427
199.114	326
199.183	842
199.251	354
199.320	31
199.388	601
199.457	-106
199.525	-301
199.594	277
199.662	253
199.731	712
199.799	648
199.867	959
199.936	320
200.004	618
200.073	515
200.141	387
200.210	166
200.278	-454
200.346	645
200.415	1210
200.483	465
200.552	762
200.620	-382
200.688	275
200.757	852
200.825	838
200.893	-114
200.962	401
201.030	143
201.098	-411
201.167	866
201.235	506
201.303	230
201.372	1219
201.440	517
201.508	1063
201.577	1131
201.645	448
201.713	681
201.781	632
201.850	2051
201.918	997
201.986	508
202.055	870
202.123	-89
202.191	-11
202.259	399
202.327	1297
202.396	634
202.464	504
202.532	1076
202.600	3182
202.669	2832
202.737	690
202.805	136
202.873	134
202.941	352
203.009	316
203.078	887
203.146	406
203.214	627
203.282	584
203.350	24
203.418	411
203.487	1059
203.555	196
203.623	951
203.691	352
203.759	-244
203.827	517
203.895	588
203.963	434
204.031	-684
204.099	975
204.168	441
204.236	1087
204.304	393
204.372	1041
204.440	1209
204.508	95
204.576	-208
204.644	431
204.712	558
204.780	382
204.848	1267
204.916	477
204.984	1010
205.052	359
205.120	-171
205.188	238
205.256	119
205.324	95
205.392	-231
205.460	513
205.528	-130
205.596	856
205.664	96
205.732	308
205.799	1073
205.867	2433
205.935	491
206.003	1203
206.071	140
206.139	-89
206.207	888
206.275	41
206.343	257
206.411	500
206.478	557
206.546	129
206.614	601
206.682	141
206.750	237
206.818	1477
206.885	1968
206.953	15
207.021	2010
207.089	650
207.157	-764
207.225	783
207.292	840
207.360	-218
207.428	796
207.496	139
207.563	812
207.631	521
207.699	90
207.767	638
207.834	-549
207.902	267
207.970	9
208.038	653
208.105	276
208.173	-89
208.241	241
208.309	517
208.376	294
208.444	1357
208.512	570
208.579	127
208.647	1176
208.715	1536
208.782	485
208.850	243
208.918	900
208.985	462
209.053	435
209.120	270
209.188	280
209.256	1351
209.323	33
209.391	306
209.459	1318
209.526	643
209.594	-48
209.661	727
209.729	745
209.796	1280
209.864	934
209.932	-187
209.999	1800
210.067	4
210.134	552
210.202	173
210.269	1171
210.337	2096
210.404	479
210.472	-160
210.539	-9
210.607	527
210.674	1435
210.742	1091
210.809	952
210.877	1023
210.944	1214
211.012	-443
211.079	1761
211.146	534
211.214	901
211.281	1375
211.349	1636
211.416	1067
211.484	1197
211.551	45
211.618	856
211.686	1038
211.753	586
211.821	705
211.888	313
211.955	452
212.023	910
212.090	-107
212.157	350
212.225	1239
212.292	1306
212.359	1553
212.427	6004
212.494	2306
212.561	1277
212.629	675
212.696	737
212.763	801
212.831	-215
212.898	1397
212.965	-77
213.032	172
213.100	-46
213.167	1104
213.234	1826
213.301	1018
213.369	520
213.436	51
213.503	-566
213.570	1491
213.638	545
213.705	4
213.772	-324
213.839	752
213.906	1100
213.973	617
214.041	-289
214.108	650
214.175	764
214.242	639
214.309	495
214.376	717
214.444	-125
214.511	658
214.578	480
214.645	1504
214.712	1121
214.779	1089
214.846	659
214.913	998
214.980	1897
215.048	2146
215.115	3205
215.182	1455
215.249	1590
215.316	326
215.383	1703
215.450	586
215.517	-84
215.584	505
215.651	696
215.718	919
215.785	328
215.852	-312
215.919	1973
215.986	1138
216.053	148
216.120	-258
216.187	-4
216.254	702
216.321	150
216.388	892
216.455	687
216.522	1158
216.589	488
216.656	711
216.722	1367
216.789	1088
216.856	867
216.923	947
216.990	923
217.057	895
217.124	33
217.191	440
217.258	1624
217.324	1585
217.391	1509
217.458	1087
217.525	1493
217.592	982
217.659	-1043
217.725	1661
217.792	-321
217.859	1923
217.926	142
217.993	353
218.059	1477
218.126	713
218.193	418
218.260	469
218.327	237
218.393	717
218.460	434
218.527	119
218.594	919
218.660	702
218.727	982
218.794	415
218.860	1028
218.927	330
218.994	49
219.061	614
219.127	319
219.194	1115
219.261	618
219.327	209
219.394	780
219.461	-719
219.527	515
219.594	1006
219.661	652
219.727	-781
219.794	1765
219.860	346
219.927	1258
219.994	2129
220.060	4437
220.127	4951
220.193	2728
220.260	1247
220.326	1659
220.393	1889
220.460	2527
220.526	1205
220.593	766
220.659	2901
220.726	889
220.792	3637
220.859	2658
220.925	3660
220.992	4769
221.058	5207
221.125	5180
221.191	3803
221.258	720
221.324	1571
221.391	44
221.457	351
221.524	692
221.590	744
221.657	4310
221.723	2283
221.789	2483
221.856	2944
221.922	793
221.989	731
222.055	732
222.121	-251
222.188	2745
222.254	800
222.321	1286
222.387	774
222.453	491
222.520	-232
222.586	249
222.652	987
222.719	284
222.785	1178
222.851	288
222.918	-240
222.984	-66
223.050	447
223.116	-1602
223.183	832
223.249	216
223.315	-457
223.382	597
223.448	467
223.514	-485
223.580	63
223.647	-493
223.713	313
223.779	760
223.845	-46
223.911	380
223.978	-817
224.044	982
224.110	81
224.176	117
224.242	-526
224.309	-10
224.375	827
224.441	343
224.507	328
224.573	-335
224.639	747
224.705	-54
224.772	470
224.838	-80
224.904	792
224.970	359
225.036	355
225.102	-449
225.168	317
225.234	540
225.300	488
225.366	214
225.432	824
225.499	-101
225.565	676
225.631	471
225.697	699
225.763	1536
225.829	629
225.895	552
225.961	501
226.027	775
226.093	609
226.159	2181
226.225	2200
226.291	5488
226.357	8777
226.423	4700
226.489	1776
226.554	1658
226.620	1361
226.686	1384
226.752	1970
226.818	4110
226.884	12073
226.950	11836
227.016	3831
227.082	3216
227.148	1317
227.214	1183
227.279	1115
227.345	522
227.411	2130
227.477	3885
227.543	8036
227.609	8935
227.674	6090
227.740	2760
227.806	2499
227.872	929
227.938	1191
228.003	1044
228.069	526
228.135	169
228.201	955
228.267	360
228.332	132
228.398	-409
228.464	918
228.530	-94
228.595	564
228.661	-143
228.727	276
228.792	1666
228.858	590
228.924	-1367
228.990	1849
229.055	-600
229.121	622
229.187	105
229.252	875
229.318	434
229.384	994
229.449	354
229.515	-738
229.581	-449
229.646	1838
229.712	9
229.777	610
229.843	1281
229.909	885
229.974	1163
230.040	962
230.105	1172
230.171	543
230.236	1439
230.302	1318
230.368	352
230.433	-272
230.499	395
230.564	1008
230.630	-567
230.695	656
230.761	2149
230.826	-726
230.892	1980
230.957	-301
231.023	-280
231.088	435
231.154	254
231.219	994
231.284	480
231.350	875
231.415	-492
231.481	1406
231.546	-236
231.612	215
231.677	194
231.742	-1069
231.808	1944
231.873	72
231.939	-1350
232.004	1507
232.069	1064
232.135	-82
232.200	-340
232.265	1636
232.331	-837
232.396	417
232.461	165
232.527	-70
232.592	-224
232.657	1043
232.723	754
232.788	74
232.853	661
232.918	173
232.984	-140
233.049	-154
233.114	-283
233.179	1818
233.245	1724
233.310	1433
233.375	-480
233.440	1082
233.506	987
233.571	-171
233.636	358
233.701	395
233.766	-14
233.832	6
233.897	88
233.962	-822
234.027	1464
234.092	617
234.157	635
234.222	553
234.288	1163
234.353	1734
234.418	1777
234.483	1520
234.548	1219
234.613	143
234.678	655
234.743	-145
234.808	2511
234.873	581
234.938	849
235.004	-56
235.069	-131
235.134	181
235.199	728
235.264	729
235.329	-402
235.394	1091
235.459	1437
235.524	-776
235.589	1620
235.654	-224
235.719	-1023
235.784	748
235.849	1007
235.913	1366
235.978	626
236.043	1355
236.108	1040
236.173	419
236.238	1971
236.303	-23
236.368	205
236.433	992
236.498	459
236.563	2149
236.627	3585
236.692	16585
236.757	14750
236.822	3872
236.887	2247
236.952	2571
237.017	554
237.081	2462
237.146	972
237.211	5727
237.276	14348
237.341	29342
237.405	10749
237.470	4399
237.535	2357
237.600	1836
237.664	2547
237.729	530
237.794	1043
237.859	4082
237.923	1277
237.988	995
238.053	1606
238.118	1365
238.182	2560
238.247	4278
238.312	19
238.376	1842
238.441	-959
238.506	1944
238.570	-438
238.635	1580
238.700	163
238.764	291
238.829	1419
238.893	902
238.958	1218
239.023	300
239.087	677
239.152	1666
239.216	546
239.281	520
239.346	974
239.410	3
239.475	775
239.539	3515
239.604	2256
239.668	2629
239.733	2505
239.797	7705
239.862	16268
239.926	13620
239.991	6353
240.055	2938
240.120	1532
240.184	1720
240.249	970
240.313	784
240.378	1186
240.442	1298
240.507	2910
240.571	843
240.635	687
240.700	1422
240.764	789
240.829	170
240.893	-364
240.957	1262
241.022	1380
241.086	2759
241.151	261
241.215	-660
241.279	1394
241.344	1158
241.408	1021
241.472	685
241.537	1465
241.601	2024
241.665	-1157
241.730	115
241.794	1549
241.858	601
241.922	817
241.987	736
242.051	600
242.115	151
242.179	907
242.244	1072
242.308	1719
242.372	1052
242.436	217
242.501	1336
242.565	366
242.629	541
242.693	1186
242.757	724
242.822	620
242.886	516
242.950	1200
243.014	-328
243.078	1361
243.142	905
243.206	-252
243.271	1087
243.335	683
243.399	2516
243.463	5748
243.527	21953
243.591	6028
243.655	2631
243.719	281
243.783	1606
243.847	1500
243.911	2692
243.975	1141
244.040	121
244.104	2977
244.168	1391
244.232	1222
244.296	1509
244.360	2389
244.424	123
244.488	912
244.552	1086
244.615	-805
244.679	1671
244.743	-321
244.807	285
244.871	1068
244.935	1361
244.999	-325
245.063	834
245.127	1259
245.191	1617
245.255	2296
245.319	1336
245.383	-560
245.446	2074
245.510	8
245.574	609
245.638	1744
245.702	-149
245.766	2099
245.829	2528
245.893	16
245.957	344
246.021	1395
246.085	1226
246.149	622
246.212	3495
246.276	4024
246.340	1657
246.404	1305
246.467	1765
246.531	-799
246.595	2297
246.659	1773
246.722	-260
246.786	1130
246.850	1183
246.913	1123
246.977	-46
247.041	1097
247.104	1326
247.168	1365
247.232	1799
247.295	5382
247.359	3348
247.423	782
247.486	2423
247.550	1595
247.614	811
247.677	1231
247.741	634
247.804	953
247.868	3722
247.932	1993
247.995	5555
248.059	2053
248.122	830
248.186	1842
248.249	1285
248.313	7878
248.376	8921
248.440	4801
248.503	988
248.567	2938
248.630	1247
248.694	2881
248.757	4142
248.821	8882
248.884	6224
248.948	3800
249.011	6634
249.075	10191
249.138	9436
249.202	2719
249.265	1866
249.328	3178
249.392	873
249.455	2824
249.519	2890
249.582	2616
249.645	2517
249.709	2349
249.772	1866
249.835	2441
249.899	1937
249.962	2250
250.025	1397
250.089	3318
250.152	5091
250.215	2824
250.279	1390
250.342	2717
250.405	1911
250.468	1186
250.532	1911
250.595	5094
250.658	17446
250.721	35833
250.785	9159
250.848	5493
250.911	3131
250.974	3716
251.038	3186
251.101	6732
251.164	3959
251.227	3129
251.290	3481
251.354	5475
251.417	27237
251.480	28764
251.543	15388
251.606	51292
251.669	40143
251.732	12755
251.795	9562
251.859	12279
251.922	32093
251.985	18584
252.048	7271
252.111	4503
252.174	3510
252.237	5336
252.300	12527
252.363	14202
252.426	41364
252.489	15072
252.552	6462
252.615	3544
252.678	5296
252.741	9297
252.804	14845
252.867	43268
252.930	19794
252.993	8406
253.056	5706
253.119	3340
253.182	2907
253.245	4471
253.308	4035
253.371	2967
253.434	2385
253.497	3735
253.559	4755
253.622	4074
253.685	3897
253.748	2641
253.811	2139
253.874	2188
253.937	1253
254.000	1967
254.062	2551
254.125	4528
254.188	5504
254.251	2955
254.314	1926
254.376	2768
254.439	4013
254.502	2663
254.565	3186
254.628	7098
254.690	2656
254.753	2141
254.816	1085
254.878	1899
254.941	4291
255.004	4254
255.067	2613
255.129	1097
255.192	1234
255.255	280
255.317	1661
255.380	1549
255.443	1690
255.505	2056
255.568	1348
255.631	725
255.693	1757
255.756	1749
255.819	2649
255.881	1220
255.944	2101
256.006	1126
256.069	976
256.132	1132
256.194	1366
256.257	2462
256.319	2009
256.382	3038
256.444	4589
256.507	2913
256.569	1875
256.632	1532
256.694	2657
256.757	7580
256.819	27869
256.882	9796
256.944	3928
257.007	3812
257.069	1904
257.132	1688
257.194	2527
257.257	1880
257.319	1159
257.381	2130
257.444	6453
257.506	30536
257.569	32851
257.631	11239
257.693	5530
257.756	2895
257.818	2180
257.880	1877
257.943	2528
258.005	1154
258.067	985
258.130	1734
258.192	1774
258.254	1190
258.317	1493
258.379	2182
258.441	2691
258.503	3683
258.566	3020
258.628	5101
258.690	1278
258.753	2522
258.815	2410
258.877	1718
258.939	2902
259.001	1157
259.064	1983
259.126	1685
259.188	2508
259.250	1670
259.312	2126
259.375	3125
259.437	2039
259.499	2113
259.561	1855
259.623	2076
259.685	1262
259.747	1463
259.809	3526
259.872	6463
259.934	9517
259.996	10419
260.058	3974
260.120	1009
260.182	1922
260.244	1875
260.306	1127
260.368	2214
260.430	1774
260.492	3218
260.554	4182
260.616	2100
260.678	5110
260.740	6184
260.802	2190
260.864	2750
260.926	1821
260.988	2624
261.050	2280
261.112	3267
261.174	8083
261.236	5634
261.298	2365
261.359	2408
261.421	5084
261.483	1401
261.545	2944
261.607	308
261.669	1569
261.731	2375
261.793	4012
261.854	590
261.916	2707
261.978	1535
262.040	1965
262.102	2455
262.164	1563
262.225	2077
262.287	2704
262.349	2397
262.411	3195
262.472	2881
262.534	1484
262.596	3217
262.658	2393
262.719	1830
262.781	2923
262.843	2757
262.904	3521
262.966	2633
263.028	2907
263.090	9376
263.151	25067
263.213	9120
263.275	5067
263.336	2740
263.398	3198
263.459	2571
263.521	3163
263.583	3919
263.644	2820
263.706	1993
263.767	1793
263.829	2044
263.891	1616
263.952	1391
264.014	1767
264.075	1795
264.137	3791
264.198	2333
264.260	720
264.321	1217
264.383	2315
264.444	6030
264.506	3101
264.567	2182
264.629	4010
264.690	5338
264.752	2861
264.813	1701
264.875	1926
264.936	2014
264.998	1178
265.059	2903
265.120	2971
265.182	2809
265.243	11594
265.305	13639
265.366	4348
265.427	2620
265.489	3643
265.550	1679
265.611	1936
265.673	1923
265.734	2117
265.795	2413
265.857	1493
265.918	1494
265.979	3887
266.040	20968
266.102	18814
266.163	5262
266.224	3877
266.286	2896
266.347	1850
266.408	2204
266.469	3246
266.530	2728
266.592	1994
266.653	2405
266.714	4218
266.775	2485
266.836	3045
266.898	2394
266.959	3217
267.020	2603
267.081	3573
267.142	2636
267.203	2397
267.264	2800
267.326	4535
267.387	3426
267.448	2435
267.509	3058
267.570	2764
267.631	2637
267.692	1647
267.753	2580
267.814	2127
267.875	2579
267.936	4301
267.997	2250
268.058	2029
268.119	1124
268.180	2239
268.241	1203
268.302	1095
268.363	1371
268.424	2094
268.485	1272
268.546	903
268.607	1102
268.668	868
268.729	568
268.790	1136
268.851	1356
268.912	2513
268.972	2243
269.033	1350
269.094	807
269.155	1255
269.216	1329
269.277	1182
269.338	1616
269.398	1709
269.459	640
269.520	2848
269.581	2015
269.642	2130
269.702	1707
269.763	1750
269.824	826
269.885	1617
269.945	2377
270.006	1839
270.067	612
270.128	1499
270.188	793
270.249	1352
270.310	1782
270.370	1575
270.431	769
270.492	543
270.553	1556
270.613	2324
270.674	2612
270.734	1817
270.795	1985
270.856	2055
270.916	1087
270.977	1233
271.038	2388
271.098	1648
271.159	1515
271.219	1493
271.280	1334
271.340	1876
271.401	1080
271.462	3191
271.522	2337
271.583	1493
271.643	1910
271.704	3013
271.764	1724
271.825	3892
271.885	7810
271.946	12180
272.006	4306
272.066	6790
272.127	10952
272.187	10550
272.248	6051
272.308	3903
272.369	7932
272.429	5832
272.489	4681
272.550	4020
272.610	4079
272.671	3180
272.731	2916
272.791	4168
272.852	3376
272.912	3460
272.972	3324
273.033	4071
273.093	2850
273.153	5521
273.214	4926
273.274	6299
273.334	8991
273.394	14631
273.455	8963
273.515	8745
273.575	12854
273.635	9750
273.696	11155
273.756	16118
273.816	11879
273.876	8349
273.936	7724
273.997	9870
274.057	5077
274.117	4718
274.177	5345
274.237	11521
274.297	10713
274.358	6758
274.418	7529
274.478	6472
274.538	2868
274.598	2642
274.658	4973
274.718	5608
274.778	3277
274.838	2731
274.898	3330
274.958	6748
275.018	9131
275.078	6959
275.138	2566
275.198	2233
275.258	1979
275.318	3132
275.378	3009
275.438	3369
275.498	2924
275.558	3623
275.618	7888
275.678	6854
275.738	4783
275.798	2782
275.858	2763
275.918	2130
275.978	1806
276.038	2553
276.098	2202
276.157	3279
276.217	6069
276.277	3630
276.337	2811
276.397	2450
276.457	3077
276.517	2897
276.576	3163
276.636	2517
276.696	3327
276.756	3935
276.815	3285
276.875	4425
276.935	3162
276.995	3025
277.055	3713
277.114	3817
277.174	3188
277.234	5938
277.293	4387
277.353	3091
277.413	2719
277.472	3668
277.532	4005
277.592	7471
277.651	20183
277.711	42780
277.771	16752
277.830	40581
277.890	39374
277.950	28503
278.009	73115
278.069	35875
278.128	31397
278.188	48293
278.248	25270
278.307	49761
278.367	33865
278.426	10606
278.486	7926
278.545	6594
278.605	6343
278.664	5478
278.724	5630
278.783	7956
278.843	14183
278.902	7433
278.962	6228
279.021	7914
279.081	14796
279.140	14091
279.199	10345
279.259	10960
279.318	13363
279.378	18484
279.437	29605
279.496	68227
279.556	191270
279.615	181549
279.675	68265
279.734	37807
279.793	36092
279.853	39990
279.912	20700
279.971	15279
280.031	14871
280.090	17514
280.149	27026
280.208	41266
280.268	136679
280.327	156682
280.386	51632
280.445	26458
280.505	17824
280.564	14265
280.623	11137
280.682	9550
280.742	11120
280.801	7569
280.860	6991
280.919	5831
280.978	6403
281.037	6280
281.097	5494
281.156	7484
281.215	5540
281.274	6136
281.333	9094
281.392	7809
281.451	4634
281.510	5046
281.569	5028
281.628	5243
281.688	4595
281.747	5068
281.806	4271
281.865	4936
281.924	3248
281.983	3621
282.042	3550
282.101	3827
282.160	3810
282.219	3770
282.278	3895
282.337	5546
282.396	4602
282.454	4142
282.513	4721
282.572	6747
282.631	5995
282.690	4118
282.749	3315
282.808	4045
282.867	4172
282.926	4542
282.985	4996
283.043	4369
283.102	5777
283.161	5088
283.220	6277
283.279	9153
283.338	6683
283.396	5156
283.455	6672
283.514	6469
283.573	6819
283.631	6069
283.690	6703
283.749	6204
283.808	7510
283.866	8894
283.925	7336
283.984	9108
284.043	8215
284.101	9603
284.160	9353
284.219	11610
284.277	11942
284.336	13098
284.395	16520
284.453	18711
284.512	16705
284.570	19089
284.629	22672
284.688	27208
284.746	34294
284.805	39569
284.863	50360
284.922	63344
284.981	74375
285.039	93650
285.098	115582
285.156	118918
285.215	78959
285.273	70175
285.332	116646
285.390	122890
285.449	100178
285.507	79542
285.566	62156
285.624	49270
285.683	39959
285.741	34014
285.799	28152
285.858	24736
285.916	20946
285.975	17776
286.033	16244
286.091	14038
286.150	12379
286.208	11529
286.267	10301
286.325	10155
286.383	10359
286.442	9768
286.500	8600
286.558	8718
286.616	6955
286.675	7484
286.733	7164
286.791	6417
286.850	6689
286.908	6277
286.966	6816
287.024	6359
287.083	5473
287.141	4988
287.199	5461
287.257	6081
287.315	5489
287.374	5361
287.432	6066
287.490	5506
287.548	4606
287.606	5069
287.664	4747
287.723	3988
287.781	5202
287.839	5292
287.897	4988
287.955	5953
288.013	6871
288.071	13057
288.129	38000
288.187	117136
288.245	54180
288.303	17371
288.361	11421
288.419	8549
288.477	7219
288.535	5459
288.593	5388
288.651	4393
288.709	3382
288.767	3810
288.825	2770
288.883	3376
288.941	3606
288.999	3587
289.057	3490
289.115	3304
289.173	3695
289.231	3254
289.289	2826
289.346	2382
289.404	4134
289.462	3408
289.520	3122
289.578	3510
289.636	2414
289.694	3568
289.751	2881
289.809	2735
289.867	3264
289.925	3605
289.983	3018
290.040	2795
290.098	2332
290.156	3521
290.214	2369
290.271	2590
290.329	3991
290.387	2733
290.444	3363
290.502	2255
290.560	2313
290.617	2182
290.675	2693
290.733	2615
290.790	3091
290.848	2983
290.906	2865
290.963	2923
291.021	2118
291.078	2862
291.136	3567
291.194	3915
291.251	6332
291.309	4228
291.366	2562
291.424	3376
291.481	2851
291.539	4465
291.596	5571
291.654	3183
291.711	2980
291.769	2859
291.826	3287
291.884	3682
291.941	3075
291.999	2891
292.056	1982
292.114	2473
292.171	1937
292.228	3695
292.286	3910
292.343	2594
292.401	3669
292.458	2950
292.515	2927
292.573	3630
292.630	2604
292.687	2431
292.745	2942
292.802	2702
292.859	6112
292.917	8847
292.974	4844
293.031	3879
293.089	2877
293.146	2699
293.203	2611
293.260	2919
293.318	1923
293.375	3573
293.432	2333
293.489	4334
293.546	3562
293.604	3966
293.661	9111
293.718	17227
293.775	9648
293.832	7800
293.889	10629
293.947	8473
294.004	4667
294.061	3899
294.118	5254
294.175	9754
294.232	17765
294.289	11626
294.346	6043
294.403	4834
294.460	3825
294.517	3795
294.574	3167
294.631	2999
294.688	2973
294.745	5062
294.802	12880
294.859	14206
294.916	6310
294.973	3654
295.030	2543
295.087	2828
295.144	2913
295.201	2964
295.258	2676
295.315	3281
295.372	4812
295.429	9572
295.486	5269
295.542	3377
295.599	6628
295.656	11796
295.713	6386
295.770	8863
295.827	4366
295.883	3235
295.940	2935
295.997	2294
296.054	2598
296.111	3152
296.167	2501
296.224	2563
296.281	1692
296.338	1641
296.394	1668
296.451	2822
296.508	3791
296.564	7123
296.621	6665
296.678	9361
296.734	14049
296.791	6928
296.848	4073
296.904	3678
296.961	6114
297.018	9020
297.074	8415
297.131	3656
297.187	3323
297.244	5341
297.301	9344
297.357	18640
297.414	7192
297.470	4342
297.527	3593
297.583	3093
297.640	2798
297.696	2797
297.753	2737
297.809	1704
297.866	2776
297.922	3207
297.979	1829
298.035	2276
298.092	2891
298.148	6002
298.204	6135
298.261	3788
298.317	4334
298.374	12451
298.430	8596
298.486	4097
298.543	3263
298.599	3650
298.656	3558
298.712	4871
298.768	9348
298.824	8672
298.881	3369
298.937	3355
298.993	3419
299.050	3491
299.106	2766
299.162	2419
299.218	3088
299.275	3071
299.331	3923
299.387	5308
299.443	14172
299.500	28850
299.556	21723
299.612	9811
299.668	8923
299.724	19860
299.780	27731
299.837	11445
299.893	8852
299.949	18851
300.005	29635
300.061	22407
300.117	35859
300.173	18400
300.229	7636
300.285	5631
300.341	6450
300.397	5077
300.453	3792
300.510	4220
300.566	5415
300.622	10067
300.678	31062
300.734	43952
300.790	22064
300.845	19342
300.901	20838
300.957	30928
301.013	16651
301.069	7795
301.125	5543
301.181	4881
301.237	4601
301.293	2708
301.349	3597
301.405	2394
301.461	1908
301.516	3755
301.572	2605
301.628	3404
301.684	3596
301.740	4069
301.796	5887
301.851	4948
301.907	5557
301.963	6498
302.019	10100
302.074	26111
302.130	29033
302.186	14701
302.242	6704
302.297	4020
302.353	4850
302.409	6115
302.464	5469
302.520	4510
302.576	9637
302.631	11242
302.687	6063
302.743	3613
302.798	2904
302.854	2191
302.910	2586
302.965	3515
303.021	4382
303.076	3865
303.132	3721
303.187	4246
303.243	3765
303.299	2979
303.354	2806
303.410	3446
303.465	2606
303.521	2212
303.576	2786
303.632	3096
303.687	4710
303.743	10329
303.798	9869
303.853	5034
303.909	3014
303.964	2325
304.020	2571
304.075	4575
304.130	3064
304.186	4762
304.241	5574
304.297	4352
304.352	3145
304.358	3064
304.407	2403
304.449	2637
304.463	2717
304.518	2617
304.539	2742
304.573	2924
304.629	2381
304.630	2410
304.684	3906
304.720	6807
304.739	8189
304.794	12510
304.811	11008
304.850	7250
304.902	4523
304.905	4361
304.960	3497
304.992	3375
305.015	3292
305.071	3528
305.083	3320
305.126	2567
305.173	3112
305.181	3197
305.236	2387
305.264	2272
305.292	2203
305.347	3108
305.354	3173
305.402	3703
305.445	3422
305.457	3282
305.512	3918
305.535	3616
305.567	3312
305.622	3867
305.626	3950
305.678	6529
305.716	9914
305.733	10795
305.788	13457
305.807	12052
305.843	10163
305.897	12475
305.898	12483
305.953	12914
305.988	8885
306.008	6831
306.063	4876
306.078	4390
306.118	3507
306.168	3179
306.173	3152
306.228	2900
306.259	2917
306.283	3066
306.338	3372
306.349	3356
306.393	3169
306.440	3485
306.448	3554
306.503	4481
306.530	4438
306.558	4996
306.613	7106
306.620	7440
306.668	9594
306.711	11625
306.723	11485
306.778	9737
306.801	7985
306.833	6553
306.888	4627
306.892	4551
306.943	3949
306.982	3818
306.997	3924
307.052	4285
307.072	4374
307.107	4505
307.162	5178
307.163	5178
307.217	6638
307.253	7664
307.272	7727
307.327	7407
307.343	7302
307.381	7365
307.434	7427
307.436	7558
307.491	10286
307.524	12889
307.546	13020
307.600	12227
307.614	11362
307.655	8816
307.704	6808
307.710	6889
307.765	8196
307.795	9105
307.819	10200
307.874	14640
307.885	14925
307.929	13566
307.975	12348
307.984	12991
308.038	19048
308.065	22349
308.093	40069
308.148	81787
308.156	89973
308.202	129523
308.246	162060
308.257	155646
308.312	79728
308.336	49616
308.366	37127
308.421	23921
308.426	22804
308.475	19213
308.517	17838
308.530	17721
308.585	16961
308.607	16783
308.639	17405
308.694	19096
308.697	19163
308.748	24568
308.787	29399
308.803	29491
308.857	27607
308.877	26693
308.912	28773
308.967	34033
308.967	34056
309.021	53736
309.058	68775
309.076	80026
309.130	118637
309.148	130460
309.185	190582
309.238	284122
309.239	285409
309.293	322725
309.328	325465
309.348	293854
309.402	183494
309.418	153331
309.457	123713
309.508	91506
309.511	92139
309.566	108243
309.598	120542
309.620	149827
309.674	230165
309.688	251213
309.729	244532
309.778	216582
309.783	211436
309.837	139146
309.868	100029
309.892	88110
309.946	64042
309.959	59188
310.001	52842
310.049	45444
310.055	44230
310.109	32881
310.139	26596
310.163	23830
310.218	18462
310.229	17422
310.272	16109
310.319	14726
310.326	14456
310.381	12517
310.409	11548
310.435	11364
310.489	10860
310.499	10798
310.543	10524
310.589	9895
310.598	9893
310.652	10260
310.679	10235
310.706	10018
310.760	9532
310.769	9458
310.814	9331
310.859	9043
310.868	9028
310.923	8830
310.948	8742
310.977	8750
311.031	8695
311.038	8666
311.085	8447
311.128	8135
311.139	8238
311.193	8783
311.218	8889
311.247	8374
311.301	7587
311.308	7441
311.356	7863
311.398	8399
311.410	8332
311.464	7761
311.488	7517
311.518	7551
311.572	7458
311.578	7439
311.626	7944
311.668	8265
311.680	8362
311.734	8716
311.758	8845
311.788	8548
311.842	7946
311.847	7863
311.896	9353
311.937	10575
311.950	10325
312.004	9098
312.027	8526
312.058	8254
312.112	7741
312.117	7668
312.165	7595
312.207	7496
312.297	9380
312.386	8057
312.476	8290
312.566	9156
312.656	8751
312.745	7544
312.835	8460
312.925	7533
313.015	9331
313.104	9392
313.194	9124
313.284	8781
313.374	10007
313.463	9757
313.553	9911
313.643	10250
313.732	10996
313.822	10557
313.912	12022
314.001	13042
314.091	14154
314.180	13847
314.270	14015
314.360	13809
314.449	13691
314.539	12579
314.628	12809
314.718	13447
314.808	15355
314.897	13901
314.987	16794
315.076	16453
315.166	16566
315.255	15501
315.345	15590
315.434	15780
315.524	16567
315.613	19456
315.703	27320
315.792	72571
315.881	265385
315.971	84111
316.060	25684
316.150	21576
316.239	20490
316.328	14596
316.418	15091
316.507	15229
316.597	18737
316.686	18393
316.775	18761
316.865	21899
316.954	15590
317.043	13175
317.133	12908
317.222	12276
317.311	11346
317.400	10623
317.490	14245
317.579	16947
317.668	23461
317.757	39267
317.847	119118
317.936	381680
318.025	116574
318.114	105038
318.203	45750
318.293	19833
318.382	26970
318.471	26850
318.560	28968
318.649	42793
318.738	16711
318.828	12751
318.917	10760
319.006	12119
319.095	19090
319.184	45291
319.273	22904
319.362	12802
319.451	9968
319.540	9348
319.629	12727
319.718	14471
319.807	13546
319.896	18666
319.985	55862
320.074	20849
320.163	12003
320.252	13906
320.341	14429
320.430	13831
320.519	14150
320.608	13772
320.697	16468
320.786	16966
320.875	19958
320.964	21729
321.053	24306
321.142	26292
321.230	29854
321.319	29889
321.408	39074
321.497	32231
321.586	27522
321.675	28038
321.764	27191
321.852	23994
321.941	27892
322.030	26270
322.119	29748
322.207	39131
322.296	41717
322.385	39199
322.474	42553
322.562	48848
322.651	36188
322.740	28771
322.829	29277
322.917	28990
323.006	21757
323.095	19769
323.183	18220
323.272	19950
323.361	25595
323.449	55140
323.538	24170
323.626	38389
323.715	26829
323.804	16041
323.892	33769
323.981	20406
324.069	14269
324.158	23202
324.246	21730
324.335	12866
324.424	12949
324.512	10808
324.601	11488
324.689	12793
324.778	16960
324.866	15971
324.954	9939
325.043	9725
325.131	12725
325.220	17056
325.308	17785
325.397	13733
325.485	12433
325.574	8795
325.662	9404
325.750	8918
325.839	9657
325.927	8472
326.015	10219
326.104	11294
326.192	12201
326.280	8878
326.369	8606
326.457	8441
326.545	10841
326.634	8221
326.722	9561
326.810	9114
326.898	11729
326.987	11454
327.075	12417
327.163	12200
327.251	11469
327.340	11587
327.428	17296
327.516	17113
327.604	13924
327.692	10860
327.781	10315
327.869	10893
327.957	9044
328.045	8070
328.133	7938
328.221	6954
328.309	8121
328.397	8381
328.485	10414
328.574	15958
328.662	26981
328.750	18074
328.838	11849
328.926	9518
329.014	8906
329.102	9094
329.190	12906
329.278	10029
329.366	8895
329.454	6477
329.542	8322
329.630	6849
329.718	8171
329.806	7090
329.893	8169
329.981	6842
330.069	9400
330.157	11067
330.245	16660
330.333	11618
330.421	8225
330.509	8558
330.597	15761
330.684	11909
330.772	10144
330.860	9970
330.948	12427
331.036	8284
331.123	7569
331.211	8228
331.299	9712
331.387	11868
331.475	15368
331.562	9553
331.650	8753
331.738	8511
331.825	9627
331.913	7726
332.001	8925
332.089	8675
332.176	12349
332.264	18895
332.352	15869
332.439	9733
332.527	10062
332.614	9245
332.702	10999
332.790	11418
332.877	18689
332.965	45839
333.052	37766
333.140	41190
333.228	109707
333.315	33024
333.403	16333
333.490	24592
333.578	48308
333.665	155924
333.753	66193
333.840	19472
333.928	18517
334.015	23305
334.103	35144
334.190	71383
334.278	43265
334.365	47307
334.452	44700
334.540	32747
334.627	35993
334.715	43987
334.802	66007
334.889	131949
334.977	145307
335.064	71752
335.151	40613
335.239	29153
335.326	28936
335.413	46972
335.501	53889
335.588	28870
335.675	30276
335.762	37763
335.850	52232
335.937	73273
336.024	117097
336.111	195741
336.199	141381
336.286	67218
336.373	40076
336.460	27185
336.547	23621
336.635	19846
336.722	17837
336.809	15691
336.896	16905
336.983	24896
337.070	44495
337.157	64681
337.245	46505
337.332	34156
337.419	15345
337.506	14007
337.593	14835
337.680	20343
337.767	37937
337.854	15578
337.941	17065
338.028	17330
338.115	12153
338.202	14890
338.289	19246
338.376	39843
338.463	18380
338.550	25471
338.637	25915
338.724	14259
338.811	15934
338.898	10170
338.984	10109
339.071	9625
339.158	10198
339.245	12022
339.332	11259
339.419	13033
339.506	13416
339.593	8365
339.679	10019
339.766	9068
339.853	9785
339.940	10428
340.027	9298
340.113	8526
340.200	9475
340.287	8601
340.374	8469
340.460	9726
340.547	7779
340.634	9986
340.720	17054
340.807	10906
340.894	9435
340.980	8412
341.067	9159
341.154	10100
341.240	9283
341.327	10672
341.414	9849
341.500	7865
341.587	10129
341.674	8943
341.760	10197
341.847	10042
341.933	8895
342.020	7540
342.106	8708
342.193	8972
342.279	10446
342.366	8142
342.452	10411
342.539	9170
342.625	11155
342.712	16228
342.798	10262
342.885	8199
342.971	7812
343.058	7852
343.144	7510
343.230	8416
343.317	8492
343.403	7085
343.490	7934
343.576	6955
343.662	9123
343.749	7466
343.835	9627
343.921	12754
344.008	44055
344.094	84444
344.180	21327
344.267	11355
344.353	23044
344.439	22067
344.525	12876
344.612	12964
344.698	13147
344.784	9209
344.870	9093
344.957	8063
345.043	9372
345.129	7389
345.215	9921
345.301	8266
345.387	7393
345.474	7270
345.560	8851
345.646	7313
345.732	8803
345.818	8468
345.904	8246
345.990	8216
346.076	9236
346.162	9117
346.249	9045
346.335	7527
346.421	8386
346.507	14785
346.593	32915
346.679	11234
346.765	12054
346.851	16771
346.937	13572
347.023	10359
347.108	9221
347.194	7913
347.280	10579
347.366	13474
347.452	36514
347.538	63313
347.624	34992
347.710	22526
347.796	12042
347.882	9700
347.967	9675
348.053	9408
348.139	9724
348.225	8130
348.311	9066
348.397	8795
348.482	11293
348.568	11573
348.654	16626
348.740	43257
348.825	49213
348.911	23292
348.997	27579
349.083	38946
349.168	12329
349.254	8790
349.340	9616
349.425	9053
349.511	10669
349.597	9653
349.682	11398
349.768	20901
349.854	13850
349.939	8949
350.025	9843
350.110	8928
350.196	8933
350.282	8280
350.367	9234
350.453	10884
350.538	10136
350.624	8521
350.709	9277
350.795	7849
350.880	7851
350.966	8810
351.051	9810
351.137	9786
351.222	9747
351.308	11627
351.393	17216
351.479	9704
351.564	8310
351.649	8589
351.735	9030
351.820	7470
351.906	9035
351.991	9761
352.076	14873
352.162	16622
352.247	9127
352.332	8378
352.418	9395
352.503	10128
352.588	22238
352.673	17076
352.759	9795
352.844	8614
352.929	9188
353.014	8622
353.100	9630
353.185	9500
353.270	10777
353.355	10022
353.441	9516
353.526	8940
353.611	10121
353.696	10779
353.781	10457
353.866	8070
353.952	10130
354.037	9810
354.122	14939
354.207	12768
354.292	11316
354.377	9036
354.462	9687
354.547	8388
354.632	9472
354.717	10035
354.802	10511
354.887	8536
354.972	10061
355.057	8181
355.142	8356
355.227	9357
355.312	10341
355.397	12140
355.482	18596
355.567	12354
355.652	12820
355.737	12554
355.822	24746
355.907	19586
355.991	11560
356.076	8401
356.161	10441
356.246	9012
356.331	10006
356.416	13451
356.501	47953
356.585	43061
356.670	12752
356.755	12285
356.840	14129
356.924	35679
357.009	97793
357.094	35831
357.179	13797
357.263	10469
357.348	12068
357.433	11724
357.517	11251
357.602	11131
357.687	10939
357.771	13405
357.856	21169
357.941	17782
358.025	32708
358.110	108665
358.195	47980
358.279	14987
358.364	15826
358.448	21344
358.533	37952
358.617	28483
358.702	29121
358.787	15972
358.871	13997
358.956	12965
359.040	11423
359.125	9955
359.209	10866
359.294	15812
359.378	25633
359.462	18606
359.547	12458
359.631	10265
359.716	8945
359.800	9356
359.885	11402
359.969	9141
360.053	11443
360.138	9572
360.222	10958
360.306	11475
360.391	12160
360.475	15776
360.559	20032
360.644	18269
360.728	16327
360.812	31447
360.896	66546
360.981	26297
361.065	17026
361.149	12558
361.233	13405
361.318	11001
361.402	13431
361.486	12945
361.570	12558
361.654	13803
361.739	19356
361.823	50249
361.907	71432
361.991	24919
362.075	24900
362.159	35407
362.243	61319
362.327	130753
362.411	166636
362.495	71496
362.580	38220
362.664	36156
362.748	43248
362.832	67467
362.916	135778
363.000	323315
363.084	407837
363.168	203420
363.252	66302
363.336	39143
363.420	33786
363.503	57921
363.587	57292
363.671	26318
363.755	24394
363.839	29486
363.923	29550
364.007	39282
364.091	54689
364.175	90948
364.258	214296
364.342	399412
364.426	575984
364.510	303319
364.594	107459
364.677	59842
364.761	79869
364.845	55002
364.929	26999
365.013	21155
365.096	20038
365.180	19903
365.264	30385
365.347	72478
365.431	34276
365.515	15333
365.598	12672
365.682	14727
365.766	14633
365.849	16061
365.933	13940
366.017	15707
366.100	14271
366.184	12494
366.267	13871
366.351	12744
366.435	12984
366.518	11591
366.602	11781
366.685	12058
366.769	12922
366.852	15167
366.936	16543
367.019	13431
367.103	13441
367.186	16843
367.270	13082
367.353	12325
367.436	16011
367.520	14118
367.603	15899
367.687	14848
367.770	16300
367.853	15585
367.937	24863
368.020	28799
368.104	14645
368.187	14572
368.270	15629
368.353	13597
368.437	18496
368.520	28155
368.603	19162
368.687	21883
368.770	29488
368.853	14636
368.936	15181
369.020	14535
369.103	11892
369.186	9867
369.269	10481
369.352	12941
369.436	13115
369.519	11698
369.602	9839
369.685	12223
369.768	10810
369.851	12198
369.934	10769
370.018	12178
370.101	12657
370.184	14921
370.267	14861
370.350	16035
370.433	21366
370.516	61526
370.599	153464
370.682	67935
370.765	28569
370.848	28708
370.931	40817
371.014	24991
371.097	14555
371.180	14884
371.263	14525
371.346	13830
371.429	16307
371.511	14843
371.594	16721
371.677	19846
371.760	24045
371.843	23445
371.926	55504
372.009	96629
372.091	47370
372.174	35753
372.257	53920
372.340	31972
372.423	31788
372.505	31438
372.588	22846
372.671	25421
372.754	43441
372.836	29167
372.919	31642
373.002	43996
373.085	25379
373.167	22920
373.250	28492
373.332	46069
373.415	69574
373.498	125270
373.580	75285
373.663	219669
373.746	208791
373.828	42673
373.911	24326
373.993	21700
374.076	44048
374.159	38201
374.241	23994
374.324	35959
374.406	28819
374.489	44824
374.571	94534
374.654	40550
374.736	30782
374.819	64044
374.901	92771
374.983	90961
375.066	27963
375.148	21535
375.231	42777
375.313	59389
375.395	29655
375.478	20522
375.560	19528
375.643	20135
375.725	31726
375.807	81246
375.890	62106
375.972	29144
376.054	22779
376.136	28668
376.219	19563
376.301	31187
376.383	61544
376.465	28554
376.548	19669
376.630	23895
376.712	50436
376.794	26102
376.877	12948
376.959	11307
377.041	13729
377.123	15449
377.205	16455
377.287	11334
377.369	13556
377.452	12779
377.534	13169
377.616	12687
377.698	12730
377.780	12071
377.862	12808
377.944	14101
378.026	11186
378.108	13691
378.190	12145
378.272	13126
378.354	12657
378.436	11920
378.518	14409
378.600	19802
378.682	18252
378.764	24640
378.846	21718
378.928	14204
379.010	14697
379.091	14020
379.173	13554
379.255	12353
379.337	13482
379.419	19130
379.501	33234
379.583	19955
379.664	14548
379.746	15464
379.828	27898
379.910	29880
379.991	28899
380.073	15187
380.155	15937
380.237	13590
380.318	14792
380.400	14466
380.482	17975
380.564	18672
380.645	19925
380.727	17695
380.809	17902
380.890	16461
380.972	17007
381.053	17885
381.135	19695
381.217	20539
381.298	31994
381.380	22824
381.461	26363
381.543	59873
381.624	65152
381.706	28433
381.787	26486
381.869	28072
381.951	47036
382.032	107816
382.113	71860
382.195	35118
382.276	39476
382.358	47551
382.439	76614
382.521	93437
382.602	133863
382.684	112213
382.765	199161
382.846	472756
382.928	863877
383.009	537797
383.090	491776
383.172	1012818
383.253	1107103
383.334	495388
383.416	262653
383.497	196943
383.578	237896
383.659	436173
383.741	948762
383.822	1316331
383.903	835539
383.984	341579
384.066	205575
384.147	124492
384.228	80583
384.309	66640
384.390	61453
384.471	53682
384.553	48577
384.634	47316
384.715	46009
384.796	42975
384.877	46909
384.958	57186
385.039	54531
385.120	39441
385.201	35782
385.282	37575
385.363	46745
385.444	56773
385.525	55736
385.606	67902
385.687	58055
385.768	38326
385.849	38761
385.930	68342
386.011	91755
386.092	45280
386.173	34014
386.254	28828
386.335	28960
386.416	26728
386.496	32534
386.577	36733
386.658	29236
386.739	27094
386.820	29675
386.901	29483
386.981	31665
387.062	36515
387.143	40233
387.224	46592
387.304	44976
387.385	38406
387.466	36639
387.547	39851
387.627	39000
387.708	42452
387.789	62854
387.869	65454
387.950	41221
388.031	32888
388.111	32091
388.192	40587
388.273	47619
388.353	38330
388.434	22793
388.514	25451
388.595	55019
388.676	55420
388.756	30246
388.837	27663
388.917	23371
388.998	16682
389.078	19644
389.159	18650
389.239	17920
389.320	20224
389.400	16453
389.480	23808
389.561	33450
389.641	24753
389.722	19672
389.802	19029
389.883	23790
389.963	36847
390.043	27948
390.124	18038
390.204	21275
390.284	30601
390.365	26016
390.445	37402
390.525	81000
390.605	64895
390.686	25240
390.766	21077
390.846	21032
390.927	19186
391.007	17829
391.087	20395
391.167	21362
391.247	18827
391.328	23643
391.408	25117
391.488	24443
391.568	22246
391.648	24722
391.728	26074
391.808	28780
391.888	28837
391.969	35307
392.049	42028
392.129	38453
392.209	42164
392.289	57482
392.369	49668
392.449	53399
392.529	54402
392.609	58896
392.689	70525
392.769	94525
392.849	108994
392.929	135407
393.009	196223
393.089	277931
393.169	483880
393.248	972031
393.328	1454910
393.408	1390414
393.488	892830
393.568	440683
393.648	242078
393.728	157938
393.807	110793
393.887	88363
393.967	71698
394.047	60443
394.127	54328
394.206	58598
394.286	107547
394.366	359137
394.446	349713
394.525	91998
394.605	43473
394.685	38643
394.764	47951
394.844	79512
394.924	82548
395.003	40861
395.083	29080
395.163	27711
395.242	27456
395.322	27356
395.402	25605
395.481	32393
395.561	45353
395.640	108670
395.720	169777
395.799	113571
395.879	67018
395.958	57771
396.038	136651
396.117	455732
396.197	456992
396.276	147926
396.356	86403
396.435	95727
396.515	118380
396.594	183530
396.673	364900
396.753	852145
396.832	1322441
396.912	1056946
396.991	469646
397.070	213065
397.150	122665
397.229	99902
397.308	152536
397.388	242296
397.467	119845
397.546	52073
397.625	37499
397.705	36271
397.784	30295
397.863	28151
397.942	25790
398.022	24674
398.101	30726
398.180	49874
398.259	31095
398.338	22214
398.417	18580
398.497	17786
398.576	17798
398.655	15959
398.734	15842
398.813	16297
398.892	25870
398.971	49719
399.050	27176
399.129	15088
399.208	13740
399.287	14892
399.366	12196
399.445	13283
399.524	12391
399.603	11261
399.682	13506
399.761	20690
399.840	51154
399.919	39071
399.998	13134
400.077	10277
400.156	9323
400.235	13004
400.313	10295
400.392	10586
400.471	16755
400.550	20416
400.629	10804
400.708	11102
400.786	10216
400.865	14719
400.944	12600
401.023	11535
401.102	8505
401.180	9320
401.259	8384
401.338	10600
401.416	9592
401.495	7872
401.574	9220
401.652	8872
401.731	9573
401.810	8358
401.888	8557
401.967	7579
402.046	8107
402.124	10012
402.203	7912
402.281	9678
402.360	8555
402.438	14976
402.517	10715
402.596	8662
402.674	7977
402.753	7636
402.831	7741
402.910	10165
402.988	13580
403.066	28954
403.145	18697
403.223	15195
403.302	24023
403.380	21091
403.459	19596
403.537	14527
403.615	11174
403.694	9635
403.772	10888
403.850	10808
403.929	9224
404.007	9374
404.085	11510
404.164	10665
404.242	10992
404.320	22780
404.398	51008
404.477	45676
404.555	67772
404.633	57863
404.711	39217
404.789	25036
404.868	10833
404.946	9198
405.024	8166
405.102	8771
405.180	6034
405.258	6755
405.336	7822
405.415	7652
405.493	10190
405.571	9549
405.649	6632
405.727	8489
405.805	11877
405.883	11864
405.961	10575
406.039	10061
406.117	8042
406.195	9835
406.273	16849
406.351	45346
406.429	26714
406.507	10525
406.585	6441
406.663	7664
406.740	7675
406.818	6907
406.896	6181
406.974	8122
407.052	8664
407.130	28391
407.208	33380
407.285	11918
407.363	7049
407.441	7894
407.519	6795
407.596	8033
407.674	12757
407.752	29987
407.830	24855
407.907	11313
407.985	7075
408.063	7199
408.141	7100
408.218	9385
408.296	7506
408.373	8719
408.451	9227
408.529	9923
408.606	9152
408.684	10496
408.762	10294
408.839	10055
408.917	10551
408.994	12969
409.072	13959
409.149	18655
409.227	29002
409.304	40433
409.382	45942
409.459	53607
409.537	64113
409.614	60941
409.692	50485
409.769	50189
409.846	65596
409.924	78511
410.001	61394
410.079	46248
410.156	33979
410.233	27702
410.311	21408
410.388	19220
410.465	18664
410.543	16370
410.620	15100
410.697	15332
410.775	14799
410.852	14195
410.929	15734
411.006	16235
411.083	13832
411.161	15096
411.238	15171
411.315	13202
411.392	12185
411.469	12691
411.547	12022
411.624	9585
411.701	9192
411.778	10415
411.855	10145
411.932	8823
412.009	8119
412.086	9428
412.163	8855
412.240	8933
412.317	9269
412.394	9299
412.471	7956
412.548	8318
412.625	7893
412.702	7805
412.779	8632
412.856	9293
412.933	6279
413.010	7525
413.087	8410
413.164	12577
413.241	14237
413.318	7597
413.395	7582
413.471	8566
413.548	7647
413.625	7726
413.702	6193
413.779	7590
413.855	6095
413.932	5877
414.009	4850
414.086	5953
414.162	5846
414.239	7666
414.316	12569
414.393	20294
414.469	8653
414.546	6143
414.623	5029
414.699	6086
414.776	6398
414.853	6737
414.929	6957
415.006	7138
415.082	6916
415.159	6818
415.236	6035
415.312	6501
415.389	6790
415.465	6368
415.542	5806
415.618	6407
415.695	6533
415.771	6025
415.848	5796
415.924	6323
416.000	5589
416.077	7617
416.153	4726
416.230	6275
416.306	5688
416.383	6294
416.459	6714
416.535	6321
416.612	6708
416.688	8253
416.764	8648
416.841	8874
416.917	8004
416.993	8404
417.069	7853
417.146	8070
417.222	7224
417.298	7414
417.374	4916
417.451	7102
417.527	5682
417.603	6391
417.679	6123
417.755	6372
417.831	5434
417.908	6707
417.984	6572
418.060	5467
418.136	7350
418.212	6300
418.288	5169
418.364	7004
418.440	4240
418.516	7003
418.592	7038
418.668	8957
418.744	8278
418.820	8225
418.896	6269
418.972	5780
419.048	5891
419.124	8847
419.200	6225
419.276	6598
419.352	6324
419.428	7185
419.504	6578
419.579	7739
419.655	7675
419.731	8332
419.807	9634
419.883	11503
419.959	9843
420.034	9409
420.110	9993
420.186	16747
420.262	14193
420.337	10702
420.413	10602
420.489	11242
420.565	11821
420.640	11909
420.716	13279
420.792	11761
420.867	13974
420.943	14048
421.019	15100
421.094	15925
421.170	16503
421.245	18100
421.321	18883
421.397	21633
421.472	26282
421.548	35129
421.623	31748
421.699	32118
421.774	34449
421.850	39209
421.925	46689
422.001	54504
422.076	65980
422.152	84172
422.227	111526
422.302	154186
422.378	224518
422.453	360189
422.529	543990
422.604	588018
422.679	456946
422.755	603120
422.830	544786
422.905	353763
422.981	234297
423.056	165049
423.131	123253
423.207	92661
423.282	73708
423.357	63159
423.432	51539
423.508	46222
423.583	41374
423.658	36572
423.733	32146
423.808	30750
423.883	30391
423.959	33439
424.034	37427
424.109	34926
424.184	25635
424.259	21739
424.334	19332
424.409	16573
424.484	14719
424.559	14844
424.634	13580
424.709	13998
424.784	12661
424.859	12571
424.934	11624
425.009	15989
425.084	18703
425.159	11591
425.234	10668
425.309	8940
425.384	10819
425.459	12917
425.534	9290
425.609	9190
425.683	7742
425.758	7856
425.833	7665
425.908	9465
425.983	10025
426.058	16075
426.132	10771
426.207	8603
426.282	9394
426.357	7456
426.431	7562
426.506	7346
426.581	6619
426.655	7177
426.730	5427
426.805	6000
426.879	6594
426.954	6308
427.029	7385
427.103	17584
427.178	33825
427.253	15864
427.327	7036
427.402	8737
427.476	10588
427.551	8426
427.625	7058
427.700	7789
427.774	5575
427.849	7969
427.923	7506
427.998	8966
428.072	10974
428.147	24791
428.221	104874
428.296	273442
428.370	136956
428.444	26060
428.519	13604
428.593	14536
428.667	14046
428.742	18541
428.816	43482
428.890	181332
428.965	238003
429.039	63207
429.113	20033
429.188	10943
429.262	8310
429.336	10126
429.410	10812
429.485	10844
429.559	12118
429.633	12726
429.707	14666
429.781	40010
429.855	176885
429.930	218367
430.004	69770
430.078	65105
430.152	136539
430.226	367715
430.300	319669
430.374	78806
430.448	27893
430.522	27665
430.596	47403
430.670	69224
430.744	228600
430.818	215865
430.892	42674
430.966	12362
431.040	7550
431.114	6973
431.188	6091
431.262	6389
431.336	5345
431.410	9527
431.484	12028
431.557	10578
431.631	9569
431.705	20999
431.779	84929
431.853	261240
431.927	156277
432.000	27720
432.074	9601
432.148	6833
432.222	4622
432.295	4340
432.369	4360
432.443	5361
432.516	16651
432.590	33241
432.664	12488
432.737	4194
432.811	2188
432.885	3280
432.958	3591
433.032	2857
433.106	3026
433.179	3212
433.253	3011
433.326	2846
433.400	2828
433.473	3682
433.547	2163
433.620	4274
433.694	3458
433.767	4143
433.841	3197
433.914	3614
433.988	3736
434.061	4118
434.134	4262
434.208	4926
434.281	2788
434.355	3772
434.428	3580
434.501	4359
434.575	3356
434.648	3828
434.721	3497
434.795	4472
434.868	3909
434.941	5495
435.014	6213
435.088	8088
435.161	10796
435.234	15555
435.307	16931
435.381	17625
435.454	22086
435.527	31987
435.600	33516
435.673	29060
435.746	22341
435.819	17825
435.892	13287
435.966	10549
436.039	8633
436.112	7838
436.185	5853
436.258	5435
436.331	4525
436.404	5489
436.477	3262
436.550	4467
436.623	4600
436.696	4252
436.769	3398
436.842	3643
436.915	3300
436.987	4072
437.060	3086
437.133	3815
437.206	3178
437.279	4127
437.352	3113
437.425	3468
437.498	3804
437.570	3241
437.643	2209
437.716	3004
437.789	1739
437.861	3275
437.934	3854
438.007	3685
438.080	3186
438.152	3281
438.225	5370
438.298	23045
438.370	51420
438.443	18048
438.516	4915
438.588	3919
438.661	2366
438.734	3530
438.806	3107
438.879	3440
438.951	2981
439.024	3017
439.096	2626
439.169	2649
439.241	2150
439.314	2781
439.386	2105
439.459	3695
439.531	3283
439.604	3429
439.676	2488
439.749	2490
439.821	2566
439.893	3390
439.966	2124
440.038	3141
440.110	2917
440.183	3390
440.255	3003
440.327	4338
440.400	9523
440.472	27791
440.544	14534
440.617	4185
440.689	4137
440.761	4541
440.833	4246
440.905	4376
440.978	2707
441.050	3728
441.122	2655
441.194	3497
441.266	3620
441.338	3672
441.411	4718
441.483	10187
441.555	11203
441.627	4864
441.699	5310
441.771	5063
441.843	4553
441.915	5048
441.987	4990
442.059	6357
442.131	6997
442.203	10047
442.275	13143
442.347	23522
442.419	56566
442.491	226596
442.563	390889
442.635	146841
442.706	38708
442.778	20319
442.850	12423
442.922	10934
442.994	11344
443.066	13686
443.137	16472
443.209	22387
443.281	37004
443.353	83067
443.425	260560
443.496	600039
443.568	579482
443.640	232339
443.711	59804
443.783	27822
443.855	16947
443.926	12368
443.998	10648
444.070	10164
444.141	8336
444.213	8556
444.285	8333
444.356	8685
444.428	7809
444.499	8281
444.571	6894
444.642	8848
444.714	9099
444.785	9950
444.857	11225
444.928	14706
445.000	13868
445.071	19958
445.143	24822
445.214	35936
445.285	63590
445.357	159735
445.428	438045
445.500	654099
445.571	543695
445.642	343116
445.714	118377
445.785	46305
445.856	22604
445.928	16286
445.999	12054
446.070	9837
446.141	8564
446.213	8044
446.284	5729
446.355	6793
446.426	4496
446.497	5264
446.569	5065
446.640	5698
446.711	4711
446.782	3455
446.853	4809
446.924	3948
446.995	2572
447.066	4102
447.138	3953
447.209	3194
447.280	1405
447.351	2859
447.422	2013
447.493	2286
447.564	1822
447.635	2808
447.706	1713
447.777	2437
447.847	1261
447.918	1636
447.989	2327
448.060	3104
448.131	4411
448.202	3353
448.273	2504
448.344	2041
448.414	1940
448.485	2128
448.556	2066
448.627	1130
448.698	2362
448.768	1917
448.839	918
448.910	2825
448.981	2398
449.051	2934
449.122	1060
449.193	2316
449.263	1698
449.334	1666
449.405	1578
449.475	3604
449.546	2569
449.616	4292
449.687	3600
449.758	2185
449.828	1229
449.899	1813
449.969	976
450.040	2213
450.110	1718
450.181	2205
450.251	1089
450.322	2242
450.392	1717
450.463	2510
450.533	1174
450.604	2537
450.674	1626
450.744	3719
450.815	2625
450.885	4083
450.955	3595
451.026	4659
451.096	3062
451.166	3713
451.237	5763
451.307	9905
451.377	4522
451.447	3636
451.518	2828
451.588	2897
451.658	2406
451.728	2878
451.799	6131
451.869	6991
451.939	2089
452.009	2462
452.079	1169
452.149	2675
452.219	3115
452.289	8244
452.360	5025
452.430	4678
452.500	5765
452.570	11593
452.640	26522
452.710	59705
452.780	60335
452.850	32224
452.920	15554
452.990	8914
453.060	6384
453.129	4714
453.199	4523
453.269	11271
453.339	15387
453.409	19540
453.479	24222
453.549	31668
453.619	28799
453.688	8807
453.758	2508
453.828	2420
453.898	2279
453.968	1920
454.037	1876
454.087	2041
454.107	2092
454.168	1231
454.177	1080
454.247	2118
454.249	2090
454.316	872
454.330	1127
454.386	2031
454.411	2547
454.456	3229
454.492	3995
454.525	4683
454.574	2792
454.595	1955
454.655	1755
454.665	1706
454.734	2297
454.736	2361
454.804	3599
454.817	4217
454.873	6542
454.898	6470
454.943	6142
454.979	4017
455.013	2086
455.060	2264
455.082	2438
455.141	2847
455.152	2880
455.221	6457
455.222	6525
455.291	8826
455.303	9333
455.360	10898
455.384	14580
455.430	20143
455.465	14222
455.499	8744
455.546	6653
455.569	5715
455.627	4349
455.638	4089
455.707	2329
455.708	2350
455.777	2592
455.789	2426
455.846	1442
455.869	1782
455.916	2419
455.950	2478
455.985	2495
456.031	2392
456.054	2271
456.112	2322
456.124	2360
456.193	2946
456.193	2922
456.262	3095
456.274	3276
456.332	3937
456.355	3504
456.401	2541
456.436	2788
456.470	3099
456.516	2882
456.540	2670
456.597	3174
456.609	3274
456.678	3475
456.678	3451
456.747	3577
456.759	3335
456.817	2416
456.840	2927
456.886	3583
456.920	3787
456.955	4326
457.001	4625
457.024	4681
457.082	5395
457.093	5415
457.162	6614
457.163	6641
457.232	5171
457.243	5167
457.301	5533
457.324	5465
457.370	5318
457.405	5441
457.439	5770
457.485	6621
457.508	7009
457.566	8881
457.577	9605
457.646	13727
457.647	13847
457.715	34839
457.727	39536
457.784	71117
457.808	95368
457.853	125772
457.889	141445
457.922	134148
457.969	84780
457.991	84065
458.050	110492
458.060	115731
458.129	203792
458.130	206048
458.198	199863
458.211	179959
458.267	89662
458.292	60026
458.336	40230
458.372	37704
458.405	53595
458.453	83748
458.474	108548
458.533	202240
458.543	209511
458.611	322015
458.614	322951
458.680	182986
458.694	143852
458.749	60382
458.775	40753
458.818	25615
458.855	19624
458.887	16347
458.936	13203
458.955	12217
459.016	10127
459.024	9927
459.093	9775
459.097	9731
459.162	8347
459.177	8219
459.230	8168
459.257	7983
459.299	7509
459.338	7551
459.368	7617
459.418	7149
459.437	6842
459.499	6791
459.505	6804
459.574	5958
459.579	6012
459.643	6613
459.659	6455
459.711	6300
459.740	6597
459.780	6460
459.820	6053
459.849	6098
459.900	6717
459.917	6752
459.981	6248
459.986	6189
460.054	5781
460.061	5789
460.123	6137
460.141	6281
460.191	6759
460.222	6576
460.260	6215
460.302	6200
460.328	6305
460.382	6556
460.397	6555
460.462	6876
460.465	6934
460.534	8754
460.543	8895
460.602	17527
460.623	21196
460.671	30084
460.703	38805
460.739	37370
460.783	29350
460.808	23880
460.864	8422
460.876	7343
460.944	6375
460.945	6354
461.013	6350
461.024	6193
461.081	5596
461.104	5685
461.150	6200
461.184	6314
461.218	6327
461.264	6510
461.286	6493
461.345	6488
461.355	6483
461.423	6336
461.425	6329
461.491	6088
461.505	6185
461.559	7592
461.585	7958
461.628	9662
461.665	11949
461.696	12449
461.745	13182
461.764	12239
461.825	6960
461.832	6841
461.901	6758
461.905	6806
461.969	6353
461.985	6164
462.037	7179
462.065	7879
462.105	7680
462.145	7067
462.173	7376
462.225	8663
462.241	9060
462.305	10537
462.310	10444
462.378	8864
462.385	8571
462.446	7759
462.465	7687
462.514	7632
462.545	7476
462.582	7015
462.625	6789
462.650	6813
462.705	6647
462.718	6617
462.785	6648
462.786	6668
462.854	7294
462.865	7480
462.922	8283
462.945	8496
462.990	7978
463.025	7523
463.058	7299
463.104	6870
463.126	6654
463.184	6452
463.194	6588
463.262	7016
463.264	7044
463.330	7415
463.344	7410
463.398	8121
463.424	8464
463.466	7331
463.504	6359
463.533	6761
463.583	7592
463.601	7697
463.663	7557
463.669	7571
463.737	7864
463.743	7889
463.805	10241
463.823	10972
463.873	12201
463.903	12896
463.940	13477
463.982	14292
464.008	12679
464.062	8323
464.076	8111
464.142	7557
464.144	7562
464.211	7370
464.221	7378
464.279	7555
464.301	7555
464.347	7836
464.381	8237
464.414	8239
464.461	7906
464.482	7967
464.540	8398
464.550	8405
464.617	7862
464.620	7854
464.685	8794
464.699	8868
464.753	9036
464.779	9289
464.820	9891
464.859	10228
464.888	9661
464.938	8725
464.956	9080
465.018	10289
465.023	10247
465.091	9400
465.098	9325
465.158	9203
465.177	9111
465.226	9283
465.257	9332
465.293	9071
465.336	8861
465.361	9133
465.416	9536
465.428	9767
465.495	11167
465.496	11202
465.563	13651
465.575	14156
465.631	16252
465.654	17130
465.698	13031
465.734	9250
465.765	8809
465.813	8231
465.833	8476
465.893	9467
465.900	9430
465.968	8758
465.972	8697
466.035	8742
466.052	8752
466.102	9528
466.131	9948
466.170	9383
466.210	8721
466.237	8913
466.290	9241
466.304	9184
466.369	8824
466.372	8868
466.439	9703
466.449	9799
466.506	10004
466.528	10068
466.573	11288
466.607	12157
466.641	15022
466.687	19000
466.708	19844
466.766	22099
466.775	20895
466.842	11448
466.845	10978
466.909	10600
466.925	10518
466.977	10735
467.004	10828
467.044	11082
467.083	11286
467.111	11863
467.163	12899
467.178	13063
467.242	13620
467.245	13652
467.312	13803
467.321	13799
467.379	13404
467.400	13218
467.446	13511
467.480	13677
467.559	13581
467.638	12567
467.717	13496
467.796	13635
467.875	15038
467.955	15475
468.034	19740
468.113	29319
468.192	39759
468.271	31450
468.350	41187
468.429	57873
468.508	62240
468.588	39783
468.667	24425
468.746	19491
468.825	16944
468.904	14958
468.983	15037
469.062	16490
469.141	17930
469.220	12841
469.299	12731
469.378	12835
469.456	16200
469.535	14635
469.614	13652
469.693	13872
469.772	15914
469.851	18234
469.930	16539
470.009	17673
470.088	21499
470.166	32619
470.245	62793
470.324	84557
470.403	57201
470.482	31522
470.560	21906
470.639	17482
470.718	16461
470.797	14825
470.875	14433
470.954	14101
471.033	15356
471.111	12052
471.190	11916
471.269	11885
471.347	11944
471.426	12815
471.505	11732
471.583	12811
471.662	13104
471.740	12220
471.819	12452
471.898	11645
471.976	12071
472.055	12315
472.133	12433
472.212	13596
472.290	13458
472.369	11420
472.447	11790
472.526	10434
472.604	12208
472.683	11899
472.761	12062
472.839	11566
472.918	13450
472.996	13084
473.075	13293
473.153	12992
473.231	12808
473.310	12712
473.388	13088
473.466	12131
473.545	13714
473.623	13044
473.701	13676
473.780	12628
473.858	11425
473.936	14618
474.014	12946
474.093	13412
474.171	16023
474.249	16425
474.327	14481
474.405	11968
474.484	12741
474.562	12251
474.640	12276
474.718	12335
474.796	12784
474.874	12377
474.952	11229
475.030	11586
475.108	11483
475.187	11128
475.265	12121
475.343	12949
475.421	13912
475.499	11255
475.577	11982
475.655	12873
475.733	16083
475.811	21630
475.889	20338
475.966	16782
476.044	11424
476.122	11464
476.200	12661
476.278	11461
476.356	11339
476.434	11597
476.512	12234
476.590	13562
476.667	12391
476.745	11623
476.823	11967
476.901	11408
476.979	11900
477.056	11833
477.134	11573
477.212	11529
477.290	11106
477.367	9886
477.445	10549
477.523	10353
477.601	10748
477.678	11608
477.756	12039
477.834	12135
477.911	10630
477.989	11150
478.066	11448
478.144	11545
478.222	11354
478.299	11858
478.377	13017
478.454	10464
478.532	10812
478.609	11540
478.687	11190
478.764	10521
478.842	11592
478.919	10982
478.997	10868
479.074	10148
479.152	11289
479.229	12080
479.307	10317
479.384	10210
479.461	11217
479.539	10814
479.616	11649
479.694	10624
479.771	11962
479.848	11512
479.926	11245
480.003	13047
480.080	11531
480.157	11165
480.235	12111
480.312	11542
480.389	12227
480.467	14404
480.544	15987
480.621	15017
480.698	14726
480.775	14305
480.853	13966
480.930	13315
481.007	11566
481.084	12968
481.161	13646
481.238	12858
481.315	12054
481.392	12050
481.470	13169
481.547	12950
481.624	13538
481.701	13054
481.778	13976
481.855	14721
481.932	18277
482.009	21508
482.086	20097
482.163	19434
482.240	23254
482.317	24513
482.393	21643
482.470	19221
482.547	17506
482.624	17958
482.701	16788
482.778	15579
482.855	16204
482.932	16273
483.009	17497
483.085	19769
483.162	22112
483.239	24021
483.316	24817
483.393	24628
483.469	21309
483.546	18736
483.623	18070
483.699	14963
483.776	14253
483.853	14322
483.930	15609
484.006	21487
484.083	31120
484.160	24060
484.236	30226
484.313	25502
484.389	23930
484.466	25996
484.543	29003
484.619	37542
484.696	40749
484.772	30640
484.849	23682
484.925	21153
485.002	20233
485.078	19925
485.155	17969
485.231	17482
485.308	17193
485.384	17337
485.461	18534
485.537	22181
485.614	24111
485.690	18245
485.766	16925
485.843	16612
485.919	17890
485.995	17953
486.072	16847
486.148	16081
486.224	15538
486.301	16741
486.377	17276
486.453	16210
486.530	17503
486.606	21275
486.682	21978
486.758	22802
486.835	24003
486.911	22300
486.987	28877
487.063	29357
487.139	32277
487.215	30523
487.292	31761
487.368	36418
487.444	47037
487.520	63962
487.596	93446
487.672	210115
487.748	684212
487.824	1083966
487.900	416502
487.976	110383
488.052	57686
488.128	41201
488.204	30289
488.280	27336
488.356	25137
488.432	29540
488.508	34485
488.584	22017
488.660	18266
488.736	17943
488.812	17464
488.888	17949
488.964	19337
489.039	23856
489.115	30123
489.191	24002
489.267	16831
489.343	17601
489.418	15507
489.494	16195
489.570	14740
489.646	17222
489.722	16111
489.797	16224
489.873	20779
489.949	26345
490.024	26025
490.100	16900
490.176	16208
490.251	17469
490.327	18427
490.403	15665
490.478	16024
490.554	15556
490.629	14865
490.705	14311
490.781	15455
490.856	14208
490.932	15228
491.007	14549
491.083	14604
491.158	14521
491.234	16062
491.309	22492
491.385	22705
491.460	14127
491.536	15308
491.611	13289
491.686	14072
491.762	14638
491.837	18324
491.913	24021
491.988	28450
492.063	32844
492.139	19078
492.214	16170
492.289	14151
492.365	13300
492.440	14170
492.515	14022
492.590	14692
492.666	13181
492.741	15415
492.816	16676
492.891	14276
492.967	14679
493.042	13839
493.117	13864
493.192	15355
493.267	19441
493.342	43590
493.418	58413
493.493	19152
493.568	14032
493.643	12985
493.718	14013
493.793	14632
493.868	16125
493.943	14176
494.018	14509
494.093	13679
494.168	13792
494.243	14031
494.318	13824
494.393	13158
494.468	13055
494.543	13852
494.618	14223
494.693	14782
494.768	14857
494.842	14775
494.917	14503
494.992	14343
495.067	14269
495.142	14660
495.217	14847
495.292	14263
495.366	13274
495.441	14731
495.516	17071
495.591	17062
495.665	28074
495.740	50753
495.815	28637
495.890	16451
495.964	13568
496.039	18347
496.114	17123
496.188	18549
496.263	17640
496.338	15506
496.412	14828
496.487	16753
496.561	16468
496.636	16009
496.710	16165
496.785	15698
496.860	16615
496.934	16239
497.009	15909
497.083	15977
497.158	15493
497.232	17631
497.307	19812
497.381	20467
497.455	20848
497.530	19032
497.604	17354
497.679	16095
497.753	19427
497.827	20038
497.902	19154
497.976	23028
498.050	39428
498.125	138484
498.199	147389
498.273	27894
498.348	20377
498.422	20615
498.496	22697
498.570	26007
498.645	17234
498.719	13587
498.793	16321
498.867	19437
498.941	24098
499.016	57855
499.090	142688
499.164	64131
499.238	17902
499.312	17076
499.386	18626
499.460	20007
499.534	23276
499.609	27662
499.683	25917
499.757	18717
499.831	26754
499.905	90051
499.979	91756
500.053	20775
500.127	20738
500.201	17245
500.275	17600
500.349	17981
500.422	19823
500.496	22996
500.570	31828
500.644	67319
500.718	108282
500.792	32522
500.866	13740
500.940	14765
501.013	13734
501.087	12590
501.161	15801
501.235	17779
501.309	32245
501.382	75224
501.456	72343
501.530	21169
501.603	26458
501.677	17186
501.751	9708
501.825	13884
501.898	15992
501.972	33698
502.046	25395
502.119	12817
502.193	18200
502.266	34539
502.340	22609
502.413	19707
502.487	31816
502.561	21616
502.634	13465
502.708	12423
502.781	11421
502.855	12816
502.928	11432
503.002	11088
503.075	9981
503.149	11741
503.222	12177
503.295	12690
503.369	14586
503.442	17085
503.516	30851
503.589	61655
503.662	49998
503.736	32456
503.809	51631
503.882	59787
503.956	86653
504.029	150574
504.102	383958
504.175	592862
504.249	260397
504.322	93328
504.395	47826
504.468	32314
504.542	23968
504.615	18344
504.688	16370
504.761	13454
504.834	14826
504.907	13574
504.980	13312
505.053	12035
505.127	8866
505.200	13476
505.273	11122
505.346	10562
505.419	9175
505.492	11184
505.565	9054
505.638	9842
505.711	8080
505.784	7538
505.857	8292
505.930	10261
506.003	7365
506.076	11070
506.149	9629
506.221	9925
506.294	10865
506.367	14043
506.440	39619
506.513	27059
506.586	11025
506.659	8008
506.731	8465
506.804	7759
506.877	9424
506.950	9133
507.022	9866
507.095	7699
507.168	9621
507.241	9366
507.313	7393
507.386	6991
507.459	9453
507.531	8164
507.604	7366
507.677	9361
507.749	6421
507.822	8703
507.894	9690
507.967	14043
508.040	9543
508.112	10515
508.185	9867
508.257	7960
508.330	11473
508.402	9185
508.475	8899
508.547	10319
508.620	9310
508.692	11496
508.765	10031
508.837	8625
508.909	8671
508.982	8503
509.054	9032
509.127	8996
509.199	8344
509.271	7679
509.344	8440
509.416	8700
509.488	8464
509.560	9673
509.633	9029
509.705	10082
509.777	9829
509.849	11970
509.922	8619
509.994	10089
510.066	10780
510.138	9301
510.210	14326
510.283	12710
510.355	11033
510.427	11198
510.499	10184
510.571	9817
510.643	8596
510.715	11202
510.787	9070
510.859	11100
510.931	10579
511.003	11045
511.076	11612
511.148	9520
511.219	10300
511.291	12875
511.363	14517
511.435	10062
511.507	9060
511.579	10449
511.651	11023
511.723	8709
511.795	9776
511.867	9299
511.939	10163
512.010	12235
512.082	13053
512.154	8987
512.226	9957
512.298	12995
512.369	13670
512.441	13005
512.513	11888
512.585	10080
512.656	11577
512.728	10726
512.800	9988
512.871	10764
512.943	10662
513.015	9981
513.086	10322
513.158	10079
513.230	8942
513.301	10780
513.373	12556
513.444	10617
513.516	10213
513.588	10546
513.659	10935
513.731	10789
513.802	9307
513.874	14917
513.945	14806
514.016	10935
514.088	11286
514.159	9927
514.231	12289
514.302	13621
514.374	12603
514.445	11208
514.516	16409
514.588	13806
514.659	11395
514.730	13070
514.802	14178
514.873	9425
514.944	12854
515.016	11484
515.087	11884
515.158	12533
515.229	15715
515.301	11045
515.372	12610
515.443	11375
515.514	11684
515.585	10567
515.656	13396
515.728	13710
515.799	12265
515.870	15036
515.941	14977
516.012	15026
516.083	19727
516.154	21096
516.225	28024
516.296	32702
516.367	37901
516.438	48681
516.509	63685
516.580	95853
516.651	341396
516.722	1190370
516.793	551212
516.864	102254
516.935	84222
517.006	100567
517.077	129454
517.148	280984
517.219	1252390
517.289	1841984
517.360	416845
517.431	107309
517.502	53188
517.573	43562
517.643	38864
517.714	38724
517.785	43759
517.856	49690
517.926	65218
517.997	82336
518.068	109448
518.138	150249
518.209	241412
518.280	828816
518.350	2322945
518.421	1224093
518.492	252123
518.562	135008
518.633	125363
518.703	153321
518.774	300938
518.845	760100
518.915	754842
518.986	247116
519.056	100288
519.127	64924
519.197	55116
519.268	65921
519.338	51844
519.408	26261
519.479	23565
519.549	19976
519.620	19213
519.690	16780
519.760	15147
519.831	16281
519.901	14072
519.971	14036
520.042	13620
520.112	13285
520.182	13721
520.253	14027
520.323	13673
520.393	12470
520.463	17654
520.534	11879
520.604	18369
520.674	14865
520.744	12995
520.814	17982
520.885	18493
520.955	20218
521.025	54417
521.095	29303
521.165	11989
521.235	11156
521.305	10226
521.375	11385
521.445	11363
521.515	11292
521.585	12824
521.655	10470
521.725	11590
521.795	12262
521.865	9049
521.935	14122
522.005	11636
522.075	10867
522.145	11352
522.215	10620
522.285	11909
522.355	13712
522.424	19441
522.494	17972
522.564	12814
522.634	15025
522.704	27840
522.774	16296
522.843	10772
522.913	10853
522.983	11454
523.053	11121
523.122	12104
523.192	11190
523.262	17785
523.331	17995
523.401	12240
523.471	9913
523.540	11753
523.610	9815
523.680	12379
523.749	11973
523.819	12633
523.888	12067
523.958	11332
524.027	12290
524.097	11999
524.166	12323
524.236	11365
524.305	14061
524.375	10976
524.444	10326
524.514	14809
524.583	12436
524.653	11522
524.722	14491
524.791	11889
524.861	14980
524.930	12377
524.999	12533
525.069	14631
525.138	14392
525.207	14563
525.277	16531
525.346	15779
525.415	18803
525.484	20684
525.554	24066
525.623	29143
525.692	36718
525.761	46466
525.830	61539
525.900	82654
525.969	126540
526.038	236081
526.107	479419
526.176	1396437
526.245	1175777
526.314	349932
526.383	676691
526.452	967739
526.522	1274723
526.591	1250104
526.660	248284
526.729	130341
526.797	135245
526.867	181792
526.935	517015
527.004	1816677
527.073	1272566
527.142	209049
527.211	79549
527.280	48901
527.349	35523
527.418	25307
527.487	23693
527.555	19485
527.624	17660
527.693	15664
527.762	17261
527.831	15472
527.899	15439
527.968	14369
528.037	11494
528.106	14024
528.174	15208
528.243	14097
528.312	15476
528.380	15763
528.449	11697
528.518	13188
528.586	10005
528.655	12391
528.723	12406
528.792	10806
528.861	10767
528.929	10429
528.998	12069
529.066	11353
529.135	13588
529.203	12724
529.272	12957
529.340	16319
529.409	15306
529.477	13575
529.545	13759
529.614	16406
529.682	14226
529.751	17556
529.819	20573
529.887	19102
529.956	17079
530.024	18089
530.092	15479
530.161	16591
530.229	17055
530.297	15962
530.365	17791
530.434	17398
530.502	16922
530.570	17007
530.638	14688
530.707	16234
530.775	17483
530.843	15480
530.911	16491
530.979	16563
531.047	16973
531.115	17421
531.183	16334
531.252	15998
531.320	16202
531.388	15697
531.456	18054
531.524	16201
531.592	19126
531.660	20633
531.728	17541
531.796	17056
531.864	18161
531.932	17766
532.000	17115
532.067	18163
532.135	19691
532.203	21411
532.271	22253
532.339	26943
532.407	28966
532.475	26395
532.542	21986
532.610	21943
532.678	21416
532.746	34632
532.814	58152
532.881	30104
532.949	22029
533.017	21162
533.084	19684
533.152	19260
533.220	18861
533.287	19691
533.355	20523
533.423	20686
533.490	20754
533.558	20513
533.625	20778
533.693	21639
533.761	21345
533.828	22277
533.896	20882
533.963	27973
534.031	29360
534.098	32536
534.166	32290
534.233	30195
534.300	34700
534.368	35115
534.435	35026
534.503	37679
534.570	42763
534.637	47960
534.705	57194
534.772	66452
534.840	124734
534.907	584330
534.974	803674
535.041	119557
535.109	46781
535.176	33360
535.243	30365
535.310	29588
535.378	27720
535.445	27583
535.512	28700
535.579	26673
535.646	25442
535.714	27674
535.781	29725
535.848	30776
535.915	31530
535.982	31364
536.049	30603
536.116	29657
536.183	27860
536.250	26294
536.317	27479
536.384	27499
536.451	29147
536.518	28762
536.585	27996
536.652	30167
536.719	30635
536.786	27036
536.853	26899
536.920	29569
536.987	32155
537.053	28160
537.120	43976
537.187	43187
537.254	29817
537.321	29185
537.388	30945
537.454	28046
537.521	29320
537.588	27950
537.654	29125
537.721	31926
537.788	31507
537.855	28720
537.921	30272
537.988	28308
538.055	27632
538.121	25805
538.188	26084
538.254	25819
538.321	28671
538.388	27619
538.454	31716
538.521	31288
538.587	31174
538.654	30861
538.720	28236
538.787	29356
538.853	29711
538.920	29386
538.986	26292
539.053	25772
539.119	28098
539.185	26877
539.252	30826
539.318	30934
539.385	34583
539.451	30056
539.517	31261
539.583	31142
539.650	31365
539.716	39720
539.782	29733
539.849	25902
539.915	29214
539.981	28232
540.047	27772
540.114	26800
540.180	29665
540.246	29319
540.312	33217
540.378	33007
540.444	33935
540.510	35058
540.576	43137
540.643	31680
540.709	28079
540.775	28539
540.841	28115
540.907	28839
540.973	32194
541.039	29940
541.105	30734
541.171	31160
541.237	31906
541.303	32004
541.369	33043
541.435	32452
541.500	32259
541.566	28709
541.632	27464
541.698	27782
541.764	30966
541.830	27997
541.896	28247
541.961	29820
542.027	26451
542.093	30574
542.159	31652
542.224	29253
542.290	31264
542.356	30903
542.421	32154
542.487	28590
542.553	27688
542.618	28753
542.684	28393
542.750	29813
542.815	30664
542.881	30443
542.947	40684
543.012	38995
543.078	28623
543.143	27390
543.209	28334
543.274	27574
543.340	29238
543.405	31229
543.471	35815
543.536	31018
543.602	30477
543.667	28413
543.732	31281
543.798	29654
543.863	32178
543.928	30675
543.994	29836
544.059	31118
544.124	31518
544.190	32296
544.255	32636
544.320	32897
544.386	31636
544.451	34254
544.516	33245
544.581	32265
544.646	39160
544.712	45894
544.777	36289
544.842	34520
544.907	34390
544.972	34453
545.037	36085
545.102	36163
545.168	37646
545.233	37726
545.298	39334
545.363	38089
545.428	41171
545.493	42861
545.558	47690
545.623	42051
545.688	41055
545.753	41546
545.818	43193
545.883	46267
545.947	47351
546.012	48962
546.077	50943
546.142	53330
546.207	53413
546.272	56677
546.337	58701
546.401	60427
546.466	63660
546.531	64308
546.596	70416
546.661	72996
546.725	76608
546.790	79602
546.855	87952
546.919	95226
546.984	106682
547.049	114899
547.113	131365
547.178	144541
547.243	163257
547.307	190189
547.372	210964
547.436	211580
547.501	223803
547.565	240404
547.630	221522
547.695	211155
547.759	214178
547.823	215471
547.888	219430
547.952	226028
548.017	230944
548.081	237745
548.146	233725
548.210	242735
548.274	262285
548.339	258547
548.403	235713
548.468	222382
548.532	217994
548.596	222980
548.660	225245
548.725	240995
548.789	265594
548.853	258500
548.917	246361
548.982	240041
549.046	218293
549.110	195167
549.174	197597
549.238	231722
549.303	257124
549.367	265021
549.431	253970
549.495	235432
549.559	232610
549.623	269288
549.687	299539
549.751	289845
549.815	344311
549.879	352308
549.943	338090
550.007	350142
550.071	349352
550.135	315808
550.199	298809
550.263	296980
550.327	276183
550.391	280996
550.455	313414
550.519	330427
550.582	349437
550.646	398504
550.710	405988
550.774	399169
550.838	406841
550.901	418283
550.965	444038
551.029	465079
551.093	499200
551.156	551784
551.220	636308
551.284	691984
551.347	543606
551.411	458450
551.475	429537
551.538	433417
551.602	404084
551.666	379617
551.729	358132
551.793	345984
551.856	339869
551.920	332117
551.983	333334
552.047	326849
552.110	329956
552.174	329651
552.237	341564
552.301	318604
552.364	305474
552.428	296679
552.491	305986
552.554	316731
552.618	312294
552.681	324051
552.745	324575
552.808	383239
552.871	465892
552.934	387388
552.998	331719
553.061	311519
553.124	296228
553.187	291105
553.251	301915
553.314	299232
553.377	301755
553.440	321401
553.503	347278
553.567	365022
553.630	324806
553.693	318837
553.756	319340
553.819	311136
553.882	296235
553.945	295782
554.008	296676
554.071	302210
554.134	306185
554.197	288222
554.260	276012
554.323	281180
554.386	285623
554.449	300878
554.512	300843
554.575	288715
554.638	284059
554.701	280887
554.764	280877
554.827	267585
554.889	260511
554.952	244198
555.015	239448
555.078	244986
555.141	249141
555.203	242377
555.266	240239
555.329	238025
555.391	229553
555.454	229232
555.517	220398
555.580	212143
555.642	205445
555.705	200712
555.768	200314
555.830	196999
555.893	185388
555.955	179341
556.018	176072
556.080	177755
556.143	183105
556.206	182687
556.268	176047
556.330	173520
556.393	167182
556.455	164694
556.518	162436
556.580	157994
556.643	150032
556.705	146445
556.767	144983
556.830	141634
556.892	139988
556.955	140687
557.017	134160
557.079	134519
557.142	130622
557.204	130413
557.266	132493
557.328	126108
557.391	114776
557.453	111738
557.515	111815
557.577	115588
557.639	116783
557.701	115712
557.764	117526
557.826	121198
557.888	128411
557.950	132691
558.012	144133
558.074	180268
558.136	396606
558.198	966725
558.260	384798
558.322	147977
558.384	141597
558.446	148562
558.508	163334
558.570	184040
558.632	211707
558.694	261195
558.756	413622
558.818	1119972
558.880	2198997
558.942	1067195
559.003	1055430
559.065	550116
559.127	210543
559.189	189284
559.251	200488
559.312	269204
559.374	615660
559.436	1750551
559.498	983674
559.559	260787
559.621	196739
559.683	204568
559.744	315427
559.806	964267
559.868	1424564
559.929	375566
559.991	211712
560.052	323070
560.114	914733
560.176	615602
560.237	524540
560.299	872766
560.360	218757
560.422	84511
560.483	67319
560.545	60257
560.606	57553
560.667	53556
560.729	52311
560.790	48199
560.852	48949
560.913	45748
560.974	44114
561.036	44415
561.097	44319
561.158	43775
561.220	43479
561.281	41232
561.342	40526
561.403	40989
561.465	41138
561.526	44239
561.587	45069
561.648	38318
561.709	37752
561.771	37540
561.832	36068
561.893	36117
561.954	36045
562.015	35276
562.076	33601
562.137	34275
562.198	34430
562.259	34344
562.320	34680
562.381	34397
562.442	34200
562.503	33468
562.564	32989
562.625	32680
562.686	30974
562.747	31369
562.808	33315
562.869	30650
562.930	31417
562.991	30747
563.051	29238
563.112	29420
563.173	29629
563.234	29424
563.294	29870
563.355	28385
563.416	28379
563.477	28191
563.537	29345
563.598	27426
563.659	27748
563.720	27954
563.780	27447
563.841	28417
563.901	29001
563.962	27091
564.023	26787
564.083	27229
564.144	26588
564.204	26581
564.265	26389
564.325	26913
564.386	30727
564.446	29504
564.507	25421
564.567	24655
564.628	25915
564.688	25263
564.749	25272
564.809	26000
564.869	26347
564.930	25074
564.990	24868
565.050	24496
565.111	25132
565.171	24706
565.231	24498
565.292	26075
565.352	24485
565.412	24705
565.472	24430
565.532	24499
565.593	24361
565.653	23906
565.713	24761
565.773	25302
565.833	25247
565.893	27807
565.953	24196
566.013	23147
566.074	23536
566.134	23956
566.194	25343
566.254	25245
566.314	24147
566.374	23782
566.434	23317
566.494	22419
566.554	23201
566.614	24090
566.673	24612
566.733	25460
566.793	24838
566.853	24247
566.913	24945
566.973	24205
567.033	24875
567.092	24320
567.152	25110
567.212	24765
567.272	25025
567.331	25495
567.391	25544
567.451	27201
567.511	28467
567.570	27290
567.630	26176
567.690	24330
567.749	23883
567.809	23875
567.868	24682
567.928	24476
567.988	24506
568.047	25242
568.107	25959
568.166	25580
568.226	27258
568.285	27824
568.345	28303
568.404	27186
568.464	26008
568.523	26101
568.582	25762
568.642	26930
568.701	26572
568.761	26349
568.820	27611
568.879	27735
568.939	28306
568.998	27118
569.057	25042
569.116	25112
569.176	24805
569.235	24184
569.294	23264
569.353	23191
569.413	22712
569.472	22727
569.531	23379
569.590	22098
569.649	22870
569.708	22773
569.767	23437
569.827	22561
569.886	21983
569.945	23151
570.004	23228
570.063	23498
570.122	23708
570.181	24882
570.240	24806
570.299	23892
570.358	26146
570.417	24531
570.475	24888
570.534	24237
570.593	24455
570.652	25223
570.711	25597
570.770	24612
570.829	24783
570.887	25255
570.946	26534
571.005	26635
571.064	28422
571.122	33720
571.181	30445
571.240	26045
571.299	24358
571.357	24302
571.416	23244
571.475	24255
571.533	25425
571.592	26519
571.650	25765
571.709	26506
571.768	30049
571.826	32184
571.885	29497
571.943	26282
572.002	23961
572.060	23806
572.119	23367
572.177	24059
572.236	22911
572.294	23277
572.352	27474
572.411	24897
572.469	25445
572.528	23388
572.586	22013
572.644	22328
572.703	24134
572.761	22188
572.819	20810
572.877	21526
572.936	20687
572.994	21018
573.052	21125
573.110	22414
573.169	23804
573.227	22234
573.285	23504
573.343	22648
573.401	22184
573.459	23029
573.517	22634
573.576	24559
573.634	24360
573.692	23647
573.750	24131
573.808	22847
573.866	21919
573.924	21674
573.982	21907
574.040	22876
574.098	22859
574.155	21095
574.213	20358
574.271	22877
574.329	24702
574.387	22660
574.445	19741
574.503	19878
574.560	20625
574.618	19917
574.676	20999
574.734	19678
574.792	19513
574.849	18728
574.907	18230
574.965	17220
575.022	15991
575.080	16218
575.138	17711
575.195	16566
575.253	15661
575.311	15898
575.368	17220
575.426	16385
575.483	16593
575.541	17479
575.598	16412
575.656	17623
575.713	17893
575.771	19209
575.828	18504
575.886	16883
575.943	17730
576.001	14968
576.058	15263
576.115	16778
576.173	16799
576.230	17242
576.287	17150
576.345	18069
576.402	17414
576.459	18506
576.517	17166
576.574	15624
576.631	16285
576.688	15085
576.746	15128
576.803	14598
576.860	15088
576.917	15531
576.974	15663
577.031	15950
577.089	15100
577.146	14511
577.203	14400
577.260	14391
577.317	14835
577.374	14093
577.431	15100
577.488	14598
577.545	14179
577.602	14691
577.659	15211
577.716	15173
577.773	16540
577.830	15377
577.886	15546
577.943	14422
578.000	15065
578.057	14254
578.114	15730
578.171	18476
578.227	22420
578.284	20813
578.341	18200
578.398	16361
578.454	15827
578.511	16106
578.568	16331
578.625	14930
578.681	15474
578.738	14448
578.794	15479
578.851	14808
578.908	14072
578.964	14583
579.021	15248
579.077	14613
579.134	15254
579.190	14291
579.247	14583
579.303	14335
579.360	14151
579.416	14234
579.473	15487
579.529	13678
579.586	15919
579.642	14744
579.698	15451
579.755	15635
579.811	15903
579.867	15962
579.924	16133
579.980	16472
580.036	18860
580.093	20707
580.149	27757
580.205	30929
580.261	23735
580.317	20702
580.374	18632
580.430	19150
580.486	18115
580.542	16384
580.598	17061
580.619	16970
580.654	16828
580.692	16781
580.710	16783
580.765	16617
580.767	16625
580.823	17388
580.838	17537
580.879	17993
580.911	17952
580.935	17956
580.984	18291
580.991	18349
581.047	18268
581.057	18205
581.103	18039
581.130	18021
581.159	18013
581.203	19585
581.215	20012
581.270	18766
581.276	18677
581.326	17993
581.349	17434
581.382	16608
581.422	16157
581.438	15978
581.494	17468
581.494	17444
581.550	15647
581.567	15743
581.606	15982
581.640	16174
581.661	16316
581.713	17241
581.717	17329
581.773	17145
581.786	17103
581.829	16856
581.859	16866
581.885	16959
581.932	16905
581.940	16889
581.996	16968
582.004	17106
582.052	17886
582.077	17112
582.107	16283
582.150	16656
582.163	16730
582.219	16891
582.223	16817
582.274	16256
582.296	16522
582.330	16777
582.368	16566
582.386	16550
582.441	17500
582.441	17503
582.497	17818
582.514	17570
582.552	17258
582.587	17339
582.608	17299
582.659	17651
582.663	17686
582.719	18123
582.732	18068
582.774	17948
582.805	18044
582.830	18151
582.877	18720
582.885	18798
582.941	18488
582.950	18688
582.996	19678
583.023	20053
583.052	20792
583.095	22046
583.107	22348
583.162	24089
583.168	24259
583.218	25148
583.240	23688
583.273	21531
583.313	20471
583.328	20094
583.384	18917
583.385	18885
583.439	18137
583.458	18107
583.494	18169
583.531	18281
583.549	18300
583.603	17279
583.605	17249
583.660	18076
583.676	18024
583.715	17993
583.748	17990
583.770	17913
583.820	18524
583.825	18591
583.881	18509
583.893	18408
583.936	17938
583.965	17538
583.991	17328
584.038	18262
584.046	18401
584.101	18394
584.110	18359
584.156	18242
584.183	18655
584.211	19011
584.255	19235
584.266	19402
584.321	19182
584.328	19352
584.376	20401
584.400	20244
584.431	19828
584.472	19891
584.486	20103
584.541	21191
584.545	21220
584.596	21341
584.617	21473
584.651	22046
584.689	23326
584.706	23703
584.761	23535
584.762	23531
584.816	23575
584.834	24265
584.871	25958
584.906	26991
584.926	27470
584.978	28974
584.980	29067
585.035	31989
585.051	33134
585.090	36392
585.123	39427
585.145	41549
585.195	46909
585.200	47582
585.254	55781
585.267	58430
585.309	68068
585.340	75192
585.364	81292
585.412	94291
585.419	96702
585.473	118411
585.484	124457
585.528	164110
585.556	202396
585.583	283329
585.628	472217
585.637	540934
585.692	1116178
585.700	1209262
585.747	1498333
585.772	1326969
585.801	887359
585.845	346877
585.856	278129
585.910	131941
585.917	118083
585.965	84604
585.989	71942
586.019	62934
586.061	53581
586.074	51525
586.128	45571
586.133	45121
586.183	42060
586.205	41126
586.237	40443
586.277	39846
586.292	39693
586.346	38052
586.349	38003
586.401	38101
586.421	38112
586.455	37821
586.493	37611
586.509	38312
586.564	40072
586.565	40148
586.618	47087
586.637	48756
586.672	51686
586.709	57208
586.727	60345
586.781	68309
586.781	68340
586.835	52300
586.853	48245
586.889	42519
586.925	37975
586.944	37036
586.996	36264
586.998	36302
587.052	36179
587.068	36278
587.106	36613
587.140	36435
587.161	36143
587.212	36278
587.215	36370
587.269	36894
587.284	37094
587.323	37404
587.356	37867
587.377	38443
587.427	39475
587.431	39565
587.485	40384
587.499	40344
587.539	40448
587.571	41626
587.593	43045
587.643	45292
587.648	45375
587.702	45311
587.715	45306
587.755	46249
587.786	46489
587.810	46854
587.858	47882
587.864	47897
587.917	47777
587.930	47617
587.971	48342
588.001	49005
588.025	49357
588.073	49579
588.079	49702
588.133	50429
588.145	50662
588.187	51877
588.217	52429
588.241	53698
588.288	56861
588.295	57385
588.348	60668
588.360	61463
588.402	64273
588.431	65776
588.456	67842
588.503	72432
588.510	73316
588.564	80762
588.575	82286
588.617	89840
588.646	95012
588.671	101095
588.718	113674
588.725	117596
588.778	151794
588.789	160524
588.832	258120
588.861	334336
588.886	475181
588.932	777255
588.939	799197
588.993	916975
589.004	912016
589.047	542316
589.075	309182
589.100	234078
589.147	132140
589.154	128603
589.207	108113
589.218	104585
589.261	103912
589.290	103902
589.314	107581
589.361	117461
589.368	123354
589.421	175094
589.433	188304
589.475	337755
589.504	454933
589.528	581139
589.576	831740
589.582	805047
589.635	439772
589.647	362858
589.689	200729
589.718	105614
589.742	93795
589.790	74925
589.795	74264
589.849	68196
589.861	67013
589.902	65987
589.932	64663
589.955	62592
590.004	58360
590.009	58270
590.062	56719
590.075	56241
590.115	55582
590.146	55001
590.168	54964
590.218	54883
590.222	55033
590.275	55692
590.289	55804
590.328	56612
590.360	56984
590.381	57207
590.431	57501
590.435	57583
590.488	57598
590.503	57462
590.541	58313
590.574	59082
590.594	59834
590.645	61196
590.647	61360
590.700	63017
590.716	63401
590.753	64420
590.787	65410
590.806	65912
590.859	66803
590.859	66948
590.912	68844
590.930	69470
590.965	68998
591.001	68240
591.018	68385
591.071	68302
591.072	68182
591.124	67476
591.143	67138
591.177	68151
591.214	68996
591.230	69471
591.283	70738
591.285	70664
591.336	71131
591.356	71022
591.389	70830
591.427	70405
591.442	69982
591.495	68098
591.498	67834
591.547	68991
591.569	69431
591.600	70732
591.640	71977
591.653	72187
591.706	72544
591.711	72456
591.759	74839
591.782	75927
591.811	78063
591.853	80754
591.864	80636
591.917	79026
591.924	78662
591.969	79253
591.995	79334
592.022	80278
592.066	81575
592.075	82271
592.127	85493
592.137	85929
592.180	87371
592.208	88009
592.233	88509
592.279	88949
592.285	89328
592.338	91088
592.350	91290
592.390	90591
592.421	89826
592.443	91286
592.491	93897
592.495	94152
592.548	95129
592.562	95219
592.600	94773
592.633	94030
592.653	94293
592.704	93985
592.705	94584
592.775	97656
592.846	102033
592.916	100955
592.987	102062
593.058	104030
593.128	104267
593.199	105393
593.270	107544
593.341	108730
593.411	114245
593.482	116038
593.553	118467
593.623	120794
593.694	123519
593.764	124627
593.835	123034
593.906	122803
593.976	126514
594.047	128815
594.117	137251
594.188	139873
594.258	137473
594.329	136964
594.399	142753
594.470	145875
594.540	151038
594.611	153848
594.681	153902
594.751	153384
594.822	160308
594.892	166728
594.963	169668
595.033	174887
595.103	177845
595.174	180210
595.244	189197
595.314	196773
595.384	196324
595.455	200247
595.525	207041
595.595	215246
595.665	215474
595.736	209932
595.806	213286
595.876	217526
595.946	217922
596.016	228709
596.087	235332
596.157	233590
596.227	235849
596.297	250511
596.367	267538
596.437	282241
596.507	281932
596.577	282826
596.647	290945
596.717	302733
596.787	308662
596.857	306427
596.927	309818
596.997	310977
597.067	313094
597.137	319579
597.207	319989
597.277	323838
597.347	308086
597.417	299471
597.487	298648
597.557	307048
597.626	314976
597.696	321681
597.766	316062
597.836	300536
597.906	284360
597.975	277115
598.045	284509
598.115	298301
598.185	321132
598.254	359884
598.324	385898
598.394	391887
598.464	380351
598.533	373140
598.603	347581
598.672	336444
598.742	346084
598.812	347791
598.881	358525
598.951	354899
599.020	360954
599.090	375719
599.159	380479
599.229	360606
599.299	355802
599.368	368901
599.437	359483
599.507	331246
599.576	321321
599.646	314984
599.715	311007
599.785	308300
599.854	299951
599.924	294558
599.993	292775
600.062	299851
600.132	308082
600.201	331220
600.270	380678
600.340	401919
600.409	391791
600.478	391398
600.547	400829
600.617	355347
600.686	286354
600.755	260881
600.824	246991
600.894	241759
600.963	241371
601.032	236459
601.101	230982
601.170	220334
601.239	216061
601.308	213208
601.378	214725
601.447	213848
601.516	217375
601.585	218013
601.654	222774
601.723	224048
601.792	231365
601.861	240138
601.930	246873
601.999	250321
602.068	248792
602.137	252237
602.206	255064
602.275	259451
602.343	263208
602.412	267144
602.481	268478
602.550	272917
602.619	279459
602.688	281972
602.756	283480
602.825	285265
602.894	293309
602.963	300060
603.032	303909
603.100	304195
603.169	303988
603.238	311498
603.307	308134
603.375	312589
603.444	320953
603.513	321461
603.581	329266
603.650	335287
603.719	323961
603.787	332796
603.856	341399
603.924	349853
603.993	365581
604.061	377100
604.130	395707
604.198	401681
604.267	410789
604.335	415473
604.404	422775
604.472	428413
604.541	430706
604.609	435551
604.678	436056
604.746	441850
604.815	457283
604.883	459678
604.951	456683
605.020	468838
605.088	475201
605.156	483337
605.225	489614
605.293	489947
605.361	493210
605.429	499901
605.498	507859
605.566	522214
605.634	544412
605.702	564757
605.771	580551
605.839	580299
605.907	564294
605.975	547297
606.043	536665
606.111	536119
606.180	538383
606.248	529183
606.316	525996
606.384	526625
606.452	523485
606.520	534026
606.588	554569
606.656	558073
606.724	543542
606.792	509549
606.860	461975
606.928	424352
606.996	404770
607.064	398495
607.132	411045
607.200	437561
607.267	449851
607.335	462624
607.403	466731
607.471	448813
607.539	440160
607.607	437956
607.674	387444
607.742	389527
607.810	386931
607.878	387893
607.946	398384
608.013	414873
608.081	421856
608.149	425609
608.216	443030
608.284	451897
608.352	451822
608.419	449783
608.487	439823
608.555	432491
608.622	446529
608.690	478920
608.757	526202
608.825	529618
608.893	517122
608.960	484397
609.028	467932
609.095	466172
609.163	462133
609.230	410328
609.298	379985
609.365	405820
609.432	439319
609.500	479215
609.567	546429
609.635	620398
609.702	645629
609.769	610770
609.837	474051
609.904	421890
609.971	445196
610.039	493974
610.106	648604
610.173	1177002
610.241	2329143
610.308	1355892
610.375	572060
610.442	469638
610.509	439142
610.577	433967
610.644	442412
610.711	456129
610.778	464539
610.845	489932
610.912	515963
610.980	533019
611.047	536879
611.114	520588
611.181	507478
611.248	505342
611.315	535485
611.382	549136
611.449	566658
611.516	574384
611.583	566120
611.650	572243
611.717	580945
611.784	596257
611.851	623490
611.918	666450
611.984	779750
612.051	1050470
612.118	1842818
612.185	3241589
612.252	2360316
612.319	994865
612.386	792760
612.452	703331
612.519	662231
612.586	643984
612.653	652989
612.719	668324
612.786	643523
612.853	595795
612.919	585958
612.986	591138
613.053	555112
613.120	523058
613.186	508271
613.253	509454
613.319	509321
613.386	513328
613.453	520221
613.519	522929
613.586	513814
613.652	520405
613.719	511514
613.785	523736
613.852	528734
613.918	522044
613.985	531118
614.051	556535
614.118	560068
614.184	536036
614.250	526839
614.317	535189
614.383	527930
614.449	537146
614.516	534621
614.582	533819
614.648	525875
614.715	521249
614.781	509087
614.847	512322
614.914	506411
614.980	492463
615.046	494052
615.112	512659
615.179	511983
615.245	519195
615.311	512373
615.377	520559
615.443	531918
615.509	537634
615.575	558532
615.642	552893
615.708	569434
615.774	596018
615.840	641648
615.906	689586
615.972	834970
616.038	1202948
616.104	2182527
616.170	3483102
616.236	3051870
616.302	1425694
616.368	1100992
616.434	795295
616.500	718952
616.565	810137
616.631	1020652
616.697	839870
616.763	859204
616.829	1301277
616.895	2198629
616.961	2038608
617.026	954929
617.092	640808
617.158	577524
617.224	551459
617.289	503931
617.355	477977
617.421	472470
617.487	466125
617.552	442541
617.618	440594
617.684	440744
617.749	440868
617.815	422725
617.880	414618
617.946	413634
618.012	419976
618.077	428605
618.143	406199
618.208	413055
618.274	441528
618.339	436005
618.405	362867
618.470	362722
618.536	360498
618.601	355366
618.667	328697
618.732	312267
618.798	309174
618.863	309963
618.928	307827
618.994	310740
619.059	308059
619.124	311595
619.190	305534
619.255	302451
619.320	302311
619.386	307856
619.451	302836
619.516	290893
619.581	296492
619.647	307817
619.712	304834
619.777	289580
619.842	296655
619.907	299328
619.972	303334
620.038	300709
620.103	293402
620.168	292749
620.233	298729
620.298	298404
620.363	304215
620.428	312676
620.493	321237
620.558	325864
620.623	329331
620.688	326288
620.753	324737
620.818	331404
620.883	329558
620.948	330592
621.013	322841
621.078	317757
621.143	323002
621.207	324008
621.272	316863
621.337	307046
621.402	304439
621.467	303402
621.532	300803
621.596	303561
621.661	290023
621.726	289668
621.791	293445
621.855	292845
621.920	290728
621.985	297697
622.049	303752
622.114	303167
622.179	307070
622.243	317585
622.308	326075
622.373	337793
622.437	328972
622.502	310837
622.566	307041
622.631	306789
622.695	312855
622.760	309302
622.824	309690
622.889	310523
622.953	312726
623.018	333714
623.082	335762
623.147	331253
623.211	323619
623.276	320112
623.340	307449
623.404	301876
623.469	299122
623.533	303729
623.597	294522
623.662	293803
623.726	269741
623.790	252429
623.854	245632
623.919	252072
623.983	257647
624.047	260361
624.111	265557
624.176	267269
624.240	270588
624.304	279568
624.368	268331
624.432	271008
624.496	277020
624.560	294563
624.625	297568
624.689	292396
624.753	309841
624.817	290769
624.881	283943
624.945	254010
625.009	246161
625.073	254107
625.137	262515
625.201	276561
625.265	273780
625.329	260981
625.393	266869
625.456	269905
625.520	276422
625.584	282068
625.648	291842
625.712	304143
625.776	313139
625.839	296114
625.903	237703
625.967	220426
626.031	239427
626.095	290800
626.158	257527
626.222	199273
626.286	188374
626.349	176713
626.413	167307
626.477	165100
626.540	170392
626.604	169068
626.668	165026
626.731	163894
626.795	165559
626.858	164637
626.922	161572
626.986	158431
627.049	159788
627.113	168841
627.176	161252
627.240	157984
627.303	158291
627.366	158021
627.430	161566
627.493	158295
627.557	154758
627.620	159532
627.684	166655
627.747	167290
627.810	151989
627.874	139074
627.937	132168
628.000	138783
628.064	132597
628.127	119334
628.190	118652
628.253	114513
628.317	110079
628.380	104904
628.443	102218
628.506	102711
628.569	97826
628.632	92334
628.696	93247
628.759	91363
628.822	87623
628.885	85796
628.948	84806
629.011	84262
629.074	80661
629.137	78656
629.200	78042
629.263	77005
629.326	74935
629.389	77366
629.452	76424
629.515	74444
629.578	74108
629.641	76380
629.704	75854
629.767	74306
629.830	72184
629.892	73184
629.955	70613
630.018	73862
630.081	71113
630.144	72907
630.207	70102
630.269	72565
630.332	70264
630.395	70449
630.458	67434
630.520	63886
630.583	67307
630.646	67432
630.708	68854
630.771	69894
630.834	74152
630.896	71517
630.959	72607
631.021	71144
631.084	72511
631.146	72062
631.209	73609
631.272	74596
631.334	75904
631.397	76834
631.459	78650
631.522	84782
631.584	89095
631.646	97690
631.709	100074
631.771	101545
631.834	95682
631.896	88200
631.958	82331
632.021	79450
632.083	74557
632.145	72965
632.208	70639
632.270	70601
632.332	68890
632.395	67462
632.457	69427
632.519	66957
632.581	68004
632.643	66279
632.706	67493
632.768	64377
632.830	68337
632.892	69258
632.954	68784
633.016	71108
633.078	68349
633.141	69126
633.203	69307
633.265	68922
633.327	68203
633.389	69872
633.451	71266
633.513	71396
633.575	72976
633.637	72590
633.698	74894
633.760	78137
633.822	82285
633.884	85511
633.946	88595
634.008	92656
634.070	97937
634.132	107961
634.193	117971
634.255	130389
634.317	132628
634.379	127081
634.441	113368
634.502	100782
634.564	89760
634.626	82535
634.687	76080
634.749	73481
634.811	73039
634.873	70163
634.934	70697
634.996	70574
635.057	69663
635.119	72685
635.181	75046
635.242	75261
635.304	74201
635.365	76867
635.427	73757
635.488	74588
635.550	74814
635.611	77202
635.673	78876
635.734	86348
635.796	92076
635.857	103604
635.918	111096
635.980	126289
636.041	136875
636.102	146537
636.164	149319
636.225	140659
636.286	119551
636.348	104397
636.409	90503
636.470	81264
636.531	77519
636.593	74734
636.654	71011
636.715	66181
636.776	62911
636.838	61691
636.899	62060
636.960	58799
637.021	58397
637.082	56472
637.143	57239
637.204	54430
637.265	55389
637.326	55889
637.387	57308
637.448	56817
637.509	56579
637.570	55880
637.631	55097
637.692	51866
637.753	50891
637.814	51777
637.875	50347
637.936	50905
637.997	50704
638.058	48128
638.119	49750
638.179	49422
638.240	50416
638.301	50022
638.362	47509
638.423	46748
638.483	46763
638.544	45419
638.605	45054
638.666	45000
638.726	45937
638.787	45736
638.848	45957
638.908	44288
638.969	42091
639.030	42455
639.090	41798
639.151	43938
639.211	45638
639.272	45450
639.332	48090
639.393	49853
639.453	53470
639.514	56018
639.574	45783
639.635	42070
639.695	41420
639.756	39466
639.816	41392
639.877	41242
639.937	42903
639.997	43177
640.058	39763
640.118	40064
640.178	41856
640.239	40015
640.299	42378
640.359	42910
640.420	47619
640.480	56291
640.540	67486
640.600	66998
640.661	55821
640.721	52745
640.781	51391
640.841	43454
640.901	42341
640.961	43130
641.021	47055
641.082	52069
641.142	44819
641.202	40632
641.262	36712
641.322	39169
641.382	36560
641.442	38393
641.502	37840
641.562	39804
641.622	40151
641.682	46752
641.742	57565
641.802	49247
641.861	41561
641.921	37535
641.981	36391
642.041	35055
642.101	35064
642.161	34333
642.221	34089
642.280	35447
642.340	36452
642.400	36102
642.460	37544
642.519	37765
642.579	37892
642.639	38486
642.698	37805
642.758	41355
642.818	39634
642.877	38322
642.937	39021
642.997	39798
643.056	39140
643.116	36824
643.175	41640
643.235	41206
643.294	43353
643.354	46292
643.414	53114
643.473	61604
643.532	77829
643.592	107391
643.651	164818
643.711	282043
643.770	537764
643.830	1232807
643.889	1944655
643.948	606290
644.008	161503
644.067	95027
644.126	68715
644.186	58025
644.245	50455
644.304	44204
644.363	45787
644.423	41303
644.482	43633
644.541	46838
644.600	49310
644.659	65554
644.719	85351
644.778	130407
644.837	227706
644.896	478375
644.955	965453
645.014	293880
645.073	80446
645.132	58831
645.191	52495
645.250	48600
645.309	53071
645.368	60116
645.427	86628
645.486	166096
645.545	265605
645.604	70475
645.663	44207
645.722	44796
645.781	48702
645.840	56601
645.898	71710
645.957	101107
646.016	153584
646.075	270527
646.134	519069
646.192	1281918
646.251	1504123
646.310	328196
646.369	116744
646.427	91958
646.486	64656
646.545	50142
646.603	43613
646.662	39737
646.721	38717
646.779	39851
646.838	44870
646.896	58567
646.955	82832
647.014	137371
647.072	274462
647.131	706582
647.189	292143
647.248	53987
647.306	38428
647.365	34085
647.423	29613
647.481	30480
647.540	27853
647.598	29007
647.657	27733
647.715	28149
647.773	26101
647.832	27550
647.890	24234
647.948	24349
648.007	24294
648.065	22288
648.123	22592
648.181	23974
648.240	23942
648.298	22191
648.356	22612
648.414	23530
648.472	21479
648.531	22475
648.589	20265
648.647	21810
648.705	21583
648.763	22314
648.821	24217
648.879	26308
648.937	30494
648.995	39320
649.053	51651
649.111	78815
649.169	129122
649.227	233082
649.285	502155
649.343	1213160
649.401	530864
649.459	93544
649.516	53349
649.574	43367
649.632	50081
649.690	57164
649.748	66189
649.806	101549
649.863	195316
649.921	533099
649.979	301121
650.037	45333
650.094	26242
650.152	24447
650.210	20279
650.268	20339
650.325	19610
650.383	18021
650.440	15907
650.498	17031
650.556	16497
650.613	15764
650.671	17807
650.728	17605
650.786	20476
650.843	31919
650.901	21474
650.958	15101
651.016	14859
651.073	15392
651.131	13751
651.188	13528
651.246	13257
651.303	12503
651.360	13802
651.418	13718
651.475	14523
651.532	12793
651.590	13642
651.647	12092
651.704	12305
651.762	13525
651.819	12661
651.876	12581
651.933	12301
651.990	13482
652.048	11445
652.105	12562
652.162	13182
652.219	11955
652.276	12139
652.333	11706
652.390	10551
652.448	11937
652.505	11320
652.562	11858
652.619	12105
652.676	13589
652.733	12965
652.790	11881
652.847	10167
652.904	10817
652.961	9929
653.017	10443
653.074	11486
653.131	11874
653.188	10345
653.245	10865
653.302	10017
653.359	10737
653.415	11363
653.472	9962
653.529	11482
653.586	9650
653.642	11771
653.699	11436
653.756	10957
653.813	11293
653.869	12345
653.926	12429
653.983	11450
654.039	11176
654.096	10637
654.152	10540
654.209	8815
654.266	10152
654.322	8876
654.379	11411
654.435	10633
654.492	9957
654.548	10546
654.605	11388
654.661	10483
654.717	9279
654.774	10036
654.830	10043
654.887	10096
654.943	10040
655.000	10728
655.056	10026
655.112	10372
655.168	9916
655.225	11162
655.281	11043
655.337	10465
655.394	11990
655.450	10606
655.506	10245
655.562	10757
655.618	11068
655.675	8462
655.731	10083
655.787	9070
655.843	10625
655.899	9215
655.955	10947
656.011	10411
656.067	9154
656.123	10208
656.179	10670
656.235	11952
656.291	9706
656.347	11943
656.403	9940
656.459	9957
656.515	10043
656.571	8984
656.627	9658
656.683	9700
656.739	10032
656.795	10608
656.850	9700
656.906	9948
656.962	11200
657.018	11247
657.074	14803
657.129	19829
657.185	33657
657.241	75979
657.297	38471
657.352	11640
657.408	9289
657.464	9883
657.519	9220
657.575	7780
657.630	8216
657.686	7856
657.742	7580
657.797	8293
657.853	7965
657.908	9830
657.964	7842
658.019	8155
658.075	7970
658.130	7773
658.186	7626
658.241	8790
658.297	7195
658.352	7604
658.407	7864
658.463	6141
658.518	8146
658.573	7582
658.629	7050
658.684	7227
658.739	8484
658.795	7228
658.850	8037
658.905	7799
658.960	7298
659.016	6470
659.071	6821
659.126	7025
659.181	7051
659.236	8121
659.291	8692
659.346	7654
659.401	7203
659.457	8751
659.512	7912
659.567	8295
659.622	6448
659.677	6831
659.732	6428
659.787	6737
659.842	7155
659.897	7678
659.952	7216
660.007	6459
660.061	6674
660.116	6282
660.171	5740
660.226	6472
660.281	7832
660.336	7264
660.391	6995
660.445	5687
660.500	7269
660.555	6442
660.610	6676
660.664	7018
660.719	6286
660.774	6529
660.828	6753
660.883	6110
660.938	7301
660.992	5834
661.047	6296
661.101	6057
661.156	6581
661.211	5649
661.265	6750
661.320	6209
661.374	7171
661.429	5697
661.483	6866
661.538	5537
661.592	6149
661.647	5856
661.701	7823
661.755	6294
661.810	5351
661.864	6332
661.919	6412
661.973	6334
662.027	5865
662.081	6533
662.136	6616
662.190	5368
662.244	6904
662.299	6699
662.353	7327
662.407	5780
662.461	5849
662.515	7321
662.569	5918
662.624	6774
662.678	6401
662.732	5709
662.786	6602
662.840	6377
662.894	6982
662.948	7510
663.002	6765
663.056	7240
663.110	5530
663.164	5950
663.218	7771
663.272	6526
663.326	6352
663.380	5936
663.434	7045
663.488	5928
663.542	6953
663.595	6697
663.649	7158
663.703	6705
663.757	6814
663.811	6876
663.864	6568
663.918	6792
663.972	6592
664.026	6895
664.079	6353
664.133	7511
664.187	7142
664.240	7039
664.294	6926
664.348	7070
664.401	6619
664.455	7127
664.508	7218
664.562	6902
664.615	6253
664.669	6707
664.722	6641
664.776	6197
664.829	5994
664.883	5737
664.936	6263
664.990	7333
665.043	6357
665.097	6893
665.150	7752
665.203	7372
665.257	6753
665.310	6780
665.363	7327
665.417	7849
665.470	7733
665.523	7393
665.576	6978
665.630	7638
665.683	7906
665.736	8752
665.789	7404
665.842	7690
665.895	7235
665.949	7093
666.002	7247
666.055	7195
666.108	7592
666.161	7904
666.214	8996
666.267	8327
666.320	8249
666.373	8436
666.426	8384
666.479	7561
666.532	7985
666.585	9329
666.638	9191
666.691	8691
666.744	9423
666.796	8328
666.849	7717
666.902	7067
666.955	7866
667.008	7783
667.060	7215
667.113	7856
667.166	7305
667.219	8069
667.271	8645
667.324	8452
667.377	7683
667.430	7806
667.482	7505
667.535	8391
667.587	8945
667.640	7325
667.693	7391
667.745	8708
667.798	9170
667.850	8129
667.903	8270
667.955	7856
668.008	8104
668.060	7463
668.113	7452
668.165	7691
668.218	8320
668.270	7893
668.322	8238
668.375	6795
668.427	8311
668.479	6850
668.532	8646
668.584	7736
668.636	7363
668.689	8081
668.741	7273
668.793	7921
668.845	7860
668.898	7270
668.950	6919
669.002	7615
669.054	7468
669.106	8009
669.158	7455
669.211	7540
669.263	7272
669.315	7458
669.367	8379
669.419	6418
669.471	8331
669.523	7650
669.575	9098
669.627	8045
669.679	7931
669.731	7590
669.783	8029
669.835	7364
669.886	7683
669.938	7237
669.990	7431
670.042	7026
670.094	7566
670.146	8420
670.197	8192
670.249	9475
670.301	9234
670.353	11241
670.404	12879
670.456	15176
670.508	23311
670.560	34411
670.611	54299
670.663	91244
670.715	224644
670.766	313237
670.818	80221
670.869	18879
670.921	14826
670.972	13140
671.024	11071
671.075	9985
671.127	10295
671.178	10330
671.230	11273
671.281	11736
671.333	14358
671.384	18664
671.436	24508
671.487	34482
671.538	50928
671.590	78623
671.641	127742
671.692	228293
671.744	402373
671.795	285532
671.846	108231
671.897	50689
671.949	31917
672.000	23698
672.051	17605
672.102	14188
672.153	13050
672.204	10740
672.256	10837
672.307	9500
672.358	8792
672.409	8116
672.460	7300
672.511	7098
672.562	6354
672.613	6155
672.664	6600
672.715	6410
672.766	6610
672.817	5658
672.868	6170
672.919	5569
672.970	5794
673.021	6143
673.071	4855
673.122	5760
673.173	6274
673.224	5822
673.275	5272
673.326	5570
673.376	5605
673.427	4955
673.478	5842
673.528	5796
673.579	5438
673.630	5245
673.680	6388
673.731	4658
673.782	5244
673.832	6207
673.883	5483
673.934	5715
673.984	5406
674.035	5612
674.085	5036
674.136	6878
674.186	6026
674.237	6561
674.287	7057
674.338	6690
674.388	7408
674.438	6767
674.489	7337
674.539	7822
674.589	7870
674.640	7428
674.690	6709
674.740	7334
674.791	6240
674.841	6411
674.891	5575
674.942	4682
674.992	4673
675.042	4760
675.092	4767
675.142	4300
675.193	4925
675.243	5069
675.293	5366
675.343	4842
675.393	6503
675.443	5843
675.493	5603
675.543	5591
675.593	4705
675.643	5453
675.693	5831
675.743	5680
675.793	4639
675.843	4027
675.893	3932
675.943	5245
675.993	3701
676.043	4259
676.093	4242
676.142	3942
676.192	3397
676.242	3764
676.292	3915
676.341	3525
676.391	4538
676.441	4008
676.491	3456
676.540	3132
676.590	4381
676.640	3531
676.689	3542
676.739	3229
676.789	3186
676.838	3458
676.888	3740
676.937	3181
676.987	3350
677.037	3281
677.086	3476
677.136	3490
677.185	3619
677.235	3584
677.284	4254
677.333	3415
677.383	3745
677.432	3403
677.482	3620
677.531	3216
677.580	2771
677.630	3221
677.679	3357
677.728	3854
677.778	3636
677.827	3043
677.876	3225
677.925	4207
677.975	3955
678.024	4168
678.073	3894
678.122	4530
678.171	4411
678.220	4621
678.269	7046
678.319	7079
678.368	7904
678.417	5645
678.466	4523
678.515	4254
678.564	4079
678.613	4280
678.662	2892
678.711	3552
678.760	3563
678.809	3846
678.857	3707
678.906	4719
678.955	2891
679.004	3668
679.053	2204
679.102	3130
679.151	3839
679.199	2490
679.248	3501
679.297	2938
679.346	2902
679.394	2441
679.443	2415
679.492	3068
679.540	3736
679.589	3649
679.638	3362
679.686	3922
679.735	3970
679.784	6432
679.832	7999
679.881	4115
679.929	4561
679.978	3845
680.026	4179
680.075	3292
680.123	2465
680.172	2900
680.220	3159
680.268	3153
680.317	2959
680.365	2880
680.414	2498
680.462	2335
680.510	3035
680.559	2709
680.607	3541
680.655	2717
680.703	3300
680.752	3277
680.800	2695
680.848	2795
680.896	3237
680.945	2488
680.993	2151
681.041	2337
681.089	2766
681.137	2670
681.185	2288
681.233	2482
681.258	2758
681.281	3004
681.329	2827
681.377	2988
681.380	2978
681.425	2525
681.473	3219
681.502	3114
681.521	3006
681.569	3232
681.617	3068
681.624	3134
681.665	3436
681.713	3328
681.745	3406
681.761	3423
681.809	3216
681.857	3684
681.867	3663
681.904	3527
681.952	2819
681.989	3735
682.000	3982
682.048	3418
682.096	2806
682.111	2879
682.143	3006
682.191	3313
682.233	4304
682.239	4434
682.286	3107
682.334	3965
682.354	3651
682.382	3198
682.430	4044
682.476	4347
682.477	4339
682.525	3296
682.572	3576
682.598	3540
682.620	3490
682.667	4056
682.715	3853
682.720	3848
682.763	3671
682.810	4163
682.841	3572
682.857	3231
682.905	3500
682.952	3671
682.963	3638
683.000	3439
683.047	4539
683.085	4550
683.095	4537
683.142	3777
683.190	3468
683.206	3408
683.237	3321
683.284	3693
683.328	3456
683.332	3415
683.379	2991
683.426	4382
683.449	3963
683.473	3555
683.521	3560
683.568	4319
683.571	4288
683.615	3641
683.662	4682
683.693	3894
683.709	3458
683.757	3717
683.804	3681
683.814	3697
683.851	3727
683.898	4048
683.936	4131
683.945	4140
683.992	3646
684.039	4040
684.057	3921
684.086	3701
684.133	4541
684.179	3462
684.180	3415
684.227	4003
684.274	3877
684.300	4221
684.321	4481
684.368	3565
684.415	3943
684.422	4017
684.462	4453
684.509	4059
684.543	4744
684.556	4958
684.603	4267
684.649	4411
684.665	4505
684.696	4700
684.743	4409
684.786	4545
684.790	4545
684.837	4731
684.883	4140
684.908	4313
684.930	4457
684.977	5280
685.023	4918
685.029	4888
685.070	4579
685.117	4280
685.150	4498
685.164	4574
685.210	5399
685.257	4946
685.272	5143
685.303	5552
685.350	5195
685.393	5234
685.396	5223
685.443	4475
685.490	4508
685.514	4507
685.536	4560
685.583	4999
685.629	4796
685.636	4822
685.675	4864
685.722	4851
685.757	5084
685.768	5170
685.815	4839
685.861	5248
685.878	5320
685.908	5449
685.954	5536
686.000	5648
686.000	5644
686.047	5800
686.093	5600
686.121	5709
686.139	5795
686.185	6057
686.232	5588
686.242	5551
686.278	5393
686.324	5845
686.363	5352
686.370	5261
686.416	5995
686.463	6136
686.484	6017
686.509	5816
686.555	5421
686.601	5240
686.606	5253
686.647	5455
686.693	5619
686.727	5891
686.739	5973
686.785	5166
686.831	5422
686.848	5431
686.877	5554
686.923	6121
686.969	5830
686.969	5827
687.015	5938
687.061	5906
687.090	6468
687.107	6712
687.153	6033
687.199	6518
687.211	6338
687.245	6034
687.291	6222
687.332	6066
687.336	6035
687.382	6027
687.428	6077
687.453	6156
687.474	6325
687.520	6494
687.565	5876
687.574	5987
687.611	6502
687.657	7517
687.695	7176
687.702	7066
687.748	7044
687.794	6787
687.816	6705
687.839	6687
687.885	7048
687.931	7060
687.937	6975
687.976	6456
688.022	7058
688.058	6717
688.067	6628
688.113	6628
688.158	6375
688.179	6477
688.204	6724
688.249	6833
688.295	7321
688.300	7290
688.340	6857
688.386	6827
688.421	6836
688.431	6897
688.477	6544
688.522	7038
688.542	7230
688.567	7550
688.613	7667
688.658	7692
688.663	7684
688.703	7341
688.749	7419
688.784	7347
688.794	7366
688.839	7586
688.884	7462
688.905	7594
688.930	7784
688.975	7535
689.020	7517
689.026	7495
689.065	7203
689.110	7445
689.146	7611
689.155	7710
689.201	7432
689.246	7967
689.267	7810
689.291	7633
689.336	7933
689.381	7831
689.388	7718
689.426	7051
689.471	7518
689.509	7539
689.516	7574
689.561	7999
689.606	8095
689.630	7648
689.651	7296
689.696	7448
689.741	8357
689.750	8297
689.785	8079
689.830	8468
689.871	8148
689.875	8110
689.920	8395
689.965	7975
689.992	7642
690.010	7471
690.054	7708
690.099	8013
690.112	7908
690.144	7700
690.189	7870
690.233	7151
690.233	7159
690.278	7866
690.323	7780
690.354	8293
690.367	8447
690.412	8470
690.457	7987
690.474	8126
690.501	8448
690.546	8765
690.590	8351
690.595	8371
690.635	8836
690.680	9026
690.716	9258
690.724	9397
690.769	9954
690.813	10997
690.836	11479
690.857	12973
690.902	16197
690.946	19469
690.957	20362
690.991	25892
691.035	34564
691.077	41821
691.080	41686
691.124	34251
691.168	26787
691.198	22672
691.213	20989
691.257	17142
691.301	12804
691.318	11155
691.346	10871
691.390	10238
691.434	9831
691.439	9739
691.478	9146
691.522	9285
691.559	8765
691.567	8796
691.611	8993
691.655	9317
691.680	9513
691.699	9451
691.743	9251
691.787	9048
691.800	8925
691.831	8969
691.875	9111
691.919	9374
691.921	9359
691.964	9216
692.008	9287
692.041	9350
692.052	9422
692.096	9503
692.139	9309
692.162	9343
692.183	9290
692.227	9373
692.271	9080
692.282	9052
692.315	9211
692.359	9097
692.402	9332
692.403	9350
692.447	9065
692.490	9562
692.523	9182
692.534	9103
692.578	9407
692.622	9122
692.643	9305
692.666	9543
692.709	9535
692.753	9578
692.763	9632
692.797	9815
692.840	9822
692.884	9734
692.884	9751
692.928	9377
692.971	9820
693.004	9628
693.015	9599
693.059	9676
693.102	9941
693.124	9983
693.146	10093
693.189	10146
693.233	10208
693.245	10346
693.276	10840
693.320	10953
693.363	10958
693.365	10948
693.407	11698
693.450	12559
693.485	12894
693.493	13239
693.537	15588
693.580	17416
693.605	18645
693.624	21434
693.667	28079
693.710	34632
693.725	37319
693.753	48417
693.797	66264
693.840	83941
693.845	85397
693.883	71779
693.926	56341
693.966	43557
693.970	42616
694.013	32314
694.056	22481
694.086	15611
694.099	15164
694.142	13747
694.185	12553
694.206	11805
694.229	11681
694.272	11638
694.315	11447
694.326	11395
694.358	11074
694.401	10690
694.444	10354
694.446	10306
694.487	10567
694.530	10932
694.566	11094
694.573	11085
694.616	10644
694.659	10942
694.686	10835
694.702	10878
694.745	11009
694.787	10970
694.806	10974
694.830	10921
694.873	10819
694.916	10846
694.926	10772
694.959	10852
695.002	11154
695.044	11175
695.046	11163
695.087	11136
695.130	10707
695.166	10582
695.172	10696
695.215	11170
695.258	11764
695.286	12096
695.301	12122
695.343	11950
695.386	12137
695.406	12069
695.428	12525
695.471	13402
695.514	14177
695.526	14503
695.556	15370
695.599	16281
695.641	17033
695.646	17085
695.684	16208
695.726	15125
695.766	14183
695.769	14192
695.811	13840
695.854	13323
695.886	13035
695.896	13215
695.938	13964
695.981	14473
696.005	14851
696.023	15259
696.065	16035
696.108	16835
696.125	17152
696.150	17316
696.192	17478
696.235	17564
696.245	17620
696.277	17719
696.319	17457
696.361	17361
696.365	17305
696.404	17198
696.446	17083
696.485	17032
696.488	17084
696.530	17133
696.572	17119
696.604	17225
696.614	17228
696.656	16938
696.698	16801
696.724	16573
696.740	16717
696.783	17081
696.825	17479
696.844	17614
696.867	17558
696.909	17274
696.951	17054
696.964	16939
696.992	17112
697.034	17299
697.076	17512
697.083	17523
697.118	18295
697.160	19079
697.202	19855
697.203	19830
697.244	19217
697.286	18572
697.323	17854
697.327	17938
697.369	18442
697.411	18871
697.442	19166
697.453	19155
697.494	18935
697.536	18644
697.562	18476
697.578	18547
697.620	18576
697.661	18670
697.682	18608
697.703	18892
697.744	19520
697.786	20068
697.801	20215
697.828	20044
697.869	19669
697.911	19348
697.921	19216
697.952	19424
697.994	19660
698.035	19895
698.040	19876
698.077	20214
698.118	20542
698.160	20840
698.160	20791
698.201	21381
698.243	21941
698.279	22410
698.284	22481
698.325	22591
698.367	22767
698.399	22792
698.408	22877
698.449	23032
698.491	23214
698.518	23264
698.532	23490
698.573	24035
698.614	24545
698.638	24803
698.656	24578
698.697	23861
698.738	23181
698.757	22800
698.779	22915
698.820	23038
698.862	23150
698.877	23142
698.903	23302
698.944	23460
698.985	23623
698.996	23614
699.026	23623
699.067	23555
699.116	23420
699.235	22266
699.354	23432
699.474	21885
699.593	21938
699.713	22154
699.832	22291
699.951	22492
700.070	22258
700.190	21234
700.309	20239
700.428	19844
700.547	19997
700.667	19806
700.786	19500
700.905	19133
701.024	20050
701.143	18078
701.262	19913
701.381	20594
701.500	20637
701.619	20226
701.738	20378
701.857	20112
701.976	18807
702.095	20098
702.214	20164
702.333	19717
702.452	19466
702.571	21217
702.690	20198
702.809	19190
702.928	19513
703.047	18491
703.165	20341
703.284	18362
703.403	18930
703.522	17751
703.640	17812
703.759	17855
703.878	17804
703.997	17357
704.115	18875
704.234	17954
704.353	18396
704.471	16368
704.590	16679
704.708	15419
704.827	16332
704.946	16623
705.064	16706
705.183	15918
705.301	17477
705.420	17203
705.538	16140
705.656	15010
705.775	15407
705.893	19210
706.012	18983
706.130	15359
706.249	16838
706.367	16034
706.485	16555
706.604	14202
706.722	14740
706.840	15737
706.958	16349
707.077	14314
707.195	14405
707.313	15254
707.431	12990
707.549	13769
707.668	13713
707.786	15101
707.904	14054
708.022	15238
708.140	14042
708.258	13736
708.376	15092
708.494	12983
708.612	14419
708.730	14443
708.848	15662
708.966	14792
709.084	15240
709.202	14745
709.320	13436
709.438	14299
709.556	14277
709.674	12745
709.791	13602
709.909	12400
710.027	12690
710.145	12597
710.263	12935
710.380	13064
710.498	11667
710.616	13326
710.733	11319
710.851	11995
710.969	12358
711.086	12902
711.204	11793
711.322	12512
711.439	12435
711.557	11572
711.674	11787
711.792	12496
711.909	11806
712.027	11004
712.144	11554
712.262	12108
712.379	11957
712.497	12268
712.614	12403
712.732	12002
712.849	11323
712.966	12457
713.084	12598
713.201	11500
713.318	12725
713.436	12819
713.553	13740
713.670	14114
713.787	13884
713.905	12827
714.022	13473
714.139	14060
714.256	21075
714.373	33480
714.490	69024
714.608	218076
714.725	839006
714.842	474969
714.959	43439
715.076	22145
715.193	18365
715.310	16648
715.427	13095
715.544	12765
715.661	12254
715.778	11558
715.895	13180
716.011	12502
716.128	11502
716.245	11064
716.362	11029
716.479	9462
716.596	10677
716.713	9911
716.829	10566
716.946	10116
717.063	9354
717.180	9540
717.296	10404
717.413	10266
717.530	9925
717.646	9280
717.763	9042
717.880	8996
717.996	8210
718.113	8639
718.229	9806
718.346	8570
718.462	9195
718.579	9119
718.695	9994
718.812	9433
718.928	9359
719.045	9045
719.161	8225
719.277	8661
719.394	10368
719.510	9470
719.626	11759
719.743	16851
719.859	30728
719.975	77611
720.092	345123
720.208	451519
720.324	38190
720.440	13928
720.557	12660
720.673	11992
720.789	11592
720.905	13377
721.021	9204
721.137	8036
721.253	8724
721.369	8071
721.486	9172
721.602	7784
721.718	8040
721.834	7637
721.950	7371
722.066	7542
722.181	7728
722.297	7140
722.413	7124
722.529	7325
722.645	7152
722.761	6410
722.877	7915
722.993	9562
723.108	12505
723.224	8669
723.340	7904
723.456	6908
723.571	6696
723.687	6301
723.803	7459
723.918	6222
724.034	6302
724.150	6925
724.265	6831
724.381	8118
724.497	7139
724.612	7239
724.728	7177
724.843	6390
724.959	6788
725.074	9482
725.190	8204
725.305	6909
725.421	6510
725.536	6761
725.651	6499
725.767	6705
725.882	6870
725.997	6496
726.113	6909
726.228	6290
726.343	6599
726.459	5965
726.574	6201
726.689	6809
726.804	6703
726.920	6509
727.035	6198
727.150	6745
727.265	6443
727.380	6458
727.495	6085
727.610	5894
727.725	5850
727.841	6528
727.956	8682
728.071	6934
728.186	6370
728.301	5974
728.416	6935
728.531	6548
728.645	5450
728.760	6403
728.875	6281
728.990	5585
729.105	5821
729.220	5929
729.335	6436
729.449	6361
729.564	6269
729.679	6003
729.794	6504
729.908	6269
730.023	6390
730.138	5210
730.253	6902
730.367	5610
730.482	6166
730.596	6139
730.711	7426
730.826	10591
730.940	8629
731.055	8071
731.169	7964
731.284	8213
731.398	8565
731.513	9670
731.627	11010
731.742	13277
731.856	15717
731.970	15815
732.085	23658
732.199	34392
732.313	71283
732.428	212535
732.542	524175
732.656	179253
732.771	37661
732.885	23041
732.999	22764
733.113	21504
733.227	21196
733.342	20204
733.456	19714
733.570	17870
733.684	16705
733.798	15801
733.912	17744
734.026	16141
734.140	16853
734.254	16779
734.368	17427
734.482	17186
734.596	16347
734.710	15326
734.824	14772
734.938	15506
735.052	14463
735.166	15617
735.280	15038
735.393	14625
735.507	14879
735.621	14532
735.735	14221
735.849	13395
735.962	13808
736.076	14975
736.190	13547
736.303	14456
736.417	14640
736.531	13339
736.644	13038
736.758	13246
736.872	13200
736.985	13426
737.099	11958
737.212	12952
737.326	12294
737.439	12902
737.553	11429
737.666	12186
737.780	12714
737.893	12617
738.007	13212
738.120	11707
738.233	11522
738.347	10933
738.460	12114
738.573	13129
738.687	11830
738.800	11419
738.913	13771
739.026	12113
739.140	12240
739.253	11425
739.366	11271
739.479	10981
739.592	10268
739.705	10479
739.818	12912
739.932	9599
740.045	11451
740.158	10843
740.271	11526
740.384	11279
740.497	10428
740.610	11086
740.723	10181
740.836	9848
740.949	10915
741.062	11892
741.174	10445
741.287	10560
741.400	10652
741.513	9628
741.626	10559
741.739	9883
741.851	9512
741.964	10750
742.077	9887
742.189	9905
742.302	11065
742.415	10262
742.527	10570
742.640	9416
742.753	8973
742.865	10173
742.978	10143
743.090	9237
743.203	10254
743.316	8339
743.428	9049
743.541	9350
743.653	8573
743.766	9710
743.878	9586
743.990	7842
744.103	10811
744.215	8846
744.327	8198
744.440	10486
744.552	9532
744.664	8790
744.777	9423
744.889	7734
745.001	8515
745.113	9724
745.226	8301
745.338	8276
745.450	10187
745.562	8375
745.674	9005
745.786	10025
745.898	9018
746.010	7725
746.122	8572
746.234	8946
746.347	8372
746.459	8310
746.570	6539
746.682	9703
746.794	8740
746.906	7710
747.018	8498
747.130	8817
747.242	7249
747.354	8017
747.466	7551
747.577	7466
747.689	8621
747.801	8010
747.913	7693
748.024	7491
748.136	6971
748.248	6583
748.359	8039
748.471	7835
748.583	6335
748.694	7151
748.806	7893
748.918	7315
749.029	7085
749.141	7394
749.252	7796
749.364	6752
749.475	6779
749.587	6606
749.698	6767
749.809	7760
749.921	7272
750.032	6884
750.144	6596
750.255	6366
750.366	6945
750.478	5907
750.589	6457
750.700	6187
750.811	6990
750.923	5509
751.034	7692
751.145	7837
751.256	5966
751.367	5451
751.479	6790
751.590	6318
751.701	5695
751.812	5032
751.923	6663
752.034	7755
752.145	6193
752.256	5180
752.367	6552
752.478	6194
752.589	6636
752.700	7001
752.811	5595
752.922	6272
753.032	6535
753.143	6845
753.254	6399
753.365	7567
753.476	7607
753.586	7166
753.697	6743
753.808	6218
753.919	6079
754.029	5819
754.140	6782
754.251	5703
754.361	6697
754.472	6517
754.582	5499
754.693	6732
754.804	7017
754.914	5322
755.025	5294
755.135	6678
755.246	6837
755.356	4757
755.466	6266
755.577	6373
755.687	5639
755.798	4867
755.908	6142
756.018	5402
756.129	5866
756.239	6692
756.349	6867
756.460	6559
756.570	7564
756.680	5753
756.790	5908
756.900	6998
757.011	6128
757.121	6230
757.231	6050
757.341	6384
757.451	6148
757.561	6430
757.671	6557
757.781	5236
757.891	6376
758.001	6081
758.111	7396
758.221	7382
758.331	8017
758.441	6810
758.551	7215
758.661	8629
758.771	7965
758.880	6998
758.990	7502
759.100	7171
759.210	7527
759.320	8043
759.429	8293
759.539	9173
759.649	9594
759.758	11029
759.868	10612
759.978	10645
760.087	11721
760.197	12279
760.307	11174
760.416	10315
760.526	8842
760.635	11109
760.745	11752
760.854	12131
760.964	14111
761.073	13277
761.182	12177
761.292	11012
761.401	11305
761.511	8925
761.620	8719
761.729	9240
761.839	7824
761.948	8899
762.057	8675
762.166	8947
762.276	9123
762.385	10156
762.494	9440
762.603	9054
762.712	10293
762.822	9535
762.931	11037
763.040	9518
763.149	10501
763.258	10396
763.367	11172
763.476	11084
763.585	11456
763.694	12570
763.803	12742
763.912	12937
764.021	13253
764.130	14362
764.238	15719
764.347	17413
764.456	17689
764.565	18212
764.674	19852
764.783	20274
764.891	22725
765.000	26658
765.109	30541
765.217	33210
765.326	41131
765.435	47966
765.543	59850
765.652	74014
765.761	100772
765.869	139806
765.978	206170
766.086	325429
766.195	537944
766.303	783956
766.412	665853
766.520	756189
766.629	624278
766.737	373001
766.846	234515
766.954	158936
767.062	116653
767.171	88192
767.279	70547
767.387	56011
767.496	48497
767.604	41892
767.712	37469
767.820	33080
767.928	31334
768.037	27904
768.145	27004
768.253	26575
768.361	25840
768.469	24940
768.577	25544
768.685	27453
768.793	30318
768.901	31220
769.009	37610
769.117	44779
769.225	59400
769.333	85527
769.441	135296
769.549	233328
769.657	446791
769.765	695451
769.873	646475
769.981	550008
770.088	285326
770.196	158454
770.304	104040
770.412	75566
770.519	58078
770.627	46276
770.735	38630
770.842	32823
770.950	29637
771.058	26434
771.165	26632
771.273	24047
771.380	22461
771.488	25100
771.595	23734
771.703	20816
771.810	19297
771.918	18973
772.025	21956
772.133	21994
772.240	20975
772.348	22624
772.455	20395
772.562	19342
772.670	18696
772.777	17695
772.884	17824
772.991	17925
773.099	17642
773.206	16812
773.313	17297
773.420	16405
773.528	16421
773.635	15163
773.742	16049
773.849	15033
773.956	15935
774.063	14886
774.170	15537
774.277	15434
774.384	14136
774.491	13428
774.598	15492
774.705	13847
774.812	13875
774.919	13424
775.026	12760
775.133	13743
775.239	13468
775.346	12848
775.453	13403
775.560	12145
775.667	13472
775.773	11346
775.880	12995
775.987	11555
776.093	13088
776.200	11901
776.307	9938
776.413	12006
776.520	13946
776.627	10142
776.733	10368
776.840	9990
776.946	14816
777.053	11338
777.159	11777
777.266	10055
777.372	11541
777.478	12427
777.585	11038
777.691	8881
777.798	11722
777.904	9930
778.010	10168
778.117	10654
778.223	9846
778.329	9592
778.435	9372
778.542	9979
778.648	8351
778.754	8435
778.860	10051
778.966	9183
779.072	8622
779.178	9189
779.284	7974
779.391	9189
779.497	7819
779.603	11250
779.708	9867
779.815	16331
779.920	45133
780.026	46355
780.132	11307
780.238	8035
780.344	8599
780.450	10187
780.556	7084
780.661	8545
780.767	8386
780.873	5470
780.979	8021
781.085	7748
781.190	7160
781.296	7007
781.402	6705
781.507	7153
781.613	5887
781.719	7532
781.824	8378
781.930	7321
782.035	8190
782.141	7139
782.246	6235
782.352	6731
782.457	6814
782.563	7313
782.668	7138
782.773	6037
782.879	5797
782.984	7429
783.090	6641
783.195	7123
783.300	7558
783.405	5957
783.511	5224
783.616	7207
783.721	7731
783.826	4560
783.932	7078
784.037	6450
784.142	6635
784.247	5617
784.352	5858
784.457	4574
784.562	7202
784.667	5860
784.772	5381
784.877	4287
784.982	7487
785.087	5648
785.192	5734
785.297	4878
785.402	6128
785.507	5197
785.611	5411
785.716	4797
785.821	5993
785.926	5048
786.031	5744
786.135	6359
786.240	5407
786.345	3908
786.450	4669
786.554	5758
786.659	4750
786.763	4542
786.868	5425
786.973	6365
787.077	4209
787.182	4406
787.286	6137
787.391	5428
787.495	2843
787.600	3438
787.704	4662
787.809	5200
787.913	4651
788.017	4306
788.122	5264
788.226	4506
788.330	3851
788.435	5085
788.539	5253
788.643	3521
788.747	4484
788.852	4320
788.956	4542
789.060	5094
789.164	4551
789.268	4120
789.372	4599
789.476	3358
789.580	2968
789.684	3554
789.788	4673
789.892	3872
789.996	4050
790.100	2884
790.204	4277
790.308	4507
790.412	1820
790.516	3532
790.620	3443
790.724	4778
790.828	3275
790.931	1979
791.035	4973
791.139	3576
791.242	2843
791.346	4277
791.450	4009
791.554	3343
791.657	2601
791.761	4720
791.864	5224
791.968	3462
792.072	4263
792.175	2969
792.279	3644
792.382	3468
792.486	2811
792.589	3696
792.693	4474
792.796	1602
792.899	4456
793.003	3987
793.106	1975
793.209	2903
793.313	4613
793.416	1462
793.519	4154
793.623	4677
793.726	3663
793.829	2239
793.932	2242
794.035	1966
794.138	4517
794.242	3564
794.345	2713
794.448	4616
794.551	6074
794.654	20956
794.757	23008
794.860	5147
794.963	3990
795.066	1562
795.169	4620
795.272	2326
795.375	3365
795.477	1638
795.580	2946
795.683	2280
795.786	3147
795.889	1321
795.991	3293
796.094	3172
796.197	2587
796.300	3552
796.402	3288
796.505	1393
796.608	2095
796.710	2876
796.813	3266
796.915	2902
797.018	2948
797.120	3226
797.223	2028
797.326	2833
797.428	2427
797.530	1467
797.633	1973
797.735	2997
797.838	3042
797.940	3478
798.042	2261
798.145	2116
798.247	2177
798.349	1646
798.452	2894
798.554	2448
798.656	3552
798.758	4203
798.860	2697
798.962	1601
799.065	1817
799.167	1486
799.269	3430
799.371	4497
799.473	5278
799.575	2508
799.677	1879
799.779	3534
799.881	2478
799.983	3343
800.085	2271
800.187	2050
800.289	1870
800.390	1959
800.492	3391
800.594	3272
800.696	1438
800.798	1552
800.899	2168
801.001	1782
801.103	1971
801.205	1610
801.306	2868
801.408	1110
801.509	2907
801.611	2531
801.713	2782
801.814	381
801.916	1900
802.017	771
802.119	820
802.220	2607
802.322	863
802.423	2951
802.525	981
802.626	1051
802.727	2685
802.829	2215
802.930	-243
803.031	3342
803.133	1796
803.234	2079
803.335	1923
803.436	11
803.538	2036
803.639	1062
803.740	2233
803.841	1360
803.942	2864
804.043	2623
804.144	1263
804.245	1556
804.346	1723
804.447	1094
804.548	1410
804.649	2016
804.750	858
804.851	1053
804.952	1198
805.053	197
805.154	788
805.255	2650
805.355	1059
805.456	1675
805.557	587
805.658	878
805.758	2339
805.859	1954
805.960	1712
806.061	1123
806.161	520
806.262	989
806.362	797
806.463	927
806.564	2588
806.664	1444
806.765	1014
806.865	1224
806.966	806
807.066	1218
807.166	2922
807.267	1814
807.367	525
807.468	1969
807.568	730
807.668	1704
807.769	2017
807.869	784
807.969	1720
808.069	908
808.170	1820
808.270	681
808.370	2214
808.470	590
808.570	374
808.670	644
808.770	1103
808.870	252
808.970	1385
809.070	533
809.170	870
809.271	1313
809.370	1040
809.470	1773
809.570	537
809.670	418
809.770	1080
809.870	2040
809.970	1380
810.070	877
810.169	1312
810.269	-712
810.369	2294
810.469	1836
810.568	1518
810.668	961
810.768	247
810.867	681
810.967	335
811.066	235
811.166	747
811.265	2043
811.365	540
811.464	651
811.564	1197
811.663	1040
811.763	-98
811.862	371
811.962	1889
812.061	1042
812.160	1078
812.260	798
812.359	1136
812.458	1049
812.557	2739
812.657	323
812.756	1868
812.855	812
812.954	205
813.053	1440
813.153	2130
813.252	-25
813.351	930
813.450	869
813.549	923
813.648	1429
813.747	420
813.846	1583
813.945	1023
814.044	1521
814.143	1487
814.242	2103
814.341	347
814.439	1442
814.538	1934
814.637	1456
814.736	699
814.835	2376
814.933	1049
815.032	3084
815.131	5248
815.229	7819
815.328	9908
815.427	5809
815.525	6094
815.624	6426
815.722	5990
815.821	6290
815.919	6505
816.018	5837
816.116	6728
816.215	7050
816.313	8202
816.412	8707
816.510	8338
816.609	10784
816.707	10541
816.805	8430
816.904	8731
817.002	8565
817.100	9189
817.198	10218
817.296	7926
817.395	9259
817.493	8772
817.591	7860
817.689	7743
817.787	7749
817.885	8195
817.983	8199
818.081	9997
818.179	13978
818.277	25146
818.375	14950
818.473	8353
818.571	7646
818.669	9170
818.767	8311
818.865	6988
818.963	6281
819.061	8623
819.158	8487
819.256	14423
819.354	20916
819.452	37449
819.549	17525
819.647	9664
819.745	6507
819.842	7620
819.940	6704
820.038	5359
820.135	5765
820.233	8176
820.330	5970
820.428	6539
820.525	6890
820.623	6675
820.720	6267
820.818	7010
820.915	6609
821.012	6210
821.110	4852
821.207	6642
821.304	5470
821.402	6974
821.499	6766
821.596	6050
821.693	5659
821.791	6162
821.888	5555
821.985	7169
822.082	4201
822.179	6390
822.276	5832
822.373	5256
822.470	5396
822.567	6204
822.664	4287
822.761	6529
822.858	5291
822.955	5434
823.052	3893
823.149	6293
823.246	5637
823.343	4147
823.440	4999
823.536	5556
823.633	4401
823.730	4418
823.827	6104
823.923	4180
824.020	5266
824.117	5940
824.213	5002
824.310	4159
824.407	2900
824.503	5355
824.600	4535
824.696	3940
824.793	5434
824.889	4829
824.986	3836
825.082	2729
825.179	4641
825.275	6462
825.371	4268
825.468	3970
825.564	3109
825.660	5629
825.757	5547
825.853	4275
825.949	2881
826.045	3983
826.142	4395
826.238	4476
826.334	4337
826.430	3029
826.526	3177
826.622	2985
826.718	5523
826.814	4318
826.910	3780
827.006	1874
827.102	2359
827.198	4923
827.294	4591
827.390	3996
827.486	2510
827.582	2237
827.678	2352
827.774	4779
827.869	1868
827.965	3768
828.061	2619
828.157	5018
828.252	4085
828.348	2193
828.444	4637
828.539	2388
828.635	3828
828.731	3536
828.826	2785
828.922	4089
829.017	4384
829.113	4709
829.208	2250
829.304	2817
829.399	5312
829.495	2631
829.590	3578
829.685	3740
829.781	4251
829.876	3761
829.971	640
830.066	1458
830.162	3737
830.257	3904
830.352	3366
830.447	3354
830.543	2544
830.638	2859
830.733	4238
830.828	2343
830.923	3434
831.018	4069
831.113	4189
831.208	1086
831.303	1168
831.398	2717
831.493	2962
831.588	4717
831.683	2174
831.778	1510
831.873	2295
831.967	3307
832.062	2229
832.157	2051
832.252	3541
832.346	2398
832.441	3293
832.536	3075
832.631	3347
832.725	1821
832.820	1483
832.914	1773
833.009	930
833.104	1569
833.198	2595
833.293	2018
833.387	2876
833.482	3026
833.576	2819
833.670	3119
833.765	3866
833.859	3148
833.954	2535
834.048	2961
834.142	2290
834.237	1562
834.331	2551
834.425	2331
834.519	1549
834.613	2514
834.708	1030
834.802	1958
834.896	2085
834.990	2432
835.084	614
835.178	1778
835.272	1401
835.366	2806
835.460	3776
835.554	1723
835.648	1040
835.742	929
835.836	1745
835.930	1321
836.024	1791
836.117	2345
836.211	1309
836.305	1291
836.399	2643
836.493	855
836.586	2718
836.680	1901
836.774	1176
836.867	2505
836.961	1060
837.055	856
837.148	641
837.242	1223
837.335	2142
837.429	2050
837.522	715
837.616	926
837.709	1615
837.803	2121
837.896	2601
837.989	1893
838.083	1271
838.176	1798
838.269	843
838.363	1908
838.456	607
838.549	2010
838.642	1034
838.735	2130
838.829	2252
838.922	423
839.015	1102
839.108	928
839.201	1741
839.294	2095
839.387	871
839.480	729
839.573	569
839.666	720
839.759	1488
839.852	984
839.945	1662
840.038	1586
840.131	561
840.223	847
840.316	1667
840.409	1509
840.502	1674
840.594	849
840.687	-549
840.780	303
840.873	195
840.965	1123
841.058	2339
841.150	2062
841.243	-165
841.336	1291
841.428	668
841.521	1160
841.613	583
841.706	1717
841.798	1014
841.890	1295
841.983	603
842.075	1966
842.167	1210
842.260	789
842.352	2202
842.444	1182
842.537	860
842.629	1512
842.721	759
842.813	1007
842.905	417
842.997	1382
843.090	-205
843.182	595
843.274	377
843.366	2152
843.458	2109
843.550	2803
843.642	461
843.734	2047
843.826	309
843.918	1876
844.009	1541
844.101	608
844.193	946
844.285	344
844.377	1145
844.469	1194
844.560	676
844.652	462
844.744	642
844.835	797
844.927	1424
845.019	587
845.110	635
845.202	86
845.293	-434
845.385	225
845.476	847
845.568	1110
845.659	842
845.751	1326
845.842	481
845.934	535
846.025	625
846.116	1101
846.208	-51
846.299	379
846.390	24
846.482	614
846.573	655
846.664	1267
846.755	371
846.846	1411
846.937	-591
847.029	635
847.120	-531
847.211	668
847.302	1374
847.393	-22
847.484	850
847.575	484
847.666	406
847.757	1061
847.847	1072
847.938	1487
848.029	1422
848.120	-386
848.211	325
848.302	48
848.392	-354
848.483	949
848.574	443
848.664	11
848.755	508
848.846	886
848.936	1017
849.027	1654
849.118	1271
849.208	785
849.299	3848
849.389	7327
849.480	16061
849.570	31018
849.661	62691
849.751	75673
849.841	17265
849.932	2911
850.022	1082
850.112	1842
850.203	1567
850.293	246
850.383	403
850.474	738
850.564	574
850.654	313
850.744	214
850.834	649
850.924	883
851.014	1894
851.104	164
851.194	638
851.284	607
851.374	460
851.464	31
851.554	966
851.644	-177
851.734	1530
851.824	236
851.914	12
852.004	1928
852.094	773
852.183	-669
852.273	1172
852.363	-396
852.452	1245
852.542	-27
852.632	546
852.721	873
852.811	1161
852.901	1697
852.990	1274
853.080	1648
853.169	1423
853.259	2372
853.348	1958
853.438	3674
853.527	5895
853.617	9344
853.706	18075
853.795	33571
853.885	68471
853.974	120185
854.063	220627
854.152	243828
854.242	75826
854.331	18196
854.420	9114
854.509	6734
854.598	5062
854.687	3409
854.777	2652
854.866	1572
854.955	2603
855.044	1238
855.133	1116
855.222	1309
855.311	-118
855.400	856
855.488	575
855.577	-127
855.666	603
855.755	1367
855.844	1397
855.933	979
856.021	930
856.110	938
856.199	-569
856.288	134
856.376	824
856.465	443
856.554	248
856.642	426
856.731	1264
856.819	749
856.908	452
856.996	839
857.085	-562
857.173	17
857.262	-112
857.350	429
857.438	284
857.527	628
857.615	465
857.703	1269
857.792	-54
857.880	-343
857.968	505
858.056	-62
858.145	430
858.233	659
858.321	62
858.409	479
858.497	642
858.585	-403
858.673	433
858.761	-660
858.849	-604
858.937	-354
859.025	447
859.113	396
859.201	803
859.289	1410
859.377	-133
859.465	655
859.552	78
859.640	-308
859.728	438
859.816	-173
859.903	798
859.991	-653
860.079	-223
860.166	213
860.254	-242
860.342	908
860.429	115
860.517	-144
860.604	440
860.692	-165
860.779	-427
860.867	422
860.954	69
861.042	949
861.129	715
861.216	388
861.304	95
861.391	667
861.478	674
861.565	540
861.653	279
861.740	-584
861.827	-68
861.914	-118
862.001	1108
862.089	-16
862.176	739
862.263	-232
862.350	608
862.437	759
862.524	-218
862.611	525
862.698	987
862.785	747
862.871	1578
862.958	391
863.045	759
863.132	1190
863.219	598
863.306	-197
863.392	1150
863.479	716
863.566	596
863.652	1155
863.739	468
863.826	332
863.912	968
863.999	-101
864.086	727
864.172	901
864.259	998
864.345	1197
864.432	1512
864.518	816
864.604	2224
864.691	1668
864.777	1557
864.863	2507
864.950	4956
865.036	5925
865.122	11507
865.209	9863
865.295	9398
865.381	8557
865.467	9615
865.553	12332
865.639	14554
865.726	23707
865.812	40755
865.898	68560
865.984	99565
866.070	178716
866.156	138427
866.242	36593
866.328	15171
866.414	10779
866.499	9743
866.585	8933
866.671	6683
866.757	7718
866.843	7400
866.928	6789
867.014	6686
867.100	7272
867.186	7251
867.271	6477
867.357	7118
867.442	7019
867.528	7059
867.614	6143
867.699	5735
867.785	7079
867.870	6414
867.956	7020
868.041	5663
868.127	5607
868.212	4777
868.297	4555
868.383	5752
868.468	6191
868.553	7074
868.639	5202
868.724	5589
868.809	5971
868.894	5368
868.979	5347
869.065	5666
869.150	4836
869.235	6212
869.320	5007
869.405	4904
869.490	6144
869.575	4614
869.660	3373
869.745	5681
869.830	5310
869.915	4836
870.000	5104
870.085	5205
870.169	6883
870.254	5799
870.339	3299
870.424	3735
870.509	5373
870.593	5776
870.678	4934
870.763	4588
870.847	4193
870.932	5799
871.016	4203
871.101	3189
871.186	5144
871.270	5178
871.355	3133
871.439	5207
871.523	4896
871.608	3979
871.692	3679
871.777	5927
871.861	4710
871.945	3699
872.030	4690
872.114	4501
872.198	3453
872.282	3572
872.367	3901
872.451	3501
872.535	3830
872.619	3757
872.703	3236
872.787	4781
872.871	4412
872.955	2564
873.039	2228
873.123	4247
873.207	4083
873.291	2497
873.375	3791
873.459	4672
873.543	2843
873.627	3129
873.711	3334
873.794	5178
873.878	3418
873.962	3471
874.045	2827
874.129	3056
874.137	3087
874.213	3401
874.245	3176
874.296	2818
874.352	2838
874.380	2845
874.460	3329
874.464	3348
874.547	3051
874.568	3242
874.631	3820
874.676	3634
874.714	3444
874.784	4004
874.798	4126
874.881	2871
874.892	2841
874.965	2696
874.999	3327
875.048	4093
875.107	3098
875.131	2717
875.215	2596
875.215	2596
875.298	2038
875.323	2379
875.381	3249
875.430	3820
875.465	4118
875.538	3467
875.548	3384
875.631	1971
875.646	1843
875.714	1338
875.753	2010
875.798	2807
875.861	3817
875.881	4065
875.964	2874
875.968	2841
876.047	2558
876.076	2874
876.130	3410
876.183	3718
876.213	3881
876.291	3770
876.296	3753
876.379	3044
876.398	2966
876.462	2776
876.506	2579
876.545	2444
876.613	3092
876.628	3251
876.711	3268
876.721	3433
876.794	4731
876.828	4386
876.877	3533
876.935	2789
876.960	2623
877.043	3237
877.043	3237
877.125	3856
877.150	3999
877.208	3892
877.258	3212
877.291	2840
877.365	2790
877.374	2797
877.456	2634
877.472	2650
877.539	2822
877.579	3502
877.622	4235
877.687	4302
877.704	4248
877.787	3974
877.794	3926
877.869	3611
877.901	3545
877.952	3127
878.008	2341
878.034	2177
878.115	2483
878.117	2490
878.199	2205
878.222	2547
878.282	3798
878.329	4529
878.364	4755
878.437	4044
878.447	3932
878.529	2749
878.544	2739
878.611	2984
878.651	3062
878.694	3412
878.758	3685
878.776	3639
878.858	3977
878.865	3915
878.941	2803
878.972	2444
879.023	2318
879.078	3153
879.105	3650
879.185	3944
879.187	3954
879.269	4692
879.292	4717
879.351	4078
879.399	3416
879.433	3263
879.506	3761
879.516	3811
879.598	4363
879.613	4223
879.680	3815
879.720	4245
879.762	4646
879.827	3945
879.844	3741
879.926	4175
879.933	4207
880.007	4864
880.040	4828
880.089	4961
880.147	6571
880.171	7328
880.253	10225
880.254	10231
880.335	12789
880.360	14182
880.417	20795
880.467	29054
880.499	33513
880.574	33462
880.580	32253
880.662	13391
880.680	10481
880.744	6205
880.787	4438
880.825	4471
880.893	4681
880.907	4674
880.989	3613
881.000	3606
881.070	4800
881.106	5030
881.152	4260
881.213	3545
881.233	3624
881.315	4129
881.319	4128
881.396	4108
881.426	4241
881.478	4829
881.532	5630
881.559	5776
881.639	4790
881.641	4767
881.722	4335
881.745	4083
881.803	4245
881.852	4289
881.885	3938
881.958	3364
881.966	3412
882.047	4522
882.064	4505
882.129	3599
882.171	3415
882.210	3395
882.277	2815
882.291	2945
882.372	4772
882.383	4897
882.454	5719
882.489	6157
882.535	5856
882.596	5254
882.616	5225
882.697	4645
882.702	4633
882.778	3919
882.808	3629
882.859	3776
882.914	3897
882.940	3916
883.020	3974
883.021	3993
883.102	5250
883.127	5569
883.183	6051
883.233	6016
883.264	5172
883.339	3490
883.345	3430
883.426	2267
883.445	2188
883.507	3230
883.551	3714
883.587	4507
883.657	6257
883.668	6343
883.749	6203
883.763	6182
883.830	4496
883.869	3483
883.910	3447
883.975	3763
883.991	4024
884.072	5141
884.081	5259
884.152	6428
884.187	6740
884.233	6723
884.292	6576
884.314	5872
884.394	3379
884.398	3239
884.475	2621
884.504	2448
884.555	2781
884.610	3118
884.636	3519
884.716	5092
884.716	5118
884.797	6694
884.821	7037
884.877	6209
884.927	5558
884.958	5053
885.033	3680
885.038	3668
885.118	3335
885.139	3191
885.199	3232
885.244	3622
885.279	4405
885.350	5757
885.359	6049
885.439	8387
885.456	8754
885.520	6106
885.561	4520
885.600	4291
885.667	4072
885.680	4320
885.760	5333
885.773	5560
885.840	4312
885.878	3410
885.920	3829
885.984	4389
886.000	4520
886.080	5375
886.089	5416
886.160	5928
886.195	6257
886.240	5918
886.300	5184
886.320	5204
886.400	5595
886.406	5589
886.480	4582
886.511	4165
886.560	4426
886.616	4785
886.640	4836
886.720	4672
886.722	4654
886.800	4771
886.827	4862
886.879	5299
886.932	5641
886.959	6153
887.038	7438
887.039	7444
887.119	5912
887.143	5442
887.198	5427
887.248	5480
887.278	5514
887.354	5391
887.358	5424
887.437	5698
887.459	5792
887.517	6019
887.564	6062
887.596	5364
887.669	3813
887.676	3816
887.755	3667
887.774	3632
887.835	4103
887.880	4466
887.914	4806
887.985	5360
887.994	5655
888.073	8212
888.090	8697
888.153	8365
888.195	8072
888.232	7072
888.300	5182
888.311	5150
888.391	4883
888.405	4817
888.470	4547
888.510	4319
888.549	4653
888.615	5253
888.628	5556
888.708	7253
888.720	7483
888.787	6742
888.825	6297
888.866	5548
888.930	4348
888.945	4641
889.024	6134
889.035	6316
889.103	6538
889.140	6616
889.182	5846
889.245	4669
889.261	4989
889.340	6462
889.349	6609
889.419	5922
889.454	5572
889.498	5334
889.559	4962
889.577	5459
889.656	7570
889.664	7761
889.735	7025
889.768	6640
889.814	6518
889.873	6310
889.978	5859
890.083	5741
890.187	7406
890.292	7071
890.397	5895
890.501	6184
890.606	3862
890.710	5587
890.815	8223
890.919	5622
891.024	5470
891.128	4955
891.233	4940
891.337	8362
891.442	6895
891.546	6134
891.650	5024
891.755	4654
891.859	6776
891.963	7044
892.068	6313
892.172	4390
892.276	4076
892.380	5039
892.484	7682
892.589	7403
892.693	5668
892.797	3653
892.901	2701
893.005	5007
893.109	8233
893.213	7211
893.317	5233
893.421	3453
893.525	3204
893.629	3441
893.733	7068
893.837	5617
893.941	4316
894.045	3990
894.148	3014
894.252	3913
894.356	8059
894.460	8199
894.564	5632
894.667	5097
894.771	2894
894.875	3460
894.978	4843
895.082	6072
895.186	6534
895.289	4862
895.393	4362
895.496	6661
895.600	3782
895.703	3793
895.807	4433
895.910	5089
896.014	4935
896.117	4084
896.221	5903
896.324	5817
896.427	3859
896.531	3342
896.634	3909
896.737	4662
896.840	5367
896.944	6305
897.047	6151
897.150	4859
897.253	3196
897.356	3635
897.460	3052
897.563	3764
897.666	5926
897.769	5002
897.872	3440
897.975	4250
898.078	3758
898.181	3288
898.284	4712
898.387	6120
898.490	5530
898.593	3551
898.695	2875
898.798	3628
898.901	3540
899.004	5002
899.107	4723
899.209	4437
899.312	6783
899.415	3581
899.518	3233
899.620	2881
899.723	3433
899.826	3923
899.928	3261
900.031	4545
900.133	6202
900.236	3715
900.338	2640
900.441	2775
900.543	4586
900.646	4477
900.748	3562
900.851	5068
900.953	3723
901.055	2875
901.158	4045
901.260	3208
901.362	3983
901.465	2270
901.567	5775
901.669	5145
901.771	4006
901.873	4003
901.976	3302
902.078	4139
902.180	2966
902.282	2857
902.384	3997
902.486	6387
902.588	5075
902.690	3222
902.792	2597
902.894	3846
902.996	5183
903.098	5179
903.200	2926
903.302	2548
903.404	3007
903.505	3178
903.607	3000
903.709	6808
903.811	5333
903.913	4301
904.014	2184
904.116	2359
904.218	3307
904.319	3792
904.421	6313
904.523	4642
904.624	3168
904.726	2518
904.827	2716
904.929	2816
905.030	3672
905.132	6164
905.233	4573
905.335	2545
905.436	3086
905.537	2786
905.639	3272
905.740	3639
905.841	5392
905.943	3908
906.044	3579
906.145	3188
906.247	2902
906.348	3149
906.449	4236
906.550	4163
906.651	3720
906.752	2626
906.854	3380
906.955	3606
907.056	3126
907.157	5653
907.258	5370
907.359	2293
907.460	2435
907.561	2610
907.662	3448
907.762	4446
907.863	5127
907.964	3212
908.065	3560
908.166	2733
908.267	2716
908.367	3347
908.468	2488
908.569	3733
908.670	5146
908.770	4068
908.871	4371
908.971	4553
909.072	2971
909.173	2935
909.273	3918
909.374	4974
909.474	3822
909.575	3296
909.675	3512
909.776	4785
909.876	3711
909.977	3720
910.077	4585
910.177	5291
910.278	3458
910.378	2619
910.478	3198
910.579	4934
910.679	4347
910.779	4746
910.879	4489
910.980	4831
911.080	4184
911.180	2500
911.280	3109
911.380	2849
911.480	2517
911.580	3780
911.680	4619
911.780	4355
911.880	4534
911.980	3024
912.080	4217
912.180	3511
912.280	3282
912.380	3031
912.480	2592
912.580	2405
912.679	4471
912.779	4587
912.879	3602
912.979	4249
913.078	2589
913.178	2811
913.278	2656
913.377	2150
913.477	2910
913.577	4186
913.676	5223
913.776	5130
913.875	3732
913.975	3173
914.074	4856
914.174	4308
914.273	3602
914.373	3840
914.472	4216
914.572	3009
914.671	2861
914.770	3070
914.870	2478
914.969	3504
915.068	4535
915.167	4355
915.267	2972
915.366	3606
915.465	4389
915.564	3160
915.663	3967
915.763	4293
915.862	4159
915.961	4645
916.060	2808
916.159	2693
916.258	3492
916.357	3501
916.456	4003
916.555	4055
916.654	3412
916.752	4804
916.851	4523
916.950	3159
917.049	3905
917.148	2706
917.247	3157
917.345	4018
917.444	2316
917.543	3774
917.642	3720
917.740	4025
917.839	6027
917.937	5821
918.036	5439
918.135	3191
918.233	3713
918.332	3217
918.430	3133
918.529	3900
918.627	4320
918.726	5274
918.824	4071
918.923	3800
919.021	3970
919.119	2682
919.218	3271
919.316	3878
919.414	4380
919.512	6346
919.611	5630
919.709	4688
919.807	6134
919.905	6832
920.003	5639
920.102	5288
920.200	5362
920.298	6421
920.396	5826
920.494	5423
920.592	5608
920.690	5304
920.788	5687
920.886	6280
920.984	7155
921.082	7419
921.180	6456
921.277	7120
921.375	9423
921.473	11411
921.571	11142
921.669	8946
921.766	8914
921.864	9115
921.962	9842
922.060	9369
922.157	9701
922.255	10201
922.352	10154
922.450	11091
922.548	12074
922.645	12448
922.743	18117
922.840	27745
922.938	26748
923.035	25147
923.133	25845
923.230	29491
923.327	32804
923.425	29996
923.522	30472
923.619	26904
923.717	25570
923.814	25098
923.911	24157
924.008	26048
924.106	23526
924.203	24228
924.300	24944
924.397	23862
924.494	25189
924.591	23667
924.688	22997
924.786	23601
924.883	23978
924.979	24616
925.077	24626
925.173	23709
925.270	23680
925.367	23798
925.464	26093
925.561	25932
925.658	25061
925.755	22343
925.852	25272
925.948	24261
926.045	22853
926.142	24779
926.239	23726
926.335	19638
926.432	22720
926.529	24773
926.625	25469
926.722	19654
926.818	22617
926.915	22091
927.011	21375
927.108	21434
927.204	20649
927.301	19888
927.397	23258
927.494	24027
927.590	16020
927.687	19935
927.783	24723
927.879	22525
927.976	19102
928.072	18883
928.168	22582
928.264	20776
928.361	21547
928.457	22544
928.553	18005
928.649	20280
928.745	19881
928.841	18213
928.937	19814
929.033	19365
929.129	20141
929.225	22104
929.321	16860
929.417	17654
929.513	21640
929.609	16739
929.705	19806
929.801	20548
929.897	17758
929.993	17982
930.089	18661
930.184	17061
930.280	20995
930.376	21699
930.471	16914
930.567	16067
930.663	17529
930.758	15856
930.854	17397
930.950	17513
931.045	15098
931.141	18613
931.236	20572
931.332	16471
931.427	16003
931.523	21552
931.618	17606
931.714	12698
931.809	16254
931.905	18325
932.000	12519
932.095	14667
932.191	21347
932.286	21204
932.381	15229
932.476	14539
932.572	15273
932.667	13315
932.762	14538
932.857	17413
932.952	18390
933.047	14833
933.142	13362
933.237	17199
933.332	17541
933.427	17426
933.522	14498
933.617	13667
933.712	14731
933.807	19356
933.902	18664
933.997	18010
934.092	12463
934.187	15406
934.282	15684
934.376	17402
934.471	15942
934.566	12351
934.661	13395
934.755	16961
934.850	16897
934.945	13113
935.039	12449
935.134	10704
935.228	16915
935.323	18660
935.417	12316
935.512	9749
935.606	12361
935.701	15185
935.795	16611
935.890	13439
935.984	11317
936.079	11356
936.173	13181
936.267	11459
936.362	10770
936.456	14854
936.550	16948
936.644	12532
936.738	10853
936.833	10690
936.927	8808
937.021	11727
937.115	14104
937.209	14292
937.303	12038
937.397	10734
937.491	13432
937.585	14205
937.679	11635
937.773	10870
937.867	8964
937.961	11985
938.055	16234
938.149	10742
938.243	8776
938.337	8821
938.430	11596
938.524	14788
938.618	10905
938.712	9705
938.805	12017
938.899	14537
938.993	14304
939.086	9481
939.180	7854
939.274	10903
939.367	13557
939.461	13099
939.554	10506
939.648	8908
939.741	9585
939.835	13773
939.928	15199
940.022	13033
940.115	12012
940.208	12397
940.302	16101
940.395	14386
940.488	9544
940.582	10489
940.675	8712
940.768	10482
940.861	12933
940.954	12381
941.048	7351
941.141	8043
941.234	10187
941.327	10742
941.420	13364
941.513	11222
941.606	9587
941.699	10920
941.792	13044
941.885	10802
941.978	11911
942.071	10681
942.164	7411
942.257	8563
942.349	11458
942.442	10025
942.535	8043
942.628	8807
942.721	9786
942.813	9671
942.906	11236
942.999	9158
943.091	8947
943.184	9253
943.277	8244
943.369	7100
943.462	6389
943.554	9506
943.647	10071
943.739	13671
943.832	10588
943.924	5916
944.017	6711
944.109	8142
944.201	8369
944.294	9431
944.386	9405
944.478	7483
944.571	7150
944.663	7740
944.755	9049
944.847	9117
944.940	8289
945.032	5787
945.124	7148
945.216	8290
945.308	9346
945.400	8124
945.492	8466
945.584	10831
945.676	11407
945.768	8649
945.860	10652
945.952	9910
946.044	8102
946.136	7137
946.228	7773
946.320	8133
946.412	9745
946.503	11225
946.595	9085
946.687	6494
946.779	5048
946.870	7704
946.962	7495
947.054	7261
947.145	9049
947.237	6992
947.329	7591
947.420	8239
947.512	7434
947.603	5902
947.695	5775
947.786	6532
947.878	7197
947.969	8978
948.061	9223
948.152	6498
948.243	5613
948.335	5808
948.426	6168
948.517	9075
948.609	9178
948.700	7770
948.791	6417
948.882	4604
948.973	5521
949.065	7478
949.156	6737
949.247	5882
949.338	6862
949.429	4503
949.520	5602
949.611	7430
949.702	8166
949.793	6087
949.884	7077
949.975	5244
950.066	4925
950.157	5636
950.247	5749
950.338	5062
950.429	6366
950.520	6009
950.611	5242
950.701	6383
950.792	8276
950.883	7919
950.973	6253
951.064	7184
951.155	7813
951.245	7478
951.336	7272
951.427	8013
951.517	9366
951.608	7259
951.698	5515
951.788	5402
951.879	5221
951.969	4633
952.060	5722
952.150	6528
952.240	8627
952.331	6518
952.421	7688
952.511	4419
952.602	5158
952.692	5098
952.782	4633
952.872	5670
952.962	6384
953.052	5681
953.143	5320
953.233	5252
953.323	6102
953.413	6427
953.503	7254
953.593	6548
953.683	5474
953.773	5155
953.863	4050
953.953	4575
954.042	7124
954.132	6274
954.222	5862
954.312	4785
954.402	4994
954.492	4867
954.581	6394
954.671	4777
954.761	4602
954.850	5319
954.940	3638
955.030	3997
955.119	4036
955.209	4639
955.298	6155
955.388	6748
955.477	6456
955.567	3767
955.656	5455
955.746	4892
955.835	3470
955.925	4194
956.014	6825
956.103	7681
956.193	7655
956.282	5858
956.371	4968
956.461	6448
956.550	5721
956.639	4768
956.728	4837
956.817	5404
956.906	5335
956.995	6944
957.085	4169
957.174	5476
957.263	4278
957.352	5347
957.441	5351
957.530	5201
957.619	4359
957.708	4749
957.796	5007
957.885	5192
957.974	4345
958.063	4670
958.152	3395
958.241	4004
958.329	4523
958.418	5692
958.507	5399
958.596	5451
958.684	4647
958.773	5408
958.861	3941
958.950	3728
959.039	4503
959.127	5010
959.216	5874
959.304	4995
959.393	5473
959.481	5758
959.570	5168
959.658	4079
959.746	4654
959.835	5122
959.923	4976
960.011	4242
960.100	5521
960.188	6060
960.276	3581
960.365	3684
960.453	3341
960.541	3603
960.629	4079
960.717	3558
960.805	2758
960.893	5518
960.981	5223
961.069	7266
961.158	7146
961.245	7389
961.333	6493
961.421	5557
961.509	5331
961.597	4737
961.685	4374
961.773	5283
961.861	5259
961.949	5355
962.036	2913
962.124	3861
962.212	3453
962.299	3488
962.387	3671
962.475	4293
962.562	3165
962.650	4214
962.738	2907
962.825	2654
962.913	3441
963.000	3929
963.088	4910
963.175	4231
963.263	4261
963.350	4272
963.438	3440
963.525	3087
963.612	5377
963.700	5603
963.787	6206
963.874	4382
963.962	3588
964.049	3389
964.136	3434
964.223	2176
964.310	3906
964.398	3633
964.485	3731
964.572	4214
964.659	3108
964.746	3192
964.833	2731
964.920	2951
965.007	3078
965.094	3255
965.181	4200
965.268	4257
965.355	3477
965.441	3453
965.528	3959
965.615	4612
965.702	3721
965.789	3862
965.875	5573
965.962	5122
966.049	3582
966.136	5077
966.222	5501
966.309	5870
966.395	3871
966.482	4995
966.569	4173
966.655	4794
966.742	3761
966.828	4314
966.915	3156
967.001	2573
967.087	2581
967.174	2820
967.260	4336
967.347	3676
967.433	3838
967.519	4828
967.605	3396
967.692	3442
967.778	2983
967.864	3200
967.950	3110
968.036	3509
968.123	3761
968.209	3331
968.295	1414
968.381	4099
968.467	2823
968.553	1818
968.639	4250
968.725	3490
968.811	5662
968.897	4577
968.983	3359
969.069	1679
969.154	2987
969.240	3276
969.326	2656
969.412	3129
969.497	2620
969.583	2997
969.669	3623
969.755	3987
969.840	4622
969.926	7637
970.012	8593
970.097	9590
970.183	7317
970.268	4657
970.354	4486
970.439	2805
970.525	4309
970.610	3184
970.696	4274
970.781	1932
970.866	2159
970.952	3752
971.037	3726
971.122	3610
971.208	3193
971.293	3101
971.378	2572
971.463	2584
971.549	2976
971.634	3830
971.719	3159
971.804	3243
971.889	3568
971.974	2759
972.059	3150
972.144	3845
972.229	3264
972.314	2829
972.399	3044
972.484	2691
972.569	3251
972.654	1112
972.739	3523
972.824	2285
972.908	2004
972.993	3040
973.078	2885
973.163	2582
973.247	3374
973.332	1574
973.417	3973
973.501	2665
973.586	3069
973.671	3114
973.755	2388
973.840	4071
973.924	5583
974.009	5238
974.093	4657
974.178	5758
974.262	4237
974.346	3966
974.431	3988
974.515	3293
974.600	2964
974.684	3923
974.768	3348
974.852	4692
974.937	3120
975.021	4205
975.105	3506
975.189	2566
975.273	3393
975.358	1682
975.442	2599
975.526	3550
975.610	2655
975.694	1917
975.778	3223
975.862	2329
975.946	1348
976.030	3848
976.114	2909
976.198	2510
976.281	2892
976.365	3899
976.449	2014
976.533	2822
976.617	2373
976.700	2097
976.784	2221
976.868	2102
976.951	2446
977.035	3435
977.119	3376
977.202	3349
977.286	4915
977.369	6056
977.453	6943
977.536	5971
977.620	4861
977.703	5219
977.787	3827
977.870	4618
977.953	4556
978.037	2565
978.120	4788
978.203	3525
978.287	4012
978.370	3387
978.453	3752
978.536	3352
978.620	3507
978.703	4148
978.786	2383
978.869	2181
978.952	2748
979.035	4672
979.118	3604
979.201	2795
979.284	3580
979.367	2963
979.450	3203
979.533	2485
979.616	3172
979.699	2532
979.782	3615
979.865	2957
979.948	2470
980.030	2210
980.113	2649
980.196	2258
980.279	4501
980.361	2437
980.444	3710
980.526	6089
980.609	7151
980.692	7083
980.774	6986
980.857	4122
980.939	4437
981.022	4524
981.104	3766
981.187	4028
981.269	4040
981.352	4008
981.434	3215
981.516	3704
981.599	5274
981.681	3800
981.763	3214
981.846	3932
981.928	4146
982.010	3225
982.092	3643
982.174	4673
982.256	3820
982.339	3449
982.421	3660
982.503	3900
982.585	2971
982.667	3678
982.749	3442
982.831	3685
982.913	3248
982.995	4648
983.077	4706
983.158	6261
983.240	3819
983.322	6607
983.404	8268
983.486	7016
983.568	7238
983.649	5365
983.731	6278
983.813	5172
983.894	5367
983.976	4526
984.058	5035
984.139	4877
984.221	4149
984.302	5067
984.384	4644
984.465	4753
984.547	4720
984.628	4269
984.710	5746
984.791	4857
984.872	4785
984.954	4848
985.035	5507
985.116	4514
985.198	4691
985.279	5652
985.360	3959
985.441	4962
985.522	4900
985.604	5667
985.685	3584
985.766	5231
985.847	6353
985.928	4123
986.009	3733
986.090	5063
986.171	5053
986.252	3989
986.333	4703
986.414	4572
986.495	5177
986.576	4806
986.656	6124
986.737	5923
986.818	5916
986.899	5296
986.980	5523
987.060	6398
987.141	5975
987.222	6742
987.302	8026
987.383	8035
987.464	6826
987.544	6868
987.625	6596
987.705	8268
987.786	7112
987.866	6733
987.947	7070
988.027	7037
988.108	6958
988.188	6590
988.268	6962
988.349	5614
988.429	6674
988.509	6187
988.589	6238
988.670	4279
988.750	6916
988.830	5881
988.910	6211
988.990	5384
989.070	5730
989.151	6021
989.231	4626
989.311	5047
989.391	5353
989.471	5873
989.551	5328
989.631	5072
989.711	6790
989.791	5484
989.870	5225
989.950	6299
990.030	4683
990.110	4567
990.190	4470
990.269	4560
990.349	5346
990.429	4754
990.509	4811
990.588	3640
990.668	4584
990.747	4859
990.827	4185
990.907	6171
990.986	5232
991.066	4254
991.145	4414
991.225	5752
991.304	4105
991.383	4138
991.463	4555
991.542	4793
991.622	3295
991.701	3436
991.780	3831
991.859	3565
991.939	4177
992.018	3806
992.097	4491
992.176	4129
992.256	4313
992.335	3349
992.414	4358
992.493	3321
992.572	3517
992.651	5198
992.730	3605
992.809	4378
992.888	3879
992.967	3743
993.046	4253
993.125	2085
993.203	3915
993.282	3999
993.361	3135
993.440	2984
993.519	2526
993.597	3491
993.676	3447
993.755	3582
993.834	3180
993.912	2025
993.991	3981
994.069	3635
994.148	3767
994.226	2491
994.305	3480
994.384	3027
994.462	4440
994.540	2300
994.619	2455
994.697	3097
994.776	2857
994.854	3969
994.932	1384
995.011	3317
995.089	3120
995.167	2276
995.245	3035
995.324	2265
995.402	3007
995.480	2215
995.558	2489
995.636	1385
995.714	2729
995.792	3728
995.870	1726
995.948	1883
996.026	2721
996.104	2203
996.182	3029
996.260	1539
996.338	2042
996.416	2428
996.494	2143
996.572	2691
996.649	2407
996.727	1749
996.805	2523
996.883	2263
996.960	2204
997.038	2752
997.116	2441
997.193	1339
997.271	1752
997.348	1921
997.426	2710
997.504	2170
997.581	2653
997.658	1521
997.736	367
997.813	396
997.891	2910
997.968	815
998.046	1747
998.123	1462
998.200	2344
998.277	1840
998.355	2365
998.432	197
998.509	1456
998.586	2155
998.663	1843
998.741	1256
998.818	944
998.895	1256
998.972	1756
999.049	2589
999.126	1095
999.203	1077
999.280	1526
999.357	2166
999.434	841
999.511	36
999.587	1267
999.664	331
999.741	1781
999.818	1553
999.895	961
999.971	1112
1000.048	1911
1000.125	2384
1000.202	632
1000.278	1729
1000.355	1534
1000.431	655
1000.508	437
1000.584	904
1000.661	1594
1000.738	1120
1000.814	1343
1000.890	1582
1000.967	1685
1001.043	904
1001.120	308
1001.196	629
1001.272	31
1001.349	819
1001.425	1551
1001.501	949
1001.577	836
1001.654	1018
1001.730	1238
1001.806	536
1001.882	628
1001.958	1549
1002.034	1578
1002.110	354
1002.186	348
1002.262	233
1002.338	573
1002.414	750
1002.490	605
1002.566	543
1002.642	119
1002.718	1662
1002.794	1266
1002.870	791
1002.945	63
1003.021	644
1003.097	926
1003.173	339
1003.248	313
1003.324	1148
1003.400	1053
1003.475	205
1003.551	1166
1003.626	596
1003.702	46
1003.777	-39
1003.853	-283
1003.928	-92
1004.004	-25
1004.079	713
1004.155	1048
1004.230	-963
1004.305	1053
1004.381	48
1004.456	493
1004.531	-713
1004.607	-155
1004.682	253
1004.757	-341
1004.832	129
1004.907	93
1004.982	1315
1005.057	394
1005.133	455
1005.208	330
1005.283	-908
1005.358	-153
1005.433	-216
1005.508	7
1005.583	117
1005.657	-394
1005.732	651
1005.807	-914
1005.882	-249
1005.957	-620
1006.032	453
1006.106	308
1006.181	397
1006.256	1057
1006.331	-407
1006.405	-462
1006.480	-137
1006.554	-10
1006.629	263
1006.704	-135
1006.778	-857
1006.853	235
1006.927	-351
1007.002	42
1007.076	49
1007.150	31
1007.225	63
1007.299	238
1007.373	-1213
1007.448	-453
1007.522	214
1007.596	315
1007.671	-560
1007.745	-139
1007.819	-1190
1007.893	-44
1007.967	178
1008.041	-235
1008.115	97
1008.190	-683
1008.264	-36
1008.338	-1500
1008.412	-728
1008.486	-1190
1008.560	-377
1008.633	-211
1008.707	91
1008.781	786
1008.855	-946
1008.929	-601
1009.003	-1091
1009.076	24
1009.150	-423
1009.224	-588
1009.298	-254
1009.371	-727
1009.445	-1144
1009.519	-404
1009.592	-872
1009.666	-729
1009.739	338
1009.813	-699
1009.886	210
1009.960	-1379
1010.033	68
1010.107	-148
1010.180	-1012
1010.253	-573
1010.327	-1320
1010.400	-1105
1010.473	-112
1010.547	370
1010.620	-336
1010.693	-476
1010.766	-1271
1010.840	-539
1010.913	-421
1010.986	-1972
1011.059	-769
1011.132	-1610
1011.205	394
1011.278	-737
1011.351	-549
1011.424	-463
1011.497	-878
1011.570	209
1011.643	-330
1011.716	-982
1011.789	-260
1011.862	-1103
1011.934	-291
1012.007	-1657
1012.080	-880
1012.153	-146
1012.225	-742
1012.298	-1338
1012.371	-616
1012.443	79
1012.516	-1378
1012.588	-735
1012.661	-423
1012.733	-1371
1012.806	-1029
1012.879	-1134
1012.951	-56
1013.023	-607
1013.096	-310
1013.168	-376
1013.241	-398
1013.313	-400
1013.385	-1338
1013.458	-571
1013.530	-440
1013.602	-923
1013.674	-778
1013.746	-1005
1013.819	-1226
1013.891	-1246
1013.963	-1219
1014.035	-43
1014.107	-1179
1014.179	27
1014.251	-1065
1014.323	-793
1014.395	-975
1014.467	-975
1014.539	-1184
1014.611	-1520
1014.683	43
1014.754	-582
1014.826	-1174
1014.898	-832
1014.970	-883
1015.042	-405
1015.113	-1651
1015.185	-1087
1015.257	-1568
1015.328	-843
1015.400	-1858
1015.471	-698
1015.543	-1289
1015.615	-1251
1015.686	-1202
1015.757	-488
1015.829	-369
1015.901	-1940
1015.972	-957
1016.043	-1222
1016.115	-596
1016.186	-1303
1016.257	-1025
1016.328	-648
1016.400	-325
1016.471	-1719
1016.542	-376
1016.613	-705
1016.685	-1638
1016.756	-948
1016.827	-1506
1016.898	-1874
1016.969	-878
1017.040	-1520
1017.111	-2147
1017.182	-917
1017.253	-1629
1017.324	-691
1017.395	-2223
1017.466	-1466
1017.537	-1668
1017.608	-1935
1017.678	-1033
1017.749	-524
1017.820	-1268
1017.891	-1780
1017.961	-1211
1018.032	-682
1018.103	-829
1018.173	-884
1018.244	-2184
1018.315	-1612
1018.385	-948
1018.456	-1526
1018.526	-1129
1018.597	-1990
1018.667	-1774
1018.738	-1765
1018.808	-1420
1018.878	-1486
1018.949	-667
1019.019	-1397
1019.089	-756
1019.160	-1456
1019.230	-1726
1019.300	-1262
1019.371	-1716
1019.441	-689
1019.511	-1372
1019.581	-1756
1019.651	-1582
1019.721	-761
1019.791	-1713
1019.861	-781
1019.931	-865
1020.001	-1450
1020.071	-1010
1020.141	-898
1020.211	-967
1020.281	-1920
1020.351	-1895
1020.421	-1712
1020.491	-1857
1020.560	-2167
1020.630	-1391
1020.700	-1521
1020.770	-1966
1020.839	-1184
1020.909	-1285
1020.979	-1763
1021.048	-1593
1021.118	-1016
1021.187	-1676
1021.257	-1369
1021.326	-1434
1021.396	-1601
1021.465	-1307
1021.535	-2175
1021.604	-1672
1021.674	-1147
1021.743	-1424
1021.812	-1734
1021.882	-1396
1021.951	-1227
1022.020	-1434
1022.089	-772
1022.159	-1920
1022.228	-1152
1022.297	-1680
1022.366	-1803
1022.435	-1169
1022.504	-1297
1022.573	-1478
1022.642	-1647
1022.711	-2256
1022.781	-368
1022.849	-1579
1022.918	-1793
1022.987	-1823
1023.056	-1637
1023.125	-1874
1023.194	-1032
1023.263	-1542
1023.331	-1524
1023.400	-898
1023.469	-1231
1023.538	-1081
1023.606	-2264
1023.675	-1392
1023.744	-814
1023.812	-1459
1023.881	-1185
1023.949	-1690
1024.018	-957
1024.086	-1648
1024.155	-1674
1024.223	-1706
1024.292	-2074
1024.360	-1703
1024.429	-1345
1024.497	-1752
1024.565	-1888
1024.634	-1816
1024.702	-1935
1024.770	-2142
1024.838	-1828
1024.907	-2043
1024.975	-1321
1025.043	-1686
1025.111	-2466
1025.179	-2240
1025.247	-1359
1025.315	-2470
1025.383	-2525
1025.451	-913
1025.519	-1966
1025.587	-2512
1025.655	-910
1025.723	-2354
1025.791	-1692
1025.859	-1952
1025.927	-1201
1025.995	-1709
1026.062	-2051
1026.130	-1528
1026.198	-2075
1026.266	-2449
1026.333	-1444
1026.401	-851
1026.469	-1841
1026.536	-1445
1026.604	-1269
1026.671	-1752
1026.739	-2073
1026.806	-1923
1026.874	-1589
1026.941	-2157
1027.009	-1796
1027.076	-2322
1027.144	-1847
1027.211	-2375
1027.278	-1852
1027.345	-863
1027.413	-1867
1027.480	-2486
1027.547	-1847
1027.614	-2078
1027.682	-2058
1027.749	-2981
1027.816	-1488
1027.883	-2111
1027.950	-2188
1028.017	-2164
1028.084	-992
1028.151	-1860
1028.218	-1996
1028.285	-1681
1028.352	-1737
1028.419	-2751
1028.486	-2039
1028.553	-718
1028.619	-2028
1028.686	-1966
1028.753	-1642
1028.820	-1327
1028.886	-2316
1028.953	-2779
1029.020	-1942
1029.086	-2584
1029.153	-1614
1029.220	-2513
1029.286	-2186
1029.353	-2718
1029.419	-1753
1029.486	-2641
1029.552	-2451
1029.619	-2093
1029.685	-2234
1029.751	-2734
1029.818	-1807
1029.884	-2422
1029.951	-1916
1030.017	-1650
1030.083	-2365
1030.149	-1224
1030.216	-2190
1030.282	-1828
1030.348	-2240
1030.414	-2260
1030.480	-2591
1030.546	-1799
1030.612	-2479
1030.678	-2432
1030.744	-2412
1030.810	-2589
1030.876	-1914
1030.942	-2448
1031.008	-2155
1031.074	-2763
1031.140	-2553
1031.206	-1568
1031.272	-2332
1031.337	-2107
1031.403	-2116
1031.469	-2356
1031.534	-2599
1031.600	-1695
1031.666	-2528
1031.731	-2556
1031.797	-2396
1031.863	-2723
1031.928	-2583
1031.994	-2662
1032.059	-2935
1032.125	-1736
1032.190	-2367
1032.256	-1899
1032.321	-2290
1032.386	-1871
1032.452	-1922
1032.517	-2732
1032.582	-2637
1032.647	-2554
1032.713	-1869
1032.778	-2423
1032.843	-3032
1032.908	-2331
1032.974	-2608
1033.039	-2172
1033.104	-1342
1033.169	-1642
1033.234	-1787
1033.299	-1212
1033.364	-1197
1033.429	-2383
1033.494	-1784
1033.559	-1942
1033.624	-1311
1033.688	-2215
1033.753	-1876
1033.818	-2481
1033.883	-1533
1033.948	-1037
1034.013	-650
1034.077	79
1034.142	1305
1034.207	1715
1034.271	5268
1034.336	5707
1034.400	1593
1034.465	325
1034.530	-683
1034.594	-2053
1034.658	-2391
1034.723	-1979
1034.787	-2813
1034.852	-1889
1034.916	-2682
1034.981	-2580
1035.045	-2296
1035.109	-2778
1035.173	-2370
1035.238	-3611
1035.302	-1894
1035.366	-1502
1035.430	-3235
1035.495	-2309
1035.559	-2354
1035.623	-2082
1035.687	-2325
1035.751	-1901
1035.815	-2318
1035.879	-2734
1035.943	-2602
1036.007	-2069
1036.071	-2414
1036.135	-2113
1036.198	-2398
1036.262	-2243
1036.326	-1923
1036.390	-1844
1036.454	-1597
1036.517	-1687
1036.581	-1600
1036.645	-114
1036.709	-1352
1036.772	-2049
1036.836	-2720
1036.900	-2388
1036.963	-2130
1037.026	-2442
1037.090	-2478
1037.154	-2812
1037.217	-2460
1037.280	-2630
1037.344	-2591
1037.407	-2434
1037.471	-1738
1037.534	-2848
1037.597	-1383
1037.661	-1838
1037.724	-2264
1037.787	-2499
1037.850	-2664
1037.913	-2311
1037.977	-2362
1038.040	-2844
1038.103	-2561
1038.166	-3124
1038.229	-2274
1038.292	-2109
1038.355	-2197
1038.418	-2367
1038.481	-2816
1038.544	-3105
1038.607	-2478
1038.670	-2403
1038.732	-3315
1038.795	-2835
1038.858	-2406
1038.921	-2100
1038.984	-1547
1039.046	-2661
1039.109	-2596
1039.172	-2835
1039.234	-2802
1039.297	-2746
1039.360	-3293
1039.422	-2701
1039.485	-2786
1039.547	-2977
1039.610	-2072
1039.672	-2867
1039.734	-2505
1039.797	-2326
1039.859	-2001
1039.922	-2323
1039.984	-2467
1040.046	-2650
1040.109	-2040
1040.171	-2522
1040.233	-2475
1040.295	-2198
1040.358	-2370
1040.420	-3058
1040.482	-3044
1040.544	-2665
1040.606	-2603
1040.668	-2177
1040.730	-2856
1040.792	-2796
1040.854	-2630
1040.916	-2897
1040.978	-3283
1041.040	-1398
1041.102	-2178
1041.164	-2929
1041.225	-2210
1041.287	-3031
1041.349	-3035
1041.411	-2722
1041.472	-2013
1041.534	-3190
1041.596	-3453
1041.657	-2455
1041.719	-1516
1041.781	-2120
1041.842	-2774
1041.904	-2390
1041.965	-2815
1042.027	-2086
1042.088	-2895
1042.150	-2622
1042.211	-2123
1042.272	-2452
1042.334	-2549
1042.395	-2021
1042.456	-2297
1042.518	-1785
1042.579	-2900
1042.640	-2680
1042.701	-1570
1042.763	-2479
1042.824	-2590
1042.885	-2570
1042.946	-1795
1043.007	-2323
1043.068	-2512
1043.129	-2824
1043.190	-2199
1043.251	-1975
1043.312	-2689
1043.373	-1837
1043.434	-2143
1043.495	-2710
1043.556	-833
1043.616	-2234
1043.677	-2791
1043.738	-2375
1043.799	-3277
1043.859	-2133
1043.920	-2545
1043.981	-2216
1044.041	-2133
1044.102	-2910
1044.162	-1574
1044.223	-2891
1044.284	-1764
1044.344	-1682
1044.405	-1922
1044.465	-2128
1044.525	-2518
1044.586	-1940
1044.646	-2979
1044.707	-1623
1044.767	-1904
1044.827	-1876
1044.887	-2102
1044.948	-2110
1045.008	-1725
1045.068	-1971
1045.128	-2183
1045.188	-2559
1045.249	-1444
1045.309	-2384
1045.369	-2712
1045.429	-1540
1045.489	-1410
1045.549	-1847
1045.609	-1732
1045.669	-2081
1045.729	-2069
1045.789	-2417
1045.848	-2176
1045.908	-1431
1045.968	-2163
1046.028	-1492
1046.088	-2106
1046.147	-1590
1046.207	-1901
1046.267	-1833
1046.326	-2259
1046.386	-1472
1046.446	-1183
1046.505	-829
1046.565	-1069
1046.624	-934
1046.684	-1035
1046.743	-1045
1046.803	-610
1046.862	-752
1046.922	0
