'Start Wavelength	183.907
'End Wavelength	1046.922
'Gate Delay	5.000
'Gate Width (ms)	1.050
'Laser Output Level	0.000
'X Position	0.000
'Y Position	0.000
'Z Position	0.000
'Grid Point Number	1.000
'Shot Number	100.000
183.907	797.000
183.977	-67.000
184.047	1093
184.116	491
184.186	508
184.256	-900
184.325	72
184.395	-585
184.465	722
184.534	-802
184.604	-381
184.674	52
184.743	-398
184.813	605
184.883	-156
184.952	62
185.022	75
185.092	-546
185.161	-161
185.231	438
185.301	-14
185.370	355
185.440	-657
185.509	-285
185.579	263
185.649	-138
185.718	342
185.788	129
185.857	-916
185.927	-213
185.996	229
186.066	348
186.136	-107
186.205	12
186.275	317
186.344	12
186.414	31
186.483	-312
186.553	1345
186.622	790
186.692	172
186.761	-217
186.831	735
186.900	-142
186.970	398
187.039	537
187.109	865
187.178	389
187.248	-224
187.317	-122
187.387	-267
187.456	723
187.526	531
187.595	484
187.664	-155
187.734	197
187.803	264
187.873	-113
187.942	376
188.012	21
188.081	-510
188.150	225
188.220	329
188.289	782
188.358	40
188.428	434
188.497	384
188.567	636
188.636	-1050
188.705	153
188.775	0
188.844	-1163
188.913	-181
188.983	201
189.052	-450
189.121	-291
189.191	-657
189.260	298
189.329	-171
189.399	1034
189.468	242
189.537	333
189.606	-232
189.676	297
189.745	199
189.814	280
189.883	140
189.953	531
190.022	83
190.091	-86
190.161	53
190.230	-567
190.299	309
190.368	-55
190.437	-349
190.507	285
190.576	-360
190.645	410
190.714	-395
190.783	-486
190.853	663
190.922	-925
190.991	-59
191.060	170
191.129	-357
191.198	489
191.268	119
191.337	-322
191.406	1010
191.475	288
191.544	-70
191.613	662
191.682	-77
191.752	-262
191.821	-416
191.890	-276
191.959	-61
192.028	420
192.097	502
192.166	183
192.235	-767
192.304	164
192.373	188
192.442	-256
192.511	124
192.580	367
192.650	973
192.719	380
192.788	908
192.857	93
192.926	-480
192.995	263
193.064	207
193.133	-238
193.202	-66
193.271	1160
193.340	425
193.409	-13
193.478	-270
193.547	-400
193.615	435
193.684	692
193.753	-302
193.822	900
193.891	574
193.960	-395
194.029	-579
194.098	433
194.167	228
194.236	630
194.305	-264
194.374	166
194.443	-53
194.512	39
194.580	85
194.649	44
194.718	542
194.787	331
194.856	-538
194.925	85
194.994	301
195.062	25
195.131	137
195.200	-14
195.269	-273
195.338	-241
195.407	567
195.475	215
195.544	410
195.613	-655
195.682	148
195.751	393
195.819	-100
195.888	-352
195.957	782
196.026	-63
196.094	218
196.163	-205
196.232	538
196.301	318
196.369	103
196.438	47
196.507	311
196.576	-615
196.644	123
196.713	423
196.782	555
196.850	96
196.919	-474
196.988	8
197.056	-342
197.125	258
197.194	-348
197.262	489
197.331	-222
197.400	-108
197.468	152
197.537	-421
197.606	251
197.674	331
197.743	106
197.812	152
197.880	-167
197.949	-203
198.017	-230
198.086	-226
198.155	-49
198.223	-504
198.292	-33
198.360	-437
198.429	-428
198.497	-211
198.566	-277
198.635	-446
198.703	891
198.772	255
198.840	419
198.909	-92
198.977	-594
199.046	-49
199.114	-48
199.183	261
199.251	-776
199.320	-543
199.388	263
199.457	-255
199.525	125
199.594	-195
199.662	207
199.731	-344
199.799	-252
199.867	10
199.936	-993
200.004	96
200.073	1471
200.141	196
200.210	105
200.278	-252
200.346	222
200.415	-709
200.483	322
200.552	768
200.620	247
200.688	-301
200.757	-86
200.825	179
200.893	-485
200.962	-325
201.030	-109
201.098	-334
201.167	-351
201.235	-459
201.303	344
201.372	235
201.440	454
201.508	912
201.577	392
201.645	195
201.713	180
201.781	-103
201.850	1333
201.918	232
201.986	-185
202.055	540
202.123	369
202.191	89
202.259	241
202.327	-264
202.396	473
202.464	473
202.532	-295
202.600	1717
202.669	617
202.737	-154
202.805	-109
202.873	324
202.941	102
203.009	-278
203.078	72
203.146	673
203.214	-145
203.282	-1597
203.350	109
203.418	-156
203.487	609
203.555	287
203.623	-8
203.691	-552
203.759	-744
203.827	471
203.895	217
203.963	-32
204.031	-564
204.099	-384
204.168	195
204.236	343
204.304	279
204.372	89
204.440	139
204.508	-399
204.576	-805
204.644	67
204.712	-840
204.780	-79
204.848	-483
204.916	-443
204.984	-309
205.052	-394
205.120	-123
205.188	-289
205.256	-626
205.324	291
205.392	-176
205.460	396
205.528	-722
205.596	-229
205.664	474
205.732	-327
205.799	-710
205.867	-906
205.935	-883
206.003	112
206.071	-515
206.139	180
206.207	-2
206.275	-254
206.343	-143
206.411	-533
206.478	-241
206.546	-195
206.614	-163
206.682	-770
206.750	655
206.818	212
206.885	466
206.953	-1666
207.021	780
207.089	389
207.157	-451
207.225	213
207.292	-822
207.360	-80
207.428	273
207.496	-334
207.563	-120
207.631	-23
207.699	-191
207.767	11
207.834	-790
207.902	-135
207.970	-376
208.038	-348
208.105	295
208.173	-497
208.241	-483
208.309	231
208.376	-421
208.444	247
208.512	127
208.579	-585
208.647	1300
208.715	1725
208.782	-78
208.850	11
208.918	51
208.985	482
209.053	-75
209.120	122
209.188	-98
209.256	333
209.323	-890
209.391	-496
209.459	1096
209.526	-206
209.594	-549
209.661	-225
209.729	224
209.796	54
209.864	239
209.932	-1474
209.999	1089
210.067	100
210.134	352
210.202	-656
210.269	266
210.337	1117
210.404	-151
210.472	-502
210.539	563
210.607	-165
210.674	-633
210.742	492
210.809	-199
210.877	12
210.944	522
211.012	-292
211.079	492
211.146	499
211.214	-351
211.281	773
211.349	1437
211.416	512
211.484	430
211.551	-1025
211.618	-45
211.686	183
211.753	-787
211.821	-95
211.888	172
211.955	244
212.023	-375
212.090	50
212.157	-44
212.225	-575
212.292	-223
212.359	147
212.427	2051
212.494	147
212.561	-339
212.629	-913
212.696	-570
212.763	5
212.831	-727
212.898	281
212.965	-190
213.032	-192
213.100	-282
213.167	-343
213.234	1135
213.301	176
213.369	352
213.436	-55
213.503	-831
213.570	414
213.638	-545
213.705	-408
213.772	374
213.839	-483
213.906	589
213.973	-580
214.041	15
214.108	-212
214.175	-124
214.242	224
214.309	-541
214.376	-351
214.444	-816
214.511	203
214.578	-576
214.645	533
214.712	144
214.779	-724
214.846	58
214.913	78
214.980	618
215.048	814
215.115	981
215.182	-437
215.249	451
215.316	-622
215.383	650
215.450	-428
215.517	-299
215.584	191
215.651	-459
215.718	93
215.785	402
215.852	-977
215.919	897
215.986	-102
216.053	26
216.120	-527
216.187	-420
216.254	250
216.321	262
216.388	-832
216.455	-763
216.522	388
216.589	-768
216.656	309
216.722	-234
216.789	513
216.856	-186
216.923	-71
216.990	20
217.057	19
217.124	-628
217.191	-1010
217.258	654
217.324	-738
217.391	-47
217.458	496
217.525	450
217.592	426
217.659	-1063
217.725	-22
217.792	-286
217.859	80
217.926	-78
217.993	-764
218.059	721
218.126	-284
218.193	35
218.260	-437
218.327	-102
218.393	-833
218.460	-766
218.527	-619
218.594	-370
218.660	-314
218.727	394
218.794	62
218.860	454
218.927	-460
218.994	-719
219.061	-331
219.127	-896
219.194	-132
219.261	235
219.327	-509
219.394	721
219.461	-702
219.527	190
219.594	468
219.661	-406
219.727	-478
219.794	193
219.860	-176
219.927	716
219.994	1203
220.060	2226
220.127	2616
220.193	1098
220.260	54
220.326	33
220.393	-200
220.460	102
220.526	-99
220.593	-759
220.659	1379
220.726	-73
220.792	995
220.859	204
220.925	383
220.992	656
221.058	583
221.125	1239
221.191	380
221.258	-1274
221.324	792
221.391	-15
221.457	-1176
221.524	-423
221.590	868
221.657	1368
221.723	378
221.789	198
221.856	926
221.922	-865
221.989	262
222.055	-184
222.121	-1691
222.188	1173
222.254	452
222.321	-192
222.387	-140
222.453	362
222.520	-515
222.586	-969
222.652	96
222.719	-306
222.785	-17
222.851	-932
222.918	224
222.984	244
223.050	-573
223.116	-1161
223.183	633
223.249	-729
223.315	-138
223.382	-860
223.448	420
223.514	-631
223.580	-350
223.647	-448
223.713	-270
223.779	-426
223.845	-5
223.911	427
223.978	-471
224.044	-278
224.110	-332
224.176	74
224.242	370
224.309	-1155
224.375	424
224.441	178
224.507	-529
224.573	-952
224.639	-411
224.705	-811
224.772	197
224.838	-160
224.904	837
224.970	-250
225.036	-766
225.102	-941
225.168	-117
225.234	405
225.300	-639
225.366	420
225.432	139
225.499	-634
225.565	-443
225.631	-200
225.697	-122
225.763	-462
225.829	-466
225.895	-169
225.961	-212
226.027	-159
226.093	-361
226.159	593
226.225	847
226.291	854
226.357	300
226.423	32
226.489	284
226.554	-353
226.620	51
226.686	-164
226.752	-392
226.818	512
226.884	1372
226.950	770
227.016	-169
227.082	842
227.148	50
227.214	32
227.279	-192
227.345	256
227.411	174
227.477	1678
227.543	4068
227.609	4590
227.674	3206
227.740	192
227.806	1263
227.872	86
227.938	112
228.003	44
228.069	143
228.135	-247
228.201	257
228.267	-834
228.332	-194
228.398	-475
228.464	-227
228.530	-529
228.595	-190
228.661	-702
228.727	282
228.792	1087
228.858	486
228.924	-1499
228.990	1342
229.055	-1219
229.121	192
229.187	-21
229.252	-945
229.318	-67
229.384	168
229.449	-608
229.515	-2031
229.581	-954
229.646	1287
229.712	-976
229.777	-939
229.843	-573
229.909	765
229.974	238
230.040	15
230.105	-326
230.171	-535
230.236	58
230.302	198
230.368	-310
230.433	-1191
230.499	-620
230.564	609
230.630	-1178
230.695	-128
230.761	960
230.826	-1897
230.892	520
230.957	-1232
231.023	-601
231.088	-369
231.154	224
231.219	55
231.284	-1351
231.350	-293
231.415	-662
231.481	-52
231.546	-116
231.612	-321
231.677	-568
231.742	-1202
231.808	516
231.873	-773
231.939	-1739
232.004	1159
232.069	956
232.135	-838
232.200	-796
232.265	573
232.331	-645
232.396	-178
232.461	-247
232.527	-887
232.592	-199
232.657	-300
232.723	383
232.788	-721
232.853	650
232.918	151
232.984	-190
233.049	-403
233.114	-635
233.179	186
233.245	1540
233.310	-281
233.375	-1170
233.440	-131
233.506	158
233.571	-713
233.636	-198
233.701	43
233.766	-214
233.832	334
233.897	-657
233.962	-1680
234.027	772
234.092	169
234.157	-607
234.222	-492
234.288	149
234.353	-212
234.418	1108
234.483	771
234.548	-107
234.613	-390
234.678	26
234.743	-380
234.808	533
234.873	-1083
234.938	740
235.004	-197
235.069	-188
235.134	-889
235.199	620
235.264	102
235.329	-751
235.394	756
235.459	991
235.524	-1652
235.589	376
235.654	-1034
235.719	-737
235.784	151
235.849	-155
235.913	-1212
235.978	-552
236.043	264
236.108	152
236.173	-453
236.238	122
236.303	-933
236.368	-711
236.433	672
236.498	-582
236.563	59
236.627	62
236.692	1914
236.757	1731
236.822	630
236.887	-116
236.952	1173
237.017	-1189
237.081	1057
237.146	-150
237.211	913
237.276	1984
237.341	3637
237.405	1174
237.470	413
237.535	373
237.600	259
237.664	609
237.729	-1573
237.794	-535
237.859	1198
237.923	-680
237.988	-180
238.053	1269
238.118	-540
238.182	-581
238.247	1902
238.312	-1173
238.376	598
238.441	-1578
238.506	727
238.570	-1488
238.635	1092
238.700	156
238.764	-265
238.829	-272
238.893	-781
238.958	27
239.023	-737
239.087	85
239.152	186
239.216	-771
239.281	635
239.346	688
239.410	421
239.475	-1018
239.539	766
239.604	276
239.668	1643
239.733	1210
239.797	3769
239.862	9577
239.926	6884
239.991	3253
240.055	1712
240.120	520
240.184	1073
240.249	-291
240.313	105
240.378	-387
240.442	79
240.507	575
240.571	-733
240.635	-535
240.700	-56
240.764	-327
240.829	-304
240.893	-1094
240.957	466
241.022	-386
241.086	1051
241.151	-335
241.215	-717
241.279	1597
241.344	-662
241.408	-195
241.472	-513
241.537	443
241.601	-276
241.665	-914
241.730	-1079
241.794	743
241.858	-920
241.922	-107
241.987	-154
242.051	-601
242.115	-1017
242.179	-23
242.244	-333
242.308	11
242.372	899
242.436	-531
242.501	17
242.565	-338
242.629	-851
242.693	537
242.757	-733
242.822	-593
242.886	204
242.950	406
243.014	-1209
243.078	-436
243.142	432
243.206	-142
243.271	-164
243.335	141
243.399	175
243.463	204
243.527	2770
243.591	258
243.655	-314
243.719	-367
243.783	594
243.847	-459
243.911	760
243.975	-788
244.040	-1240
244.104	867
244.168	-441
244.232	-755
244.296	35
244.360	-270
244.424	-602
244.488	-253
244.552	364
244.615	-1604
244.679	-62
244.743	-908
244.807	-455
244.871	-15
244.935	281
244.999	-1546
245.063	212
245.127	906
245.191	372
245.255	-844
245.319	167
245.383	-1755
245.446	859
245.510	-666
245.574	-641
245.638	242
245.702	-1924
245.766	548
245.829	1009
245.893	-869
245.957	-674
246.021	587
246.085	-571
246.149	-1029
246.212	1197
246.276	-274
246.340	-367
246.404	456
246.467	1329
246.531	-2140
246.595	958
246.659	619
246.722	-1075
246.786	608
246.850	-269
246.913	124
246.977	-1530
247.041	134
247.104	-764
247.168	130
247.232	-287
247.295	1442
247.359	900
247.423	-483
247.486	66
247.550	500
247.614	-404
247.677	-114
247.741	-158
247.804	-22
247.868	2743
247.932	-376
247.995	2372
248.059	75
248.122	-1133
248.186	683
248.249	10
248.313	2650
248.376	3944
248.440	918
248.503	-534
248.567	1139
248.630	-1085
248.694	-149
248.757	1358
248.821	3773
248.884	2340
248.948	389
249.011	2627
249.075	3535
249.138	3248
249.202	1209
249.265	-469
249.328	903
249.392	-344
249.455	269
249.519	-31
249.582	0
249.645	311
249.709	394
249.772	-255
249.835	23
249.899	166
249.962	-142
250.025	-585
250.089	994
250.152	1989
250.215	501
250.279	441
250.342	580
250.405	564
250.468	138
250.532	-453
250.595	823
250.658	3148
250.721	9270
250.785	1183
250.848	1525
250.911	260
250.974	791
251.038	360
251.101	2228
251.164	-51
251.227	1015
251.290	-252
251.354	1752
251.417	5910
251.480	6911
251.543	2471
251.606	12927
251.669	8891
251.732	2620
251.795	2061
251.859	2784
251.922	7035
251.985	4226
252.048	1142
252.111	602
252.174	-306
252.237	1004
252.300	4014
252.363	2975
252.426	12169
252.489	2879
252.552	1134
252.615	-730
252.678	1498
252.741	2868
252.804	2723
252.867	11112
252.930	5015
252.993	1136
253.056	1302
253.119	1232
253.182	-776
253.245	-382
253.308	549
253.371	-586
253.434	754
253.497	406
253.559	1850
253.622	499
253.685	984
253.748	-504
253.811	49
253.874	1022
253.937	179
254.000	-164
254.062	1159
254.125	1563
254.188	1531
254.251	-253
254.314	267
254.376	-70
254.439	842
254.502	64
254.565	516
254.628	2465
254.690	-523
254.753	381
254.816	-204
254.878	-102
254.941	1050
255.004	1246
255.067	750
255.129	-1023
255.192	580
255.255	-187
255.317	761
255.380	-34
255.443	-423
255.505	983
255.568	-1263
255.631	271
255.693	734
255.756	-150
255.819	1199
255.881	38
255.944	492
256.006	-84
256.069	173
256.132	-348
256.194	229
256.257	810
256.319	1083
256.382	329
256.444	2058
256.507	812
256.569	-570
256.632	-6
256.694	-870
256.757	1721
256.819	4260
256.882	47
256.944	499
257.007	503
257.069	193
257.132	474
257.194	864
257.257	-863
257.319	-242
257.381	-158
257.444	1189
257.506	3805
257.569	4209
257.631	2030
257.693	-19
257.756	703
257.818	-156
257.880	-730
257.943	429
258.005	-321
258.067	-104
258.130	324
258.192	384
258.254	-54
258.317	-528
258.379	-102
258.441	-136
258.503	788
258.566	609
258.628	1901
258.690	-950
258.753	729
258.815	-136
258.877	-246
258.939	615
259.001	340
259.064	-94
259.126	-1131
259.188	-352
259.250	622
259.312	58
259.375	938
259.437	178
259.499	324
259.561	687
259.623	861
259.685	-366
259.747	-229
259.809	690
259.872	1523
259.934	2401
259.996	3008
260.058	1340
260.120	-223
260.182	133
260.244	213
260.306	300
260.368	665
260.430	-602
260.492	861
260.554	1426
260.616	111
260.678	853
260.740	713
260.802	1046
260.864	1119
260.926	-725
260.988	1808
261.050	434
261.112	207
261.174	2247
261.236	992
261.298	418
261.359	239
261.421	1657
261.483	-215
261.545	929
261.607	-1582
261.669	839
261.731	963
261.793	1525
261.854	-666
261.916	1239
261.978	324
262.040	1448
262.102	1014
262.164	-983
262.225	575
262.287	152
262.349	-695
262.411	-59
262.472	1239
262.534	-103
262.596	441
262.658	647
262.719	-623
262.781	897
262.843	22
262.904	384
262.966	924
263.028	748
263.090	1673
263.151	3935
263.213	1488
263.275	96
263.336	648
263.398	1486
263.459	92
263.521	159
263.583	964
263.644	372
263.706	861
263.767	-360
263.829	986
263.891	272
263.952	557
264.014	690
264.075	245
264.137	346
264.198	970
264.260	157
264.321	746
264.383	184
264.444	552
264.506	-407
264.567	1089
264.629	1021
264.690	-254
264.752	844
264.813	469
264.875	-403
264.936	773
264.998	138
265.059	383
265.120	890
265.182	709
265.243	325
265.305	796
265.366	422
265.427	420
265.489	1173
265.550	-1253
265.611	552
265.673	95
265.734	-326
265.795	202
265.857	-241
265.918	-168
265.979	1073
266.040	2252
266.102	2019
266.163	1269
266.224	441
266.286	966
266.347	-323
266.408	481
266.469	1215
266.530	346
266.592	768
266.653	1181
266.714	375
266.775	2072
266.836	513
266.898	816
266.959	894
267.020	421
267.081	2469
267.142	1057
267.203	854
267.264	793
267.326	1519
267.387	348
267.448	965
267.509	1055
267.570	1473
267.631	500
267.692	70
267.753	1599
267.814	297
267.875	518
267.936	575
267.997	803
268.058	325
268.119	159
268.180	312
268.241	292
268.302	966
268.363	37
268.424	215
268.485	676
268.546	-35
268.607	-199
268.668	536
268.729	-69
268.790	238
268.851	-627
268.912	-1
268.972	80
269.033	397
269.094	-901
269.155	759
269.216	619
269.277	220
269.338	-229
269.398	37
269.459	-223
269.520	189
269.581	538
269.642	649
269.702	174
269.763	-299
269.824	-207
269.885	102
269.945	-261
270.006	96
270.067	-583
270.128	-335
270.188	94
270.249	-1238
270.310	211
270.370	410
270.431	577
270.492	-331
270.553	-335
270.613	487
270.674	539
270.734	-182
270.795	-88
270.856	264
270.916	-200
270.977	122
271.038	-170
271.098	237
271.159	-631
271.219	-96
271.280	97
271.340	-205
271.401	-538
271.462	210
271.522	1091
271.583	-211
271.643	-293
271.704	612
271.764	112
271.825	820
271.885	2624
271.946	5022
272.006	1881
272.066	2065
272.127	5046
272.187	4273
272.248	2429
272.308	460
272.369	2503
272.429	1655
272.489	734
272.550	1236
272.610	1843
272.671	1234
272.731	1123
272.791	481
272.852	799
272.912	1459
272.972	1016
273.033	929
273.093	1290
273.153	1729
273.214	2627
273.274	1460
273.334	2792
273.394	4749
273.455	3693
273.515	3444
273.575	4173
273.635	4206
273.696	4717
273.756	6854
273.816	4295
273.876	4601
273.936	3251
273.997	3768
274.057	2256
274.117	2020
274.177	1412
274.237	4028
274.297	3934
274.358	2268
274.418	2564
274.478	1959
274.538	725
274.598	216
274.658	1798
274.718	1366
274.778	936
274.838	1150
274.898	467
274.958	2235
275.018	3334
275.078	2855
275.138	1224
275.198	538
275.258	370
275.318	-47
275.378	1056
275.438	1087
275.498	755
275.558	1914
275.618	1813
275.678	1306
275.738	1787
275.798	685
275.858	930
275.918	842
275.978	332
276.038	171
276.098	779
276.157	986
276.217	1592
276.277	857
276.337	541
276.397	572
276.457	1240
276.517	1014
276.576	242
276.636	1127
276.696	665
276.756	977
276.815	2009
276.875	1756
276.935	1055
276.995	1409
277.055	1922
277.114	1470
277.174	1311
277.234	1257
277.293	1372
277.353	1249
277.413	1438
277.472	914
277.532	1504
277.592	2612
277.651	10318
277.711	23274
277.771	8530
277.830	20943
277.890	20701
277.950	15839
278.009	40864
278.069	18987
278.128	17689
278.188	25579
278.248	13035
278.307	26728
278.367	17331
278.426	5427
278.486	3567
278.545	2303
278.605	2667
278.664	2242
278.724	2620
278.783	3508
278.843	6532
278.902	3134
278.962	3493
279.021	3924
279.081	9157
279.140	9723
279.199	5934
279.259	7005
279.318	7644
279.378	10978
279.437	17403
279.496	41575
279.556	119603
279.615	109265
279.675	43255
279.734	23866
279.793	21568
279.853	24748
279.912	12291
279.971	9445
280.031	7964
280.090	10419
280.149	14561
280.208	24280
280.268	84068
280.327	94768
280.386	32866
280.445	15488
280.505	10265
280.564	7696
280.623	6294
280.682	4626
280.742	5087
280.801	3397
280.860	3000
280.919	3118
280.978	3209
281.037	2665
281.097	2680
281.156	5285
281.215	2458
281.274	2185
281.333	3945
281.392	3056
281.451	1615
281.510	2746
281.569	2270
281.628	2135
281.688	2783
281.747	2554
281.806	1682
281.865	1710
281.924	817
281.983	1391
282.042	1018
282.101	1253
282.160	1489
282.219	2299
282.278	1533
282.337	2713
282.396	1691
282.454	1688
282.513	1970
282.572	2207
282.631	1747
282.690	1344
282.749	1915
282.808	2011
282.867	1925
282.926	1824
282.985	2234
283.043	1398
283.102	2724
283.161	2187
283.220	2636
283.279	3199
283.338	1869
283.396	1906
283.455	3297
283.514	1703
283.573	2657
283.631	2586
283.690	2587
283.749	3345
283.808	3766
283.866	4092
283.925	2662
283.984	3280
284.043	3939
284.101	3722
284.160	4586
284.219	5411
284.277	5406
284.336	5887
284.395	7903
284.453	8041
284.512	8681
284.570	9781
284.629	11315
284.688	13836
284.746	15947
284.805	20638
284.863	25996
284.922	31743
284.981	38563
285.039	47338
285.098	56691
285.156	55005
285.215	40210
285.273	37306
285.332	52148
285.390	57796
285.449	49375
285.507	39136
285.566	31431
285.624	24885
285.683	21053
285.741	16949
285.799	13953
285.858	11596
285.916	10237
285.975	9507
286.033	7171
286.091	6771
286.150	5221
286.208	6762
286.267	4026
286.325	4334
286.383	4599
286.442	4048
286.500	3877
286.558	4083
286.616	3322
286.675	3472
286.733	3044
286.791	2520
286.850	2306
286.908	2380
286.966	2724
287.024	2940
287.083	2071
287.141	1903
287.199	2731
287.257	2718
287.315	2426
287.374	2398
287.432	1547
287.490	1887
287.548	1980
287.606	1367
287.664	1586
287.723	1848
287.781	2146
287.839	1460
287.897	1591
287.955	1351
288.013	1408
288.071	2474
288.129	7929
288.187	28360
288.245	11339
288.303	3538
288.361	2138
288.419	1913
288.477	1596
288.535	981
288.593	1242
288.651	1549
288.709	1054
288.767	817
288.825	95
288.883	852
288.941	990
288.999	-370
289.057	414
289.115	1362
289.173	620
289.231	1031
289.289	959
289.346	541
289.404	1065
289.462	1612
289.520	1304
289.578	1061
289.636	245
289.694	676
289.751	1145
289.809	549
289.867	340
289.925	347
289.983	342
290.040	589
290.098	1391
290.156	952
290.214	1088
290.271	1339
290.329	1229
290.387	820
290.444	1265
290.502	335
290.560	752
290.617	667
290.675	519
290.733	627
290.790	1084
290.848	664
290.906	-68
290.963	476
291.021	349
291.078	968
291.136	627
291.194	938
291.251	1040
291.309	619
291.366	727
291.424	1332
291.481	1556
291.539	2738
291.596	3362
291.654	960
291.711	1335
291.769	1038
291.826	943
291.884	1406
291.941	1087
291.999	633
292.056	608
292.114	999
292.171	964
292.228	134
292.286	1010
292.343	14
292.401	840
292.458	1279
292.515	1235
292.573	1600
292.630	1654
292.687	728
292.745	740
292.802	729
292.859	2625
292.917	3940
292.974	1240
293.031	1058
293.089	896
293.146	85
293.203	696
293.260	874
293.318	1039
293.375	950
293.432	382
293.489	646
293.546	558
293.604	2130
293.661	4129
293.718	7229
293.775	3940
293.832	3490
293.889	4588
293.947	3809
294.004	1275
294.061	1867
294.118	1366
294.175	2920
294.232	6522
294.289	4261
294.346	2307
294.403	1381
294.460	1017
294.517	510
294.574	657
294.631	1780
294.688	501
294.745	1343
294.802	3249
294.859	2782
294.916	632
294.973	449
295.030	889
295.087	1515
295.144	162
295.201	445
295.258	212
295.315	535
295.372	1094
295.429	2375
295.486	1080
295.542	143
295.599	408
295.656	1277
295.713	1223
295.770	2247
295.827	697
295.883	997
295.940	370
295.997	404
296.054	284
296.111	501
296.167	614
296.224	104
296.281	314
296.338	33
296.394	-94
296.451	-224
296.508	492
296.564	1845
296.621	1472
296.678	2575
296.734	4730
296.791	1823
296.848	408
296.904	485
296.961	727
297.018	2127
297.074	1461
297.131	498
297.187	1394
297.244	965
297.301	3310
297.357	6045
297.414	2279
297.470	598
297.527	178
297.583	377
297.640	-91
297.696	290
297.753	578
297.809	933
297.866	-203
297.922	305
297.979	644
298.035	1
298.092	874
298.148	931
298.204	913
298.261	593
298.317	1479
298.374	3939
298.430	2508
298.486	346
298.543	-321
298.599	-43
298.656	705
298.712	590
298.768	1198
298.824	786
298.881	98
298.937	852
298.993	200
299.050	420
299.106	474
299.162	795
299.218	776
299.275	888
299.331	942
299.387	1757
299.443	4691
299.500	12253
299.556	9997
299.612	3708
299.668	4046
299.724	9301
299.780	12947
299.837	4327
299.893	3620
299.949	7049
300.005	12566
300.061	9363
300.117	15701
300.173	6772
300.229	2287
300.285	1978
300.341	1271
300.397	1997
300.453	891
300.510	1838
300.566	1514
300.622	4057
300.678	14318
300.734	21237
300.790	8969
300.845	6671
300.901	8266
300.957	13918
301.013	7068
301.069	2915
301.125	1506
301.181	740
301.237	1182
301.293	-231
301.349	1515
301.405	674
301.461	1071
301.516	585
301.572	896
301.628	340
301.684	884
301.740	201
301.796	110
301.851	700
301.907	1625
301.963	913
302.019	2961
302.074	8391
302.130	10914
302.186	4647
302.242	1618
302.297	877
302.353	1023
302.409	1394
302.464	1448
302.520	1771
302.576	2086
302.631	3610
302.687	849
302.743	1108
302.798	355
302.854	-227
302.910	664
302.965	507
303.021	297
303.076	50
303.132	759
303.187	661
303.243	408
303.299	520
303.354	84
303.410	42
303.465	-174
303.521	55
303.576	729
303.632	450
303.687	492
303.743	2536
303.798	3485
303.853	1132
303.909	487
303.964	272
304.020	534
304.075	222
304.130	535
304.186	528
304.241	1833
304.297	606
304.352	-245
304.358	-142
304.407	687
304.449	877
304.463	944
304.518	102
304.539	-50
304.573	-296
304.629	518
304.630	534
304.684	1244
304.720	1996
304.739	2369
304.794	3227
304.811	2862
304.850	1939
304.902	630
304.905	543
304.960	628
304.992	399
305.015	247
305.071	1002
305.083	895
305.126	510
305.173	317
305.181	291
305.236	856
305.264	808
305.292	732
305.347	383
305.354	396
305.402	534
305.445	435
305.457	385
305.512	773
305.535	813
305.567	917
305.622	266
305.626	335
305.678	1705
305.716	2140
305.733	2200
305.788	2300
305.807	2146
305.843	2109
305.897	3229
305.898	3238
305.953	3242
305.988	1768
306.008	1032
306.063	669
306.078	752
306.118	1111
306.168	625
306.173	570
306.228	355
306.259	496
306.283	679
306.338	910
306.349	892
306.393	591
306.440	630
306.448	674
306.503	767
306.530	681
306.558	743
306.613	1340
306.620	1421
306.668	1928
306.711	2347
306.723	2307
306.778	1625
306.801	1443
306.833	1331
306.888	1003
306.892	999
306.943	1234
306.982	973
306.997	893
307.052	867
307.072	918
307.107	909
307.162	965
307.163	962
307.217	1121
307.253	1377
307.272	1463
307.327	1230
307.343	1405
307.381	1961
307.434	2123
307.436	2132
307.491	2013
307.524	2415
307.546	2657
307.600	2248
307.614	2268
307.655	1888
307.704	1338
307.710	1362
307.765	1701
307.795	1742
307.819	1711
307.874	1922
307.885	1980
307.929	2220
307.975	2272
307.984	2405
308.038	3971
308.065	4326
308.093	7149
308.148	14861
308.156	16431
308.202	24288
308.246	30468
308.257	29376
308.312	14602
308.336	9087
308.366	7053
308.421	5499
308.426	5355
308.475	5047
308.517	5216
308.530	5278
308.585	5273
308.607	5206
308.639	5261
308.694	6126
308.697	6132
308.748	6511
308.787	7015
308.803	7273
308.857	7962
308.877	8071
308.912	8949
308.967	11353
308.967	11376
309.021	18607
309.058	24177
309.076	27546
309.130	39357
309.148	42652
309.185	57748
309.238	80989
309.239	81404
309.293	97987
309.328	102499
309.348	93774
309.402	61105
309.418	51990
309.457	42121
309.508	31492
309.511	31785
309.566	40123
309.598	46215
309.620	58187
309.674	92232
309.688	101113
309.729	97989
309.778	84617
309.783	82513
309.837	52734
309.868	37256
309.892	32445
309.946	22694
309.959	20840
310.001	17820
310.049	14389
310.055	13994
310.109	10908
310.139	9269
310.163	8409
310.218	6381
310.229	6016
310.272	5455
310.319	5189
310.326	5113
310.381	4267
310.409	3911
310.435	3965
310.489	3959
310.499	3982
310.543	3596
310.589	3016
310.598	2965
310.652	2672
310.679	2692
310.706	2802
310.760	2725
310.769	2716
310.814	2869
310.859	3026
310.868	2956
310.923	2427
310.948	2203
310.977	2407
311.031	2801
311.038	2856
311.085	2686
311.128	2437
311.139	2509
311.193	2882
311.218	3039
311.247	2932
311.301	2809
311.308	2764
311.356	2396
311.398	2113
311.410	2169
311.464	2489
311.488	2585
311.518	2670
311.572	2837
311.578	2843
311.626	2755
311.668	2693
311.680	2695
311.734	2679
311.758	2628
311.788	2453
311.842	2186
311.847	2148
311.896	2108
311.937	2118
311.950	2278
312.004	2932
312.027	3218
312.058	2947
312.112	2438
312.117	2383
312.165	2245
312.207	2122
312.297	3091
312.386	2599
312.476	2470
312.566	3323
312.656	3259
312.745	1739
312.835	2934
312.925	2737
313.015	2822
313.104	2511
313.194	3008
313.284	2391
313.374	3634
313.463	3614
313.553	3943
313.643	3851
313.732	3543
313.822	3659
313.912	4744
314.001	4042
314.091	4921
314.180	4241
314.270	5190
314.360	4169
314.449	4364
314.539	4179
314.628	4212
314.718	4706
314.808	5771
314.897	4989
314.987	6415
315.076	6304
315.166	5475
315.255	5810
315.345	5449
315.434	5657
315.524	5988
315.613	6122
315.703	9719
315.792	28893
315.881	102377
315.971	32234
316.060	9954
316.150	6282
316.239	5786
316.328	4623
316.418	5731
316.507	4996
316.597	6903
316.686	6473
316.775	6194
316.865	5532
316.954	5097
317.043	5216
317.133	4594
317.222	4156
317.311	3447
317.400	3669
317.490	5736
317.579	6810
317.668	9686
317.757	15176
317.847	47461
317.936	145662
318.025	44871
318.114	41900
318.203	17766
318.293	6940
318.382	8871
318.471	8715
318.560	9086
318.649	7669
318.738	4876
318.828	3534
318.917	2678
319.006	3623
319.095	4062
319.184	6374
319.273	4411
319.362	3768
319.451	3786
319.540	3372
319.629	3877
319.718	4289
319.807	3625
319.896	4577
319.985	7685
320.074	4548
320.163	3374
320.252	3852
320.341	4125
320.430	3400
320.519	4598
320.608	4021
320.697	5369
320.786	6163
320.875	6967
320.964	6890
321.053	7842
321.142	8159
321.230	9872
321.319	9727
321.408	12584
321.497	10348
321.586	9207
321.675	7434
321.764	7999
321.852	6455
321.941	8308
322.030	7802
322.119	8339
322.207	11866
322.296	12547
322.385	13801
322.474	16252
322.562	17121
322.651	13111
322.740	9110
322.829	9484
322.917	7036
323.006	7521
323.095	6777
323.183	5764
323.272	5106
323.361	5605
323.449	8549
323.538	4076
323.626	6111
323.715	5921
323.804	3619
323.892	5486
323.981	4252
324.069	4112
324.158	4389
324.246	4233
324.335	3773
324.424	3406
324.512	3247
324.601	3640
324.689	3503
324.778	4487
324.866	3754
324.954	3315
325.043	3206
325.131	1940
325.220	3988
325.308	3650
325.397	3062
325.485	2738
325.574	1953
325.662	3332
325.750	2282
325.839	3227
325.927	2238
326.015	2917
326.104	2244
326.192	2927
326.280	2132
326.369	2615
326.457	2761
326.545	3657
326.634	2860
326.722	2982
326.810	2925
326.898	4374
326.987	3650
327.075	3176
327.163	3460
327.251	3974
327.340	3265
327.428	6498
327.516	5954
327.604	4378
327.692	3647
327.781	3276
327.869	2545
327.957	2409
328.045	3138
328.133	3619
328.221	1790
328.309	3085
328.397	3025
328.485	2931
328.574	5236
328.662	9127
328.750	5157
328.838	3980
328.926	2695
329.014	2625
329.102	1769
329.190	3378
329.278	2356
329.366	2750
329.454	1493
329.542	2375
329.630	2002
329.718	2288
329.806	1834
329.893	3422
329.981	1481
330.069	2442
330.157	3220
330.245	4717
330.333	2863
330.421	2863
330.509	2624
330.597	4142
330.684	2599
330.772	2560
330.860	2639
330.948	2440
331.036	2230
331.123	2195
331.211	2522
331.299	2913
331.387	2738
331.475	3267
331.562	2469
331.650	2605
331.738	3012
331.825	2958
331.913	2656
332.001	2528
332.089	3149
332.176	2404
332.264	3212
332.352	2963
332.439	2914
332.527	2961
332.614	2739
332.702	3578
332.790	3552
332.877	5347
332.965	14347
333.052	13736
333.140	15793
333.228	40599
333.315	10852
333.403	5429
333.490	7233
333.578	16253
333.665	58108
333.753	24371
333.840	6628
333.928	6524
334.015	5706
334.103	8162
334.190	12415
334.278	12950
334.365	16683
334.452	17487
334.540	11239
334.627	10884
334.715	13838
334.802	20956
334.889	33662
334.977	45136
335.064	27183
335.151	13504
335.239	10273
335.326	8144
335.413	10471
335.501	10467
335.588	9136
335.675	9788
335.762	11734
335.850	16682
335.937	24022
336.024	38018
336.111	62178
336.199	55016
336.286	25408
336.373	13696
336.460	8992
336.547	7843
336.635	6308
336.722	5527
336.809	5319
336.896	4590
336.983	5224
337.070	7686
337.157	8158
337.245	7305
337.332	6428
337.419	4516
337.506	3889
337.593	4145
337.680	4386
337.767	6162
337.854	3793
337.941	4408
338.028	3925
338.115	3544
338.202	4343
338.289	4042
338.376	5047
338.463	4415
338.550	3453
338.637	5053
338.724	3407
338.811	3778
338.898	3442
338.984	3121
339.071	1865
339.158	3749
339.245	3199
339.332	3452
339.419	3229
339.506	3861
339.593	2125
339.679	3565
339.766	2379
339.853	2716
339.940	2964
340.027	3045
340.113	3016
340.200	3395
340.287	2704
340.374	2520
340.460	3320
340.547	1872
340.634	3733
340.720	4623
340.807	2188
340.894	3228
340.980	2120
341.067	2607
341.154	4251
341.240	2949
341.327	3815
341.414	3456
341.500	1900
341.587	3968
341.674	3095
341.760	3693
341.847	2858
341.933	3276
342.020	2053
342.106	2895
342.193	3164
342.279	2752
342.366	3446
342.452	3470
342.539	2126
342.625	3271
342.712	3989
342.798	2991
342.885	3176
342.971	2971
343.058	2314
343.144	2183
343.230	3133
343.317	3613
343.403	2346
343.490	2695
343.576	1804
343.662	3333
343.749	1991
343.835	2423
343.921	4005
344.008	12103
344.094	21497
344.180	6361
344.267	3272
344.353	5146
344.439	5159
344.525	2807
344.612	3204
344.698	2713
344.784	2342
344.870	2756
344.957	2084
345.043	4005
345.129	1895
345.215	3379
345.301	2664
345.387	2390
345.474	2182
345.560	2647
345.646	2225
345.732	3265
345.818	2875
345.904	3296
345.990	3339
346.076	2230
346.162	2098
346.249	3295
346.335	2391
346.421	2513
346.507	4737
346.593	7788
346.679	2142
346.765	4516
346.851	5450
346.937	4603
347.023	3988
347.108	3949
347.194	2322
347.280	3771
347.366	4860
347.452	12697
347.538	17736
347.624	10169
347.710	5705
347.796	3437
347.882	2813
347.967	2825
348.053	2097
348.139	3474
348.225	2730
348.311	3113
348.397	3503
348.482	3895
348.568	3464
348.654	6311
348.740	16287
348.825	15943
348.911	7707
348.997	7835
349.083	9544
349.168	3287
349.254	2984
349.340	3773
349.425	2822
349.511	3063
349.597	3025
349.682	2925
349.768	5921
349.854	3516
349.939	3661
350.025	2757
350.110	3378
350.196	3684
350.282	2032
350.367	3431
350.453	1988
350.538	3404
350.624	1951
350.709	3965
350.795	2663
350.880	3156
350.966	3684
351.051	3438
351.137	2386
351.222	3243
351.308	3410
351.393	4977
351.479	1595
351.564	2339
351.649	2397
351.735	3475
351.820	2115
351.906	2660
351.991	2729
352.076	3553
352.162	5004
352.247	3125
352.332	2793
352.418	2874
352.503	2693
352.588	5825
352.673	4276
352.759	2449
352.844	2224
352.929	2775
353.014	2601
353.100	3273
353.185	3589
353.270	3153
353.355	3169
353.441	4107
353.526	2339
353.611	3332
353.696	2805
353.781	4319
353.866	1661
353.952	4232
354.037	2459
354.122	4148
354.207	3523
354.292	3716
354.377	2843
354.462	2998
354.547	2965
354.632	3422
354.717	3056
354.802	3049
354.887	2625
354.972	3001
355.057	3271
355.142	2934
355.227	3999
355.312	2750
355.397	2573
355.482	5409
355.567	3125
355.652	4022
355.737	2980
355.822	5843
355.907	4737
355.991	4181
356.076	2424
356.161	3851
356.246	3208
356.331	3585
356.416	3044
356.501	12209
356.585	10267
356.670	3796
356.755	5712
356.840	4447
356.924	9859
357.009	25231
357.094	9803
357.179	3785
357.263	3370
357.348	4694
357.433	3428
357.517	3665
357.602	3442
357.687	3488
357.771	4386
357.856	4861
357.941	5428
358.025	9722
358.110	30276
358.195	14023
358.279	4882
358.364	4791
358.448	6449
358.533	10688
358.617	6840
358.702	7908
358.787	5330
358.871	4325
358.956	4457
359.040	4652
359.125	3644
359.209	3063
359.294	3744
359.378	7089
359.462	5675
359.547	3822
359.631	3400
359.716	1865
359.800	3153
359.885	4650
359.969	2536
360.053	4085
360.138	3261
360.222	3343
360.306	3851
360.391	3364
360.475	3006
360.559	4775
360.644	4415
360.728	3787
360.812	9022
360.896	16396
360.981	5864
361.065	5184
361.149	4313
361.233	4101
361.318	2747
361.402	3634
361.486	4118
361.570	3994
361.654	4512
361.739	4908
361.823	11940
361.907	19660
361.991	7038
362.075	7793
362.159	8825
362.243	20257
362.327	45672
362.411	66006
362.495	25074
362.580	13195
362.664	11860
362.748	13585
362.832	20972
362.916	43772
363.000	117530
363.084	155367
363.168	67230
363.252	22009
363.336	12678
363.420	10731
363.503	9779
363.587	10826
363.671	8017
363.755	7068
363.839	9993
363.923	9183
364.007	11810
364.091	16793
364.175	25236
364.258	59273
364.342	135232
364.426	222741
364.510	115429
364.594	37813
364.677	19688
364.761	20682
364.845	15248
364.929	8237
365.013	6091
365.096	6409
365.180	5048
365.264	6771
365.347	10093
365.431	5892
365.515	3061
365.598	3585
365.682	5546
365.766	3598
365.849	3551
365.933	4250
366.017	5112
366.100	3209
366.184	3188
366.267	4945
366.351	4257
366.435	3837
366.518	4232
366.602	4525
366.685	4856
366.769	4515
366.852	5212
366.936	4763
367.019	4366
367.103	3656
367.186	5599
367.270	4048
367.353	3677
367.436	5548
367.520	3855
367.603	5725
367.687	4565
367.770	4680
367.853	5587
367.937	7610
368.020	8465
368.104	3869
368.187	5267
368.270	4389
368.353	3778
368.437	4326
368.520	4890
368.603	4359
368.687	4454
368.770	7551
368.853	3848
368.936	4994
369.020	4457
369.103	3128
369.186	3598
369.269	2373
369.352	3892
369.436	4044
369.519	3708
369.602	2373
369.685	4655
369.768	3301
369.851	4452
369.934	3742
370.018	3332
370.101	2606
370.184	6062
370.267	4685
370.350	4516
370.433	6177
370.516	21077
370.599	58327
370.682	24952
370.765	9778
370.848	8733
370.931	10290
371.014	7741
371.097	4472
371.180	5439
371.263	5344
371.346	3410
371.429	6129
371.511	4454
371.594	5581
371.677	6726
371.760	8139
371.843	7976
371.926	17244
372.009	30203
372.091	17995
372.174	11019
372.257	15597
372.340	9587
372.423	10103
372.505	9980
372.588	7087
372.671	8155
372.754	11002
372.836	8028
372.919	8421
373.002	8756
373.085	7353
373.167	8321
373.250	8090
373.332	11513
373.415	20199
373.498	34826
373.580	25865
373.663	81832
373.746	77604
373.828	14629
373.911	9497
373.993	6062
374.076	8170
374.159	6795
374.241	6042
374.324	9532
374.406	8840
374.489	12033
374.571	24426
374.654	10280
374.736	8744
374.819	15381
374.901	24899
374.983	24223
375.066	8872
375.148	7021
375.231	7708
375.313	10607
375.395	7208
375.478	6610
375.560	7324
375.643	6717
375.725	9207
375.807	19771
375.890	15433
375.972	5497
376.054	6804
376.136	5891
376.219	5315
376.301	8198
376.383	13556
376.465	7251
376.548	5277
376.630	6862
376.712	12619
376.794	6892
376.877	4157
376.959	3737
377.041	4915
377.123	3536
377.205	5149
377.287	3843
377.369	4763
377.452	4870
377.534	4631
377.616	4320
377.698	4392
377.780	3171
377.862	4829
377.944	5149
378.026	4010
378.108	4653
378.190	4097
378.272	4451
378.354	4699
378.436	3287
378.518	2998
378.600	4542
378.682	5521
378.764	6095
378.846	5949
378.928	3728
379.010	4340
379.091	5103
379.173	4183
379.255	3836
379.337	4014
379.419	5268
379.501	9208
379.583	5277
379.664	4981
379.746	3514
379.828	8091
379.910	6925
379.991	8618
380.073	4600
380.155	5640
380.237	4753
380.318	5283
380.400	4860
380.482	6114
380.564	5792
380.645	6301
380.727	5218
380.809	6325
380.890	5091
380.972	5347
381.053	6021
381.135	7177
381.217	6178
381.298	9564
381.380	7594
381.461	8199
381.543	14935
381.624	17700
381.706	9077
381.787	9054
381.869	10382
381.951	14115
382.032	29440
382.113	23437
382.195	11113
382.276	14705
382.358	14750
382.439	21589
382.521	27907
382.602	38735
382.684	35839
382.765	63353
382.846	163349
382.928	315012
383.009	192772
383.090	172371
383.172	368636
383.253	406925
383.334	173712
383.416	85260
383.497	67551
383.578	81231
383.659	151139
383.741	346128
383.822	497511
383.903	305847
383.984	117507
384.066	66413
384.147	40580
384.228	27952
384.309	24649
384.390	20733
384.471	18675
384.553	17140
384.634	17205
384.715	16943
384.796	14784
384.877	16636
384.958	18495
385.039	16629
385.120	13852
385.201	13320
385.282	12991
385.363	16867
385.444	19562
385.525	18683
385.606	20637
385.687	17764
385.768	13874
385.849	12838
385.930	22272
386.011	28615
386.092	14793
386.173	12815
386.254	9582
386.335	10851
386.416	9701
386.496	10768
386.577	11981
386.658	9533
386.739	8537
386.820	10709
386.901	9273
386.981	12799
387.062	14059
387.143	15897
387.224	15323
387.304	16162
387.385	14651
387.466	12466
387.547	14636
387.627	13457
387.708	15017
387.789	18983
387.869	18726
387.950	13707
388.031	11456
388.111	9854
388.192	13487
388.273	17128
388.353	13621
388.434	7534
388.514	7502
388.595	15028
388.676	14635
388.756	9220
388.837	8055
388.917	6732
388.998	4263
389.078	7541
389.159	6713
389.239	4983
389.320	7255
389.400	4648
389.480	6230
389.561	8363
389.641	8436
389.722	5962
389.802	6118
389.883	7206
389.963	9761
390.043	7474
390.124	4332
390.204	6919
390.284	8225
390.365	6587
390.445	7726
390.525	10448
390.605	10696
390.686	5647
390.766	6520
390.846	8068
390.927	5266
391.007	5408
391.087	7931
391.167	6211
391.247	5104
391.328	7420
391.408	7945
391.488	8940
391.568	7050
391.648	8930
391.728	9580
391.808	10172
391.888	9023
391.969	11946
392.049	12558
392.129	13647
392.209	13896
392.289	18407
392.369	16756
392.449	17261
392.529	18209
392.609	21878
392.689	25878
392.769	31204
392.849	38826
392.929	49397
393.009	68711
393.089	102393
393.169	185433
393.248	378394
393.328	606599
393.408	584151
393.488	351585
393.568	169550
393.648	93138
393.728	58960
393.807	40473
393.887	32686
393.967	26139
394.047	22069
394.127	18312
394.206	18045
394.286	23777
394.366	71286
394.446	71654
394.525	20285
394.605	12171
394.685	11887
394.764	13274
394.844	21551
394.924	24261
395.003	12513
395.083	9971
395.163	9538
395.242	9064
395.322	8647
395.402	7816
395.481	11173
395.561	11828
395.640	32686
395.720	58066
395.799	29518
395.879	14899
395.958	13824
396.038	27275
396.117	93324
396.197	95398
396.276	33282
396.356	24824
396.435	30427
396.515	41926
396.594	66604
396.673	138699
396.753	336619
396.832	547083
396.912	425613
396.991	180800
397.070	82032
397.150	45233
397.229	38679
397.308	56800
397.388	89414
397.467	43522
397.546	18922
397.625	11152
397.705	13788
397.784	10984
397.863	10051
397.942	8475
398.022	7953
398.101	7703
398.180	9237
398.259	7541
398.338	8394
398.417	6673
398.497	6621
398.576	6274
398.655	4786
398.734	5590
398.813	4855
398.892	6277
398.971	7351
399.050	4489
399.129	4183
399.208	4396
399.287	5512
399.366	3713
399.445	3824
399.524	3771
399.603	2619
399.682	4000
399.761	5099
399.840	7159
399.919	6092
399.998	3613
400.077	2283
400.156	1627
400.235	5980
400.313	2301
400.392	3005
400.471	4764
400.550	5447
400.629	1904
400.708	3713
400.786	1957
400.865	2864
400.944	2124
401.023	4593
401.102	2187
401.180	2920
401.259	2740
401.338	2308
401.416	3045
401.495	1874
401.574	2741
401.652	2214
401.731	3087
401.810	1640
401.888	1624
401.967	1859
402.046	1559
402.124	2878
402.203	1877
402.281	3346
402.360	1622
402.438	3129
402.517	1229
402.596	2496
402.674	1502
402.753	1594
402.831	2914
402.910	3616
402.988	3656
403.066	8653
403.145	6186
403.223	5228
403.302	6750
403.380	6535
403.459	6348
403.537	3899
403.615	2899
403.694	2308
403.772	3566
403.850	2704
403.929	1761
404.007	2289
404.085	4139
404.164	3296
404.242	2850
404.320	4596
404.398	6974
404.477	6403
404.555	14727
404.633	11662
404.711	5391
404.789	4551
404.868	2123
404.946	2174
405.024	1950
405.102	2029
405.180	1073
405.258	1325
405.336	2945
405.415	1128
405.493	1942
405.571	3219
405.649	2412
405.727	1265
405.805	3074
405.883	3671
405.961	3252
406.039	1967
406.117	1347
406.195	2709
406.273	2318
406.351	9884
406.429	6103
406.507	1520
406.585	1850
406.663	1967
406.740	1990
406.818	1190
406.896	1134
406.974	2401
407.052	755
407.130	5991
407.208	7008
407.285	3552
407.363	853
407.441	1769
407.519	1884
407.596	1999
407.674	3748
407.752	10273
407.830	7425
407.907	3699
407.985	1444
408.063	2769
408.141	999
408.218	2636
408.296	1165
408.373	1898
408.451	3553
408.529	3380
408.606	2132
408.684	3271
408.762	3284
408.839	3137
408.917	3028
408.994	3261
409.072	3375
409.149	5421
409.227	10027
409.304	15636
409.382	17508
409.459	19811
409.537	25001
409.614	21557
409.692	16810
409.769	17150
409.846	24959
409.924	30140
410.001	20037
410.079	15271
410.156	11924
410.233	8109
410.311	6801
410.388	6402
410.465	5825
410.543	4511
410.620	6082
410.697	5457
410.775	4157
410.852	4767
410.929	5675
411.006	6279
411.083	4736
411.161	4448
411.238	5696
411.315	4335
411.392	3358
411.469	4309
411.547	3869
411.624	2238
411.701	2738
411.778	2704
411.855	2143
411.932	2500
412.009	1717
412.086	3646
412.163	3051
412.240	1856
412.317	2719
412.394	2432
412.471	2687
412.548	1935
412.625	2141
412.702	1778
412.779	2694
412.856	2099
412.933	1360
413.010	1739
413.087	1893
413.164	2321
413.241	3031
413.318	2070
413.395	2924
413.471	1713
413.548	1690
413.625	2758
413.702	934
413.779	2113
413.855	1642
413.932	1995
414.009	1076
414.086	1917
414.162	2148
414.239	2180
414.316	3086
414.393	4421
414.469	1248
414.546	1722
414.623	1671
414.699	1093
414.776	919
414.853	1921
414.929	1301
415.006	1469
415.082	1758
415.159	1860
415.236	2045
415.312	2208
415.389	1630
415.465	1265
415.542	1501
415.618	981
415.695	2168
415.771	1405
415.848	1166
415.924	1370
416.000	1324
416.077	1967
416.153	753
416.230	706
416.306	1609
416.383	1851
416.459	1424
416.535	1064
416.612	1293
416.688	2544
416.764	2706
416.841	2533
416.917	2423
416.993	2020
417.069	2289
417.146	1752
417.222	874
417.298	1729
417.374	1286
417.451	1508
417.527	934
417.603	1370
417.679	1454
417.755	1653
417.831	772
417.908	2144
417.984	1411
418.060	402
418.136	2123
418.212	1769
418.288	1629
418.364	1980
418.440	229
418.516	2252
418.592	1222
418.668	2108
418.744	1275
418.820	1273
418.896	955
418.972	1040
419.048	1271
419.124	2284
419.200	126
419.276	1502
419.352	1071
419.428	2053
419.504	1529
419.579	2280
419.655	1649
419.731	2180
419.807	2834
419.883	1766
419.959	2474
420.034	2885
420.110	2525
420.186	3785
420.262	3161
420.337	2871
420.413	3042
420.489	2455
420.565	3920
420.640	2987
420.716	3815
420.792	2923
420.867	4413
420.943	4197
421.019	4616
421.094	3521
421.170	5522
421.245	5415
421.321	6251
421.397	5801
421.472	8577
421.548	11515
421.623	11365
421.699	10371
421.774	11062
421.850	13179
421.925	16095
422.001	18790
422.076	21942
422.152	27752
422.227	38010
422.302	54093
422.378	79701
422.453	129669
422.529	196169
422.604	208788
422.679	161554
422.755	207106
422.830	192848
422.905	129443
422.981	83177
423.056	57673
423.131	42659
423.207	31862
423.282	25539
423.357	21332
423.432	17860
423.508	15854
423.583	12699
423.658	12454
423.733	10222
423.808	10061
423.883	9307
423.959	10675
424.034	12844
424.109	12403
424.184	8027
424.259	5901
424.334	6156
424.409	4655
424.484	3493
424.559	4737
424.634	4122
424.709	3731
424.784	4085
424.859	4123
424.934	2653
425.009	4271
425.084	3893
425.159	3143
425.234	3334
425.309	1900
425.384	2805
425.459	1950
425.534	2020
425.609	2173
425.683	1712
425.758	1950
425.833	2003
425.908	2527
425.983	1712
426.058	4760
426.132	2677
426.207	2655
426.282	2976
426.357	1394
426.431	2457
426.506	2495
426.581	1711
426.655	1798
426.730	1665
426.805	1822
426.879	1310
426.954	1201
427.029	1387
427.103	3920
427.178	6363
427.253	3320
427.327	1893
427.402	796
427.476	1269
427.551	685
427.625	1863
427.700	1559
427.774	357
427.849	2253
427.923	1491
427.998	2059
428.072	1881
428.147	8169
428.221	37224
428.296	102217
428.370	50625
428.444	7889
428.519	3011
428.593	3214
428.667	2174
428.742	4522
428.816	13183
428.890	63993
428.965	86504
429.039	21085
429.113	4234
429.188	2446
429.262	1566
429.336	2276
429.410	2697
429.485	2128
429.559	2571
429.633	2864
429.707	2863
429.781	12902
429.855	61098
429.930	77186
430.004	19771
430.078	14041
430.152	43167
430.226	137947
430.300	119886
430.374	26987
430.448	8730
430.522	5481
430.596	7009
430.670	21786
430.744	81824
430.818	76356
430.892	13522
430.966	3466
431.040	2044
431.114	820
431.188	474
431.262	1253
431.336	724
431.410	1875
431.484	343
431.557	2025
431.631	1874
431.705	6461
431.779	30890
431.853	97926
431.927	56510
432.000	8924
432.074	2858
432.148	1267
432.222	-305
432.295	1014
432.369	76
432.443	513
432.516	2067
432.590	5666
432.664	1813
432.737	312
432.811	-111
432.885	443
432.958	471
433.032	259
433.106	-123
433.179	327
433.253	428
433.326	564
433.400	-570
433.473	-28
433.547	-910
433.620	-512
433.694	-285
433.767	641
433.841	22
433.914	68
433.988	-72
434.061	-176
434.134	68
434.208	-490
434.281	-503
434.355	439
434.428	-228
434.501	752
434.575	-514
434.648	290
434.721	545
434.795	1314
434.868	-114
434.941	1363
435.014	572
435.088	1662
435.161	3163
435.234	4616
435.307	5488
435.381	5965
435.454	8023
435.527	12265
435.600	13496
435.673	10384
435.746	6075
435.819	5250
435.892	2938
435.966	2111
436.039	1113
436.112	2465
436.185	790
436.258	1008
436.331	302
436.404	730
436.477	75
436.550	622
436.623	879
436.696	506
436.769	305
436.842	244
436.915	83
436.987	686
437.060	226
437.133	97
437.206	-474
437.279	189
437.352	-365
437.425	156
437.498	-3
437.570	690
437.643	-306
437.716	461
437.789	-156
437.861	187
437.934	462
438.007	672
438.080	-518
438.152	-178
438.225	968
438.298	3767
438.370	10162
438.443	4075
438.516	-182
438.588	291
438.661	-265
438.734	-304
438.806	-219
438.879	331
438.951	-417
439.024	-502
439.096	-761
439.169	-167
439.241	-679
439.314	-122
439.386	-475
439.459	-103
439.531	-204
439.604	-352
439.676	140
439.749	116
439.821	-981
439.893	651
439.966	-531
440.038	-287
440.110	444
440.183	-45
440.255	-525
440.327	992
440.400	1081
440.472	4642
440.544	1674
440.617	309
440.689	1161
440.761	330
440.833	-120
440.905	23
440.978	-821
441.050	382
441.122	663
441.194	957
441.266	544
441.338	-316
441.411	648
441.483	1519
441.555	1126
441.627	188
441.699	574
441.771	604
441.843	459
441.915	1182
441.987	973
442.059	1257
442.131	1605
442.203	1872
442.275	2998
442.347	6250
442.419	19598
442.491	84310
442.563	150582
442.635	54090
442.706	10469
442.778	4828
442.850	3043
442.922	3563
442.994	2852
443.066	3591
443.137	4295
443.209	6514
443.281	11592
443.353	27988
443.425	97302
443.496	236268
443.568	228416
443.640	89178
443.711	21810
443.783	8681
443.855	5240
443.926	4041
443.998	2013
444.070	2544
444.141	1893
444.213	1814
444.285	2422
444.356	1818
444.428	1528
444.499	2124
444.571	1315
444.642	2702
444.714	1643
444.785	2490
444.857	2378
444.928	2453
445.000	3069
445.071	5490
445.143	6209
445.214	11404
445.285	20361
445.357	55177
445.428	169519
445.500	263171
445.571	214143
445.642	133714
445.714	43165
445.785	14465
445.856	5987
445.928	4487
445.999	3105
446.070	2054
446.141	1518
446.213	1618
446.284	844
446.355	541
446.426	641
446.497	1102
446.569	-468
446.640	388
446.711	1127
446.782	115
446.853	-184
446.924	916
446.995	-160
447.066	44
447.138	-951
447.209	361
447.280	-251
447.351	-36
447.422	-334
447.493	-142
447.564	-119
447.635	-589
447.706	-920
447.777	531
447.847	-887
447.918	-369
447.989	-18
448.060	764
448.131	-64
448.202	-397
448.273	-690
448.344	109
448.414	-539
448.485	-439
448.556	-86
448.627	-766
448.698	172
448.768	109
448.839	-542
448.910	-779
448.981	-602
449.051	-971
449.122	-256
449.193	-425
449.263	-699
449.334	-724
449.405	-893
449.475	5
449.546	-74
449.616	471
449.687	-430
449.758	-17
449.828	-1061
449.899	-559
449.969	-355
450.040	-153
450.110	-612
450.181	-157
450.251	-782
450.322	-833
450.392	-563
450.463	-311
450.533	-862
450.604	-153
450.674	-646
450.744	227
450.815	11
450.885	438
450.955	27
451.026	660
451.096	-349
451.166	92
451.237	280
451.307	1641
451.377	345
451.447	159
451.518	-825
451.588	-112
451.658	174
451.728	-610
451.799	-446
451.869	127
451.939	13
452.009	-3
452.079	-476
452.149	78
452.219	-844
452.289	1109
452.360	91
452.430	1184
452.500	525
452.570	3063
452.640	10292
452.710	23947
452.780	23721
452.850	10178
452.920	3486
452.990	2823
453.060	1397
453.129	43
453.199	620
453.269	1091
453.339	1106
453.409	1129
453.479	376
453.549	1593
453.619	858
453.688	-281
453.758	58
453.828	-897
453.898	-926
453.968	-192
454.037	-251
454.087	-680
454.107	-867
454.168	-354
454.177	-290
454.247	-166
454.249	-193
454.316	-1285
454.330	-1230
454.386	-1041
454.411	-941
454.456	-843
454.492	-268
454.525	252
454.574	-314
454.595	-595
454.655	-617
454.665	-627
454.734	-703
454.736	-681
454.804	-457
454.817	-458
454.873	-503
454.898	-150
454.943	424
454.979	-75
455.013	-523
455.060	-44
455.082	135
455.141	-166
455.152	-216
455.221	803
455.222	808
455.291	93
455.303	164
455.360	497
455.384	744
455.430	1006
455.465	561
455.499	101
455.546	-239
455.569	-411
455.627	419
455.638	605
455.707	-281
455.708	-265
455.777	-35
455.789	75
455.846	620
455.869	335
455.916	-291
455.950	-260
455.985	-169
456.031	93
456.054	103
456.112	-291
456.124	-327
456.193	758
456.193	748
456.262	816
456.274	803
456.332	646
456.355	671
456.401	690
456.436	583
456.470	492
456.516	517
456.540	458
456.597	197
456.609	162
456.678	500
456.678	486
456.747	252
456.759	140
456.817	-42
456.840	410
456.886	880
456.920	628
456.955	569
457.001	861
457.024	915
457.082	943
457.093	978
457.162	1824
457.163	1838
457.232	1244
457.243	1172
457.301	1168
457.324	1101
457.370	937
457.405	1573
457.439	2003
457.485	1816
457.508	1854
457.566	2384
457.577	2656
457.646	4976
457.647	5025
457.715	13001
457.727	14808
457.784	27187
457.808	37725
457.853	51270
457.889	57039
457.922	53636
457.969	33323
457.991	33004
458.050	43341
458.060	45305
458.129	82034
458.130	82940
458.198	80045
458.211	71650
458.267	35006
458.292	22866
458.336	14256
458.372	13622
458.405	20686
458.453	33326
458.474	42763
458.533	79981
458.543	82937
458.611	130365
458.614	130670
458.680	73244
458.694	57080
458.749	23204
458.775	15709
458.818	9469
458.855	7323
458.887	6132
458.936	4704
458.955	4244
459.016	3145
459.024	3078
459.093	3430
459.097	3438
459.162	2687
459.177	2457
459.230	2068
459.257	2305
459.299	2708
459.338	2861
459.368	2778
459.418	2356
459.437	2226
459.499	2352
459.505	2403
459.574	2338
459.579	2362
459.643	1971
459.659	2064
459.711	2653
459.740	2531
459.780	2457
459.820	2408
459.849	2021
459.900	1968
459.917	2093
459.981	2069
459.986	2073
460.054	2231
460.061	2279
460.123	1971
460.141	1895
460.191	2458
460.222	2592
460.260	2192
460.302	1842
460.328	1878
460.382	2019
460.397	1963
460.462	1737
460.465	1770
460.534	3150
460.543	3234
460.602	6549
460.623	8214
460.671	11968
460.703	15196
460.739	14230
460.783	10718
460.808	8691
460.864	3041
460.876	2718
460.944	2297
460.945	2283
461.013	2168
461.024	2093
461.081	1707
461.104	1799
461.150	2271
461.184	2423
461.218	2589
461.264	2548
461.286	2342
461.345	2057
461.355	2058
461.423	2422
461.425	2412
461.491	1783
461.505	1845
461.559	2260
461.585	2315
461.628	2393
461.665	2506
461.696	2612
461.745	2732
461.764	2627
461.825	1957
461.832	1986
461.901	2640
461.905	2682
461.969	2191
461.985	2095
462.037	3227
462.065	3781
462.105	3005
462.145	2270
462.173	2539
462.225	3105
462.241	3164
462.305	3151
462.310	3119
462.378	2627
462.385	2586
462.446	2640
462.465	2706
462.514	2932
462.545	2908
462.582	2860
462.625	2975
462.650	2856
462.705	2441
462.718	2479
462.785	2596
462.786	2582
462.854	1784
462.865	1683
462.922	2669
462.945	2966
462.990	2795
463.025	2765
463.058	2621
463.104	2290
463.126	2357
463.184	2937
463.194	3063
463.262	3234
463.264	3254
463.330	2689
463.344	2511
463.398	3160
463.424	3583
463.466	3127
463.504	2483
463.533	2862
463.583	3644
463.601	3524
463.663	3179
463.669	3174
463.737	2962
463.743	2930
463.805	2748
463.823	2731
463.873	3144
463.903	3368
463.940	3182
463.982	2916
464.008	3005
464.062	3169
464.076	3047
464.142	2647
464.144	2666
464.211	2935
464.221	2982
464.279	2649
464.301	2544
464.347	2902
464.381	3203
464.414	2969
464.461	2548
464.482	2720
464.540	3120
464.550	3072
464.617	2591
464.620	2578
464.685	3566
464.699	3784
464.753	3481
464.779	3227
464.820	3450
464.859	3586
464.888	3130
464.938	2575
464.956	2917
465.018	3810
465.023	3770
465.091	3474
465.098	3420
465.158	3330
465.177	3301
465.226	3209
465.257	3144
465.293	3427
465.336	3560
465.361	3500
465.416	3684
465.428	3748
465.495	3781
465.496	3787
465.563	3347
465.575	3273
465.631	3470
465.654	3535
465.698	3133
465.734	2771
465.765	3205
465.813	3820
465.833	3748
465.893	3552
465.900	3524
465.968	3153
465.972	3120
466.035	3085
466.052	3070
466.102	3474
466.131	3712
466.170	3405
466.210	3010
466.237	3260
466.290	3784
466.304	3740
466.369	3424
466.372	3451
466.439	4121
466.449	4184
466.506	3560
466.528	3352
466.573	4172
466.607	4748
466.641	4847
466.687	4976
466.708	4877
466.766	4549
466.775	4452
466.842	3622
466.845	3576
466.909	4566
466.925	4789
466.977	4500
467.004	4328
467.044	4410
467.083	4497
467.111	4374
467.163	4076
467.178	4232
467.242	4876
467.245	4842
467.312	3961
467.321	3839
467.379	4734
467.400	5045
467.446	4942
467.480	4851
467.559	5582
467.638	4826
467.717	4698
467.796	4362
467.875	6171
467.955	4768
468.034	6961
468.113	7793
468.192	9551
468.271	12168
468.350	16286
468.429	24356
468.508	26451
468.588	15238
468.667	10142
468.746	7219
468.825	7145
468.904	5290
468.983	5797
469.062	5102
469.141	5570
469.220	4445
469.299	5433
469.378	4210
469.456	6155
469.535	5269
469.614	4737
469.693	4669
469.772	6357
469.851	6059
469.930	6027
470.009	7248
470.088	9431
470.166	13142
470.245	27751
470.324	35749
470.403	23496
470.482	12741
470.560	8933
470.639	6177
470.718	6424
470.797	5592
470.875	5080
470.954	4521
471.033	6239
471.111	5185
471.190	5318
471.269	3691
471.347	4689
471.426	4241
471.505	4554
471.583	5405
471.662	3952
471.740	4244
471.819	4522
471.898	4738
471.976	4371
472.055	3677
472.133	4682
472.212	5347
472.290	4492
472.369	4180
472.447	4381
472.526	4012
472.604	5631
472.683	3970
472.761	5509
472.839	6092
472.918	5235
472.996	4541
473.075	5128
473.153	5740
473.231	5587
473.310	5101
473.388	5917
473.466	5631
473.545	5137
473.623	4397
473.701	5009
473.780	4808
473.858	3624
473.936	6985
474.014	5101
474.093	5451
474.171	5642
474.249	5199
474.327	4477
474.405	3806
474.484	5747
474.562	4220
474.640	4513
474.718	3781
474.796	4772
474.874	4872
474.952	4518
475.030	5314
475.108	5543
475.187	3717
475.265	5684
475.343	5561
475.421	5914
475.499	4154
475.577	5263
475.655	4909
475.733	5483
475.811	4722
475.889	5539
475.966	4671
476.044	5170
476.122	3849
476.200	4526
476.278	4546
476.356	4439
476.434	4625
476.512	5570
476.590	5222
476.667	6139
476.745	3491
476.823	5201
476.901	4380
476.979	4634
477.056	5049
477.134	4933
477.212	4179
477.290	5306
477.367	4586
477.445	4555
477.523	3918
477.601	4094
477.678	4071
477.756	4572
477.834	4643
477.911	4965
477.989	4089
478.066	5216
478.144	5114
478.222	4862
478.299	4838
478.377	5668
478.454	4152
478.532	4575
478.609	4428
478.687	4459
478.764	4241
478.842	4491
478.919	3994
478.997	5357
479.074	4204
479.152	4892
479.229	4333
479.307	4674
479.384	4421
479.461	5290
479.539	4654
479.616	4918
479.694	3648
479.771	4427
479.848	4572
479.926	4279
480.003	6055
480.080	4644
480.157	4495
480.235	4155
480.312	4401
480.389	4383
480.467	4843
480.544	5673
480.621	5440
480.698	5940
480.775	5850
480.853	6732
480.930	4997
481.007	5252
481.084	5082
481.161	5733
481.238	4807
481.315	5343
481.392	4915
481.470	4837
481.547	4643
481.624	5593
481.701	5609
481.778	5566
481.855	4929
481.932	6604
482.009	5970
482.086	7250
482.163	8255
482.240	9944
482.317	10246
482.393	8913
482.470	7262
482.547	7692
482.624	6562
482.701	6840
482.778	5687
482.855	5856
482.932	5922
483.009	6621
483.085	7819
483.162	8890
483.239	9649
483.316	9916
483.393	10897
483.469	8659
483.546	7445
483.623	7389
483.699	5365
483.776	5271
483.853	6100
483.930	6038
484.006	5237
484.083	7324
484.160	5963
484.236	7008
484.313	6332
484.389	6626
484.466	8164
484.543	10052
484.619	12163
484.696	16152
484.772	9920
484.849	8552
484.925	7027
485.002	6737
485.078	6600
485.155	5520
485.231	4492
485.308	5532
485.384	5531
485.461	6494
485.537	4676
485.614	6749
485.690	4913
485.766	5292
485.843	5290
485.919	5535
485.995	4839
486.072	4987
486.148	4633
486.224	5104
486.301	5178
486.377	5744
486.453	4451
486.530	6289
486.606	5626
486.682	5919
486.758	6083
486.835	6569
486.911	5156
486.987	6720
487.063	8050
487.139	8582
487.215	9101
487.292	10542
487.368	13054
487.444	16320
487.520	23174
487.596	34914
487.672	83594
487.748	279741
487.824	435759
487.900	161751
487.976	39844
488.052	19993
488.128	14654
488.204	9463
488.280	8587
488.356	8912
488.432	8227
488.508	8027
488.584	6050
488.660	7441
488.736	6202
488.812	5706
488.888	6364
488.964	6280
489.039	5797
489.115	8049
489.191	6725
489.267	6146
489.343	5255
489.418	5259
489.494	5372
489.570	4437
489.646	6536
489.722	5730
489.797	4306
489.873	6223
489.949	5871
490.024	6570
490.100	5439
490.176	5840
490.251	6165
490.327	6684
490.403	6398
490.478	6680
490.554	5946
490.629	5244
490.705	5058
490.781	5437
490.856	5164
490.932	5821
491.007	5449
491.083	5770
491.158	4451
491.234	6008
491.309	5572
491.385	5300
491.460	4322
491.536	6367
491.611	5506
491.686	6412
491.762	4321
491.837	5565
491.913	6526
491.988	7819
492.063	7681
492.139	6639
492.214	5111
492.289	5390
492.365	5007
492.440	5141
492.515	4857
492.590	5619
492.666	4957
492.741	5868
492.816	5017
492.891	4879
492.967	5315
493.042	5929
493.117	4755
493.192	5579
493.267	5911
493.342	7806
493.418	9167
493.493	6155
493.568	5255
493.643	5256
493.718	5351
493.793	5807
493.868	5927
493.943	6511
494.018	5297
494.093	4620
494.168	5922
494.243	4946
494.318	5795
494.393	5741
494.468	4835
494.543	6816
494.618	5610
494.693	6180
494.768	5249
494.842	6296
494.917	5465
494.992	5697
495.067	6461
495.142	5954
495.217	5202
495.292	5925
495.366	5907
495.441	4448
495.516	6652
495.591	6178
495.665	7869
495.740	11837
495.815	7238
495.890	6071
495.964	4274
496.039	9053
496.114	6278
496.188	6569
496.263	6818
496.338	7205
496.412	5184
496.487	6288
496.561	6412
496.636	6124
496.710	5964
496.785	6147
496.860	6096
496.934	5958
497.009	5814
497.083	6804
497.158	6124
497.232	7325
497.307	7858
497.381	9399
497.455	8291
497.530	7348
497.604	5660
497.679	5903
497.753	6020
497.827	5255
497.902	5328
497.976	7469
498.050	7006
498.125	15000
498.199	16098
498.273	8064
498.348	7753
498.422	8737
498.496	8733
498.570	11576
498.645	6718
498.719	4322
498.793	4817
498.867	6793
498.941	5979
499.016	8553
499.090	13437
499.164	10260
499.238	6972
499.312	6746
499.386	7303
499.460	9185
499.534	9942
499.609	12235
499.683	9056
499.757	6418
499.831	6372
499.905	9072
499.979	9592
500.053	6399
500.127	6340
500.201	6089
500.275	7416
500.349	8007
500.422	7592
500.496	9759
500.570	10568
500.644	16726
500.718	16727
500.792	8193
500.866	5014
500.940	4161
501.013	4542
501.087	4711
501.161	4627
501.235	3600
501.309	6976
501.382	8482
501.456	9264
501.530	4638
501.603	4175
501.677	4215
501.751	2467
501.825	6223
501.898	4386
501.972	4981
502.046	4264
502.119	3869
502.193	4922
502.266	5258
502.340	4155
502.413	4397
502.487	5485
502.561	4010
502.634	4508
502.708	4749
502.781	4201
502.855	5412
502.928	2952
503.002	4505
503.075	3133
503.149	4692
503.222	4262
503.295	4201
503.369	5838
503.442	5440
503.516	7092
503.589	9700
503.662	7934
503.736	11109
503.809	14292
503.882	18686
503.956	26031
504.029	54341
504.102	158412
504.175	249915
504.249	102208
504.322	35302
504.395	18066
504.468	12530
504.542	8556
504.615	6324
504.688	6868
504.761	5160
504.834	6406
504.907	5732
504.980	4911
505.053	4592
505.127	1566
505.200	6892
505.273	2947
505.346	4113
505.419	2589
505.492	4910
505.565	3433
505.638	4499
505.711	2813
505.784	2868
505.857	2738
505.930	4844
506.003	1808
506.076	4814
506.149	2427
506.221	1380
506.294	4449
506.367	2668
506.440	4889
506.513	4616
506.586	3344
506.659	2700
506.731	4159
506.804	3465
506.877	1892
506.950	3537
507.022	3402
507.095	1519
507.168	3237
507.241	4934
507.313	1670
507.386	1829
507.459	3652
507.531	3693
507.604	2549
507.677	4192
507.749	1424
507.822	4732
507.894	2186
507.967	4667
508.040	1816
508.112	3579
508.185	3207
508.257	2333
508.330	4076
508.402	3285
508.475	2767
508.547	4210
508.620	3064
508.692	3079
508.765	3503
508.837	2930
508.909	3984
508.982	4380
509.054	3119
509.127	2239
509.199	2693
509.271	1722
509.344	2706
509.416	3251
509.488	2469
509.560	4305
509.633	2503
509.705	3917
509.777	2425
509.849	3121
509.922	1358
509.994	3944
510.066	3689
510.138	1830
510.210	4204
510.283	1524
510.355	3106
510.427	3424
510.499	2498
510.571	2859
510.643	2338
510.715	4053
510.787	784
510.859	4611
510.931	2974
511.003	4236
511.076	3830
511.148	2217
511.219	1527
511.291	3752
511.363	3349
511.435	4126
511.507	1384
511.579	4055
511.651	3549
511.723	3284
511.795	2873
511.867	2691
511.939	3201
512.010	2888
512.082	4703
512.154	2693
512.226	2671
512.298	3851
512.369	3444
512.441	4531
512.513	3492
512.585	1994
512.656	3764
512.728	2463
512.800	3424
512.871	3786
512.943	3401
513.015	3043
513.086	4021
513.158	3218
513.230	2638
513.301	3338
513.373	4955
513.444	3328
513.516	2762
513.588	3089
513.659	3529
513.731	3276
513.802	2380
513.874	5380
513.945	4496
514.016	2608
514.088	4534
514.159	1974
514.231	4172
514.302	3043
514.374	3445
514.445	2304
514.516	6297
514.588	3517
514.659	2728
514.730	3169
514.802	5530
514.873	2485
514.944	5876
515.016	4408
515.087	2977
515.158	4272
515.229	5392
515.301	3110
515.372	4754
515.443	3387
515.514	3639
515.585	3016
515.656	4953
515.728	5772
515.799	4315
515.870	5443
515.941	5248
516.012	4586
516.083	8265
516.154	6598
516.225	8749
516.296	13000
516.367	14192
516.438	18997
516.509	24300
516.580	38036
516.651	140273
516.722	487856
516.793	224289
516.864	40253
516.935	33629
517.006	39311
517.077	50958
517.148	112538
517.219	503227
517.289	771943
517.360	163156
517.431	40990
517.502	19715
517.573	17271
517.643	14643
517.714	14298
517.785	15754
517.856	19653
517.926	24709
517.997	32538
518.068	42551
518.138	61040
518.209	95199
518.280	337604
518.350	999022
518.421	512436
518.492	102102
518.562	52736
518.633	47082
518.703	58937
518.774	120007
518.845	314859
518.915	314635
518.986	96475
519.056	38325
519.127	24177
519.197	17426
519.268	15043
519.338	12510
519.408	8308
519.479	7626
519.549	6646
519.620	7631
519.690	5203
519.760	6032
519.831	6115
519.901	4485
519.971	4883
520.042	3871
520.112	4308
520.182	4793
520.253	5659
520.323	3282
520.393	2965
520.463	6121
520.534	2106
520.604	5997
520.674	5304
520.744	3364
520.814	3786
520.885	4340
520.955	3782
521.025	6226
521.095	4958
521.165	3852
521.235	3313
521.305	3903
521.375	4382
521.445	4139
521.515	3723
521.585	4753
521.655	2771
521.725	5243
521.795	4466
521.865	1115
521.935	5908
522.005	3765
522.075	3028
522.145	4191
522.215	3271
522.285	4207
522.355	3587
522.424	4049
522.494	3456
522.564	4603
522.634	4794
522.704	7829
522.774	4295
522.843	3914
522.913	3676
522.983	4527
523.053	3566
523.122	4866
523.192	3888
523.262	5191
523.331	4445
523.401	4107
523.471	4841
523.540	3748
523.610	4799
523.680	4428
523.749	5258
523.819	4852
523.888	4442
523.958	4209
524.027	4673
524.097	4339
524.166	4305
524.236	3408
524.305	6024
524.375	3703
524.444	4055
524.514	6191
524.583	3596
524.653	2639
524.722	4673
524.791	3014
524.861	6551
524.930	4664
524.999	4938
525.069	6070
525.138	5246
525.207	5222
525.277	6462
525.346	5922
525.415	7496
525.484	7326
525.554	8823
525.623	11488
525.692	15630
525.761	17562
525.830	24829
525.900	32035
525.969	50139
526.038	93742
526.107	190875
526.176	569215
526.245	482004
526.314	139997
526.383	272782
526.452	391846
526.522	507576
526.591	507092
526.660	95328
526.729	50527
526.797	53398
526.867	67747
526.935	192154
527.004	719989
527.073	522079
527.142	83017
527.211	31008
527.280	18312
527.349	14723
527.418	9388
527.487	10439
527.555	6722
527.624	6940
527.693	4949
527.762	7488
527.831	4231
527.899	7129
527.968	5529
528.037	4433
528.106	5719
528.174	5698
528.243	5842
528.312	5700
528.380	4076
528.449	4613
528.518	4794
528.586	3622
528.655	5754
528.723	3967
528.792	3208
528.861	3766
528.929	2919
528.998	5071
529.066	3920
529.135	5556
529.203	4205
529.272	3646
529.340	6126
529.409	6762
529.477	3728
529.545	3934
529.614	6919
529.682	4327
529.751	5326
529.819	8907
529.887	5433
529.956	6101
530.024	6675
530.092	5042
530.161	6248
530.229	5933
530.297	5561
530.365	7396
530.434	6061
530.502	4911
530.570	5653
530.638	4699
530.707	6191
530.775	7366
530.843	4851
530.911	5777
530.979	6485
531.047	6012
531.115	6282
531.183	5911
531.252	6093
531.320	6128
531.388	4743
531.456	6725
531.524	4477
531.592	6501
531.660	7950
531.728	5870
531.796	5680
531.864	6416
531.932	5867
532.000	5722
532.067	6178
532.135	7332
532.203	6779
532.271	7485
532.339	9141
532.407	8888
532.475	8518
532.542	8481
532.610	8296
532.678	6616
532.746	11424
532.814	14846
532.881	8547
532.949	8558
533.017	7874
533.084	6820
533.152	6640
533.220	6737
533.287	6328
533.355	7540
533.423	7494
533.490	7982
533.558	7503
533.625	8129
533.693	6836
533.761	7651
533.828	8000
533.896	7059
533.963	9728
534.031	9650
534.098	11027
534.166	11896
534.233	10938
534.300	14664
534.368	13552
534.435	13752
534.503	13383
534.570	16719
534.637	19273
534.705	23321
534.772	27863
534.840	49814
534.907	237764
534.974	329636
535.041	50058
535.109	19205
535.176	13329
535.243	13018
535.310	11558
535.378	11387
535.445	11672
535.512	11986
535.579	11285
535.646	10374
535.714	10825
535.781	12627
535.848	12375
535.915	12228
535.982	10298
536.049	11865
536.116	11564
536.183	11092
536.250	10701
536.317	10725
536.384	11302
536.451	12409
536.518	13039
536.585	10857
536.652	13302
536.719	12980
536.786	10478
536.853	11848
536.920	13009
536.987	12452
537.053	10745
537.120	15316
537.187	16020
537.254	12430
537.321	13138
537.388	13997
537.454	12192
537.521	12896
537.588	12761
537.654	14036
537.721	13875
537.788	15331
537.855	12619
537.921	13926
537.988	12587
538.055	13197
538.121	10486
538.188	11995
538.254	11060
538.321	12116
538.388	12566
538.454	13812
538.521	14438
538.587	14765
538.654	13833
538.720	13573
538.787	13487
538.853	12959
538.920	12613
538.986	12064
539.053	11529
539.119	12004
539.185	11722
539.252	14008
539.318	12526
539.385	15467
539.451	12487
539.517	13798
539.583	13783
539.650	13532
539.716	13956
539.782	12346
539.849	11744
539.915	13298
539.981	11581
540.047	12805
540.114	12572
540.180	14349
540.246	13305
540.312	14280
540.378	13095
540.444	15337
540.510	15105
540.576	16413
540.643	13399
540.709	12869
540.775	13015
540.841	12927
540.907	13156
540.973	14442
541.039	12037
541.105	13631
541.171	12905
541.237	14381
541.303	13627
541.369	16020
541.435	14006
541.500	14707
541.566	11021
541.632	12896
541.698	12847
541.764	14982
541.830	13645
541.896	12644
541.961	14342
542.027	12250
542.093	15107
542.159	14938
542.224	12939
542.290	14604
542.356	12986
542.421	13755
542.487	13457
542.553	12505
542.618	13036
542.684	12876
542.750	13245
542.815	14711
542.881	13164
542.947	15970
543.012	16498
543.078	13978
543.143	12147
543.209	12825
543.274	11962
543.340	13479
543.405	13729
543.471	15099
543.536	14290
543.602	14524
543.667	12900
543.732	15067
543.798	12955
543.863	14192
543.928	13276
543.994	13335
544.059	14308
544.124	15125
544.190	14451
544.255	15849
544.320	14461
544.386	15421
544.451	15956
544.516	14488
544.581	13794
544.646	15917
544.712	18099
544.777	17108
544.842	15141
544.907	16367
544.972	15368
545.037	15803
545.102	16172
545.168	17389
545.233	17046
545.298	19202
545.363	17818
545.428	17444
545.493	20363
545.558	19617
545.623	18261
545.688	18353
545.753	20277
545.818	20830
545.883	21796
545.947	21309
546.012	22530
546.077	22433
546.142	24632
546.207	25222
546.272	26465
546.337	28000
546.401	28631
546.466	30252
546.531	30368
546.596	34247
546.661	34144
546.725	36984
546.790	38122
546.855	42346
546.919	46478
546.984	51629
547.049	54040
547.113	62764
547.178	69769
547.243	78859
547.307	90362
547.372	102806
547.436	102677
547.501	108883
547.565	117458
547.630	107966
547.695	104145
547.759	102306
547.823	103880
547.888	106979
547.952	108273
548.017	111628
548.081	114745
548.146	113142
548.210	117450
548.274	128382
548.339	125697
548.403	115087
548.468	106907
548.532	107366
548.596	108607
548.660	108617
548.725	118603
548.789	128935
548.853	125447
548.917	120721
548.982	116563
549.046	107213
549.110	95261
549.174	99928
549.238	115301
549.303	125392
549.367	130098
549.431	123888
549.495	116895
549.559	116775
549.623	132725
549.687	147261
549.751	141884
549.815	170895
549.879	174364
549.943	165865
550.007	173845
550.071	171866
550.135	155606
550.199	148000
550.263	146887
550.327	139414
550.391	139239
550.455	156196
550.519	165363
550.582	172937
550.646	195869
550.710	200787
550.774	197431
550.838	200833
550.901	207202
550.965	217445
551.029	224834
551.093	240744
551.156	261832
551.220	291172
551.284	323708
551.347	262409
551.411	219409
551.475	208454
551.538	215202
551.602	204275
551.666	191686
551.729	183246
551.793	175798
551.856	175259
551.920	169642
551.983	173666
552.047	169602
552.110	171800
552.174	172859
552.237	177646
552.301	165740
552.364	158830
552.428	156604
552.491	161446
552.554	164696
552.618	164926
552.681	168727
552.745	167033
552.808	194684
552.871	226148
552.934	194684
552.998	172202
553.061	162291
553.124	155328
553.187	154434
553.251	158897
553.314	156769
553.377	159948
553.440	168314
553.503	171558
553.567	172304
553.630	171102
553.693	171277
553.756	173545
553.819	169455
553.882	165064
553.945	164739
554.008	165444
554.071	166434
554.134	168385
554.197	160643
554.260	156805
554.323	158706
554.386	159760
554.449	166598
554.512	167458
554.575	160541
554.638	159164
554.701	158128
554.764	156386
554.827	151550
554.889	146841
554.952	139227
555.015	134476
555.078	136312
555.141	140241
555.203	136688
555.266	134227
555.329	136315
555.391	132105
555.454	127977
555.517	124216
555.580	119082
555.642	115775
555.705	113510
555.768	113483
555.830	110136
555.893	105288
555.955	102032
556.018	100150
556.080	99407
556.143	102147
556.206	101021
556.268	99327
556.330	95272
556.393	92652
556.455	90836
556.518	88508
556.580	86497
556.643	82121
556.705	80985
556.767	80193
556.830	80069
556.892	77595
556.955	75020
557.017	74984
557.079	73379
557.142	72179
557.204	69570
557.266	71476
557.328	66620
557.391	62676
557.453	60636
557.515	61315
557.577	61462
557.639	62180
557.701	60844
557.764	62237
557.826	63676
557.888	65346
557.950	66458
558.012	70699
558.074	85486
558.136	173618
558.198	415057
558.260	172128
558.322	70924
558.384	68571
558.446	71409
558.508	76601
558.570	86419
558.632	96039
558.694	114582
558.756	179148
558.818	467099
558.880	961735
558.942	461069
559.003	448242
559.065	239070
559.127	94511
559.189	85141
559.251	88832
559.312	117014
559.374	259641
559.436	742293
559.498	425314
559.559	111827
559.621	86876
559.683	91877
559.744	135356
559.806	403850
559.868	605389
559.929	162373
559.991	93020
560.052	137090
560.114	389813
560.176	265105
560.237	225985
560.299	372610
560.360	95941
560.422	39836
560.483	33200
560.545	29862
560.606	28996
560.667	26858
560.729	25794
560.790	24818
560.852	25282
560.913	23887
560.974	22525
561.036	22562
561.097	22917
561.158	22069
561.220	23472
561.281	20720
561.342	21222
561.403	20942
561.465	19416
561.526	20748
561.587	21837
561.648	17826
561.709	19712
561.771	19040
561.832	18074
561.893	17922
561.954	17848
562.015	18265
562.076	17418
562.137	16861
562.198	17340
562.259	17032
562.320	16477
562.381	16577
562.442	17294
562.503	16979
562.564	16338
562.625	16266
562.686	16763
562.747	15049
562.808	15788
562.869	14471
562.930	15719
562.991	15153
563.051	15100
563.112	14952
563.173	14764
563.234	14445
563.294	14624
563.355	14346
563.416	14040
563.477	14446
563.537	13753
563.598	13625
563.659	14070
563.720	13726
563.780	13408
563.841	13761
563.901	14493
563.962	13343
564.023	14020
564.083	13580
564.144	12994
564.204	13287
564.265	13694
564.325	13482
564.386	13203
564.446	13100
564.507	12035
564.567	12390
564.628	12936
564.688	11639
564.749	12213
564.809	11929
564.869	13157
564.930	12240
564.990	12888
565.050	12084
565.111	12003
565.171	11360
565.231	12539
565.292	12596
565.352	12291
565.412	12016
565.472	12533
565.532	12304
565.593	11702
565.653	12077
565.713	12656
565.773	12371
565.833	12627
565.893	14062
565.953	11680
566.013	12011
566.074	11617
566.134	11364
566.194	11536
566.254	10674
566.314	11465
566.374	10834
566.434	11683
566.494	11277
566.554	10719
566.614	11004
566.673	12465
566.733	12084
566.793	11533
566.853	11772
566.913	12376
566.973	11261
567.033	12590
567.092	12314
567.152	12584
567.212	11197
567.272	11399
567.331	12505
567.391	11617
567.451	12261
567.511	13035
567.570	12880
567.630	12411
567.690	11887
567.749	12105
567.809	11683
567.868	12667
567.928	11516
567.988	12428
568.047	12332
568.107	11089
568.166	11760
568.226	12390
568.285	13675
568.345	12276
568.404	13145
568.464	12113
568.523	11964
568.582	12577
568.642	11630
568.701	12254
568.761	12143
568.820	12314
568.879	11178
568.939	12366
568.998	11491
569.057	11705
569.116	11727
569.176	12372
569.235	10578
569.294	11229
569.353	11582
569.413	11375
569.472	9685
569.531	10572
569.590	9639
569.649	11730
569.708	10718
569.767	11430
569.827	11187
569.886	11570
569.945	10936
570.004	11382
570.063	10951
570.122	12078
570.181	11911
570.240	12241
570.299	11800
570.358	11593
570.417	11686
570.475	12535
570.534	12490
570.593	12744
570.652	12013
570.711	13039
570.770	11787
570.829	12312
570.887	12089
570.946	12595
571.005	12759
571.064	14531
571.122	16116
571.181	13432
571.240	11849
571.299	11395
571.357	11492
571.416	11046
571.475	11112
571.533	12792
571.592	13025
571.650	12818
571.709	12304
571.768	14655
571.826	14478
571.885	15004
571.943	12801
572.002	11919
572.060	10822
572.119	12551
572.177	10745
572.236	12312
572.294	11898
572.352	12974
572.411	12934
572.469	12547
572.528	11147
572.586	11325
572.644	11483
572.703	11477
572.761	10522
572.819	11358
572.877	10316
572.936	10480
572.994	9501
573.052	10740
573.110	11247
573.169	11282
573.227	11231
573.285	11379
573.343	11221
573.401	11330
573.459	11639
573.517	10928
573.576	11452
573.634	12227
573.692	10159
573.750	11145
573.808	9918
573.866	10099
573.924	11041
573.982	10476
574.040	10490
574.098	10797
574.155	10062
574.213	11254
574.271	10416
574.329	11982
574.387	9878
574.445	9945
574.503	8798
574.560	9062
574.618	9340
574.676	9337
574.734	8821
574.792	10075
574.849	8827
574.907	8888
574.965	7220
575.022	6775
575.080	7782
575.138	8984
575.195	6675
575.253	7794
575.311	7258
575.368	7754
575.426	6641
575.483	7886
575.541	7672
575.598	8184
575.656	7579
575.713	9293
575.771	9355
575.828	8684
575.886	7992
575.943	7885
576.001	6974
576.058	6517
576.115	6763
576.173	8691
576.230	7762
576.287	8044
576.345	6225
576.402	8216
576.459	7795
576.517	7610
576.574	7253
576.631	7137
576.688	7252
576.746	7082
576.803	6755
576.860	7197
576.917	7688
576.974	7245
577.031	6792
577.089	6755
577.146	6898
577.203	7062
577.260	5847
577.317	7241
577.374	6831
577.431	6119
577.488	6438
577.545	6569
577.602	7175
577.659	6388
577.716	7156
577.773	7921
577.830	7152
577.886	6556
577.943	6125
578.000	7511
578.057	5899
578.114	6941
578.171	6765
578.227	7846
578.284	6226
578.341	6957
578.398	6052
578.454	6924
578.511	6239
578.568	7489
578.625	6804
578.681	6744
578.738	6738
578.794	6786
578.851	6695
578.908	6788
578.964	6424
579.021	7116
579.077	5779
579.134	6692
579.190	6809
579.247	6755
579.303	6428
579.360	6492
579.416	6849
579.473	6073
579.529	5972
579.586	6882
579.642	6553
579.698	7776
579.755	6637
579.811	8219
579.867	7237
579.924	7281
579.980	6388
580.036	8294
580.093	7146
580.149	7480
580.205	8621
580.261	6559
580.317	6964
580.374	7896
580.430	8060
580.486	7582
580.542	6331
580.598	8327
580.619	8083
580.654	7667
580.692	7843
580.710	7937
580.765	7487
580.767	7480
580.823	8130
580.838	8083
580.879	7954
580.911	8223
580.935	8436
580.984	8054
580.991	8018
581.047	8154
581.057	7955
581.103	7063
581.130	7610
581.159	8172
581.203	7251
581.215	7030
581.270	7656
581.276	7577
581.326	6836
581.349	7256
581.382	7923
581.422	7968
581.438	7964
581.494	6828
581.494	6816
581.550	6008
581.567	6472
581.606	7411
581.640	7370
581.661	7399
581.713	7672
581.717	7689
581.773	6830
581.786	6996
581.829	7586
581.859	7703
581.885	7841
581.932	7592
581.940	7536
581.996	8134
582.004	8123
582.052	8133
582.077	7867
582.107	7483
582.150	7601
582.163	7676
582.219	7578
582.223	7583
582.274	7573
582.296	6929
582.330	5902
582.368	6672
582.386	7099
582.441	7386
582.441	7386
582.497	7716
582.514	7324
582.552	6621
582.587	7525
582.608	8030
582.659	7080
582.663	7012
582.719	7630
582.732	7515
582.774	7180
582.805	7625
582.830	7986
582.877	7330
582.885	7215
582.941	7432
582.950	7418
582.996	7326
583.023	7627
583.052	8116
583.095	8029
583.107	7931
583.162	8109
583.168	8028
583.218	7408
583.240	7271
583.273	6997
583.313	7047
583.328	7128
583.384	7339
583.385	7321
583.439	6663
583.458	7135
583.494	8040
583.531	7482
583.549	7181
583.603	7274
583.605	7280
583.660	7456
583.676	7596
583.715	7985
583.748	7766
583.770	7534
583.820	7852
583.825	7894
583.881	7747
583.893	7783
583.936	8007
583.965	7748
583.991	7461
584.038	7869
584.046	7938
584.101	7514
584.110	7606
584.156	8201
584.183	8145
584.211	7895
584.255	8032
584.266	8188
584.321	8569
584.328	8529
584.376	7743
584.400	7942
584.431	8369
584.472	8275
584.486	8173
584.541	8100
584.545	8142
584.596	9125
584.617	8810
584.651	8323
584.689	9687
584.706	10249
584.761	9757
584.762	9763
584.816	10653
584.834	10919
584.871	11419
584.906	11220
584.926	11102
584.978	11438
584.980	11466
585.035	13874
585.051	14196
585.090	14976
585.123	16247
585.145	17185
585.195	18567
585.200	18769
585.254	22845
585.267	23879
585.309	27494
585.340	30612
585.364	33144
585.412	38032
585.419	38946
585.473	48285
585.484	50614
585.528	64918
585.556	80680
585.583	112048
585.628	187370
585.637	213966
585.692	446981
585.700	485292
585.747	604853
585.772	518341
585.801	335704
585.845	124084
585.856	96758
585.910	48704
585.917	44248
585.965	31335
585.989	27453
586.019	24618
586.061	21689
586.074	21002
586.128	19026
586.133	18849
586.183	17500
586.205	17206
586.237	16642
586.277	16087
586.292	16148
586.346	16315
586.349	16304
586.401	15543
586.421	15629
586.455	15794
586.493	15315
586.509	15436
586.564	16115
586.565	16134
586.618	17526
586.637	18349
586.672	21061
586.709	24179
586.727	25383
586.781	28440
586.781	28443
586.835	21583
586.853	19855
586.889	18135
586.925	16657
586.944	16125
586.996	16271
586.998	16300
587.052	16233
587.068	16231
587.106	16180
587.140	16171
587.161	16159
587.212	16958
587.215	17003
587.269	16093
587.284	16371
587.323	17389
587.356	17204
587.377	17051
587.427	17631
587.431	17712
587.485	18723
587.499	18827
587.539	18584
587.571	18534
587.593	19156
587.643	20979
587.648	21013
587.702	20595
587.715	20466
587.755	20994
587.786	21237
587.810	20922
587.858	20455
587.864	20540
587.917	21250
587.930	21425
587.971	21569
588.001	21787
588.025	21985
588.073	22019
588.079	22046
588.133	21800
588.145	21813
588.187	22183
588.217	22527
588.241	22929
588.288	23807
588.295	23970
588.348	24763
588.360	24988
588.402	25531
588.431	25566
588.456	26002
588.503	27730
588.510	28010
588.564	29643
588.575	30151
588.617	32306
588.646	33270
588.671	34101
588.718	36307
588.725	37297
588.778	45872
588.789	48075
588.832	71329
588.861	90387
588.886	129259
588.932	214444
588.939	221098
588.993	262214
589.004	259441
589.047	145084
589.075	77590
589.100	59687
589.147	38738
589.154	38127
589.207	34227
589.218	33642
589.261	34453
589.290	34915
589.314	35752
589.361	38351
589.368	39869
589.421	53013
589.433	56510
589.475	95431
589.504	126347
589.528	163217
589.576	239218
589.582	231598
589.635	121070
589.647	98621
589.689	57258
589.718	34120
589.742	31652
589.790	27515
589.795	27414
589.849	26573
589.861	26414
589.902	25534
589.932	24646
589.955	24367
590.004	24107
590.009	24093
590.062	23683
590.075	23532
590.115	23769
590.146	23969
590.168	24207
590.218	24705
590.222	24735
590.275	24701
590.289	24697
590.328	25398
590.360	25821
590.381	25750
590.431	25528
590.435	25568
590.488	25641
590.503	25765
590.541	26396
590.574	26600
590.594	26867
590.645	27659
590.647	27738
590.700	29114
590.716	29383
590.753	29790
590.787	30328
590.806	30669
590.859	31558
590.859	31596
590.912	31336
590.930	31343
590.965	32312
591.001	33131
591.018	32905
591.071	32060
591.072	32012
591.124	31297
591.143	31096
591.177	31633
591.214	32128
591.230	32161
591.283	32230
591.285	32180
591.336	32232
591.356	32337
591.389	32335
591.427	32021
591.442	31897
591.495	31511
591.498	31430
591.547	31399
591.569	31462
591.600	32466
591.640	33499
591.653	33585
591.706	33897
591.711	33880
591.759	34555
591.782	34855
591.811	35518
591.853	36369
591.864	36396
591.917	36210
591.924	36135
591.969	36355
591.995	36425
592.022	37008
592.066	37827
592.075	37994
592.127	38695
592.137	38775
592.180	39591
592.208	40012
592.233	40203
592.279	40434
592.285	40627
592.338	41778
592.350	41978
592.390	41126
592.421	40392
592.443	41177
592.491	42744
592.495	42929
592.548	44661
592.562	45072
592.600	44186
592.633	43325
592.653	43268
592.704	42754
592.705	43032
592.775	44752
592.846	46967
592.916	45842
592.987	47242
593.058	47368
593.128	47274
593.199	48882
593.270	48909
593.341	51289
593.411	51961
593.482	53177
593.553	55537
593.623	55416
593.694	57045
593.764	57517
593.835	56764
593.906	57938
593.976	57964
594.047	59686
594.117	62909
594.188	63696
594.258	64274
594.329	63493
594.399	64795
594.470	68134
594.540	68677
594.611	71492
594.681	70321
594.751	71081
594.822	74054
594.892	75982
594.963	78140
595.033	81011
595.103	82541
595.174	82892
595.244	85421
595.314	87787
595.384	90415
595.455	92246
595.525	95942
595.595	99983
595.665	100004
595.736	98121
595.806	99259
595.876	99735
595.946	101408
596.016	104953
596.087	108319
596.157	107664
596.227	110096
596.297	115915
596.367	123917
596.437	131452
596.507	129994
596.577	129968
596.647	133242
596.717	140121
596.787	142379
596.857	143289
596.927	142490
596.997	142918
597.067	145010
597.137	146721
597.207	147207
597.277	148544
597.347	142017
597.417	136576
597.487	139516
597.557	142645
597.626	144747
597.696	145233
597.766	146216
597.836	136109
597.906	128848
597.975	128419
598.045	132968
598.115	137982
598.185	147667
598.254	165586
598.324	179150
598.394	181252
598.464	174752
598.533	171898
598.603	159946
598.672	153424
598.742	160722
598.812	159991
598.881	165593
598.951	163906
599.020	164995
599.090	171899
599.159	173210
599.229	166482
599.299	163868
599.368	169201
599.437	164602
599.507	150868
599.576	146560
599.646	143503
599.715	141721
599.785	140761
599.854	137491
599.924	135446
599.993	136217
600.062	138201
600.132	142271
600.201	152053
600.270	175787
600.340	183442
600.409	180526
600.478	177659
600.547	182619
600.617	162595
600.686	130649
600.755	119798
600.824	111624
600.894	110896
600.963	108891
601.032	108515
601.101	103476
601.170	99352
601.239	95700
601.308	96802
601.378	97929
601.447	97078
601.516	95911
601.585	98563
601.654	99366
601.723	99125
601.792	101945
601.861	106684
601.930	110236
601.999	111645
602.068	110654
602.137	112562
602.206	114093
602.275	115564
602.343	117050
602.412	118544
602.481	119650
602.550	121106
602.619	124695
602.688	125536
602.756	126646
602.825	128259
602.894	131070
602.963	134679
603.032	135950
603.100	136459
603.169	135271
603.238	138779
603.307	138037
603.375	140905
603.444	143366
603.513	143083
603.581	146861
603.650	147651
603.719	145239
603.787	150251
603.856	154983
603.924	158454
603.993	162855
604.061	170943
604.130	177952
604.198	180579
604.267	183243
604.335	186701
604.404	189411
604.472	191906
604.541	193972
604.609	195018
604.678	196447
604.746	196932
604.815	204565
604.883	204903
604.951	205046
605.020	210559
605.088	213297
605.156	215868
605.225	222373
605.293	221155
605.361	223873
605.429	226038
605.498	231635
605.566	236303
605.634	248229
605.702	254715
605.771	262007
605.839	262844
605.907	256389
605.975	247988
606.043	244618
606.111	243730
606.180	242882
606.248	238529
606.316	237660
606.384	237977
606.452	239541
606.520	247409
606.588	255497
606.656	256129
606.724	251711
606.792	235307
606.860	213540
606.928	195464
606.996	187075
607.064	184989
607.132	191398
607.200	201875
607.267	207775
607.335	213512
607.403	215841
607.471	207042
607.539	204227
607.607	203026
607.674	178361
607.742	179946
607.810	178851
607.878	178990
607.946	182309
608.013	193196
608.081	193931
608.149	197483
608.216	203783
608.284	209293
608.352	209450
608.419	205732
608.487	204585
608.555	200510
608.622	207633
608.690	219999
608.757	243641
608.825	245429
608.893	239479
608.960	224266
609.028	216086
609.095	216304
609.163	214998
609.230	189448
609.298	176144
609.365	189336
609.432	204242
609.500	222504
609.567	252532
609.635	284729
609.702	296696
609.769	279769
609.837	216226
609.904	192786
609.971	200725
610.039	220391
610.106	274188
610.173	469383
610.241	907748
610.308	507033
610.375	238965
610.442	211162
610.509	200000
610.577	200848
610.644	203491
610.711	210617
610.778	216081
610.845	226319
610.912	239651
610.980	245197
611.047	245305
611.114	240928
611.181	234133
611.248	234648
611.315	248062
611.382	252659
611.449	260849
611.516	265328
611.583	262933
611.650	262513
611.717	266552
611.784	270836
611.851	283317
611.918	295085
611.984	334800
612.051	432086
612.118	722066
612.185	1339863
612.252	882954
612.319	398061
612.386	340335
612.452	314945
612.519	298473
612.586	292196
612.653	297637
612.719	307896
612.786	296131
612.853	274879
612.919	270880
612.986	273819
613.053	256199
613.120	243241
613.186	234651
613.253	236770
613.319	237307
613.386	240776
613.453	241679
613.519	243884
613.586	238440
613.652	243345
613.719	239063
613.785	245498
613.852	247962
613.918	243866
613.985	247333
614.051	255610
614.118	251675
614.184	245654
614.250	245062
614.317	250327
614.383	248199
614.449	252305
614.516	251895
614.582	250310
614.648	245531
614.715	244504
614.781	238233
614.847	240448
614.914	236946
614.980	230568
615.046	233723
615.112	239431
615.179	240680
615.245	243107
615.311	238860
615.377	244762
615.443	247174
615.509	250349
615.575	258448
615.642	254930
615.708	260097
615.774	270877
615.840	286134
615.906	301964
615.972	348115
616.038	480380
616.104	845119
616.170	1453233
616.236	1180058
616.302	527818
616.368	431459
616.434	325222
616.500	305242
616.565	340334
616.631	413597
616.697	344971
616.763	355086
616.829	517177
616.895	845324
616.961	749522
617.026	362303
617.092	272529
617.158	258245
617.224	250302
617.289	232047
617.355	223072
617.421	219619
617.487	218939
617.552	211414
617.618	208870
617.684	209333
617.749	211948
617.815	202166
617.880	198613
617.946	199189
618.012	203146
618.077	205602
618.143	197656
618.208	199423
618.274	212765
618.339	210722
618.405	177031
618.470	176815
618.536	176638
618.601	174002
618.667	161674
618.732	155575
618.798	153368
618.863	154282
618.928	153539
618.994	155345
619.059	153354
619.124	154635
619.190	152967
619.255	151291
619.320	152131
619.386	151768
619.451	151051
619.516	145220
619.581	148494
619.647	155252
619.712	153394
619.777	146155
619.842	148715
619.907	151341
619.972	152343
620.038	150944
620.103	148960
620.168	149412
620.233	151647
620.298	149629
620.363	153331
620.428	157332
620.493	160093
620.558	162339
620.623	165521
620.688	163908
620.753	162601
620.818	166666
620.883	165437
620.948	165376
621.013	162809
621.078	159782
621.143	161263
621.207	163782
621.272	159928
621.337	155236
621.402	153797
621.467	153366
621.532	151600
621.596	153020
621.661	148606
621.726	147306
621.791	149292
621.855	150016
621.920	148015
621.985	152861
622.049	153828
622.114	153902
622.179	157083
622.243	158724
622.308	164144
622.373	170172
622.437	163412
622.502	155742
622.566	155704
622.631	154644
622.695	158143
622.760	157202
622.824	155846
622.889	155873
622.953	157731
623.018	167592
623.082	167477
623.147	166899
623.211	163025
623.276	160399
623.340	155666
623.404	152998
623.469	153587
623.533	154570
623.597	150387
623.662	149019
623.726	137871
623.790	131934
623.854	128039
623.919	130653
623.983	133117
624.047	133733
624.111	136918
624.176	137053
624.240	139347
624.304	142793
624.368	136914
624.432	138207
624.496	141677
624.560	148799
624.625	149394
624.689	150309
624.753	155112
624.817	146572
624.881	143609
624.945	130101
625.009	125524
625.073	129703
625.137	132656
625.201	140630
625.265	137373
625.329	133167
625.393	135776
625.456	137423
625.520	139808
625.584	140329
625.648	143473
625.712	147398
625.776	145698
625.839	138483
625.903	118651
625.967	110646
626.031	120476
626.095	138449
626.158	127194
626.222	100355
626.286	96461
626.349	92992
626.413	86095
626.477	86437
626.540	86914
626.604	87055
626.668	86579
626.731	84136
626.795	83631
626.858	83955
626.922	81648
626.986	82008
627.049	81081
627.113	85669
627.176	82276
627.240	80469
627.303	80638
627.366	78645
627.430	81568
627.493	78933
627.557	76657
627.620	80008
627.684	83309
627.747	83281
627.810	74859
627.874	69009
627.937	66273
628.000	70327
628.064	67737
628.127	59423
628.190	60309
628.253	57323
628.317	55027
628.380	52598
628.443	51395
628.506	51278
628.569	48935
628.632	46571
628.696	47468
628.759	45738
628.822	44598
628.885	44298
628.948	44175
629.011	42441
629.074	40695
629.137	38711
629.200	38974
629.263	39643
629.326	37981
629.389	37861
629.452	39051
629.515	35513
629.578	36845
629.641	38587
629.704	36907
629.767	37060
629.830	36445
629.892	35384
629.955	34230
630.018	37115
630.081	34493
630.144	34926
630.207	33448
630.269	36451
630.332	32990
630.395	32702
630.458	32618
630.520	30471
630.583	32528
630.646	33387
630.708	32367
630.771	33006
630.834	36339
630.896	34051
630.959	34397
631.021	31695
631.084	33687
631.146	33488
631.209	33987
631.272	33818
631.334	34711
631.397	34243
631.459	35624
631.522	37129
631.584	37748
631.646	41311
631.709	41995
631.771	42531
631.834	40534
631.896	37832
631.958	34987
632.021	34870
632.083	32535
632.145	31953
632.208	31561
632.270	32603
632.332	31368
632.395	30727
632.457	32143
632.519	30030
632.581	32095
632.643	29292
632.706	30286
632.768	29511
632.830	31373
632.892	31413
632.954	32278
633.016	32760
633.078	31297
633.141	32108
633.203	30834
633.265	32050
633.327	30439
633.389	30637
633.451	32416
633.513	30261
633.575	32864
633.637	32271
633.698	31956
633.760	35455
633.822	35823
633.884	36547
633.946	37625
634.008	38136
634.070	39553
634.132	42905
634.193	46534
634.255	51150
634.317	51732
634.379	51416
634.441	44663
634.502	39927
634.564	37839
634.626	34024
634.687	32784
634.749	31718
634.811	32385
634.873	29811
634.934	30448
634.996	32290
635.057	30918
635.119	31070
635.181	32429
635.242	33318
635.304	30381
635.365	34368
635.427	31851
635.488	31123
635.550	30409
635.611	33372
635.673	31700
635.734	36511
635.796	37740
635.857	40904
635.918	44072
635.980	49590
636.041	52566
636.102	55630
636.164	56554
636.225	55364
636.286	43809
636.348	39802
636.409	35620
636.470	33455
636.531	32724
636.593	31275
636.654	30362
636.715	28810
636.776	29552
636.838	27393
636.899	28044
636.960	26294
637.021	26262
637.082	25679
637.143	26023
637.204	24117
637.265	25254
637.326	25581
637.387	26801
637.448	24125
637.509	25765
637.570	26099
637.631	26106
637.692	24181
637.753	22977
637.814	24371
637.875	23373
637.936	24718
637.997	23430
638.058	23403
638.119	23892
638.179	23342
638.240	23303
638.301	23947
638.362	21562
638.423	23004
638.483	23938
638.544	20636
638.605	21414
638.666	21213
638.726	22377
638.787	23294
638.848	21409
638.908	22075
638.969	21518
639.030	20301
639.090	19899
639.151	20482
639.211	21931
639.272	21708
639.332	21870
639.393	22823
639.453	23565
639.514	24633
639.574	21929
639.635	19116
639.695	20665
639.756	18990
639.816	18938
639.877	19097
639.937	21367
639.997	21100
640.058	19028
640.118	19417
640.178	20175
640.239	19395
640.299	20047
640.359	20721
640.420	22699
640.480	24793
640.540	28809
640.600	28244
640.661	25011
640.721	22791
640.781	23426
640.841	19528
640.901	20667
640.961	20182
641.021	21273
641.082	22440
641.142	20033
641.202	20263
641.262	17526
641.322	20473
641.382	18236
641.442	18527
641.502	18814
641.562	19588
641.622	19721
641.682	21187
641.742	25367
641.802	22525
641.861	19551
641.921	18420
641.981	18019
642.041	17313
642.101	16595
642.161	16216
642.221	17353
642.280	17551
642.340	17070
642.400	17256
642.460	19394
642.519	17595
642.579	17733
642.639	19063
642.698	16732
642.758	20404
642.818	19334
642.877	18123
642.937	18345
642.997	19718
643.056	18480
643.116	17591
643.175	19967
643.235	18896
643.294	19581
643.354	22155
643.414	23864
643.473	27532
643.532	32781
643.592	43223
643.651	64069
643.711	108748
643.770	204108
643.830	475292
643.889	781352
643.948	217794
644.008	57920
644.067	36196
644.126	27798
644.186	24254
644.245	22002
644.304	19251
644.363	22032
644.423	17919
644.482	19530
644.541	20905
644.600	20845
644.659	28285
644.719	34309
644.778	50374
644.837	87711
644.896	182440
644.955	368234
645.014	108012
645.073	31194
645.132	23776
645.191	22071
645.250	21231
645.309	23797
645.368	26301
645.427	35135
645.486	63449
645.545	97623
645.604	28262
645.663	20015
645.722	19392
645.781	21510
645.840	25280
645.898	27797
645.957	40336
646.016	60949
646.075	104416
646.134	195929
646.192	504326
646.251	591887
646.310	115206
646.369	42271
646.427	36007
646.486	26064
646.545	21788
646.603	19428
646.662	18607
646.721	18987
646.779	17709
646.838	19727
646.896	24468
646.955	32557
647.014	53562
647.072	105709
647.131	266466
647.189	107668
647.248	20649
647.306	16862
647.365	16308
647.423	13172
647.481	15350
647.540	12534
647.598	13722
647.657	12952
647.715	13589
647.773	11733
647.832	12622
647.890	10694
647.948	12038
648.007	11514
648.065	10950
648.123	10457
648.181	12172
648.240	11363
648.298	9524
648.356	11344
648.414	11112
648.472	11235
648.531	10881
648.589	9739
648.647	10779
648.705	9796
648.763	10691
648.821	11811
648.879	11465
648.937	13319
648.995	16384
649.053	20698
649.111	30783
649.169	50276
649.227	89532
649.285	191475
649.343	476753
649.401	194660
649.459	33555
649.516	20270
649.574	16304
649.632	17263
649.690	19834
649.748	25080
649.806	36146
649.863	72280
649.921	199985
649.979	108472
650.037	18193
650.094	10185
650.152	10200
650.210	8669
650.268	8464
650.325	8312
650.383	7789
650.440	6611
650.498	8357
650.556	7861
650.613	7394
650.671	8289
650.728	7939
650.786	8738
650.843	12453
650.901	8137
650.958	7901
651.016	6747
651.073	6454
651.131	6335
651.188	6314
651.246	6159
651.303	5334
651.360	6195
651.418	6341
651.475	6611
651.532	5138
651.590	5767
651.647	5751
651.704	6016
651.762	5338
651.819	5841
651.876	5298
651.933	5317
651.990	5697
652.048	4299
652.105	5271
652.162	5807
652.219	4362
652.276	5425
652.333	4954
652.390	4363
652.448	6128
652.505	5240
652.562	4802
652.619	4470
652.676	5217
652.733	5890
652.790	3998
652.847	3565
652.904	5135
652.961	4389
653.017	3726
653.074	5385
653.131	4605
653.188	4756
653.245	4961
653.302	4276
653.359	4343
653.415	4647
653.472	4372
653.529	5415
653.586	4020
653.642	3540
653.699	4546
653.756	3513
653.813	4224
653.869	5457
653.926	4744
653.983	3697
654.039	5311
654.096	4151
654.152	5408
654.209	2920
654.266	4850
654.322	3143
654.379	5193
654.435	4533
654.492	3377
654.548	4606
654.605	3610
654.661	4367
654.717	4013
654.774	4745
654.830	4556
654.887	4397
654.943	3394
655.000	4358
655.056	4449
655.112	3906
655.168	3312
655.225	4054
655.281	5131
655.337	4270
655.394	4124
655.450	3512
655.506	3406
655.562	3476
655.618	4724
655.675	3334
655.731	3133
655.787	3806
655.843	4592
655.899	3627
655.955	5090
656.011	3884
656.067	3588
656.123	4385
656.179	4554
656.235	5285
656.291	3349
656.347	5197
656.403	3613
656.459	3414
656.515	3964
656.571	3789
656.627	4089
656.683	3888
656.739	3661
656.795	3911
656.850	3739
656.906	3601
656.962	4544
657.018	3883
657.074	5679
657.129	8225
657.185	13405
657.241	30925
657.297	14376
657.352	4508
657.408	4511
657.464	4382
657.519	3241
657.575	2816
657.630	2763
657.686	3338
657.742	2658
657.797	2927
657.853	3046
657.908	4025
657.964	2633
658.019	3159
658.075	3592
658.130	3455
658.186	2278
658.241	3917
658.297	2673
658.352	2834
658.407	3353
658.463	2093
658.518	2892
658.573	3520
658.629	2761
658.684	2743
658.739	3422
658.795	2116
658.850	3944
658.905	2806
658.960	2845
659.016	2029
659.071	3195
659.126	3330
659.181	2863
659.236	3786
659.291	4136
659.346	2735
659.401	3340
659.457	3874
659.512	1627
659.567	3501
659.622	3259
659.677	2157
659.732	1895
659.787	2916
659.842	2033
659.897	3194
659.952	2785
660.007	2528
660.061	2692
660.116	1697
660.171	2522
660.226	2706
660.281	3720
660.336	2426
660.391	3565
660.445	1690
660.500	1975
660.555	2583
660.610	1805
660.664	2267
660.719	1671
660.774	3020
660.828	4046
660.883	2501
660.938	3527
660.992	1942
661.047	2599
661.101	2202
661.156	2448
661.211	2238
661.265	2073
661.320	1571
661.374	2439
661.429	2063
661.483	3088
661.538	1907
661.592	2796
661.647	2207
661.701	2628
661.755	2179
661.810	2788
661.864	2275
661.919	1893
661.973	3386
662.027	2370
662.081	1301
662.136	1914
662.190	2661
662.244	2341
662.299	2178
662.353	2099
662.407	1936
662.461	2514
662.515	2444
662.569	1938
662.624	2055
662.678	1886
662.732	2739
662.786	1720
662.840	2222
662.894	1852
662.948	2578
663.002	2814
663.056	3076
663.110	2701
663.164	2657
663.218	2962
663.272	2807
663.326	2211
663.380	2286
663.434	2229
663.488	2039
663.542	3165
663.595	2630
663.649	2341
663.703	2780
663.757	2179
663.811	2256
663.864	2677
663.918	1712
663.972	2716
664.026	2387
664.079	2684
664.133	3441
664.187	2295
664.240	2665
664.294	3178
664.348	2234
664.401	2793
664.455	2755
664.508	1869
664.562	2175
664.615	2075
664.669	2087
664.722	2952
664.776	1578
664.829	1715
664.883	1646
664.936	1340
664.990	1866
665.043	3040
665.097	2402
665.150	2871
665.203	2449
665.257	2755
665.310	1552
665.363	3059
665.417	2182
665.470	2230
665.523	2272
665.576	2411
665.630	2570
665.683	2466
665.736	2841
665.789	2625
665.842	1863
665.895	3678
665.949	2784
666.002	2399
666.055	2617
666.108	2641
666.161	3118
666.214	2567
666.267	2489
666.320	2664
666.373	3300
666.426	2970
666.479	2856
666.532	2343
666.585	2640
666.638	2631
666.691	2946
666.744	2858
666.796	2493
666.849	2633
666.902	2979
666.955	2196
667.008	2572
667.060	2332
667.113	2136
667.166	2347
667.219	3238
667.271	3914
667.324	2904
667.377	3371
667.430	2815
667.482	2587
667.535	2354
667.587	2248
667.640	2563
667.693	2022
667.745	2527
667.798	2780
667.850	3192
667.903	3077
667.955	2655
668.008	2252
668.060	3668
668.113	2800
668.165	2636
668.218	2978
668.270	2723
668.322	2790
668.375	2585
668.427	2153
668.479	2032
668.532	2148
668.584	1686
668.636	2168
668.689	2160
668.741	2708
668.793	3069
668.845	2481
668.898	2312
668.950	1868
669.002	3541
669.054	2141
669.106	2390
669.158	2463
669.211	2816
669.263	2588
669.315	2957
669.367	2529
669.419	1746
669.471	3249
669.523	2268
669.575	2877
669.627	2579
669.679	2360
669.731	2786
669.783	2007
669.835	2279
669.886	2161
669.938	1732
669.990	2546
670.042	1853
670.094	2194
670.146	1965
670.197	1864
670.249	2559
670.301	2547
670.353	2836
670.404	3605
670.456	3661
670.508	5642
670.560	7871
670.611	12977
670.663	20284
670.715	50778
670.766	67121
670.818	15985
670.869	4778
670.921	4303
670.972	3786
671.024	3088
671.075	2656
671.127	2594
671.178	2771
671.230	4341
671.281	4164
671.333	3852
671.384	5376
671.436	7375
671.487	11935
671.538	15763
671.590	26719
671.641	45535
671.692	87279
671.744	153987
671.795	93877
671.846	32498
671.897	14601
671.949	9224
672.000	6759
672.051	5079
672.102	4482
672.153	3299
672.204	3986
672.256	2839
672.307	1908
672.358	3080
672.409	2421
672.460	2290
672.511	1810
672.562	1062
672.613	658
672.664	1770
672.715	1661
672.766	1729
672.817	1287
672.868	1697
672.919	1679
672.970	1102
673.021	1113
673.071	1474
673.122	1368
673.173	2051
673.224	1029
673.275	1943
673.326	1358
673.376	1328
673.427	510
673.478	597
673.528	2347
673.579	1149
673.630	1327
673.680	2848
673.731	1217
673.782	887
673.832	1924
673.883	1872
673.934	1502
673.984	943
674.035	1469
674.085	1524
674.136	2415
674.186	868
674.237	1131
674.287	1807
674.338	1970
674.388	1376
674.438	2130
674.489	1526
674.539	2074
674.589	1986
674.640	1878
674.690	1950
674.740	2543
674.791	1634
674.841	1225
674.891	2059
674.942	1397
674.992	952
675.042	1580
675.092	1388
675.142	866
675.193	737
675.243	335
675.293	1364
675.343	1044
675.393	1307
675.443	1837
675.493	1502
675.543	842
675.593	1005
675.643	1045
675.693	1747
675.743	1741
675.793	987
675.843	156
675.893	755
675.943	1392
675.993	353
676.043	502
676.093	990
676.142	792
676.192	1174
676.242	489
676.292	1230
676.341	1124
676.391	433
676.441	624
676.491	911
676.540	882
676.590	563
676.640	1314
676.689	125
676.739	584
676.789	84
676.838	819
676.888	1267
676.937	106
676.987	321
677.037	-184
677.086	894
677.136	456
677.185	253
677.235	64
677.284	381
677.333	-482
677.383	-461
677.432	-15
677.482	633
677.531	807
677.580	-172
677.630	1024
677.679	306
677.728	72
677.778	544
677.827	648
677.876	1043
677.925	451
677.975	484
678.024	-37
678.073	-101
678.122	1436
678.171	389
678.220	854
678.269	2016
678.319	2487
678.368	2120
678.417	1324
678.466	1320
678.515	1015
678.564	426
678.613	335
678.662	608
678.711	1000
678.760	1154
678.809	991
678.857	613
678.906	551
678.955	-444
679.004	786
679.053	-251
679.102	-465
679.151	-153
679.199	173
679.248	583
679.297	-338
679.346	-215
679.394	-433
679.443	461
679.492	87
679.540	204
679.589	304
679.638	891
679.686	710
679.735	670
679.784	1361
679.832	1836
679.881	524
679.929	1124
679.978	-306
680.026	166
680.075	128
680.123	-519
680.172	-558
680.220	288
680.268	207
680.317	389
680.365	246
680.414	-437
680.462	555
680.510	1134
680.559	5
680.607	-134
680.655	182
680.703	-73
680.752	95
680.800	473
680.848	-81
680.896	-95
680.945	-507
680.993	188
681.041	191
681.089	325
681.137	181
681.185	-732
681.233	301
681.258	159
681.281	10
681.329	327
681.377	-248
681.380	-210
681.425	263
681.473	1020
681.502	658
681.521	372
681.569	742
681.617	513
681.624	515
681.665	433
681.713	729
681.745	920
681.761	993
681.809	958
681.857	1056
681.867	948
681.904	512
681.952	676
681.989	733
682.000	727
682.048	194
682.096	957
682.111	765
682.143	321
682.191	825
682.233	1093
682.239	1119
682.286	499
682.334	276
682.354	415
682.382	581
682.430	1441
682.476	818
682.477	791
682.525	1066
682.572	1022
682.598	810
682.620	612
682.667	1466
682.715	1058
682.720	1073
682.763	1091
682.810	753
682.841	688
682.857	633
682.905	715
682.952	1959
682.963	1892
683.000	1574
683.047	1288
683.085	1361
683.095	1382
683.142	1580
683.190	1708
683.206	1550
683.237	1181
683.284	1717
683.328	1061
683.332	997
683.379	1032
683.426	1266
683.449	1274
683.473	1292
683.521	1451
683.568	1141
683.571	1196
683.615	1671
683.662	2111
683.693	1440
683.709	1056
683.757	1502
683.804	1544
683.814	1484
683.851	1337
683.898	986
683.936	1981
683.945	2182
683.992	1462
684.039	1809
684.057	1989
684.086	2309
684.133	1769
684.179	1877
684.180	1871
684.227	1905
684.274	1676
684.300	1744
684.321	1786
684.368	2042
684.415	1056
684.422	1163
684.462	1781
684.509	1685
684.543	1728
684.556	1737
684.603	2057
684.649	1966
684.665	1966
684.696	1944
684.743	2463
684.786	2299
684.790	2275
684.837	2251
684.883	2384
684.908	2198
684.930	1999
684.977	2464
685.023	1959
685.029	1992
685.070	2211
685.117	2074
685.150	2473
685.164	2613
685.210	2436
685.257	2573
685.272	2701
685.303	3002
685.350	3049
685.393	3077
685.396	3058
685.443	2355
685.490	2422
685.514	2067
685.536	1804
685.583	2515
685.629	2426
685.636	2406
685.675	2287
685.722	2510
685.757	2562
685.768	2567
685.815	2141
685.861	2971
685.878	3109
685.908	3380
685.954	1984
686.000	2215
686.000	2212
686.047	2596
686.093	2566
686.121	2733
686.139	2850
686.185	2770
686.232	2525
686.242	2733
686.278	3514
686.324	2891
686.363	2746
686.370	2715
686.416	2445
686.463	3341
686.484	3342
686.509	3307
686.555	2868
686.601	2900
686.606	2945
686.647	3321
686.693	3213
686.727	3090
686.739	3034
686.785	2788
686.831	2960
686.848	2943
686.877	2938
686.923	2902
686.969	3144
686.969	3146
687.015	3038
687.061	3581
687.090	3702
687.107	3587
687.153	4087
687.199	3735
687.211	3579
687.245	3425
687.291	3063
687.332	3561
687.336	3605
687.382	3674
687.428	3571
687.453	3646
687.474	3697
687.520	3888
687.565	4320
687.574	4137
687.611	3436
687.657	4188
687.695	4475
687.702	4553
687.748	4761
687.794	4672
687.816	4543
687.839	4177
687.885	4572
687.931	4205
687.937	4134
687.976	4070
688.022	4119
688.058	4609
688.067	4697
688.113	4183
688.158	3705
688.179	3812
688.204	3920
688.249	4024
688.295	3980
688.300	3989
688.340	4226
688.386	4402
688.421	3904
688.431	3750
688.477	4157
688.522	4259
688.542	4353
688.567	4609
688.613	4531
688.658	5112
688.663	5122
688.703	4903
688.749	4340
688.784	4403
688.794	4468
688.839	4887
688.884	4394
688.905	4598
688.930	4864
688.975	4704
689.020	4880
689.026	4849
689.065	4438
689.110	4735
689.146	4190
689.155	4135
689.201	4651
689.246	4527
689.267	4694
689.291	4775
689.336	4889
689.381	4847
689.388	4751
689.426	4379
689.471	4383
689.509	4636
689.516	4710
689.561	5109
689.606	5165
689.630	5262
689.651	5221
689.696	4960
689.741	4946
689.750	4880
689.785	4707
689.830	4907
689.871	5042
689.875	5075
689.920	4643
689.965	5322
689.992	5080
690.010	4856
690.054	4647
690.099	4556
690.112	4465
690.144	4330
690.189	4549
690.233	4601
690.233	4610
690.278	4563
690.323	4930
690.354	5206
690.367	5354
690.412	5423
690.457	5953
690.474	6015
690.501	5685
690.546	5470
690.590	4295
690.595	4278
690.635	4729
690.680	5068
690.716	5123
690.724	5134
690.769	4688
690.813	5156
690.836	4809
690.857	4692
690.902	5761
690.946	5837
690.957	6002
690.991	6543
691.035	6970
691.077	7778
691.080	7788
691.124	6977
691.168	6315
691.198	5701
691.213	5514
691.257	5665
691.301	5098
691.318	5018
691.346	5183
691.390	5367
691.434	5559
691.439	5569
691.478	5475
691.522	5723
691.559	5502
691.567	5507
691.611	5656
691.655	5525
691.680	5676
691.699	5791
691.743	5787
691.787	5717
691.800	5664
691.831	5524
691.875	5679
691.919	5711
691.921	5697
691.964	5638
692.008	5652
692.041	5772
692.052	5879
692.096	6025
692.139	6345
692.162	6208
692.183	5859
692.227	5836
692.271	5281
692.282	5182
692.315	5246
692.359	5644
692.402	5796
692.403	5810
692.447	5938
692.490	5910
692.523	5555
692.534	5486
692.578	6001
692.622	6030
692.643	6089
692.666	5924
692.709	5497
692.753	5203
692.763	5150
692.797	5530
692.840	5835
692.884	5918
692.884	5929
692.928	5903
692.971	5148
693.004	5089
693.015	5202
693.059	5625
693.102	5856
693.124	5982
693.146	5934
693.189	5704
693.233	5462
693.245	5413
693.276	5601
693.320	5657
693.363	6003
693.365	5998
693.407	6325
693.450	6403
693.485	6637
693.493	6691
693.537	6571
693.580	6941
693.605	7054
693.624	7237
693.667	7363
693.710	7984
693.725	7997
693.753	8525
693.797	9680
693.840	10786
693.845	10905
693.883	10150
693.926	8767
693.966	7811
693.970	7792
694.013	7396
694.056	7054
694.086	6605
694.099	6495
694.142	6391
694.185	6535
694.206	6322
694.229	6229
694.272	6375
694.315	6126
694.326	6151
694.358	6319
694.401	6376
694.444	6449
694.446	6434
694.487	6659
694.530	6885
694.566	7179
694.573	7175
694.616	6727
694.659	6428
694.686	6188
694.702	6268
694.745	6561
694.787	6931
694.806	7064
694.830	7142
694.873	6807
694.916	7234
694.926	7180
694.959	7096
695.002	7095
695.044	7221
695.046	7200
695.087	7270
695.130	7320
695.166	7429
695.172	7475
695.215	7645
695.258	7846
695.286	7980
695.301	8114
695.343	8272
695.386	8464
695.406	8530
695.428	8765
695.471	9417
695.514	9953
695.526	10027
695.556	10415
695.599	11207
695.641	11773
695.646	11820
695.684	11354
695.726	10786
695.766	9964
695.769	9955
695.811	9782
695.854	9575
695.886	9309
695.896	9416
695.938	9647
695.981	10063
696.005	10286
696.023	10513
696.065	10960
696.108	11475
696.125	11600
696.150	11665
696.192	11760
696.235	11878
696.245	11873
696.277	12095
696.319	12246
696.361	12738
696.365	12719
696.404	12528
696.446	12423
696.485	12297
696.488	12334
696.530	12335
696.572	12356
696.604	12408
696.614	12400
696.656	12043
696.698	11911
696.724	11742
696.740	11807
696.783	11761
696.825	11988
696.844	11998
696.867	12090
696.909	12173
696.951	12156
696.964	12172
696.992	12415
697.034	12636
697.076	12941
697.083	12939
697.118	13219
697.160	13699
697.202	14038
697.203	14011
697.244	13673
697.286	13325
697.323	12955
697.327	13025
697.369	13311
697.411	13787
697.442	13945
697.453	13867
697.494	13509
697.536	13094
697.562	12867
697.578	13082
697.620	13453
697.661	13832
697.682	13985
697.703	14184
697.744	14554
697.786	14977
697.801	15035
697.828	15065
697.869	15136
697.911	15167
697.921	15156
697.952	14994
697.994	14631
698.035	14271
698.040	14196
698.077	14279
698.118	14306
698.160	14314
698.160	14275
698.201	14675
698.243	15002
698.279	15325
698.284	15412
698.325	15804
698.367	16172
698.399	16421
698.408	16476
698.449	16551
698.491	16625
698.518	16609
698.532	16710
698.573	16922
698.614	17112
698.638	17164
698.656	17109
698.697	16893
698.738	16693
698.757	16535
698.779	16680
698.820	16904
698.862	17124
698.877	17161
698.903	17110
698.944	16952
698.985	16790
698.996	16703
699.026	16852
699.067	16998
699.116	17129
699.235	17003
699.354	16310
699.474	15523
699.593	15541
699.713	16569
699.832	16161
699.951	16204
700.070	17223
700.190	15335
700.309	14788
700.428	14348
700.547	13483
700.667	14064
700.786	14340
700.905	13455
701.024	14648
701.143	12727
701.262	15284
701.381	14095
701.500	14789
701.619	14625
701.738	16143
701.857	15139
701.976	14139
702.095	14567
702.214	14523
702.333	14150
702.452	14887
702.571	13678
702.690	14735
702.809	14603
702.928	13757
703.047	12882
703.165	14203
703.284	13007
703.403	12043
703.522	12271
703.640	13205
703.759	12916
703.878	12590
703.997	11856
704.115	12445
704.234	12460
704.353	13563
704.471	11103
704.590	11765
704.708	11901
704.827	11799
704.946	11344
705.064	12465
705.183	11224
705.301	12390
705.420	10995
705.538	10828
705.656	9434
705.775	9301
705.893	10631
706.012	11014
706.130	10233
706.249	10925
706.367	9938
706.485	10482
706.604	9260
706.722	10678
706.840	10131
706.958	10840
707.077	9499
707.195	10214
707.313	10099
707.431	8809
707.549	9094
707.668	8187
707.786	10030
707.904	9721
708.022	9271
708.140	9723
708.258	9509
708.376	10033
708.494	8108
708.612	10025
708.730	8537
708.848	9007
708.966	8753
709.084	9060
709.202	9408
709.320	8309
709.438	8810
709.556	8335
709.674	7762
709.791	8630
709.909	8052
710.027	8573
710.145	8451
710.263	8263
710.380	7824
710.498	8404
710.616	8509
710.733	7662
710.851	7757
710.969	8381
711.086	7326
711.204	7669
711.322	7773
711.439	7302
711.557	6897
711.674	7192
711.792	6952
711.909	6903
712.027	6539
712.144	6508
712.262	7352
712.379	7191
712.497	6844
712.614	5922
712.732	7492
712.849	6408
712.966	6580
713.084	7368
713.201	6059
713.318	7227
713.436	7138
713.553	7293
713.670	7485
713.787	8149
713.905	6789
714.022	7505
714.139	7757
714.256	10582
714.373	15267
714.490	32523
714.608	99016
714.725	392311
714.842	238358
714.959	21141
715.076	11067
715.193	10259
715.310	8008
715.427	6737
715.544	7129
715.661	6917
715.778	6424
715.895	7458
716.011	6405
716.128	6511
716.245	6105
716.362	7268
716.479	5453
716.596	6489
716.713	5807
716.829	5716
716.946	5743
717.063	5725
717.180	5899
717.296	5753
717.413	5946
717.530	5270
717.646	4377
717.763	5250
717.880	5424
717.996	4907
718.113	5031
718.229	5502
718.346	4558
718.462	4590
718.579	5175
718.695	5086
718.812	5018
718.928	5344
719.045	4619
719.161	4743
719.277	5200
719.394	5872
719.510	5963
719.626	6199
719.743	6984
719.859	14197
719.975	34762
720.092	157442
720.208	222701
720.324	19149
720.440	7963
720.557	6697
720.673	6450
720.789	4847
720.905	4722
721.021	4842
721.137	4622
721.253	4783
721.369	4355
721.486	5270
721.602	3736
721.718	3816
721.834	4363
721.950	4132
722.066	3753
722.181	4456
722.297	4165
722.413	4977
722.529	3536
722.645	4237
722.761	2563
722.877	4424
722.993	4286
723.108	5645
723.224	4346
723.340	4151
723.456	3816
723.571	4253
723.687	3614
723.803	4004
723.918	4470
724.034	3411
724.150	3986
724.265	3860
724.381	3810
724.497	3221
724.612	3112
724.728	4488
724.843	3154
724.959	3493
725.074	4053
725.190	3391
725.305	2577
725.421	3755
725.536	3340
725.651	4239
725.767	3967
725.882	4546
725.997	3976
726.113	4410
726.228	3504
726.343	3537
726.459	2868
726.574	3320
726.689	2325
726.804	3707
726.920	2990
727.035	3654
727.150	2893
727.265	3255
727.380	3262
727.495	3894
727.610	3644
727.725	3358
727.841	3907
727.956	3577
728.071	3548
728.186	3399
728.301	2347
728.416	4047
728.531	3138
728.645	3354
728.760	2647
728.875	3008
728.990	3489
729.105	3725
729.220	2999
729.335	3358
729.449	3261
729.564	2902
729.679	2483
729.794	3830
729.908	2767
730.023	2972
730.138	4300
730.253	3889
730.367	3730
730.482	2902
730.596	3209
730.711	3717
730.826	6689
730.940	4576
731.055	4168
731.169	4792
731.284	4629
731.398	4301
731.513	4738
731.627	5715
731.742	7712
731.856	8466
731.970	8667
732.085	10612
732.199	15298
732.313	28234
732.428	86732
732.542	233468
732.656	87809
732.771	17939
732.885	11789
732.999	11519
733.113	12571
733.227	12012
733.342	11240
733.456	11420
733.570	10076
733.684	10360
733.798	9744
733.912	9918
734.026	10213
734.140	10729
734.254	9000
734.368	9953
734.482	10063
734.596	10205
734.710	9381
734.824	9764
734.938	8973
735.052	9483
735.166	9138
735.280	9446
735.393	9042
735.507	8885
735.621	8343
735.735	9186
735.849	9432
735.962	8544
736.076	8831
736.190	8125
736.303	7633
736.417	8639
736.531	8470
736.644	7418
736.758	7253
736.872	7187
736.985	7759
737.099	6944
737.212	6861
737.326	8104
737.439	8049
737.553	7039
737.666	7999
737.780	7104
737.893	7538
738.007	7638
738.120	7370
738.233	7399
738.347	6832
738.460	6552
738.573	8176
738.687	6224
738.800	6948
738.913	7827
739.026	6132
739.140	7644
739.253	6489
739.366	6450
739.479	7160
739.592	6248
739.705	6771
739.818	7282
739.932	5784
740.045	6951
740.158	6278
740.271	6592
740.384	6122
740.497	5590
740.610	6397
740.723	6096
740.836	6637
740.949	7041
741.062	7184
741.174	6327
741.287	6215
741.400	6498
741.513	4831
741.626	6719
741.739	5059
741.851	5093
741.964	5749
742.077	5528
742.189	4246
742.302	6081
742.415	4925
742.527	6153
742.640	4969
742.753	5943
742.865	5352
742.978	4475
743.090	5036
743.203	5997
743.316	5488
743.428	6183
743.541	5061
743.653	5795
743.766	5203
743.878	5631
743.990	3499
744.103	6085
744.215	5124
744.327	4731
744.440	5849
744.552	4934
744.664	3640
744.777	5751
744.889	3496
745.001	5854
745.113	5309
745.226	4445
745.338	4906
745.450	5143
745.562	4418
745.674	4694
745.786	5200
745.898	4132
746.010	4409
746.122	4738
746.234	4543
746.347	5187
746.459	4723
746.570	3953
746.682	5418
746.794	5415
746.906	4025
747.018	4723
747.130	5432
747.242	4009
747.354	3931
747.466	4495
747.577	3735
747.689	4258
747.801	4735
747.913	3033
748.024	3824
748.136	4049
748.248	3780
748.359	4611
748.471	4104
748.583	3371
748.694	3186
748.806	4561
748.918	2824
749.029	4253
749.141	3646
749.252	4909
749.364	2609
749.475	3762
749.587	3260
749.698	3109
749.809	3849
749.921	4358
750.032	3789
750.144	2358
750.255	2453
750.366	2773
750.478	2741
750.589	3615
750.700	2888
750.811	3444
750.923	3288
751.034	3110
751.145	3662
751.256	2734
751.367	2968
751.479	3200
751.590	2600
751.701	3718
751.812	1947
751.923	3547
752.034	3828
752.145	3203
752.256	3330
752.367	3253
752.478	2793
752.589	4122
752.700	3708
752.811	2903
752.922	3086
753.032	3153
753.143	3536
753.254	2704
753.365	3976
753.476	3851
753.586	3325
753.697	3293
753.808	2669
753.919	2633
754.029	2837
754.140	2833
754.251	2462
754.361	3006
754.472	3081
754.582	3413
754.693	3208
754.804	3686
754.914	2775
755.025	2243
755.135	2492
755.246	3349
755.356	1927
755.466	2810
755.577	2940
755.687	2711
755.798	3406
755.908	3092
756.018	2390
756.129	3318
756.239	2705
756.349	2951
756.460	2509
756.570	3179
756.680	2876
756.790	3926
756.900	3179
757.011	2522
757.121	2573
757.231	1736
757.341	2687
757.451	2292
757.561	1901
757.671	2349
757.781	2057
757.891	3071
758.001	2466
758.111	2725
758.221	2911
758.331	3169
758.441	2154
758.551	2213
758.661	3392
758.771	2812
758.880	2256
758.990	2299
759.100	2472
759.210	3582
759.320	2943
759.429	3989
759.539	2864
759.649	2336
759.758	3096
759.868	3626
759.978	3884
760.087	4327
760.197	4392
760.307	3605
760.416	2858
760.526	3037
760.635	4053
760.745	3736
760.854	3954
760.964	4863
761.073	4706
761.182	4091
761.292	3750
761.401	3574
761.511	2791
761.620	2807
761.729	1727
761.839	2500
761.948	2345
762.057	2484
762.166	2206
762.276	2157
762.385	3453
762.494	2828
762.603	2225
762.712	2640
762.822	2412
762.931	2180
763.040	1147
763.149	2589
763.258	2630
763.367	2983
763.476	2563
763.585	2596
763.694	2538
763.803	2513
763.912	2603
764.021	2102
764.130	2420
764.238	3114
764.347	2569
764.456	3150
764.565	2311
764.674	2875
764.783	2404
764.891	2935
765.000	3969
765.109	3698
765.217	3677
765.326	4196
765.435	4680
765.543	6230
765.652	5761
765.761	8445
765.869	11141
765.978	17515
766.086	29270
766.195	62687
766.303	148776
766.412	267759
766.520	190546
766.629	73638
766.737	31948
766.846	18563
766.954	12396
767.062	10147
767.171	7395
767.279	6615
767.387	4947
767.496	5307
767.604	3829
767.712	4462
767.820	3601
767.928	3540
768.037	2596
768.145	3994
768.253	3186
768.361	3027
768.469	2500
768.577	3117
768.685	3470
768.793	3986
768.901	3098
769.009	5339
769.117	3590
769.225	6500
769.333	7503
769.441	12854
769.549	23643
769.657	57728
769.765	161053
769.873	204171
769.981	79427
770.088	25250
770.196	13199
770.304	10412
770.412	7547
770.519	6330
770.627	5757
770.735	4224
770.842	3877
770.950	4176
771.058	4724
771.165	4737
771.273	5004
771.380	4944
771.488	8445
771.595	7093
771.703	6421
771.810	6509
771.918	6928
772.025	8536
772.133	8486
772.240	7975
772.348	10258
772.455	8546
772.562	7151
772.670	7882
772.777	8130
772.884	8374
772.991	7286
773.099	8550
773.206	6022
773.313	7986
773.420	7019
773.528	6679
773.635	6843
773.742	8085
773.849	7077
773.956	7654
774.063	6768
774.170	5965
774.277	7434
774.384	6880
774.491	6822
774.598	6620
774.705	6325
774.812	6863
774.919	6277
775.026	6501
775.133	6437
775.239	7156
775.346	5855
775.453	6887
775.560	4779
775.667	7499
775.773	4886
775.880	6722
775.987	6466
776.093	6491
776.200	6367
776.307	4266
776.413	6346
776.520	5701
776.627	4997
776.733	5377
776.840	4080
776.946	8317
777.053	5298
777.159	6708
777.266	4694
777.372	6703
777.478	6231
777.585	5810
777.691	4419
777.798	5879
777.904	4496
778.010	5345
778.117	5416
778.223	4764
778.329	4566
778.435	4246
778.542	5718
778.648	4231
778.754	3534
778.860	4809
778.966	4936
779.072	4580
779.178	4944
779.284	3389
779.391	3666
779.497	3621
779.603	5824
779.708	3194
779.815	5506
779.920	7781
780.026	6711
780.132	4489
780.238	3729
780.344	3735
780.450	5338
780.556	2953
780.661	3742
780.767	4199
780.873	1969
780.979	3874
781.085	4579
781.190	4342
781.296	3674
781.402	3975
781.507	3858
781.613	3210
781.719	3571
781.824	4436
781.930	3816
782.035	4385
782.141	4510
782.246	2630
782.352	2836
782.457	3206
782.563	2671
782.668	3679
782.773	2534
782.879	2437
782.984	3462
783.090	3864
783.195	3921
783.300	4405
783.405	2301
783.511	2692
783.616	3217
783.721	2631
783.826	2703
783.932	3479
784.037	2829
784.142	3681
784.247	3293
784.352	3159
784.457	2097
784.562	3341
784.667	3462
784.772	2331
784.877	1454
784.982	3552
785.087	3103
785.192	3427
785.297	2054
785.402	2211
785.507	2345
785.611	2956
785.716	1558
785.821	2766
785.926	2543
786.031	2927
786.135	3148
786.240	2535
786.345	1271
786.450	1915
786.554	2795
786.659	2497
786.763	1295
786.868	2891
786.973	2570
787.077	2151
787.182	2162
787.286	3073
787.391	2689
787.495	750
787.600	1685
787.704	2019
787.809	2297
787.913	2017
788.017	2244
788.122	3416
788.226	1694
788.330	1456
788.435	2687
788.539	3377
788.643	1577
788.747	1836
788.852	1577
788.956	1775
789.060	2205
789.164	1533
789.268	1538
789.372	2645
789.476	1432
789.580	1330
789.684	1167
789.788	3201
789.892	1951
789.996	1825
790.100	726
790.204	2419
790.308	2304
790.412	958
790.516	1240
790.620	1997
790.724	2088
790.828	1184
790.931	644
791.035	3094
791.139	1031
791.242	1215
791.346	1926
791.450	1643
791.554	760
791.657	249
791.761	2860
791.864	2513
791.968	2219
792.072	1784
792.175	1066
792.279	1731
792.382	1376
792.486	1315
792.589	1662
792.693	1761
792.796	560
792.899	2536
793.003	1691
793.106	497
793.209	690
793.313	1285
793.416	34
793.519	1932
793.623	2855
793.726	1409
793.829	396
793.932	2418
794.035	26
794.138	2706
794.242	2189
794.345	763
794.448	1058
794.551	445
794.654	2747
794.757	3424
794.860	978
794.963	2170
795.066	1030
795.169	2295
795.272	595
795.375	2106
795.477	-77
795.580	1257
795.683	-200
795.786	2175
795.889	-187
795.991	2362
796.094	1543
796.197	-40
796.300	2468
796.402	1065
796.505	-8
796.608	170
796.710	1313
796.813	1585
796.915	1117
797.018	1355
797.120	1226
797.223	-284
797.326	2041
797.428	1052
797.530	178
797.633	1381
797.735	2063
797.838	695
797.940	1755
798.042	1357
798.145	87
798.247	1239
798.349	-593
798.452	2230
798.554	687
798.656	655
798.758	1741
798.860	399
798.962	785
799.065	580
799.167	-250
799.269	2591
799.371	1834
799.473	2240
799.575	89
799.677	893
799.779	1865
799.881	-509
799.983	1690
800.085	1460
800.187	609
800.289	185
800.390	527
800.492	1861
800.594	1927
800.696	960
800.798	1411
800.899	981
801.001	658
801.103	919
801.205	1017
801.306	1576
801.408	142
801.509	767
801.611	1735
801.713	1445
801.814	981
801.916	190
802.017	460
802.119	137
802.220	1168
802.322	-82
802.423	1369
802.525	-818
802.626	840
802.727	1647
802.829	1311
802.930	-1426
803.031	1609
803.133	979
803.234	1117
803.335	1931
803.436	-231
803.538	573
803.639	86
803.740	1695
803.841	390
803.942	1326
804.043	767
804.144	90
804.245	1256
804.346	-155
804.447	31
804.548	631
804.649	1241
804.750	669
804.851	-49
804.952	889
805.053	380
805.154	-365
805.255	617
805.355	1557
805.456	-216
805.557	193
805.658	-441
805.758	729
805.859	862
805.960	283
806.061	-212
806.161	-273
806.262	659
806.362	161
806.463	-169
806.564	1059
806.664	260
806.765	100
806.865	-167
806.966	-497
807.066	281
807.166	1643
807.267	1424
807.367	-303
807.468	895
807.568	-546
807.668	242
807.769	1367
807.869	-249
807.969	306
808.069	70
808.170	1283
808.270	566
808.370	1182
808.470	371
808.570	-980
808.670	481
808.770	1069
808.870	-384
808.970	534
809.070	-121
809.170	-552
809.271	1416
809.370	-59
809.470	1216
809.570	775
809.670	-221
809.770	227
809.870	556
809.970	491
810.070	-122
810.169	657
810.269	-1016
810.369	1263
810.469	-493
810.568	227
810.668	-555
810.768	-303
810.867	532
810.967	635
811.066	507
811.166	246
811.265	1211
811.365	-169
811.464	-327
811.564	947
811.663	101
811.763	-852
811.862	1317
811.962	1458
812.061	-402
812.160	-317
812.260	1158
812.359	308
812.458	364
812.557	1248
812.657	-567
812.756	934
812.855	327
812.954	55
813.053	38
813.153	291
813.252	417
813.351	773
813.450	575
813.549	247
813.648	512
813.747	-135
813.846	709
813.945	674
814.044	921
814.143	268
814.242	885
814.341	513
814.439	903
814.538	909
814.637	308
814.736	299
814.835	1020
814.933	393
815.032	1412
815.131	1675
815.229	4597
815.328	6677
815.427	4635
815.525	4094
815.624	3949
815.722	3899
815.821	3984
815.919	4269
816.018	3097
816.116	4913
816.215	4029
816.313	4748
816.412	5608
816.510	5847
816.609	6548
816.707	6565
816.805	4678
816.904	5749
817.002	5958
817.100	6608
817.198	6504
817.296	4216
817.395	4879
817.493	5756
817.591	4519
817.689	5978
817.787	4339
817.885	4449
817.983	3619
818.081	4775
818.179	5543
818.277	8818
818.375	4917
818.473	4984
818.571	5046
818.669	5039
818.767	4913
818.865	3982
818.963	3446
819.061	4522
819.158	4108
819.256	7461
819.354	5578
819.452	12571
819.549	5414
819.647	5801
819.745	3244
819.842	5046
819.940	3642
820.038	3321
820.135	3190
820.233	6181
820.330	3737
820.428	3496
820.525	4523
820.623	3570
820.720	3663
820.818	4657
820.915	3820
821.012	4079
821.110	2580
821.207	4422
821.304	3093
821.402	4034
821.499	3593
821.596	3260
821.693	3212
821.791	3928
821.888	3142
821.985	4845
822.082	1960
822.179	4442
822.276	3647
822.373	3926
822.470	3141
822.567	3711
822.664	2047
822.761	3622
822.858	2834
822.955	2909
823.052	2429
823.149	3609
823.246	2892
823.343	2053
823.440	2583
823.536	3199
823.633	2804
823.730	2136
823.827	2763
823.923	3100
824.020	3779
824.117	3540
824.213	2197
824.310	2329
824.407	1991
824.503	2855
824.600	2620
824.696	2411
824.793	4008
824.889	3426
824.986	1878
825.082	1597
825.179	2610
825.275	4212
825.371	3138
825.468	1971
825.564	383
825.660	4354
825.757	3386
825.853	2428
825.949	1095
826.045	2183
826.142	1596
826.238	2830
826.334	2812
826.430	1799
826.526	1714
826.622	1593
826.718	3168
826.814	3109
826.910	2646
827.006	1689
827.102	620
827.198	3110
827.294	2445
827.390	3465
827.486	1272
827.582	-182
827.678	84
827.774	3539
827.869	636
827.965	2332
828.061	942
828.157	3142
828.252	2295
828.348	1166
828.444	2196
828.539	1460
828.635	2419
828.731	2700
828.826	852
828.922	1908
829.017	2358
829.113	2062
829.208	1498
829.304	1253
829.399	3877
829.495	2372
829.590	2073
829.685	1932
829.781	2256
829.876	2126
829.971	731
830.066	383
830.162	1974
830.257	2507
830.352	1778
830.447	1753
830.543	1283
830.638	1088
830.733	1816
830.828	605
830.923	2035
831.018	1886
831.113	2653
831.208	599
831.303	515
831.398	1300
831.493	1580
831.588	3057
831.683	-611
831.778	970
831.873	513
831.967	2870
832.062	2250
832.157	830
832.252	2543
832.346	1309
832.441	1982
832.536	1116
832.631	2131
832.725	1149
832.820	1662
832.914	1799
833.009	372
833.104	525
833.198	1829
833.293	1141
833.387	1730
833.482	1456
833.576	1168
833.670	1459
833.765	760
833.859	833
833.954	1257
834.048	1070
834.142	-335
834.237	1102
834.331	1316
834.425	1412
834.519	31
834.613	886
834.708	1027
834.802	1020
834.896	871
834.990	1685
835.084	1130
835.178	324
835.272	913
835.366	1610
835.460	2082
835.554	934
835.648	694
835.742	600
835.836	449
835.930	266
836.024	701
836.117	1749
836.211	-35
836.305	744
836.399	981
836.493	18
836.586	522
836.680	1683
836.774	152
836.867	1148
836.961	-434
837.055	513
837.148	-245
837.242	464
837.335	627
837.429	233
837.522	327
837.616	418
837.709	955
837.803	95
837.896	994
837.989	293
838.083	-430
838.176	131
838.269	-6
838.363	500
838.456	449
838.549	700
838.642	-451
838.735	709
838.829	1369
838.922	187
839.015	302
839.108	-34
839.201	1180
839.294	1353
839.387	-95
839.480	-263
839.573	714
839.666	-182
839.759	93
839.852	-877
839.945	863
840.038	-225
840.131	396
840.223	50
840.316	854
840.409	329
840.502	219
840.594	1623
840.687	-692
840.780	347
840.873	-172
840.965	-185
841.058	714
841.150	778
841.243	-400
841.336	1160
841.428	-506
841.521	-38
841.613	-952
841.706	234
841.798	819
841.890	468
841.983	-474
842.075	999
842.167	-516
842.260	550
842.352	1350
842.444	172
842.537	152
842.629	348
842.721	-208
842.813	709
842.905	-1116
842.997	-378
843.090	240
843.182	-427
843.274	-684
843.366	1129
843.458	-261
843.550	477
843.642	-65
843.734	377
843.826	-684
843.918	421
844.009	-67
844.101	301
844.193	-245
844.285	847
844.377	1292
844.469	717
844.560	-1551
844.652	-147
844.744	1
844.835	-398
844.927	531
845.019	161
845.110	-140
845.202	802
845.293	-447
845.385	-194
845.476	571
845.568	868
845.659	-293
845.751	643
845.842	-140
845.934	-171
846.025	-661
846.116	324
846.208	149
846.299	-77
846.390	-732
846.482	-405
846.573	611
846.664	198
846.755	-719
846.846	602
846.937	-909
847.029	29
847.120	-1137
847.211	692
847.302	983
847.393	-527
847.484	166
847.575	-884
847.666	-660
847.757	-925
847.847	85
847.938	759
848.029	379
848.120	-229
848.211	-269
848.302	-357
848.392	-759
848.483	73
848.574	-81
848.664	-105
848.755	279
848.846	164
848.936	-398
849.027	429
849.118	106
849.208	462
849.299	927
849.389	3631
849.480	6337
849.570	13594
849.661	27314
849.751	36110
849.841	9116
849.932	750
850.022	-153
850.112	85
850.203	-75
850.293	337
850.383	-859
850.474	65
850.564	-1015
850.654	227
850.744	129
850.834	-192
850.924	-196
851.014	935
851.104	-313
851.194	-631
851.284	-603
851.374	-64
851.464	-1044
851.554	-166
851.644	-320
851.734	696
851.824	-825
851.914	-283
852.004	188
852.094	-102
852.183	-892
852.273	3
852.363	-65
852.452	37
852.542	-339
852.632	-663
852.721	-619
852.811	-48
852.901	1028
852.990	-471
853.080	934
853.169	692
853.259	39
853.348	346
853.438	670
853.527	2302
853.617	2911
853.706	7377
853.795	14400
853.885	31244
853.974	53781
854.063	100386
854.152	114618
854.242	35608
854.331	8906
854.420	3854
854.509	1903
854.598	3335
854.687	1127
854.777	1188
854.866	-610
854.955	503
855.044	-805
855.133	553
855.222	777
855.311	-607
855.400	55
855.488	-788
855.577	-512
855.666	402
855.755	-185
855.844	-258
855.933	-815
856.021	-213
856.110	-467
856.199	-670
856.288	-859
856.376	-765
856.465	-180
856.554	-10
856.642	460
856.731	202
856.819	684
856.908	-567
856.996	-670
857.085	-890
857.173	-477
857.262	-497
857.350	-507
857.438	362
857.527	-390
857.615	-446
857.703	-446
857.792	-633
857.880	-120
857.968	-249
858.056	-584
858.145	274
858.233	-153
858.321	-707
858.409	389
858.497	-260
858.585	-402
858.673	323
858.761	-1087
858.849	-622
858.937	-1291
859.025	-459
859.113	-999
859.201	52
859.289	328
859.377	-178
859.465	-426
859.552	-256
859.640	-511
859.728	-214
859.816	-497
859.903	-62
859.991	-1194
860.079	-491
860.166	-221
860.254	-338
860.342	-100
860.429	-526
860.517	-710
860.604	-875
860.692	-1546
860.779	-493
860.867	-103
860.954	-293
861.042	554
861.129	330
861.216	-374
861.304	-290
861.391	539
861.478	-533
861.565	-98
861.653	263
861.740	-750
861.827	-1380
861.914	459
862.001	-227
862.089	-556
862.176	315
862.263	-260
862.350	-262
862.437	-589
862.524	-618
862.611	-513
862.698	-174
862.785	-719
862.871	104
862.958	20
863.045	106
863.132	-356
863.219	-141
863.306	-1496
863.392	-230
863.479	-97
863.566	317
863.652	-136
863.739	19
863.826	429
863.912	16
863.999	-709
864.086	637
864.172	382
864.259	479
864.345	199
864.432	699
864.518	-804
864.604	-42
864.691	600
864.777	1240
864.863	1057
864.950	2934
865.036	3325
865.122	6478
865.209	7187
865.295	5685
865.381	5973
865.467	5724
865.553	6223
865.639	7431
865.726	11747
865.812	20551
865.898	33417
865.984	46713
866.070	83703
866.156	65999
866.242	18425
866.328	8834
866.414	5084
866.499	5352
866.585	4786
866.671	4709
866.757	5250
866.843	4165
866.928	4196
867.014	4738
867.100	3844
867.186	3805
867.271	3610
867.357	4416
867.442	3143
867.528	3949
867.614	4048
867.699	4571
867.785	4145
867.870	3837
867.956	3723
868.041	4177
868.127	3639
868.212	3258
868.297	2940
868.383	3154
868.468	3949
868.553	4714
868.639	3077
868.724	4012
868.809	3104
868.894	3243
868.979	4186
869.065	3852
869.150	2765
869.235	2631
869.320	3501
869.405	2552
869.490	3003
869.575	3461
869.660	2629
869.745	3300
869.830	3285
869.915	2657
870.000	2847
870.085	2740
870.169	3980
870.254	4040
870.339	1800
870.424	2359
870.509	3068
870.593	3968
870.678	3217
870.763	3057
870.847	2523
870.932	2789
871.016	2087
871.101	1204
871.186	3024
871.270	4308
871.355	1305
871.439	2855
871.523	3412
871.608	2148
871.692	2275
871.777	3637
871.861	3514
871.945	2248
872.030	3270
872.114	2986
872.198	2225
872.282	2630
872.367	2325
872.451	1973
872.535	3179
872.619	2522
872.703	1646
872.787	1937
872.871	2757
872.955	2012
873.039	1208
873.123	2524
873.207	2676
873.291	1310
873.375	1779
873.459	3112
873.543	1623
873.627	2004
873.711	1205
873.794	3402
873.878	1680
873.962	963
874.045	1916
874.129	1451
874.137	1563
874.213	2679
874.245	2371
874.296	1874
874.352	1580
874.380	1435
874.460	1802
874.464	1816
874.547	1160
874.568	1568
874.631	2787
874.676	2645
874.714	2507
874.784	2635
874.798	2667
874.881	2405
874.892	2317
874.965	1758
874.999	2116
875.048	2516
875.107	1699
875.131	1392
875.215	443
875.215	444
875.298	1221
875.323	1465
875.381	2002
875.430	2704
875.465	3150
875.538	2382
875.548	2279
875.631	888
875.646	799
875.714	513
875.753	1281
875.798	2161
875.861	2720
875.881	2833
875.964	2100
875.968	2041
876.047	1124
876.076	1371
876.130	1989
876.183	2309
876.213	2395
876.291	2108
876.296	2084
876.379	1249
876.398	1411
876.462	2009
876.506	1644
876.545	1381
876.613	1958
876.628	2070
876.711	1433
876.721	1555
876.794	2666
876.828	2419
876.877	1830
876.935	1460
876.960	1362
877.043	1381
877.043	1383
877.125	2361
877.150	2455
877.208	2403
877.258	2178
877.291	2004
877.365	1214
877.374	1154
877.456	1722
877.472	1770
877.539	2055
877.579	2328
877.622	2537
877.687	2120
877.704	1978
877.787	2577
877.794	2512
877.869	2087
877.901	2267
877.952	2139
878.008	1283
878.034	1079
878.115	1582
878.117	1594
878.199	1357
878.222	1536
878.282	2180
878.329	2375
878.364	2328
878.437	2379
878.447	2372
878.529	1050
878.544	1158
878.611	1927
878.651	1858
878.694	1889
878.758	2227
878.776	2276
878.858	2605
878.865	2601
878.941	2329
878.972	1729
879.023	961
879.078	1634
879.105	2073
879.185	2589
879.187	2596
879.269	2475
879.292	2558
879.351	2629
879.399	1999
879.433	1637
879.506	2091
879.516	2170
879.598	2412
879.613	2344
879.680	1871
879.720	1938
879.762	2294
879.827	2519
879.844	2442
879.926	2462
879.933	2442
880.007	2621
880.040	2624
880.089	2716
880.147	3433
880.171	3756
880.253	5187
880.254	5189
880.335	6248
880.360	6784
880.417	9631
880.467	13704
880.499	15725
880.574	16019
880.580	15587
880.662	6794
880.680	5554
880.744	3356
880.787	2241
880.825	2145
880.893	2635
880.907	2582
880.989	1956
881.000	1929
881.070	2896
881.106	3015
881.152	2594
881.213	2047
881.233	1964
881.315	1918
881.319	1940
881.396	2526
881.426	2372
881.478	2577
881.532	3595
881.559	3816
881.639	2984
881.641	2959
881.722	2825
881.745	2499
881.803	2628
881.852	2796
881.885	2498
881.958	2272
881.966	2307
882.047	2873
882.064	2725
882.129	1868
882.171	1833
882.210	1813
882.277	1173
882.291	1171
882.372	2464
882.383	2516
882.454	3048
882.489	3417
882.535	3696
882.596	3899
882.616	3838
882.697	3186
882.702	3137
882.778	2110
882.808	1876
882.859	1987
882.914	1909
882.940	2107
883.020	2758
883.021	2769
883.102	3394
883.127	3501
883.183	4074
883.233	3974
883.264	3127
883.339	1883
883.345	1902
883.426	2188
883.445	2154
883.507	2160
883.551	2119
883.587	2536
883.657	3999
883.668	4146
883.749	4280
883.763	4317
883.830	3143
883.869	2514
883.910	2526
883.975	2490
883.991	2541
884.072	3020
884.081	3043
884.152	3815
884.187	4135
884.233	4629
884.292	4871
884.314	4133
884.394	1616
884.398	1501
884.475	1917
884.504	1947
884.555	1808
884.610	1670
884.636	2028
884.716	3415
884.716	3436
884.797	4771
884.821	5125
884.877	4328
884.927	3441
884.958	3069
885.033	2297
885.038	2298
885.118	2119
885.139	2075
885.199	2027
885.244	2142
885.279	2797
885.350	4276
885.359	4373
885.439	4534
885.456	4554
885.520	3672
885.561	3199
885.600	2874
885.667	2054
885.680	2227
885.760	3583
885.773	3770
885.840	2953
885.878	2443
885.920	2431
885.984	2404
886.000	2596
886.080	3605
886.089	3691
886.160	4139
886.195	4291
886.240	4028
886.300	3761
886.320	3820
886.400	4198
886.406	4172
886.480	2326
886.511	1698
886.560	2044
886.616	2376
886.640	2324
886.720	2327
886.722	2314
886.800	2971
886.827	3210
886.879	3446
886.932	3770
886.959	4058
887.038	4652
887.039	4656
887.119	3758
887.143	3528
887.198	3698
887.248	3671
887.278	3445
887.354	2853
887.358	2894
887.437	3580
887.459	3808
887.517	4194
887.564	4225
887.596	3714
887.669	2666
887.676	2608
887.755	1750
887.774	1559
887.835	2192
887.880	2624
887.914	2918
887.985	3454
887.994	3605
888.073	4895
888.090	5127
888.153	5431
888.195	5612
888.232	4748
888.300	3172
888.311	3155
888.391	2815
888.405	2763
888.470	2309
888.510	1996
888.549	2498
888.615	3438
888.628	3623
888.708	4513
888.720	4651
888.787	4357
888.825	4112
888.866	3503
888.930	2592
888.945	2795
889.024	3790
889.035	3920
889.103	4226
889.140	4326
889.182	3928
889.245	3377
889.261	3570
889.340	4402
889.349	4486
889.419	3441
889.454	2899
889.498	2980
889.559	3090
889.577	3436
889.656	4907
889.664	5039
889.735	4403
889.768	4075
889.814	3874
889.873	3582
889.978	3400
890.083	3667
890.187	4238
890.292	3562
890.397	3825
890.501	3138
890.606	3351
890.710	3479
890.815	5628
890.919	4061
891.024	3259
891.128	2331
891.233	3312
891.337	4650
891.442	4637
891.546	3611
891.650	2820
891.755	2954
891.859	5235
891.963	3909
892.068	3682
892.172	2985
892.276	2567
892.380	3563
892.484	4241
892.589	4729
892.693	4025
892.797	2369
892.901	2756
893.005	2361
893.109	5555
893.213	4717
893.317	3141
893.421	2366
893.525	1790
893.629	3002
893.733	4965
893.837	2616
893.941	2877
894.045	2790
894.148	1995
894.252	2662
894.356	4817
894.460	5009
894.564	3635
894.667	2486
894.771	2207
894.875	1845
894.978	2801
895.082	3317
895.186	4126
895.289	3713
895.393	3311
895.496	4674
895.600	2693
895.703	2156
895.807	3430
895.910	2750
896.014	3180
896.117	2557
896.221	3436
896.324	2884
896.427	2134
896.531	2076
896.634	2188
896.737	2219
896.840	3632
896.944	3990
897.047	3685
897.150	3469
897.253	1566
897.356	1983
897.460	1860
897.563	2015
897.666	4307
897.769	3935
897.872	2497
897.975	2098
898.078	3375
898.181	1394
898.284	3195
898.387	3230
898.490	4275
898.593	2763
898.695	2582
898.798	2147
898.901	2121
899.004	2558
899.107	2941
899.209	2921
899.312	4439
899.415	2698
899.518	1593
899.620	2187
899.723	2214
899.826	2332
899.928	2617
900.031	2378
900.133	4191
900.236	2472
900.338	2181
900.441	1674
900.543	2340
900.646	2826
900.748	2822
900.851	3573
900.953	1673
901.055	1959
901.158	2837
901.260	2265
901.362	1759
901.465	1547
901.567	3196
901.669	3648
901.771	2979
901.873	1839
901.976	3343
902.078	2422
902.180	1973
902.282	1921
902.384	2912
902.486	3248
902.588	2948
902.690	734
902.792	1615
902.894	2514
902.996	3977
903.098	2240
903.200	1882
903.302	1528
903.404	2013
903.505	1213
903.607	3115
903.709	4235
903.811	2950
903.913	2392
904.014	1381
904.116	2278
904.218	1450
904.319	3132
904.421	4349
904.523	2977
904.624	2925
904.726	2316
904.827	2094
904.929	563
905.030	2432
905.132	4419
905.233	2632
905.335	1256
905.436	1425
905.537	1696
905.639	2088
905.740	2042
905.841	3312
905.943	2279
906.044	2046
906.145	862
906.247	2165
906.348	2117
906.449	2801
906.550	2054
906.651	2080
906.752	1744
906.854	1866
906.955	570
907.056	3102
907.157	2717
907.258	2699
907.359	768
907.460	1668
907.561	1701
907.662	1989
907.762	3037
907.863	3767
907.964	2234
908.065	2029
908.166	1688
908.267	1863
908.367	1483
908.468	2393
908.569	3020
908.670	2968
908.770	2258
908.871	2282
908.971	1678
909.072	2255
909.173	1209
909.273	2315
909.374	2068
909.474	1982
909.575	2069
909.675	2576
909.776	2113
909.876	2048
909.977	1464
910.077	3355
910.177	2562
910.278	1867
910.378	984
910.478	2296
910.579	3003
910.679	2250
910.779	2246
910.879	3362
910.980	1996
911.080	2137
911.180	1637
911.280	1298
911.380	1730
911.480	2166
911.580	1566
911.680	2088
911.780	2403
911.880	2931
911.980	1348
912.080	1912
912.180	1947
912.280	2303
912.380	1231
912.480	1864
912.580	1272
912.679	1997
912.779	2325
912.879	3285
912.979	2115
913.078	2164
913.178	2197
913.278	1758
913.377	1308
913.477	1709
913.577	1406
913.676	3584
913.776	3159
913.875	2073
913.975	1666
914.074	2198
914.174	2791
914.273	1778
914.373	2111
914.472	2080
914.572	1286
914.671	1774
914.770	1994
914.870	2029
914.969	1796
915.068	2092
915.167	2335
915.267	2318
915.366	2163
915.465	2162
915.564	1853
915.663	2857
915.763	2235
915.862	2831
915.961	2145
916.060	1716
916.159	1841
916.258	970
916.357	1881
916.456	2675
916.555	2370
916.654	1900
916.752	3173
916.851	2562
916.950	1955
917.049	2630
917.148	1499
917.247	2285
917.345	1617
917.444	2001
917.543	1720
917.642	2660
917.740	2606
917.839	3709
917.937	4162
918.036	2027
918.135	2423
918.233	2208
918.332	2241
918.430	2530
918.529	2538
918.627	3307
918.726	2971
918.824	2808
918.923	1985
919.021	1895
919.119	2356
919.218	2214
919.316	2406
919.414	2971
919.512	2532
919.611	2681
919.709	2234
919.807	3998
919.905	3314
920.003	3754
920.102	3785
920.200	3114
920.298	3979
920.396	3649
920.494	3361
920.592	3242
920.690	3317
920.788	2449
920.886	3794
920.984	4681
921.082	3829
921.180	5073
921.277	3771
921.375	5230
921.473	6716
921.571	6882
921.669	5963
921.766	5284
921.864	6174
921.962	6977
922.060	5866
922.157	6741
922.255	7266
922.352	6203
922.450	6930
922.548	7101
922.645	7434
922.743	11042
922.840	16719
922.938	18245
923.035	15963
923.133	15225
923.230	18331
923.327	20802
923.425	19153
923.522	19370
923.619	16746
923.717	16138
923.814	15830
923.911	14531
924.008	15587
924.106	15041
924.203	15083
924.300	15392
924.397	15678
924.494	15752
924.591	15138
924.688	14594
924.786	15012
924.883	15641
924.979	14211
925.077	14828
925.173	14190
925.270	15307
925.367	13701
925.464	16276
925.561	16277
925.658	16068
925.755	13471
925.852	16228
925.948	14191
926.045	14264
926.142	15082
926.239	15044
926.335	12101
926.432	14334
926.529	14740
926.625	15128
926.722	12279
926.818	13995
926.915	14921
927.011	13364
927.108	13800
927.204	14365
927.301	11244
927.397	15661
927.494	14940
927.590	9963
927.687	12507
927.783	16284
927.879	14826
927.976	12380
928.072	10480
928.168	14396
928.264	13035
928.361	12830
928.457	14610
928.553	12305
928.649	13175
928.745	12622
928.841	11824
928.937	12362
929.033	11808
929.129	12942
929.225	14136
929.321	11095
929.417	10561
929.513	13272
929.609	9618
929.705	11608
929.801	12905
929.897	10417
929.993	10616
930.089	11830
930.184	10483
930.280	13069
930.376	14630
930.471	9651
930.567	10303
930.663	11275
930.758	9964
930.854	11021
930.950	10528
931.045	10334
931.141	10383
931.236	14559
931.332	9545
931.427	10418
931.523	12762
931.618	10769
931.714	7182
931.809	9966
931.905	11228
932.000	7232
932.095	9121
932.191	11850
932.286	12873
932.381	10060
932.476	8373
932.572	9969
932.667	8663
932.762	9538
932.857	10174
932.952	12219
933.047	9494
933.142	9211
933.237	10577
933.332	9578
933.427	11176
933.522	9110
933.617	8922
933.712	9393
933.807	11665
933.902	11033
933.997	11342
934.092	7661
934.187	9102
934.282	9273
934.376	9760
934.471	9818
934.566	7986
934.661	9047
934.755	10470
934.850	10328
934.945	8170
935.039	7827
935.134	6785
935.228	10358
935.323	12723
935.417	7815
935.512	6576
935.606	8150
935.701	10519
935.795	9660
935.890	8684
935.984	8118
936.079	6620
936.173	8371
936.267	7514
936.362	6784
936.456	9070
936.550	10955
936.644	8662
936.738	6270
936.833	7053
936.927	5673
937.021	7112
937.115	9318
937.209	9044
937.303	8287
937.397	6393
937.491	7795
937.585	9073
937.679	7998
937.773	6267
937.867	5909
937.961	6339
938.055	10572
938.149	8061
938.243	5188
938.337	4613
938.430	7677
938.524	9384
938.618	5890
938.712	5935
938.805	6731
938.899	8549
938.993	9524
939.086	6097
939.180	4176
939.274	5992
939.367	8302
939.461	9040
939.554	6950
939.648	5683
939.741	6016
939.835	7361
939.928	9351
940.022	7892
940.115	7456
940.208	7625
940.302	9924
940.395	8438
940.488	6583
940.582	7477
940.675	5276
940.768	6213
940.861	7782
940.954	7544
941.048	4720
941.141	5293
941.234	6026
941.327	6895
941.420	7836
941.513	7941
941.606	4629
941.699	6256
941.792	7749
941.885	6208
941.978	7565
942.071	7399
942.164	4464
942.257	5105
942.349	6311
942.442	6433
942.535	4369
942.628	5890
942.721	6359
942.813	5769
942.906	6538
942.999	4959
943.091	4806
943.184	5754
943.277	5089
943.369	4376
943.462	3546
943.554	5364
943.647	5985
943.739	7659
943.832	7601
943.924	3300
944.017	3892
944.109	4811
944.201	4997
944.294	5937
944.386	5663
944.478	4660
944.571	4557
944.663	4498
944.755	5749
944.847	6165
944.940	6759
945.032	2781
945.124	4108
945.216	5667
945.308	5643
945.400	5099
945.492	4577
945.584	6848
945.676	6576
945.768	5290
945.860	7482
945.952	5762
946.044	4670
946.136	4329
946.228	4688
946.320	4834
946.412	6275
946.503	6404
946.595	6437
946.687	3750
946.779	3156
946.870	4391
946.962	4160
947.054	4545
947.145	5916
947.237	3655
947.329	5221
947.420	4902
947.512	4407
947.603	3074
947.695	3996
947.786	2880
947.878	5195
947.969	4965
948.061	4831
948.152	4684
948.243	3701
948.335	2829
948.426	3473
948.517	5225
948.609	5348
948.700	5692
948.791	3899
948.882	3369
948.973	2903
949.065	4448
949.156	4024
949.247	2738
949.338	3091
949.429	2837
949.520	3901
949.611	3624
949.702	4951
949.793	3840
949.884	3852
949.975	3570
950.066	2628
950.157	2228
950.247	3815
950.338	3243
950.429	4320
950.520	4273
950.611	2922
950.701	3864
950.792	5759
950.883	4354
950.973	4464
951.064	4920
951.155	4156
951.245	4542
951.336	4378
951.427	5392
951.517	5622
951.608	4084
951.698	4377
951.788	2338
951.879	2517
951.969	2618
952.060	3937
952.150	4155
952.240	5452
952.331	2962
952.421	5285
952.511	1991
952.602	2476
952.692	1783
952.782	3093
952.872	3975
952.962	4065
953.052	2502
953.143	2653
953.233	3243
953.323	3327
953.413	4171
953.503	3727
953.593	3505
953.683	3620
953.773	1329
953.863	2114
953.953	2652
954.042	3816
954.132	3317
954.222	4019
954.312	2312
954.402	2437
954.492	3298
954.581	3817
954.671	2661
954.761	2587
954.850	3882
954.940	1141
955.030	2284
955.119	1655
955.209	2199
955.298	3604
955.388	3255
955.477	4545
955.567	1813
955.656	2332
955.746	1925
955.835	3040
955.925	2247
956.014	4236
956.103	3650
956.193	4056
956.282	4271
956.371	3263
956.461	3316
956.550	3094
956.639	3435
956.728	2394
956.817	2668
956.906	2903
956.995	4180
957.085	2744
957.174	3061
957.263	2209
957.352	2889
957.441	2413
957.530	2388
957.619	2968
957.708	2493
957.796	2124
957.885	2806
957.974	2650
958.063	2361
958.152	1494
958.241	1452
958.329	1314
958.418	2341
958.507	2474
958.596	3047
958.684	2701
958.773	2199
958.861	2277
958.950	1851
959.039	1693
959.127	2091
959.216	2272
959.304	2066
959.393	1741
959.481	2464
959.570	2492
959.658	1443
959.746	1587
959.835	2331
959.923	1780
960.011	754
960.100	2473
960.188	2699
960.276	2876
960.365	1538
960.453	1477
960.541	976
960.629	1991
960.717	1028
960.805	833
960.893	2339
960.981	3427
961.069	4361
961.158	4112
961.245	3746
961.333	3091
961.421	2259
961.509	2643
961.597	2773
961.685	1924
961.773	2454
961.861	2838
961.949	2932
962.036	1463
962.124	2750
962.212	1577
962.299	1750
962.387	2157
962.475	2225
962.562	1288
962.650	2326
962.738	1850
962.825	1161
962.913	502
963.000	2293
963.088	3026
963.175	1904
963.263	2091
963.350	2692
963.438	1722
963.525	1385
963.612	2822
963.700	1290
963.787	2828
963.874	1357
963.962	1636
964.049	1423
964.136	2200
964.223	1118
964.310	1678
964.398	1343
964.485	2111
964.572	1858
964.659	2278
964.746	1020
964.833	1749
964.920	1438
965.007	2040
965.094	1657
965.181	1985
965.268	2071
965.355	2335
965.441	1953
965.528	1703
965.615	2807
965.702	2210
965.789	1742
965.875	2227
965.962	2376
966.049	1366
966.136	2701
966.222	2528
966.309	3618
966.395	2910
966.482	2707
966.569	2364
966.655	2250
966.742	1566
966.828	2371
966.915	1459
967.001	1715
967.087	16
967.174	1250
967.260	1685
967.347	1507
967.433	2343
967.519	769
967.605	1436
967.692	1858
967.778	2511
967.864	751
967.950	2055
968.036	985
968.123	2105
968.209	1683
968.295	578
968.381	2242
968.467	1605
968.553	233
968.639	2088
968.725	1390
968.811	2116
968.897	2312
968.983	1928
969.069	558
969.154	2363
969.240	1944
969.326	-42
969.412	439
969.497	1386
969.583	376
969.669	3255
969.755	1836
969.840	2698
969.926	3591
970.012	3707
970.097	5075
970.183	3346
970.268	1818
970.354	2509
970.439	1438
970.525	2871
970.610	1060
970.696	3032
970.781	1379
970.866	167
970.952	2851
971.037	1716
971.122	1921
971.208	2183
971.293	2457
971.378	1479
971.463	1113
971.549	2351
971.634	1713
971.719	1711
971.804	1147
971.889	2502
971.974	1742
972.059	2428
972.144	2648
972.229	1853
972.314	1329
972.399	2184
972.484	1080
972.569	747
972.654	507
972.739	2464
972.824	186
972.908	1440
972.993	1059
973.078	1729
973.163	908
973.247	2461
973.332	707
973.417	2777
973.501	1517
973.586	2139
973.671	1953
973.755	1030
973.840	2412
973.924	2678
974.009	2873
974.093	2900
974.178	3546
974.262	1997
974.346	2070
974.431	1937
974.515	1666
974.600	1789
974.684	1796
974.768	1986
974.852	3378
974.937	1392
975.021	1787
975.105	1853
975.189	2065
975.273	2490
975.358	943
975.442	989
975.526	2441
975.610	922
975.694	484
975.778	2484
975.862	912
975.946	1129
976.030	3597
976.114	1441
976.198	1367
976.281	1946
976.365	1836
976.449	1934
976.533	1922
976.617	1647
976.700	1034
976.784	1451
976.868	926
976.951	1296
977.035	1300
977.119	2678
977.202	1387
977.286	2259
977.369	3364
977.453	4932
977.536	3722
977.620	3060
977.703	2255
977.787	2168
977.870	2518
977.953	2882
978.037	-127
978.120	2782
978.203	1730
978.287	1624
978.370	2101
978.453	1986
978.536	1905
978.620	2720
978.703	2614
978.786	1667
978.869	946
978.952	769
979.035	3078
979.118	2792
979.201	1077
979.284	2678
979.367	1400
979.450	2173
979.533	944
979.616	1675
979.699	2097
979.782	3262
979.865	996
979.948	1459
980.030	1315
980.113	1628
980.196	488
980.279	1865
980.361	1386
980.444	968
980.526	2265
980.609	4483
980.692	4183
980.774	4170
980.857	2050
980.939	3419
981.022	2609
981.104	2933
981.187	1889
981.269	2099
981.352	2401
981.434	1028
981.516	1787
981.599	3887
981.681	2858
981.763	2567
981.846	2080
981.928	2153
982.010	1742
982.092	2621
982.174	2623
982.256	1837
982.339	1917
982.421	1848
982.503	2034
982.585	766
982.667	1974
982.749	2571
982.831	1190
982.913	1306
982.995	2905
983.077	1797
983.158	3449
983.240	1900
983.322	4267
983.404	5635
983.486	3483
983.568	3957
983.649	3272
983.731	3202
983.813	2498
983.894	3264
983.976	2303
984.058	1990
984.139	3617
984.221	1762
984.302	3570
984.384	3084
984.465	2465
984.547	2734
984.628	2829
984.710	3225
984.791	2443
984.872	2634
984.954	2416
985.035	3448
985.116	2131
985.198	2125
985.279	3290
985.360	2853
985.441	2672
985.522	2942
985.604	2940
985.685	1211
985.766	3298
985.847	3655
985.928	2100
986.009	2798
986.090	2233
986.171	4014
986.252	2632
986.333	3853
986.414	3086
986.495	2741
986.576	3930
986.656	3586
986.737	3748
986.818	4182
986.899	2438
986.980	3192
987.060	3669
987.141	3915
987.222	3622
987.302	4243
987.383	4540
987.464	3648
987.544	3671
987.625	3964
987.705	4732
987.786	4953
987.866	4761
987.947	4553
988.027	3809
988.108	4007
988.188	4217
988.268	3206
988.349	4314
988.429	4169
988.509	3950
988.589	3669
988.670	2345
988.750	4477
988.830	3194
988.910	4138
988.990	2793
989.070	3047
989.151	3144
989.231	2861
989.311	3413
989.391	3251
989.471	3345
989.551	3107
989.631	3030
989.711	3926
989.791	1839
989.870	2735
989.950	3587
990.030	3330
990.110	3212
990.190	2623
990.269	2163
990.349	3014
990.429	3657
990.509	2404
990.588	1262
990.668	3132
990.747	2305
990.827	2696
990.907	2573
990.986	3697
991.066	2409
991.145	2830
991.225	2759
991.304	2593
991.383	2758
991.463	1974
991.542	2931
991.622	1850
991.701	1914
991.780	1960
991.859	2580
991.939	3173
992.018	2558
992.097	3041
992.176	2323
992.256	2502
992.335	1775
992.414	2922
992.493	1248
992.572	1673
992.651	3322
992.730	2239
992.809	1778
992.888	1656
992.967	1565
993.046	3007
993.125	1177
993.203	1992
993.282	2443
993.361	2083
993.440	1405
993.519	1840
993.597	1325
993.676	2232
993.755	1853
993.834	1986
993.912	665
993.991	2227
994.069	1131
994.148	1008
994.226	1637
994.305	1185
994.384	1199
994.462	3054
994.540	1152
994.619	1385
994.697	1959
994.776	1526
994.854	2228
994.932	400
995.011	1523
995.089	567
995.167	1250
995.245	1240
995.324	857
995.402	2150
995.480	442
995.558	1012
995.636	66
995.714	1165
995.792	2182
995.870	388
995.948	725
996.026	1215
996.104	308
996.182	578
996.260	48
996.338	721
996.416	350
996.494	795
996.572	1304
996.649	222
996.727	380
996.805	1758
996.883	623
996.960	772
997.038	1709
997.116	1841
997.193	-273
997.271	1102
997.348	655
997.426	1502
997.504	565
997.581	1731
997.658	1373
997.736	-1030
997.813	-159
997.891	2052
997.968	16
998.046	926
998.123	677
998.200	654
998.277	386
998.355	643
998.432	-680
998.509	-173
998.586	1208
998.663	529
998.741	278
998.818	221
998.895	666
998.972	1038
999.049	639
999.126	468
999.203	806
999.280	235
999.357	386
999.434	702
999.511	547
999.587	1838
999.664	-545
999.741	684
999.818	802
999.895	205
999.971	-203
1000.048	145
1000.125	905
1000.202	-526
1000.278	146
1000.355	1166
1000.431	-700
1000.508	190
1000.584	96
1000.661	789
1000.738	-1047
1000.814	225
1000.890	957
1000.967	149
1001.043	713
1001.120	-1049
1001.196	-1
1001.272	-809
1001.349	-546
1001.425	1194
1001.501	-371
1001.577	-139
1001.654	114
1001.730	-224
1001.806	-107
1001.882	-4
1001.958	880
1002.034	1250
1002.110	141
1002.186	-217
1002.262	-263
1002.338	-360
1002.414	1148
1002.490	908
1002.566	-135
1002.642	-459
1002.718	-111
1002.794	-681
1002.870	-545
1002.945	39
1003.021	12
1003.097	116
1003.173	323
1003.248	68
1003.324	-399
1003.400	300
1003.475	-257
1003.551	-225
1003.626	-49
1003.702	-628
1003.777	-804
1003.853	-28
1003.928	-630
1004.004	-360
1004.079	-102
1004.155	394
1004.230	-1674
1004.305	832
1004.381	-1148
1004.456	-287
1004.531	-919
1004.607	-189
1004.682	-670
1004.757	-702
1004.832	-783
1004.907	77
1004.982	-930
1005.057	64
1005.133	-634
1005.208	-577
1005.283	-592
1005.358	-370
1005.433	-1542
1005.508	-160
1005.583	-1057
1005.657	483
1005.732	703
1005.807	-595
1005.882	-1271
1005.957	19
1006.032	83
1006.106	-140
1006.181	-1286
1006.256	82
1006.331	-1470
1006.405	-482
1006.480	-415
1006.554	-698
1006.629	-305
1006.704	-830
1006.778	-496
1006.853	-622
1006.927	-503
1007.002	-1827
1007.076	-1312
1007.150	-675
1007.225	-1462
1007.299	-746
1007.373	-1816
1007.448	-153
1007.522	-247
1007.596	-875
1007.671	-1293
1007.745	756
1007.819	-1194
1007.893	-810
1007.967	-1199
1008.041	-1141
1008.115	-240
1008.190	-903
1008.264	-54
1008.338	-1440
1008.412	-785
1008.486	30
1008.560	-1098
1008.633	56
1008.707	-39
1008.781	-67
1008.855	-1316
1008.929	-1485
1009.003	-1214
1009.076	-1148
1009.150	-1376
1009.224	-66
1009.298	-257
1009.371	-1416
1009.445	-482
1009.519	-1786
1009.592	-1648
1009.666	-1162
1009.739	-1105
1009.813	-599
1009.886	-138
1009.960	-1511
1010.033	-373
1010.107	-269
1010.180	-1889
1010.253	-1616
1010.327	-1312
1010.400	-716
1010.473	-2001
1010.547	591
1010.620	-1346
1010.693	-177
1010.766	-1736
1010.840	-407
1010.913	-1126
1010.986	-1079
1011.059	-783
1011.132	-576
1011.205	-309
1011.278	-1479
1011.351	-1660
1011.424	-144
1011.497	-1365
1011.570	-519
1011.643	-1129
1011.716	-748
1011.789	-1297
1011.862	-680
1011.934	-566
1012.007	-1416
1012.080	-1514
1012.153	-1280
1012.225	-323
1012.298	-1697
1012.371	-1648
1012.443	-930
1012.516	-1850
1012.588	-810
1012.661	-1299
1012.733	-1693
1012.806	-1089
1012.879	-1747
1012.951	-1189
1013.023	-1006
1013.096	-597
1013.168	-1072
1013.241	-864
1013.313	-1012
1013.385	-1451
1013.458	-1244
1013.530	-397
1013.602	-1464
1013.674	-745
1013.746	-1519
1013.819	-1530
1013.891	-820
1013.963	-1749
1014.035	-1120
1014.107	-1218
1014.179	-549
1014.251	-1620
1014.323	-864
1014.395	-1096
1014.467	-1323
1014.539	-685
1014.611	-1846
1014.683	-1249
1014.754	-1308
1014.826	-2651
1014.898	-352
1014.970	-2518
1015.042	-193
1015.113	-1392
1015.185	-1008
1015.257	-2280
1015.328	-913
1015.400	-1319
1015.471	-1258
1015.543	-1543
1015.615	-273
1015.686	-1757
1015.757	-1539
1015.829	-1497
1015.901	-1405
1015.972	-1788
1016.043	-986
1016.115	-930
1016.186	-1109
1016.257	-1759
1016.328	-840
1016.400	-792
1016.471	-1792
1016.542	-1367
1016.613	-1011
1016.685	-1851
1016.756	-983
1016.827	-1648
1016.898	-1780
1016.969	-1348
1017.040	-1427
1017.111	-1503
1017.182	-1377
1017.253	-1140
1017.324	-481
1017.395	-1103
1017.466	-763
1017.537	-1980
1017.608	-1170
1017.678	-1610
1017.749	-1016
1017.820	-1720
1017.891	-1341
1017.961	-1828
1018.032	-1196
1018.103	-1458
1018.173	-1352
1018.244	-1862
1018.315	-1291
1018.385	-920
1018.456	-1904
1018.526	-1580
1018.597	-1330
1018.667	-1858
1018.738	-1644
1018.808	-1608
1018.878	-1707
1018.949	-465
1019.019	-1952
1019.089	-2146
1019.160	-1416
1019.230	-2234
1019.300	-903
1019.371	-1481
1019.441	-1166
1019.511	-995
1019.581	-1261
1019.651	-1610
1019.721	-1231
1019.791	-1743
1019.861	-810
1019.931	-2537
1020.001	-2099
1020.071	-1398
1020.141	-1403
1020.211	-1871
1020.281	-1551
1020.351	-1795
1020.421	-1554
1020.491	-1272
1020.560	-1499
1020.630	-1536
1020.700	-1210
1020.770	-1749
1020.839	-1298
1020.909	-1046
1020.979	-2159
1021.048	-975
1021.118	-2091
1021.187	-1147
1021.257	-1469
1021.326	-539
1021.396	-1855
1021.465	-1595
1021.535	-1401
1021.604	-1813
1021.674	-1145
1021.743	-1577
1021.812	-1380
1021.882	-1513
1021.951	-1730
1022.020	-1068
1022.089	-1125
1022.159	-1939
1022.228	-801
1022.297	-1569
1022.366	-1117
1022.435	-1697
1022.504	-1401
1022.573	-1886
1022.642	-1862
1022.711	-2123
1022.781	-2155
1022.849	-2053
1022.918	-2531
1022.987	-1869
1023.056	-1529
1023.125	-1749
1023.194	-1271
1023.263	-1223
1023.331	-1780
1023.400	-1961
1023.469	-1466
1023.538	-1331
1023.606	-1493
1023.675	-2068
1023.744	-1410
1023.812	-2485
1023.881	-1081
1023.949	-1663
1024.018	-1207
1024.086	-1640
1024.155	-1536
1024.223	-2505
1024.292	-2192
1024.360	-1780
1024.429	-2257
1024.497	-2155
1024.565	-1037
1024.634	-2231
1024.702	-963
1024.770	-1729
1024.838	-1080
1024.907	-2001
1024.975	-1574
1025.043	-1582
1025.111	-1249
1025.179	-1177
1025.247	-1740
1025.315	-1699
1025.383	-1474
1025.451	-1470
1025.519	-1337
1025.587	-1712
1025.655	-1216
1025.723	-2217
1025.791	-1577
1025.859	-845
1025.927	-1351
1025.995	-2242
1026.062	-1716
1026.130	-1473
1026.198	-1533
1026.266	-1963
1026.333	-1558
1026.401	-1855
1026.469	-1632
1026.536	-1545
1026.604	-1701
1026.671	-1846
1026.739	-1997
1026.806	-1815
1026.874	-2162
1026.941	-1695
1027.009	-2181
1027.076	-2407
1027.144	-1655
1027.211	-1265
1027.278	-1632
1027.345	-1840
1027.413	-811
1027.480	-1906
1027.547	-1478
1027.614	-2267
1027.682	-1640
1027.749	-1504
1027.816	-1234
1027.883	-2339
1027.950	-1718
1028.017	-2404
1028.084	-1979
1028.151	-1989
1028.218	-1299
1028.285	-2387
1028.352	-1543
1028.419	-1819
1028.486	-2067
1028.553	-1622
1028.619	-1991
1028.686	-1401
1028.753	-1130
1028.820	-2374
1028.886	-1291
1028.953	-1473
1029.020	-2397
1029.086	-2045
1029.153	-2143
1029.220	-2061
1029.286	-1582
1029.353	-1496
1029.419	-1627
1029.486	-2799
1029.552	-1969
1029.619	-2536
1029.685	-1534
1029.751	-2305
1029.818	-673
1029.884	-1829
1029.951	-1441
1030.017	-3128
1030.083	-1363
1030.149	-2251
1030.216	-1821
1030.282	-1196
1030.348	-1175
1030.414	-2510
1030.480	-1872
1030.546	-2043
1030.612	-1731
1030.678	-2607
1030.744	-1434
1030.810	-2004
1030.876	-1921
1030.942	-1516
1031.008	-1366
1031.074	-3108
1031.140	-1450
1031.206	-1359
1031.272	-2060
1031.337	-1496
1031.403	-1481
1031.469	-2056
1031.534	-1213
1031.600	-1819
1031.666	-1560
1031.731	-2432
1031.797	-1487
1031.863	-2284
1031.928	-1617
1031.994	-1833
1032.059	-1544
1032.125	-1810
1032.190	-1342
1032.256	-1866
1032.321	-2221
1032.386	-1455
1032.452	-1241
1032.517	-2154
1032.582	-2445
1032.647	-2052
1032.713	-1487
1032.778	-2135
1032.843	-1765
1032.908	-1967
1032.974	-916
1033.039	-1873
1033.104	-1441
1033.169	-2700
1033.234	-1441
1033.299	-1829
1033.364	-1098
1033.429	-1249
1033.494	-1393
1033.559	-1812
1033.624	-1340
1033.688	-871
1033.753	-2322
1033.818	-1460
1033.883	-1598
1033.948	-1340
1034.013	-521
1034.077	-534
1034.142	34
1034.207	207
1034.271	1432
1034.336	1593
1034.400	468
1034.465	-1025
1034.530	-635
1034.594	-1017
1034.658	-1263
1034.723	-2199
1034.787	-1483
1034.852	-1655
1034.916	-1999
1034.981	-2697
1035.045	-1482
1035.109	-1605
1035.173	-1509
1035.238	-1435
1035.302	-1710
1035.366	-1605
1035.430	-1788
1035.495	-2443
1035.559	-603
1035.623	-1667
1035.687	-2005
1035.751	-1884
1035.815	-1456
1035.879	-1148
1035.943	-1789
1036.007	-1368
1036.071	-1083
1036.135	-1973
1036.198	-1695
1036.262	-1503
1036.326	-1071
1036.390	-1701
1036.454	-1224
1036.517	-1299
1036.581	-1869
1036.645	-1664
1036.709	-1658
1036.772	-1873
1036.836	-1272
1036.900	-1684
1036.963	-2533
1037.026	-1924
1037.090	-1847
1037.154	-1930
1037.217	-758
1037.280	-1996
1037.344	-1342
1037.407	-2311
1037.471	-1284
1037.534	-1713
1037.597	-2076
1037.661	-1765
1037.724	-2283
1037.787	-1687
1037.850	-1908
1037.913	-2095
1037.977	-41
1038.040	-2111
1038.103	-1586
1038.166	-2121
1038.229	-949
1038.292	-2867
1038.355	-2463
1038.418	-1873
1038.481	-1548
1038.544	-2098
1038.607	-1571
1038.670	-1944
1038.732	-1645
1038.795	-2726
1038.858	-2161
1038.921	-1548
1038.984	-952
1039.046	-1846
1039.109	-2109
1039.172	-2086
1039.234	-1856
1039.297	-1515
1039.360	-1449
1039.422	-2218
1039.485	-1872
1039.547	-1615
1039.610	-1621
1039.672	-1500
1039.734	-1493
1039.797	-2001
1039.859	-1288
1039.922	-2086
1039.984	-1323
1040.046	-2033
1040.109	-1458
1040.171	-2718
1040.233	-1360
1040.295	-2398
1040.358	-1711
1040.420	-2048
1040.482	-2244
1040.544	-1887
1040.606	-2353
1040.668	-1323
1040.730	-1440
1040.792	-1489
1040.854	-1272
1040.916	-1701
1040.978	-2678
1041.040	-1213
1041.102	-1237
1041.164	-2671
1041.225	-1557
1041.287	-2174
1041.349	-1867
1041.411	-1820
1041.472	-1949
1041.534	-2422
1041.596	-1766
1041.657	-2113
1041.719	-1410
1041.781	-1929
1041.842	-2177
1041.904	-2291
1041.965	-1516
1042.027	-2814
1042.088	-2096
1042.150	-1563
1042.211	-1598
1042.272	-2022
1042.334	-2328
1042.395	-1824
1042.456	-1697
1042.518	-2112
1042.579	-1851
1042.640	-1716
1042.701	-1887
1042.763	-1810
1042.824	-1766
1042.885	-1952
1042.946	-2093
1043.007	-1351
1043.068	-1431
1043.129	-1236
1043.190	-1829
1043.251	-2278
1043.312	-1930
1043.373	-1794
1043.434	-1528
1043.495	-1570
1043.556	-1615
1043.616	-2197
1043.677	-1404
1043.738	-1697
1043.799	-1514
1043.859	-1009
1043.920	-1444
1043.981	-1868
1044.041	-1502
1044.102	-1364
1044.162	-1627
1044.223	-1584
1044.284	-1900
1044.344	-1716
1044.405	-984
1044.465	-1888
1044.525	-2243
1044.586	-1794
1044.646	-913
1044.707	-1060
1044.767	-1353
1044.827	-1751
1044.887	-1420
1044.948	-1550
1045.008	-1223
1045.068	-1921
1045.128	-1440
1045.188	-1356
1045.249	-960
1045.309	-1467
1045.369	-826
1045.429	-1347
1045.489	-1528
1045.549	-2035
1045.609	-1041
1045.669	-1534
1045.729	-1237
1045.789	-1477
1045.848	-1924
1045.908	-1301
1045.968	-1002
1046.028	-1684
1046.088	-1002
1046.147	-1451
1046.207	-1293
1046.267	-2024
1046.326	-1879
1046.386	-1342
1046.446	-1027
1046.505	-1062
1046.565	-932
1046.624	64
1046.684	-137
1046.743	-674
1046.803	-1014
1046.862	-424
1046.922	0
