'Start Wavelength	183.907
'End Wavelength	1046.922
'Gate Delay	5.000
'Gate Width (ms)	1.050
'Laser Output Level	0.000
'X Position	0.000
'Y Position	0.000
'Z Position	0.000
'Grid Point Number	1.000
'Shot Number	100.000
183.907	853.000
183.977	106.000
184.047	-103
184.116	412
184.186	303
184.256	72
184.325	-609
184.395	-1175
184.465	359
184.534	-195
184.604	251
184.674	479
184.743	28
184.813	-149
184.883	294
184.952	470
185.022	-63
185.092	881
185.161	168
185.231	265
185.301	28
185.370	-417
185.440	-100
185.509	-27
185.579	-336
185.649	644
185.718	201
185.788	396
185.857	41
185.927	631
185.996	101
186.066	791
186.136	-758
186.205	109
186.275	1095
186.344	-163
186.414	137
186.483	-241
186.553	608
186.622	1456
186.692	208
186.761	-465
186.831	109
186.900	-594
186.970	713
187.039	484
187.109	-139
187.178	469
187.248	-178
187.317	385
187.387	111
187.456	961
187.526	-93
187.595	309
187.664	533
187.734	35
187.803	178
187.873	-160
187.942	626
188.012	709
188.081	389
188.150	304
188.220	627
188.289	378
188.358	-101
188.428	505
188.497	138
188.567	1278
188.636	71
188.705	419
188.775	626
188.844	455
188.913	596
188.983	112
189.052	554
189.121	285
189.191	106
189.260	719
189.329	325
189.399	534
189.468	-215
189.537	40
189.606	423
189.676	313
189.745	608
189.814	342
189.883	9
189.953	121
190.022	742
190.091	180
190.161	68
190.230	736
190.299	592
190.368	97
190.437	-43
190.507	77
190.576	81
190.645	346
190.714	-470
190.783	-218
190.853	106
190.922	883
190.991	164
191.060	434
191.129	-243
191.198	-45
191.268	228
191.337	-262
191.406	724
191.475	64
191.544	384
191.613	366
191.682	831
191.752	421
191.821	-414
191.890	74
191.959	5
192.028	434
192.097	320
192.166	400
192.235	-787
192.304	952
192.373	-168
192.442	984
192.511	-156
192.580	-475
192.650	-230
192.719	476
192.788	752
192.857	646
192.926	-375
192.995	669
193.064	-158
193.133	577
193.202	421
193.271	960
193.340	206
193.409	274
193.478	254
193.547	-383
193.615	364
193.684	-186
193.753	105
193.822	627
193.891	558
193.960	858
194.029	98
194.098	578
194.167	-548
194.236	1195
194.305	383
194.374	425
194.443	235
194.512	442
194.580	406
194.649	637
194.718	670
194.787	1633
194.856	-557
194.925	820
194.994	80
195.062	440
195.131	394
195.200	381
195.269	362
195.338	324
195.407	516
195.475	794
195.544	235
195.613	-105
195.682	-232
195.751	752
195.819	41
195.888	168
195.957	432
196.026	-172
196.094	589
196.163	525
196.232	292
196.301	126
196.369	306
196.438	475
196.507	437
196.576	-210
196.644	612
196.713	28
196.782	-2
196.850	831
196.919	-21
196.988	291
197.056	653
197.125	-320
197.194	236
197.262	634
197.331	50
197.400	313
197.468	764
197.537	240
197.606	-217
197.674	586
197.743	526
197.812	-102
197.880	-185
197.949	210
198.017	149
198.086	781
198.155	-59
198.223	450
198.292	202
198.360	1388
198.429	-479
198.497	388
198.566	-78
198.635	418
198.703	335
198.772	372
198.840	-100
198.909	-452
198.977	-108
199.046	-111
199.114	244
199.183	363
199.251	-418
199.320	946
199.388	323
199.457	783
199.525	43
199.594	247
199.662	-205
199.731	86
199.799	-591
199.867	328
199.936	619
200.004	573
200.073	96
200.141	-182
200.210	-619
200.278	-235
200.346	612
200.415	266
200.483	-568
200.552	720
200.620	-444
200.688	-220
200.757	-607
200.825	517
200.893	-4
200.962	530
201.030	-1031
201.098	-131
201.167	564
201.235	-250
201.303	-124
201.372	894
201.440	-17
201.508	623
201.577	352
201.645	354
201.713	668
201.781	874
201.850	200
201.918	656
201.986	517
202.055	395
202.123	148
202.191	1053
202.259	635
202.327	434
202.396	-80
202.464	470
202.532	494
202.600	1810
202.669	266
202.737	428
202.805	25
202.873	-521
202.941	563
203.009	608
203.078	-148
203.146	288
203.214	-735
203.282	349
203.350	1054
203.418	-443
203.487	737
203.555	206
203.623	32
203.691	79
203.759	52
203.827	-583
203.895	-87
203.963	-218
204.031	-704
204.099	45
204.168	336
204.236	259
204.304	-229
204.372	-532
204.440	-277
204.508	-90
204.576	-319
204.644	-38
204.712	-387
204.780	608
204.848	-526
204.916	401
204.984	-352
205.052	171
205.120	-191
205.188	39
205.256	-110
205.324	162
205.392	-78
205.460	623
205.528	-313
205.596	467
205.664	306
205.732	528
205.799	-106
205.867	843
205.935	-172
206.003	238
206.071	447
206.139	4
206.207	-511
206.275	-402
206.343	-82
206.411	163
206.478	-76
206.546	684
206.614	-474
206.682	674
206.750	-617
206.818	680
206.885	595
206.953	-448
207.021	611
207.089	596
207.157	-737
207.225	258
207.292	-393
207.360	-338
207.428	-68
207.496	-287
207.563	390
207.631	299
207.699	-817
207.767	612
207.834	-270
207.902	-13
207.970	-766
208.038	457
208.105	-349
208.173	537
208.241	-411
208.309	453
208.376	339
208.444	266
208.512	-167
208.579	-472
208.647	73
208.715	1660
208.782	47
208.850	150
208.918	-32
208.985	223
209.053	-446
209.120	-308
209.188	-514
209.256	-85
209.323	-583
209.391	-845
209.459	652
209.526	914
209.594	-120
209.661	-332
209.729	-10
209.796	163
209.864	-360
209.932	-866
209.999	760
210.067	262
210.134	-9
210.202	-414
210.269	13
210.337	852
210.404	266
210.472	137
210.539	204
210.607	-683
210.674	-725
210.742	670
210.809	-1149
210.877	616
210.944	957
211.012	-988
211.079	1033
211.146	321
211.214	330
211.281	906
211.349	474
211.416	281
211.484	759
211.551	-115
211.618	-107
211.686	865
211.753	-901
211.821	476
211.888	182
211.955	163
212.023	-166
212.090	616
212.157	20
212.225	-123
212.292	290
212.359	646
212.427	2197
212.494	184
212.561	-85
212.629	-295
212.696	-756
212.763	-172
212.831	-141
212.898	376
212.965	-221
213.032	962
213.100	90
213.167	-235
213.234	582
213.301	194
213.369	-179
213.436	393
213.503	-292
213.570	9
213.638	351
213.705	-420
213.772	-198
213.839	-463
213.906	798
213.973	-503
214.041	-509
214.108	375
214.175	-214
214.242	92
214.309	-484
214.376	139
214.444	-849
214.511	1168
214.578	-60
214.645	609
214.712	488
214.779	435
214.846	-896
214.913	532
214.980	182
215.048	567
215.115	1096
215.182	535
215.249	277
215.316	-445
215.383	682
215.450	-326
215.517	-400
215.584	156
215.651	-139
215.718	704
215.785	81
215.852	-1042
215.919	667
215.986	381
216.053	-319
216.120	-935
216.187	-260
216.254	1004
216.321	-131
216.388	-139
216.455	-45
216.522	556
216.589	-426
216.656	816
216.722	-686
216.789	274
216.856	291
216.923	-552
216.990	-105
217.057	-703
217.124	111
217.191	-151
217.258	249
217.324	274
217.391	295
217.458	-231
217.525	-55
217.592	383
217.659	-951
217.725	464
217.792	-138
217.859	1064
217.926	-421
217.993	2
218.059	-5
218.126	664
218.193	-602
218.260	555
218.327	-515
218.393	107
218.460	-157
218.527	-115
218.594	-147
218.660	-689
218.727	288
218.794	-488
218.860	358
218.927	-493
218.994	41
219.061	-479
219.127	-906
219.194	-232
219.261	-647
219.327	-348
219.394	621
219.461	-665
219.527	35
219.594	450
219.661	-40
219.727	-111
219.794	679
219.860	-126
219.927	134
219.994	749
220.060	1826
220.127	2503
220.193	725
220.260	710
220.326	869
220.393	622
220.460	461
220.526	712
220.593	-481
220.659	1122
220.726	658
220.792	1167
220.859	727
220.925	1655
220.992	689
221.058	2084
221.125	1817
221.191	1359
221.258	-1183
221.324	1261
221.391	-261
221.457	293
221.524	-648
221.590	692
221.657	1102
221.723	1081
221.789	570
221.856	2164
221.922	-369
221.989	1264
222.055	-263
222.121	-834
222.188	1598
222.254	423
222.321	727
222.387	-310
222.453	272
222.520	-410
222.586	-288
222.652	-253
222.719	-557
222.785	809
222.851	-382
222.918	609
222.984	195
223.050	66
223.116	-1443
223.183	862
223.249	-478
223.315	-25
223.382	638
223.448	187
223.514	253
223.580	0
223.647	-352
223.713	-187
223.779	-153
223.845	93
223.911	275
223.978	98
224.044	42
224.110	236
224.176	133
224.242	274
224.309	-1007
224.375	675
224.441	1000
224.507	-677
224.573	-1386
224.639	310
224.705	-298
224.772	343
224.838	282
224.904	652
224.970	-326
225.036	-157
225.102	-1145
225.168	1051
225.234	807
225.300	634
225.366	-126
225.432	938
225.499	-477
225.565	366
225.631	353
225.697	485
225.763	971
225.829	735
225.895	-226
225.961	397
226.027	333
226.093	315
226.159	1347
226.225	1694
226.291	1628
226.357	3261
226.423	1039
226.489	864
226.554	909
226.620	1730
226.686	-182
226.752	1110
226.818	1533
226.884	4436
226.950	4287
227.016	1727
227.082	715
227.148	577
227.214	443
227.279	963
227.345	121
227.411	811
227.477	650
227.543	3496
227.609	4838
227.674	1912
227.740	-61
227.806	1431
227.872	29
227.938	625
228.003	534
228.069	746
228.135	-400
228.201	1056
228.267	289
228.332	-37
228.398	-623
228.464	565
228.530	-93
228.595	675
228.661	-844
228.727	-679
228.792	1252
228.858	363
228.924	-1703
228.990	1792
229.055	-501
229.121	783
229.187	-471
229.252	-476
229.318	-563
229.384	1017
229.449	55
229.515	-1418
229.581	-671
229.646	957
229.712	229
229.777	114
229.843	45
229.909	877
229.974	838
230.040	621
230.105	331
230.171	-451
230.236	691
230.302	264
230.368	-640
230.433	33
230.499	170
230.564	995
230.630	-597
230.695	442
230.761	758
230.826	-805
230.892	935
230.957	-10
231.023	120
231.088	-257
231.154	483
231.219	694
231.284	-190
231.350	-39
231.415	-306
231.481	1249
231.546	736
231.612	596
231.677	1052
231.742	-992
231.808	1157
231.873	37
231.939	-1820
232.004	1218
232.069	574
232.135	535
232.200	67
232.265	675
232.331	75
232.396	403
232.461	-335
232.527	27
232.592	-555
232.657	-507
232.723	-83
232.788	113
232.853	314
232.918	22
232.984	-173
233.049	1081
233.114	-685
233.179	987
233.245	1021
233.310	604
233.375	-12
233.440	1058
233.506	583
233.571	-122
233.636	-225
233.701	536
233.766	-376
233.832	317
233.897	120
233.962	-1073
234.027	1458
234.092	959
234.157	-8
234.222	-111
234.288	203
234.353	742
234.418	1198
234.483	1328
234.548	621
234.613	959
234.678	798
234.743	72
234.808	1353
234.873	-198
234.938	1351
235.004	479
235.069	71
235.134	-434
235.199	722
235.264	795
235.329	-1252
235.394	1288
235.459	1053
235.524	-390
235.589	1243
235.654	566
235.719	-952
235.784	217
235.849	-13
235.913	818
235.978	253
236.043	-220
236.108	258
236.173	-378
236.238	1278
236.303	423
236.368	-655
236.433	1227
236.498	-425
236.563	534
236.627	1527
236.692	6301
236.757	5858
236.822	2853
236.887	528
236.952	1617
237.017	-1199
237.081	2242
237.146	446
237.211	2337
237.276	5691
237.341	12365
237.405	3726
237.470	1668
237.535	648
237.600	1140
237.664	2192
237.729	-140
237.794	55
237.859	1886
237.923	770
237.988	646
238.053	2058
238.118	681
238.182	704
238.247	2219
238.312	-1043
238.376	1170
238.441	-1376
238.506	1081
238.570	-1123
238.635	2303
238.700	1155
238.764	572
238.829	675
238.893	318
238.958	1309
239.023	11
239.087	786
239.152	883
239.216	-9
239.281	1685
239.346	1012
239.410	518
239.475	664
239.539	1662
239.604	336
239.668	1300
239.733	1054
239.797	3623
239.862	6821
239.926	5795
239.991	2251
240.055	1666
240.120	-6
240.184	908
240.249	216
240.313	46
240.378	775
240.442	975
240.507	866
240.571	757
240.635	-242
240.700	228
240.764	395
240.829	618
240.893	-703
240.957	1419
241.022	746
241.086	2015
241.151	-320
241.215	-926
241.279	1599
241.344	492
241.408	1428
241.472	-226
241.537	1699
241.601	1154
241.665	-12
241.730	-337
241.794	1605
241.858	250
241.922	184
241.987	719
242.051	331
242.115	-415
242.179	594
242.244	153
242.308	605
242.372	889
242.436	-732
242.501	879
242.565	-251
242.629	707
242.693	874
242.757	201
242.822	346
242.886	318
242.950	1137
243.014	353
243.078	548
243.142	797
243.206	-107
243.271	769
243.335	65
243.399	1107
243.463	2749
243.527	10220
243.591	2893
243.655	1525
243.719	536
243.783	1444
243.847	615
243.911	1629
243.975	-208
244.040	-840
244.104	2487
244.168	309
244.232	-61
244.296	333
244.360	542
244.424	-608
244.488	966
244.552	1227
244.615	-1294
244.679	1314
244.743	-464
244.807	-551
244.871	-64
244.935	1268
244.999	-806
245.063	769
245.127	920
245.191	100
245.255	738
245.319	660
245.383	-1228
245.446	1254
245.510	-1138
245.574	842
245.638	1493
245.702	-1095
245.766	811
245.829	1932
245.893	189
245.957	-634
246.021	828
246.085	961
246.149	157
246.212	1966
246.276	298
246.340	547
246.404	717
246.467	1858
246.531	-1056
246.595	1773
246.659	1557
246.722	-459
246.786	1212
246.850	553
246.913	58
246.977	-593
247.041	657
247.104	554
247.168	897
247.232	1004
247.295	1888
247.359	1624
247.423	-238
247.486	813
247.550	1071
247.614	369
247.677	1319
247.741	477
247.804	31
247.868	3089
247.932	25
247.995	3083
248.059	555
248.122	-458
248.186	1091
248.249	957
248.313	3297
248.376	4854
248.440	1846
248.503	-261
248.567	2024
248.630	628
248.694	614
248.757	2028
248.821	2692
248.884	3384
248.948	973
249.011	2912
249.075	3352
249.138	3927
249.202	1858
249.265	1321
249.328	734
249.392	393
249.455	1040
249.519	190
249.582	672
249.645	1573
249.709	291
249.772	424
249.835	-449
249.899	889
249.962	784
250.025	155
250.089	1321
250.152	3013
250.215	664
250.279	-199
250.342	973
250.405	1313
250.468	-112
250.532	955
250.595	2652
250.658	6448
250.721	16077
250.785	3652
250.848	2759
250.911	1585
250.974	1853
251.038	860
251.101	2701
251.164	1119
251.227	1144
251.290	111
251.354	2618
251.417	12077
251.480	13104
251.543	6724
251.606	23629
251.669	18339
251.732	5116
251.795	3472
251.859	4905
251.922	13973
251.985	9013
252.048	3167
252.111	2100
252.174	1135
252.237	1459
252.300	4437
252.363	5477
252.426	19266
252.489	5502
252.552	2775
252.615	720
252.678	2493
252.741	4283
252.804	6518
252.867	19359
252.930	8857
252.993	3074
253.056	2986
253.119	930
253.182	1084
253.245	1124
253.308	1908
253.371	691
253.434	773
253.497	1029
253.559	2609
253.622	1784
253.685	1082
253.748	962
253.811	48
253.874	1159
253.937	585
254.000	50
254.062	1360
254.125	1076
254.188	2965
254.251	242
254.314	673
254.376	284
254.439	1004
254.502	519
254.565	1173
254.628	2426
254.690	553
254.753	-1
254.816	554
254.878	487
254.941	917
255.004	889
255.067	1044
255.129	-123
255.192	237
255.255	-401
255.317	436
255.380	252
255.443	508
255.505	-269
255.568	-438
255.631	-434
255.693	1148
255.756	-67
255.819	1239
255.881	138
255.944	464
256.006	84
256.069	523
256.132	-680
256.194	611
256.257	954
256.319	339
256.382	73
256.444	1838
256.507	982
256.569	-47
256.632	-715
256.694	58
256.757	2797
256.819	10150
256.882	2323
256.944	961
257.007	1058
257.069	248
257.132	293
257.194	1548
257.257	-68
257.319	288
257.381	-29
257.444	2344
257.506	11896
257.569	12884
257.631	3347
257.693	1080
257.756	446
257.818	-505
257.880	417
257.943	1061
258.005	239
258.067	661
258.130	736
258.192	440
258.254	-615
258.317	-311
258.379	540
258.441	722
258.503	636
258.566	857
258.628	1178
258.690	-532
258.753	427
258.815	1573
258.877	-388
258.939	678
259.001	947
259.064	19
259.126	44
259.188	-11
259.250	451
259.312	798
259.375	534
259.437	151
259.499	127
259.561	614
259.623	36
259.685	504
259.747	216
259.809	758
259.872	1711
259.934	2436
259.996	2784
260.058	1457
260.120	-886
260.182	558
260.244	282
260.306	720
260.368	658
260.430	8
260.492	702
260.554	1611
260.616	128
260.678	165
260.740	527
260.802	379
260.864	749
260.926	-509
260.988	1083
261.050	-584
261.112	1234
261.174	1997
261.236	1015
261.298	501
261.359	464
261.421	2135
261.483	72
261.545	927
261.607	-427
261.669	1193
261.731	516
261.793	1197
261.854	-826
261.916	1080
261.978	-1092
262.040	-404
262.102	1122
262.164	-228
262.225	264
262.287	555
262.349	-144
262.411	-52
262.472	635
262.534	-551
262.596	643
262.658	502
262.719	-251
262.781	545
262.843	161
262.904	514
262.966	-42
263.028	1414
263.090	2431
263.151	8443
263.213	3093
263.275	-213
263.336	817
263.398	497
263.459	50
263.521	951
263.583	250
263.644	486
263.706	318
263.767	-5
263.829	452
263.891	-96
263.952	-245
264.014	298
264.075	-88
264.137	1349
264.198	1079
264.260	-478
264.321	-221
264.383	640
264.444	1977
264.506	-364
264.567	281
264.629	831
264.690	268
264.752	751
264.813	197
264.875	455
264.936	715
264.998	253
265.059	255
265.120	372
265.182	300
265.243	2785
265.305	3644
265.366	581
265.427	350
265.489	1199
265.550	-1383
265.611	417
265.673	-588
265.734	1120
265.795	-117
265.857	-588
265.918	-457
265.979	1625
266.040	7212
266.102	6159
266.163	2080
266.224	734
266.286	414
266.347	627
266.408	340
266.469	566
266.530	655
266.592	-267
266.653	1386
266.714	894
266.775	83
266.836	456
266.898	-48
266.959	854
267.020	677
267.081	1642
267.142	-240
267.203	291
267.264	541
267.326	1651
267.387	-214
267.448	271
267.509	877
267.570	127
267.631	71
267.692	-232
267.753	316
267.814	-637
267.875	606
267.936	846
267.997	82
268.058	-266
268.119	-92
268.180	-61
268.241	-160
268.302	448
268.363	-715
268.424	371
268.485	500
268.546	-647
268.607	-281
268.668	-1458
268.729	-267
268.790	-33
268.851	-234
268.912	14
268.972	-136
269.033	-528
269.094	-797
269.155	-249
269.216	-320
269.277	827
269.338	183
269.398	603
269.459	-118
269.520	268
269.581	598
269.642	47
269.702	-478
269.763	218
269.824	-296
269.885	-175
269.945	-574
270.006	737
270.067	-634
270.128	-467
270.188	-704
270.249	-526
270.310	-507
270.370	737
270.431	-415
270.492	-614
270.553	60
270.613	23
270.674	-326
270.734	-1440
270.795	-237
270.856	-334
270.916	-341
270.977	-72
271.038	976
271.098	617
271.159	-179
271.219	-142
271.280	64
271.340	-128
271.401	-1275
271.462	118
271.522	103
271.583	-329
271.643	4
271.704	372
271.764	-217
271.825	400
271.885	1987
271.946	3719
272.006	1250
272.066	2299
272.127	4094
272.187	4663
272.248	2099
272.308	744
272.369	2374
272.429	1747
272.489	735
272.550	1675
272.610	753
272.671	462
272.731	1093
272.791	799
272.852	741
272.912	621
272.972	470
273.033	788
273.093	-116
273.153	1671
273.214	523
273.274	1411
273.334	1866
273.394	4369
273.455	2249
273.515	2776
273.575	2912
273.635	3011
273.696	3131
273.756	5585
273.816	3929
273.876	3156
273.936	1494
273.997	2660
274.057	780
274.117	1787
274.177	1585
274.237	3707
274.297	2373
274.358	1662
274.418	1393
274.478	1304
274.538	-697
274.598	230
274.658	679
274.718	1127
274.778	418
274.838	633
274.898	743
274.958	1283
275.018	2419
275.078	2268
275.138	680
275.198	-190
275.258	205
275.318	494
275.378	-74
275.438	786
275.498	533
275.558	1174
275.618	1600
275.678	1472
275.738	900
275.798	732
275.858	137
275.918	-94
275.978	555
276.038	-195
276.098	772
276.157	-437
276.217	206
276.277	646
276.337	-288
276.397	428
276.457	353
276.517	818
276.576	-63
276.636	1491
276.696	300
276.756	1294
276.815	663
276.875	1021
276.935	1126
276.995	1072
277.055	776
277.114	2039
277.174	617
277.234	1063
277.293	535
277.353	1369
277.413	1150
277.472	1417
277.532	1203
277.592	2329
277.651	9221
277.711	19469
277.771	6111
277.830	18171
277.890	18573
277.950	11967
278.009	34210
278.069	16112
278.128	14212
278.188	21466
278.248	10306
278.307	22074
278.367	14661
278.426	5134
278.486	2495
278.545	2820
278.605	1694
278.664	2127
278.724	1457
278.783	2733
278.843	5030
278.902	2270
278.962	2054
279.021	2897
279.081	7224
279.140	7247
279.199	3694
279.259	4617
279.318	6119
279.378	9700
279.437	15197
279.496	41083
279.556	152600
279.615	120623
279.675	37825
279.734	19829
279.793	19487
279.853	21932
279.912	10592
279.971	8157
280.031	6743
280.090	7874
280.149	14515
280.208	24832
280.268	105321
280.327	105980
280.386	29702
280.445	14104
280.505	8245
280.564	7216
280.623	5372
280.682	4219
280.742	4594
280.801	3165
280.860	2712
280.919	1885
280.978	1984
281.037	2570
281.097	1784
281.156	3512
281.215	2289
281.274	1797
281.333	3489
281.392	3001
281.451	1454
281.510	2504
281.569	1291
281.628	1596
281.688	1650
281.747	2478
281.806	1643
281.865	1657
281.924	1000
281.983	1993
282.042	634
282.101	1356
282.160	511
282.219	1386
282.278	719
282.337	1753
282.396	523
282.454	1185
282.513	1697
282.572	2694
282.631	769
282.690	1091
282.749	1131
282.808	1550
282.867	1162
282.926	2053
282.985	1600
283.043	902
283.102	1705
283.161	1210
283.220	2220
283.279	2797
283.338	1433
283.396	1617
283.455	2396
283.514	2413
283.573	2161
283.631	3149
283.690	1705
283.749	2795
283.808	2296
283.866	2998
283.925	2328
283.984	3003
284.043	2395
284.101	2844
284.160	2745
284.219	4361
284.277	4190
284.336	4457
284.395	7000
284.453	6283
284.512	6178
284.570	7809
284.629	7789
284.688	10788
284.746	12271
284.805	16201
284.863	20158
284.922	25280
284.981	30978
285.039	40829
285.098	56571
285.156	70350
285.215	66221
285.273	57512
285.332	67011
285.390	60849
285.449	45988
285.507	34649
285.566	26052
285.624	21373
285.683	16793
285.741	13240
285.799	11079
285.858	9558
285.916	7398
285.975	6803
286.033	5140
286.091	5671
286.150	4720
286.208	5578
286.267	3249
286.325	3240
286.383	3469
286.442	3443
286.500	2814
286.558	2504
286.616	2523
286.675	3019
286.733	2772
286.791	2359
286.850	2019
286.908	1888
286.966	2694
287.024	1831
287.083	1468
287.141	2262
287.199	2170
287.257	2227
287.315	1380
287.374	1732
287.432	1635
287.490	2265
287.548	2190
287.606	1237
287.664	2633
287.723	1339
287.781	1936
287.839	2156
287.897	1618
287.955	1300
288.013	2310
288.071	5465
288.129	16182
288.187	50753
288.245	23375
288.303	8041
288.361	4626
288.419	2583
288.477	2557
288.535	2394
288.593	1410
288.651	1903
288.709	776
288.767	1396
288.825	256
288.883	1823
288.941	1744
288.999	316
289.057	1203
289.115	1860
289.173	-83
289.231	1485
289.289	482
289.346	1452
289.404	952
289.462	1534
289.520	1386
289.578	1410
289.636	741
289.694	1053
289.751	750
289.809	1127
289.867	901
289.925	1015
289.983	1286
290.040	1447
290.098	491
290.156	1026
290.214	908
290.271	1001
290.329	1186
290.387	1147
290.444	1361
290.502	1155
290.560	322
290.617	1088
290.675	1167
290.733	849
290.790	1432
290.848	1893
290.906	551
290.963	182
291.021	1206
291.078	1481
291.136	222
291.194	1194
291.251	1827
291.309	717
291.366	646
291.424	1007
291.481	1287
291.539	2059
291.596	2666
291.654	1020
291.711	646
291.769	1884
291.826	1045
291.884	1144
291.941	668
291.999	1706
292.056	730
292.114	553
292.171	1432
292.228	1707
292.286	1455
292.343	363
292.401	902
292.458	1349
292.515	1388
292.573	1216
292.630	1328
292.687	1027
292.745	824
292.802	2182
292.859	3347
292.917	3662
292.974	2251
293.031	1589
293.089	393
293.146	1399
293.203	1176
293.260	1366
293.318	1316
293.375	2356
293.432	412
293.489	2072
293.546	910
293.604	1590
293.661	3975
293.718	7151
293.775	3471
293.832	3225
293.889	5189
293.947	3990
294.004	1658
294.061	1489
294.118	1656
294.175	3973
294.232	7289
294.289	4891
294.346	2063
294.403	2637
294.460	1297
294.517	326
294.574	1475
294.631	2225
294.688	912
294.745	1399
294.802	4926
294.859	4983
294.916	1977
294.973	2000
295.030	491
295.087	989
295.144	1490
295.201	1438
295.258	691
295.315	1381
295.372	1810
295.429	2882
295.486	1866
295.542	1162
295.599	2470
295.656	4279
295.713	2254
295.770	3052
295.827	778
295.883	1205
295.940	870
295.997	619
296.054	1737
296.111	1954
296.167	1582
296.224	1657
296.281	414
296.338	1101
296.394	1074
296.451	332
296.508	1266
296.564	2570
296.621	2224
296.678	4080
296.734	5719
296.791	2637
296.848	1020
296.904	1088
296.961	1764
297.018	2211
297.074	2949
297.131	1552
297.187	1126
297.244	1714
297.301	3644
297.357	6863
297.414	2115
297.470	1707
297.527	1040
297.583	1878
297.640	1425
297.696	585
297.753	431
297.809	939
297.866	1092
297.922	727
297.979	35
298.035	-20
298.092	198
298.148	1446
298.204	1779
298.261	1190
298.317	1973
298.374	5681
298.430	2899
298.486	1516
298.543	594
298.599	1010
298.656	431
298.712	1764
298.768	3263
298.824	3574
298.881	1650
298.937	2010
298.993	1533
299.050	1747
299.106	1069
299.162	803
299.218	1720
299.275	949
299.331	1315
299.387	2414
299.443	5121
299.500	11421
299.556	8887
299.612	4379
299.668	3907
299.724	8566
299.780	11965
299.837	5488
299.893	4093
299.949	7301
300.005	10997
300.061	8226
300.117	15120
300.173	7488
300.229	3077
300.285	2342
300.341	2017
300.397	2159
300.453	1043
300.510	1857
300.566	2292
300.622	4917
300.678	12422
300.734	18977
300.790	9277
300.845	7573
300.901	8132
300.957	12996
301.013	5966
301.069	3650
301.125	2655
301.181	1675
301.237	2163
301.293	1744
301.349	1985
301.405	1830
301.461	1611
301.516	1623
301.572	1115
301.628	1085
301.684	1335
301.740	1719
301.796	2077
301.851	1367
301.907	1321
301.963	2224
302.019	3398
302.074	10720
302.130	11637
302.186	5870
302.242	2485
302.297	1177
302.353	1515
302.409	1838
302.464	1819
302.520	1810
302.576	3464
302.631	3586
302.687	2271
302.743	1705
302.798	1497
302.854	1275
302.910	1846
302.965	1293
303.021	1598
303.076	1721
303.132	812
303.187	1596
303.243	1713
303.299	1398
303.354	1043
303.410	913
303.465	1053
303.521	1313
303.576	691
303.632	1822
303.687	1778
303.743	3638
303.798	4376
303.853	1538
303.909	783
303.964	1154
304.020	1005
304.075	2027
304.130	495
304.186	1497
304.241	2979
304.297	1338
304.352	1453
304.358	1429
304.407	1234
304.449	1067
304.463	1011
304.518	1095
304.539	894
304.573	568
304.629	1455
304.630	1449
304.684	1242
304.720	2226
304.739	2712
304.794	4832
304.811	4173
304.850	2570
304.902	2025
304.905	1993
304.960	1405
304.992	1177
305.015	1000
305.071	2088
305.083	1863
305.126	1101
305.173	1242
305.181	1262
305.236	898
305.264	1422
305.292	1928
305.347	907
305.354	973
305.402	1516
305.445	1142
305.457	994
305.512	1287
305.535	1217
305.567	1167
305.622	1051
305.626	1072
305.678	1612
305.716	2525
305.733	2829
305.788	3154
305.807	2797
305.843	2342
305.897	3746
305.898	3759
305.953	4333
305.988	2727
306.008	1888
306.063	2100
306.078	1946
306.118	1565
306.168	830
306.173	768
306.228	1099
306.259	1240
306.283	1288
306.338	977
306.349	994
306.393	1038
306.440	1202
306.448	1267
306.503	1455
306.530	1426
306.558	1458
306.613	1985
306.620	2097
306.668	2454
306.711	2308
306.723	2309
306.778	2190
306.801	2198
306.833	2087
306.888	1432
306.892	1440
306.943	1663
306.982	1117
306.997	894
307.052	1060
307.072	1212
307.107	1702
307.162	1710
307.163	1710
307.217	1589
307.253	1975
307.272	2118
307.327	1918
307.343	1970
307.381	2051
307.434	1562
307.436	1574
307.491	2506
307.524	3110
307.546	3109
307.600	3452
307.614	3055
307.655	1916
307.704	1608
307.710	1622
307.765	1582
307.795	1927
307.819	2339
307.874	3252
307.885	3305
307.929	2990
307.975	3254
307.984	3482
308.038	4562
308.065	5666
308.093	10038
308.148	20680
308.156	23104
308.202	33560
308.246	41884
308.257	41159
308.312	19590
308.336	12370
308.366	8736
308.421	5569
308.426	5309
308.475	4106
308.517	4045
308.530	4050
308.585	3706
308.607	3759
308.639	3868
308.694	4078
308.697	4091
308.748	5293
308.787	6534
308.803	6516
308.857	5428
308.877	5384
308.912	6221
308.967	7176
308.967	7203
309.021	11906
309.058	15717
309.076	18166
309.130	27825
309.148	30457
309.185	46632
309.238	73570
309.239	73836
309.293	86706
309.328	85693
309.348	76277
309.402	42091
309.418	33115
309.457	25424
309.508	18888
309.511	18961
309.566	23184
309.598	26928
309.620	34712
309.674	57942
309.688	64000
309.729	60573
309.778	48804
309.783	47469
309.837	28565
309.868	19318
309.892	16364
309.946	11153
309.959	10228
310.001	9009
310.049	7894
310.055	7647
310.109	5563
310.139	4488
310.163	3985
310.218	3472
310.229	3298
310.272	2930
310.319	2739
310.326	2676
310.381	2127
310.409	1974
310.435	1942
310.489	1821
310.499	1869
310.543	2149
310.589	2089
310.598	1994
310.652	1642
310.679	1393
310.706	1453
310.760	1684
310.769	1710
310.814	1761
310.859	1992
310.868	2028
310.923	1902
310.948	1905
310.977	1942
311.031	2050
311.038	2079
311.085	1714
311.128	1224
311.139	1259
311.193	1596
311.218	1695
311.247	1774
311.301	1896
311.308	1916
311.356	1487
311.398	1223
311.410	1307
311.464	1526
311.488	1646
311.518	1554
311.572	1388
311.578	1375
311.626	1585
311.668	1746
311.680	1652
311.734	1193
311.758	1000
311.788	1067
311.842	1241
311.847	1258
311.896	1518
311.937	1790
311.950	1675
312.004	1155
312.027	941
312.058	879
312.112	785
312.117	782
312.165	1242
312.207	1651
312.297	1200
312.386	1600
312.476	1207
312.566	2023
312.656	1226
312.745	1232
312.835	1663
312.925	1436
313.015	1555
313.104	1890
313.194	1949
313.284	1311
313.374	1000
313.463	1932
313.553	1696
313.643	1684
313.732	1106
313.822	1333
313.912	2075
314.001	2870
314.091	2794
314.180	2782
314.270	2803
314.360	2127
314.449	1816
314.539	1967
314.628	1902
314.718	2707
314.808	2284
314.897	3196
314.987	3411
315.076	3507
315.166	2911
315.255	2878
315.345	3422
315.434	2529
315.524	3093
315.613	4120
315.703	5800
315.792	16779
315.881	63055
315.971	17286
316.060	5239
316.150	4155
316.239	4157
316.328	3083
316.418	2638
316.507	2900
316.597	3207
316.686	3395
316.775	2695
316.865	4274
316.954	2804
317.043	2673
317.133	1935
317.222	1969
317.311	2507
317.400	1240
317.490	3205
317.579	3780
317.668	4751
317.757	8750
317.847	29605
317.936	96028
318.025	25148
318.114	22528
318.203	8263
318.293	3768
318.382	4579
318.471	4949
318.560	4670
318.649	7665
318.738	2335
318.828	1551
318.917	2045
319.006	2178
319.095	3453
319.184	8081
319.273	3830
319.362	2585
319.451	1380
319.540	1103
319.629	1979
319.718	2989
319.807	1995
319.896	2987
319.985	9446
320.074	3213
320.163	1439
320.252	1920
320.341	1989
320.430	2028
320.519	1966
320.608	2268
320.697	2960
320.786	3815
320.875	3300
320.964	3555
321.053	3384
321.142	2894
321.230	5570
321.319	6102
321.408	7129
321.497	6265
321.586	4894
321.675	4097
321.764	4428
321.852	4104
321.941	4089
322.030	4108
322.119	4576
322.207	6292
322.296	7200
322.385	7271
322.474	9286
322.562	9789
322.651	7060
322.740	5105
322.829	4658
322.917	4841
323.006	3033
323.095	2826
323.183	2867
323.272	2894
323.361	4149
323.449	9839
323.538	3166
323.626	6300
323.715	4455
323.804	2246
323.892	5334
323.981	3052
324.069	2076
324.158	3891
324.246	3510
324.335	2019
324.424	1862
324.512	1579
324.601	1043
324.689	1775
324.778	2201
324.866	2851
324.954	1964
325.043	1254
325.131	700
325.220	3821
325.308	2597
325.397	1770
325.485	1292
325.574	1425
325.662	1426
325.750	944
325.839	2186
325.927	1635
326.015	1262
326.104	1245
326.192	1752
326.280	1617
326.369	827
326.457	1269
326.545	1002
326.634	1601
326.722	1828
326.810	2032
326.898	2065
326.987	1643
327.075	1295
327.163	2601
327.251	2003
327.340	2506
327.428	2363
327.516	2616
327.604	2178
327.692	1370
327.781	1439
327.869	1675
327.957	1380
328.045	781
328.133	1331
328.221	481
328.309	1232
328.397	1331
328.485	1561
328.574	3368
328.662	4239
328.750	1694
328.838	700
328.926	2173
329.014	1127
329.102	1750
329.190	1984
329.278	1241
329.366	758
329.454	763
329.542	1100
329.630	543
329.718	1481
329.806	1157
329.893	1206
329.981	612
330.069	674
330.157	1647
330.245	2123
330.333	1498
330.421	874
330.509	1820
330.597	1488
330.684	1803
330.772	1956
330.860	1354
330.948	1047
331.036	1596
331.123	837
331.211	842
331.299	874
331.387	2037
331.475	1687
331.562	1885
331.650	948
331.738	1381
331.825	1643
331.913	1243
332.001	971
332.089	1241
332.176	963
332.264	3040
332.352	1801
332.439	1153
332.527	816
332.614	1503
332.702	2124
332.790	2154
332.877	2734
332.965	7798
333.052	6429
333.140	8165
333.228	20040
333.315	4204
333.403	2423
333.490	3785
333.578	9099
333.665	30000
333.753	9732
333.840	3085
333.928	2788
334.015	3756
334.103	5940
334.190	11893
334.278	7482
334.365	9456
334.452	9734
334.540	5288
334.627	4927
334.715	7316
334.802	11283
334.889	24596
334.977	31133
335.064	16805
335.151	6106
335.239	4485
335.326	4096
335.413	7651
335.501	8211
335.588	4095
335.675	4785
335.762	5546
335.850	7710
335.937	11768
336.024	21651
336.111	41945
336.199	33958
336.286	13296
336.373	6325
336.460	4092
336.547	3251
336.635	3842
336.722	1775
336.809	1787
336.896	2103
336.983	4930
337.070	6970
337.157	11812
337.245	8165
337.332	5749
337.419	1822
337.506	1845
337.593	2060
337.680	4121
337.767	6313
337.854	2765
337.941	2309
338.028	2927
338.115	714
338.202	2451
338.289	3830
338.376	6244
338.463	2481
338.550	4037
338.637	3869
338.724	2230
338.811	2897
338.898	1997
338.984	1433
339.071	867
339.158	1797
339.245	2025
339.332	2648
339.419	2790
339.506	2201
339.593	331
339.679	1878
339.766	993
339.853	1852
339.940	976
340.027	985
340.113	1186
340.200	1065
340.287	1336
340.374	1142
340.460	2209
340.547	107
340.634	1401
340.720	2502
340.807	1636
340.894	1555
340.980	870
341.067	1070
341.154	2688
341.240	1039
341.327	999
341.414	1262
341.500	761
341.587	1154
341.674	2270
341.760	2233
341.847	1278
341.933	1160
342.020	184
342.106	1461
342.193	1445
342.279	2042
342.366	1214
342.452	973
342.539	1945
342.625	1091
342.712	1643
342.798	1196
342.885	736
342.971	760
343.058	1003
343.144	1379
343.230	903
343.317	1190
343.403	1052
343.490	1033
343.576	956
343.662	888
343.749	728
343.835	1640
343.921	2523
344.008	7631
344.094	14601
344.180	3558
344.267	1807
344.353	1978
344.439	2323
344.525	1059
344.612	2374
344.698	1591
344.784	49
344.870	1773
344.957	201
345.043	1347
345.129	555
345.215	1839
345.301	1135
345.387	1190
345.474	924
345.560	1102
345.646	219
345.732	1292
345.818	663
345.904	1001
345.990	1673
346.076	909
346.162	2332
346.249	901
346.335	1117
346.421	932
346.507	1412
346.593	3790
346.679	-122
346.765	2515
346.851	2532
346.937	1290
347.023	2214
347.108	1104
347.194	1386
347.280	1625
347.366	2421
347.452	6693
347.538	9311
347.624	5350
347.710	3619
347.796	1616
347.882	995
347.967	822
348.053	1199
348.139	1894
348.225	964
348.311	824
348.397	649
348.482	1375
348.568	1880
348.654	2803
348.740	8244
348.825	6826
348.911	3421
348.997	3882
349.083	5130
349.168	1043
349.254	1287
349.340	1119
349.425	1464
349.511	1213
349.597	2096
349.682	517
349.768	3169
349.854	1675
349.939	1023
350.025	883
350.110	1262
350.196	879
350.282	359
350.367	1471
350.453	1980
350.538	828
350.624	935
350.709	1998
350.795	688
350.880	398
350.966	1470
351.051	1156
351.137	1443
351.222	1045
351.308	1411
351.393	892
351.479	565
351.564	251
351.649	1204
351.735	1383
351.820	1346
351.906	310
351.991	573
352.076	1068
352.162	1702
352.247	1703
352.332	1481
352.418	1157
352.503	1396
352.588	3084
352.673	2208
352.759	1449
352.844	1140
352.929	912
353.014	265
353.100	1351
353.185	2161
353.270	881
353.355	2272
353.441	1572
353.526	630
353.611	976
353.696	1387
353.781	2014
353.866	22
353.952	1688
354.037	1266
354.122	1928
354.207	1185
354.292	911
354.377	1283
354.462	1221
354.547	1085
354.632	2253
354.717	1854
354.802	434
354.887	964
354.972	2323
355.057	1599
355.142	1144
355.227	1647
355.312	1267
355.397	1533
355.482	2522
355.567	859
355.652	1726
355.737	1726
355.822	3521
355.907	1942
355.991	1832
356.076	1303
356.161	2005
356.246	443
356.331	1942
356.416	752
356.501	7090
356.585	4783
356.670	603
356.755	3249
356.840	2563
356.924	5653
357.009	15380
357.094	5474
357.179	1038
357.263	1271
357.348	2273
357.433	1586
357.517	1933
357.602	1032
357.687	1166
357.771	1762
357.856	2660
357.941	2372
358.025	5957
358.110	22475
358.195	8459
358.279	2729
358.364	2109
358.448	3381
358.533	5471
358.617	3509
358.702	4026
358.787	2260
358.871	1647
358.956	1515
359.040	1673
359.125	1077
359.209	1939
359.294	1968
359.378	4208
359.462	2915
359.547	2186
359.631	1227
359.716	246
359.800	1372
359.885	1995
359.969	395
360.053	1759
360.138	1198
360.222	1290
360.306	1642
360.391	1436
360.475	2004
360.559	2551
360.644	2591
360.728	902
360.812	4991
360.896	8697
360.981	2968
361.065	1860
361.149	2851
361.233	1059
361.318	440
361.402	1312
361.486	2719
361.570	1059
361.654	1690
361.739	2132
361.823	7043
361.907	10337
361.991	3057
362.075	3569
362.159	4081
362.243	9236
362.327	23598
362.411	37255
362.495	12667
362.580	5668
362.664	5122
362.748	5328
362.832	10098
362.916	20621
363.000	65868
363.084	94377
363.168	36820
363.252	9887
363.336	6336
363.420	6051
363.503	10068
363.587	9447
363.671	4508
363.755	3171
363.839	4365
363.923	3248
364.007	5008
364.091	7491
364.175	13519
364.258	38102
364.342	77357
364.426	141370
364.510	68529
364.594	18993
364.677	9490
364.761	10979
364.845	7446
364.929	3165
365.013	3027
365.096	3245
365.180	2841
365.264	5815
365.347	15001
365.431	5347
365.515	1363
365.598	603
365.682	2750
365.766	1206
365.849	2207
365.933	1784
366.017	3051
366.100	954
366.184	1252
366.267	2657
366.351	1947
366.435	1380
366.518	1360
366.602	1722
366.685	2123
366.769	953
366.852	1858
366.936	1743
367.019	1720
367.103	1478
367.186	3362
367.270	1300
367.353	842
367.436	2752
367.520	1693
367.603	2017
367.687	1506
367.770	1480
367.853	2339
367.937	4371
368.020	4014
368.104	550
368.187	2497
368.270	1272
368.353	1095
368.437	1855
368.520	4699
368.603	2347
368.687	1932
368.770	3432
368.853	1305
368.936	2424
369.020	2435
369.103	1500
369.186	956
369.269	786
369.352	1899
369.436	293
369.519	2432
369.602	-419
369.685	3548
369.768	897
369.851	2258
369.934	743
370.018	1608
370.101	616
370.184	3901
370.267	1906
370.350	2117
370.433	2500
370.516	12753
370.599	32589
370.682	11772
370.765	4828
370.848	4757
370.931	4249
371.014	4154
371.097	303
371.180	3269
371.263	2757
371.346	246
371.429	2614
371.511	1431
371.594	2497
371.677	3585
371.760	4607
371.843	3777
371.926	10514
372.009	20242
372.091	10882
372.174	4761
372.257	7925
372.340	5345
372.423	5476
372.505	5540
372.588	3061
372.671	3664
372.754	4793
372.836	4474
372.919	6320
373.002	7974
373.085	3079
373.167	3871
373.250	4347
373.332	7032
373.415	12811
373.498	23863
373.580	16340
373.663	51018
373.746	44655
373.828	7315
373.911	4495
373.993	3225
374.076	8013
374.159	5603
374.241	3057
374.324	4903
374.406	4854
374.489	7008
374.571	15373
374.654	5969
374.736	4208
374.819	9119
374.901	16381
374.983	15519
375.066	5643
375.148	3985
375.231	7776
375.313	11982
375.395	4796
375.478	3921
375.560	4122
375.643	4091
375.725	5381
375.807	11578
375.890	10780
375.972	3828
376.054	4194
376.136	4234
376.219	2387
376.301	5305
376.383	7372
376.465	4239
376.548	1754
376.630	3482
376.712	7006
376.794	3361
376.877	1874
376.959	1792
377.041	2439
377.123	2263
377.205	2499
377.287	1659
377.369	2480
377.452	1427
377.534	2750
377.616	1936
377.698	1593
377.780	1593
377.862	1312
377.944	2692
378.026	1157
378.108	2377
378.190	1732
378.272	2244
378.354	2061
378.436	1374
378.518	1245
378.600	2227
378.682	2318
378.764	2436
378.846	3316
378.928	1979
379.010	1299
379.091	2374
379.173	2305
379.255	950
379.337	2133
379.419	2392
379.501	4728
379.583	2029
379.664	2104
379.746	1587
379.828	4332
379.910	3029
379.991	4142
380.073	1539
380.155	1576
380.237	2314
380.318	2015
380.400	1940
380.482	3502
380.564	2295
380.645	2591
380.727	3005
380.809	3833
380.890	1846
380.972	1106
381.053	2827
381.135	3645
381.217	2425
381.298	6002
381.380	2650
381.461	4186
381.543	8419
381.624	8813
381.706	4381
381.787	3809
381.869	4651
381.951	7811
382.032	18770
382.113	13896
382.195	4716
382.276	7434
382.358	6668
382.439	10771
382.521	16005
382.602	21662
382.684	17803
382.765	32145
382.846	96322
382.928	207917
383.009	111379
383.090	91321
383.172	259891
383.253	317511
383.334	100859
383.416	40711
383.497	30455
383.578	36430
383.659	77446
383.741	225586
383.822	415977
383.903	212883
383.984	56641
384.066	30524
384.147	18142
384.228	12677
384.309	11023
384.390	9386
384.471	8458
384.553	7726
384.634	7056
384.715	7694
384.796	6830
384.877	6433
384.958	9270
385.039	6710
385.120	6602
385.201	5890
385.282	5820
385.363	8147
385.444	8229
385.525	8267
385.606	9875
385.687	8759
385.768	6733
385.849	5393
385.930	12727
386.011	17606
386.092	7339
386.173	6184
386.254	5015
386.335	4945
386.416	3988
386.496	4418
386.577	5042
386.658	5211
386.739	4302
386.820	5282
386.901	4253
386.981	5538
387.062	6862
387.143	7885
387.224	8199
387.304	8805
387.385	7478
387.466	4758
387.547	8464
387.627	6644
387.708	8634
387.789	10755
387.869	8932
387.950	6729
388.031	5459
388.111	3462
388.192	8022
388.273	8397
388.353	6359
388.434	4063
388.514	3488
388.595	7418
388.676	7396
388.756	4540
388.837	4472
388.917	4092
388.998	843
389.078	3697
389.159	3217
389.239	1397
389.320	3923
389.400	708
389.480	3998
389.561	3561
389.641	4056
389.722	2793
389.802	2780
389.883	3922
389.963	5315
390.043	3278
390.124	2205
390.204	2893
390.284	3235
390.365	3205
390.445	6765
390.525	13804
390.605	11162
390.686	2812
390.766	3581
390.846	3727
390.927	1859
391.007	1662
391.087	4114
391.167	2779
391.247	1815
391.328	4040
391.408	4790
391.488	3645
391.568	2489
391.648	3332
391.728	4464
391.808	4716
391.888	3483
391.969	5464
392.049	5837
392.129	6136
392.209	7210
392.289	9645
392.369	7937
392.449	9203
392.529	8435
392.609	10019
392.689	12331
392.769	15401
392.849	18007
392.929	24920
393.009	35377
393.089	51544
393.169	101219
393.248	256162
393.328	548755
393.408	524428
393.488	227437
393.568	86481
393.648	45281
393.728	27764
393.807	19077
393.887	16399
393.967	13368
394.047	10516
394.127	8947
394.206	10719
394.286	22292
394.366	86676
394.446	79042
394.525	17268
394.605	7366
394.685	7111
394.764	9156
394.844	14931
394.924	14401
395.003	6351
395.083	5483
395.163	5109
395.242	4509
395.322	4180
395.402	3243
395.481	5261
395.561	6890
395.640	22230
395.720	34598
395.799	18813
395.879	11086
395.958	9597
396.038	29276
396.117	108707
396.197	103951
396.276	26088
396.356	13640
396.435	15713
396.515	21748
396.594	34137
396.673	78732
396.753	238929
396.832	487986
396.912	337906
396.991	102838
397.070	39897
397.150	22226
397.229	19260
397.308	33070
397.388	50981
397.467	21913
397.546	9149
397.625	5202
397.705	6659
397.784	4277
397.863	4717
397.942	4402
398.022	4224
398.101	4935
398.180	9130
398.259	5230
398.338	4529
398.417	2309
398.497	3127
398.576	3465
398.655	1396
398.734	2263
398.813	2583
398.892	4802
398.971	8538
399.050	3609
399.129	751
399.208	1999
399.287	2155
399.366	905
399.445	1154
399.524	1456
399.603	167
399.682	1477
399.761	3213
399.840	9274
399.919	6458
399.998	1904
400.077	824
400.156	37
400.235	3695
400.313	762
400.392	397
400.471	2488
400.550	2716
400.629	608
400.708	1267
400.786	972
400.865	1597
400.944	899
401.023	3206
401.102	516
401.180	1405
401.259	917
401.338	1084
401.416	945
401.495	-111
401.574	1401
401.652	131
401.731	1657
401.810	-1006
401.888	863
401.967	573
402.046	1146
402.124	1336
402.203	575
402.281	1576
402.360	815
402.438	2291
402.517	104
402.596	1273
402.674	424
402.753	1572
402.831	1061
402.910	578
402.988	755
403.066	3480
403.145	2840
403.223	3164
403.302	1897
403.380	2226
403.459	2406
403.537	1763
403.615	1098
403.694	410
403.772	1710
403.850	871
403.929	470
404.007	316
404.085	2475
404.164	1254
404.242	666
404.320	3052
404.398	7825
404.477	4636
404.555	9392
404.633	7756
404.711	5369
404.789	2491
404.868	506
404.946	283
405.024	1325
405.102	656
405.180	272
405.258	-518
405.336	1710
405.415	56
405.493	1727
405.571	1175
405.649	166
405.727	-250
405.805	2474
405.883	1890
405.961	1852
406.039	741
406.117	447
406.195	952
406.273	242
406.351	4865
406.429	4193
406.507	757
406.585	256
406.663	930
406.740	472
406.818	-672
406.896	479
406.974	1111
407.052	-300
407.130	3716
407.208	3815
407.285	1353
407.363	328
407.441	607
407.519	459
407.596	782
407.674	1944
407.752	5581
407.830	3889
407.907	1198
407.985	419
408.063	402
408.141	273
408.218	1117
408.296	-611
408.373	-403
408.451	1529
408.529	1064
408.606	-307
408.684	865
408.762	1194
408.839	1321
408.917	1680
408.994	1635
409.072	438
409.149	2218
409.227	6088
409.304	8242
409.382	10057
409.459	10112
409.537	14527
409.614	11458
409.692	7936
409.769	8881
409.846	14521
409.924	17800
410.001	9415
410.079	6634
410.156	5172
410.233	3313
410.311	2462
410.388	1904
410.465	2796
410.543	1492
410.620	2271
410.697	2189
410.775	1673
410.852	1492
410.929	2351
411.006	3866
411.083	2397
411.161	2276
411.238	1871
411.315	1897
411.392	1370
411.469	1960
411.547	1101
411.624	-346
411.701	1112
411.778	1061
411.855	1290
411.932	612
412.009	1202
412.086	948
412.163	767
412.240	728
412.317	919
412.394	39
412.471	1601
412.548	-51
412.625	442
412.702	-21
412.779	637
412.856	593
412.933	841
413.010	1056
413.087	632
413.164	-171
413.241	1644
413.318	-184
413.395	1432
413.471	642
413.548	808
413.625	1378
413.702	-277
413.779	-122
413.855	113
413.932	-214
414.009	-65
414.086	576
414.162	41
414.239	466
414.316	165
414.393	1830
414.469	-358
414.546	527
414.623	72
414.699	225
414.776	-71
414.853	44
414.929	-36
415.006	-206
415.082	513
415.159	-50
415.236	238
415.312	764
415.389	557
415.465	-522
415.542	417
415.618	-489
415.695	355
415.771	-311
415.848	-245
415.924	767
416.000	209
416.077	381
416.153	-1084
416.230	-1280
416.306	100
416.383	-373
416.459	104
416.535	178
416.612	407
416.688	1025
416.764	93
416.841	-126
416.917	346
416.993	1413
417.069	355
417.146	150
417.222	471
417.298	354
417.374	-169
417.451	64
417.527	-662
417.603	-444
417.679	-110
417.755	-42
417.831	-511
417.908	361
417.984	-279
418.060	-137
418.136	-290
418.212	230
418.288	-124
418.364	665
418.440	-551
418.516	203
418.592	777
418.668	118
418.744	-329
418.820	-232
418.896	472
418.972	37
419.048	-199
419.124	1523
419.200	-494
419.276	209
419.352	-206
419.428	-88
419.504	-147
419.579	539
419.655	-389
419.731	236
419.807	703
419.883	5
419.959	813
420.034	265
420.110	-299
420.186	1447
420.262	1402
420.337	327
420.413	800
420.489	605
420.565	1500
420.640	1250
420.716	1411
420.792	111
420.867	2165
420.943	712
421.019	1919
421.094	2334
421.170	2362
421.245	2233
421.321	3125
421.397	2557
421.472	5182
421.548	6196
421.623	5977
421.699	4676
421.774	5324
421.850	6278
421.925	8057
422.001	9582
422.076	11143
422.152	14827
422.227	19215
422.302	29298
422.378	46614
422.453	78397
422.529	138323
422.604	195341
422.679	183860
422.755	195205
422.830	136840
422.905	76424
422.981	46657
423.056	31789
423.131	23457
423.207	17613
423.282	12544
423.357	10408
423.432	8932
423.508	7659
423.583	7235
423.658	5954
423.733	5267
423.808	4186
423.883	5217
423.959	5197
424.034	6677
424.109	5998
424.184	3401
424.259	3135
424.334	3353
424.409	1976
424.484	1905
424.559	1220
424.634	1282
424.709	1399
424.784	1629
424.859	824
424.934	715
425.009	1883
425.084	2255
425.159	461
425.234	1345
425.309	738
425.384	1498
425.459	129
425.534	451
425.609	-114
425.683	529
425.758	85
425.833	624
425.908	988
425.983	631
426.058	2473
426.132	904
426.207	549
426.282	1472
426.357	-418
426.431	515
426.506	1190
426.581	1066
426.655	374
426.730	-207
426.805	-158
426.879	972
426.954	-69
427.029	553
427.103	1694
427.178	3207
427.253	1486
427.327	374
427.402	814
427.476	798
427.551	583
427.625	378
427.700	601
427.774	228
427.849	366
427.923	387
427.998	22
428.072	908
428.147	4118
428.221	25410
428.296	72753
428.370	34101
428.444	3478
428.519	1264
428.593	2000
428.667	1499
428.742	1676
428.816	8512
428.890	46523
428.965	62622
429.039	13375
429.113	2064
429.188	1003
429.262	932
429.336	833
429.410	1123
429.485	734
429.559	1294
429.633	798
429.707	1542
429.781	7861
429.855	44644
429.930	56503
430.004	14291
430.078	11580
430.152	30029
430.226	97017
430.300	85201
430.374	15244
430.448	4854
430.522	4444
430.596	7792
430.670	14963
430.744	57477
430.818	54149
430.892	8993
430.966	1295
431.040	568
431.114	-452
431.188	-23
431.262	-797
431.336	-518
431.410	735
431.484	422
431.557	655
431.631	346
431.705	2814
431.779	19564
431.853	71672
431.927	41025
432.000	4523
432.074	377
432.148	-11
432.222	-444
432.295	-119
432.369	-765
432.443	-993
432.516	1118
432.590	2980
432.664	979
432.737	-603
432.811	-1590
432.885	-83
432.958	48
433.032	-850
433.106	-439
433.179	-239
433.253	-341
433.326	-546
433.400	-281
433.473	-554
433.547	-1145
433.620	-789
433.694	-1331
433.767	-70
433.841	-1069
433.914	-1292
433.988	-752
434.061	419
434.134	-415
434.208	-511
434.281	-1290
434.355	-29
434.428	-558
434.501	-928
434.575	-1077
434.648	-804
434.721	-736
434.795	-381
434.868	-735
434.941	-579
435.014	30
435.088	229
435.161	1253
435.234	2946
435.307	2335
435.381	2205
435.454	3970
435.527	7681
435.600	7584
435.673	5508
435.746	3455
435.819	2011
435.892	1587
435.966	952
436.039	-693
436.112	1010
436.185	-124
436.258	-648
436.331	-1390
436.404	-512
436.477	-887
436.550	-1033
436.623	-327
436.696	-182
436.769	-780
436.842	-768
436.915	-1082
436.987	-482
437.060	-498
437.133	-810
437.206	-709
437.279	-452
437.352	-372
437.425	-991
437.498	-255
437.570	-301
437.643	-1268
437.716	-671
437.789	-720
437.861	93
437.934	-494
438.007	-312
438.080	-1235
438.152	-543
438.225	-153
438.298	2225
438.370	6295
438.443	1855
438.516	-1298
438.588	-938
438.661	-686
438.734	-826
438.806	-705
438.879	-372
438.951	-1054
439.024	-562
439.096	-1241
439.169	-707
439.241	-249
439.314	-858
439.386	-1205
439.459	-3
439.531	-321
439.604	-924
439.676	92
439.749	-1283
439.821	-335
439.893	-330
439.966	-254
440.038	-972
440.110	-245
440.183	-1005
440.255	-733
440.327	-106
440.400	315
440.472	2546
440.544	422
440.617	-19
440.689	75
440.761	249
440.833	-227
440.905	-469
440.978	-1496
441.050	-1104
441.122	127
441.194	-413
441.266	-981
441.338	-588
441.411	257
441.483	626
441.555	597
441.627	-311
441.699	337
441.771	-571
441.843	21
441.915	289
441.987	-482
442.059	-95
442.131	-188
442.203	908
442.275	1467
442.347	4005
442.419	9966
442.491	56234
442.563	106931
442.635	36799
442.706	6612
442.778	2291
442.850	1463
442.922	685
442.994	828
443.066	975
443.137	2191
443.209	2840
443.281	6739
443.353	16244
443.425	63568
443.496	175678
443.568	170031
443.640	60970
443.711	12461
443.783	4380
443.855	2144
443.926	747
443.998	424
444.070	943
444.141	368
444.213	363
444.285	1118
444.356	346
444.428	-162
444.499	71
444.571	-109
444.642	180
444.714	106
444.785	962
444.857	332
444.928	1087
445.000	1500
445.071	2343
445.143	2563
445.214	5824
445.285	11435
445.357	32717
445.428	116808
445.500	208914
445.571	151902
445.642	92797
445.714	26253
445.785	8203
445.856	3113
445.928	1948
445.999	1401
446.070	447
446.141	579
446.213	362
446.284	87
446.355	-51
446.426	82
446.497	157
446.569	-754
446.640	-71
446.711	364
446.782	-660
446.853	-166
446.924	-572
446.995	-632
447.066	-625
447.138	-487
447.209	-669
447.280	-955
447.351	-899
447.422	-1824
447.493	-1011
447.564	-740
447.635	-1112
447.706	-1155
447.777	-577
447.847	-490
447.918	-1820
447.989	-486
448.060	-1326
448.131	305
448.202	-839
448.273	-845
448.344	-756
448.414	-1063
448.485	-722
448.556	-632
448.627	-1561
448.698	125
448.768	-717
448.839	-1210
448.910	-1666
448.981	-809
449.051	-834
449.122	-967
449.193	-936
449.263	-1160
449.334	-943
449.405	28
449.475	-1211
449.546	-627
449.616	-56
449.687	-305
449.758	-1269
449.828	-1415
449.899	-2157
449.969	-1392
450.040	-1089
450.110	-1172
450.181	-1222
450.251	-1257
450.322	-1421
450.392	-953
450.463	93
450.533	-578
450.604	-1322
450.674	-1085
450.744	-749
450.815	-476
450.885	-606
450.955	-200
451.026	-315
451.096	-574
451.166	-1182
451.237	244
451.307	390
451.377	-497
451.447	-1350
451.518	-1895
451.588	-1154
451.658	-959
451.728	-704
451.799	-484
451.869	-287
451.939	-983
452.009	-1310
452.079	-1503
452.149	-915
452.219	-792
452.289	285
452.360	646
452.430	-1027
452.500	-437
452.570	1479
452.640	5756
452.710	14930
452.780	14325
452.850	4900
452.920	1401
452.990	1024
453.060	709
453.129	-649
453.199	-1281
453.269	1125
453.339	1953
453.409	2790
453.479	3241
453.549	5422
453.619	3752
453.688	158
453.758	-474
453.828	-1294
453.898	-357
453.968	-1047
454.037	-806
454.087	-1357
454.107	-1597
454.168	-1605
454.177	-1622
454.247	-971
454.249	-970
454.316	-1429
454.330	-1359
454.386	-1117
454.411	-1017
454.456	-980
454.492	-618
454.525	-292
454.574	-555
454.595	-707
454.655	-1066
454.665	-1131
454.734	-402
454.736	-382
454.804	-542
454.817	-394
454.873	86
454.898	-72
454.943	-412
454.979	-424
455.013	-474
455.060	-760
455.082	-859
455.141	-669
455.152	-672
455.221	645
455.222	672
455.291	1382
455.303	1534
455.360	1869
455.384	3218
455.430	5234
455.465	3219
455.499	1323
455.546	658
455.569	338
455.627	312
455.638	331
455.707	-367
455.708	-349
455.777	-277
455.789	-302
455.846	-375
455.869	-360
455.916	-445
455.950	-500
455.985	-490
456.031	-590
456.054	-750
456.112	-282
456.124	-160
456.193	-154
456.193	-171
456.262	-138
456.274	-101
456.332	185
456.355	94
456.401	-218
456.436	-149
456.470	-113
456.516	-86
456.540	-69
456.597	71
456.609	103
456.678	490
456.678	472
456.747	55
456.759	36
456.817	362
456.840	418
456.886	290
456.920	349
456.955	386
457.001	553
457.024	637
457.082	599
457.093	557
457.162	1204
457.163	1221
457.232	430
457.243	459
457.301	887
457.324	997
457.370	900
457.405	952
457.439	1121
457.485	1484
457.508	1692
457.566	1835
457.577	1975
457.646	3562
457.647	3607
457.715	10879
457.727	12624
457.784	24368
457.808	32249
457.853	40658
457.889	44628
457.922	40537
457.969	24818
457.991	26003
458.050	36967
458.060	39105
458.129	68323
458.130	69116
458.198	60616
458.211	53827
458.267	25900
458.292	16684
458.336	11692
458.372	10858
458.405	16781
458.453	28292
458.474	37390
458.533	69108
458.543	71256
458.611	105946
458.614	106298
458.680	54318
458.694	40918
458.749	16609
458.775	10976
458.818	7095
458.855	5650
458.887	4707
458.936	3670
458.955	3458
459.016	2754
459.024	2720
459.093	3329
459.097	3357
459.162	2445
459.177	2204
459.230	2030
459.257	2172
459.299	2499
459.338	2429
459.368	2129
459.418	2292
459.437	2352
459.499	1870
459.505	1837
459.574	2350
459.579	2357
459.643	2087
459.659	2010
459.711	2140
459.740	2127
459.780	1505
459.820	1432
459.849	1872
459.900	2018
459.917	1923
459.981	2430
459.986	2469
460.054	2581
460.061	2592
460.123	2331
460.141	2275
460.191	2512
460.222	2749
460.260	2713
460.302	2563
460.328	2691
460.382	2721
460.397	2557
460.462	2148
460.465	2188
460.534	3774
460.543	3941
460.602	7995
460.623	9514
460.671	13729
460.703	17401
460.739	15691
460.783	12022
460.808	9738
460.864	2954
460.876	2505
460.944	2183
460.945	2177
461.013	2157
461.024	2086
461.081	2257
461.104	2553
461.150	2692
461.184	2590
461.218	2718
461.264	2754
461.286	2580
461.345	2472
461.355	2549
461.423	3114
461.425	3115
461.491	2443
461.505	2483
461.559	3234
461.585	3447
461.628	3815
461.665	4153
461.696	4068
461.745	4031
461.764	3875
461.825	2797
461.832	2800
461.901	3268
461.905	3281
461.969	2416
461.985	2290
462.037	2738
462.065	2917
462.105	2789
462.145	2741
462.173	2956
462.225	3207
462.241	3210
462.305	3373
462.310	3382
462.378	3306
462.385	3334
462.446	2984
462.465	2761
462.514	3009
462.545	3425
462.582	3612
462.625	3362
462.650	2911
462.705	2167
462.718	2394
462.785	3702
462.786	3699
462.854	3268
462.865	3167
462.922	3464
462.945	3747
462.990	3449
463.025	2959
463.058	2641
463.104	2346
463.126	2444
463.184	2648
463.194	2709
463.262	3225
463.264	3236
463.330	3268
463.344	3310
463.398	3977
463.424	4148
463.466	3053
463.504	2418
463.533	2889
463.583	2961
463.601	2833
463.663	3051
463.669	3125
463.737	3728
463.743	3772
463.805	3898
463.823	3922
463.873	4410
463.903	4931
463.940	5309
463.982	5230
464.008	4738
464.062	4042
464.076	3966
464.142	3471
464.144	3476
464.211	3151
464.221	3202
464.279	3365
464.301	3190
464.347	3296
464.381	3480
464.414	3422
464.461	3626
464.482	3947
464.540	4313
464.550	4261
464.617	4001
464.620	3981
464.685	3938
464.699	3979
464.753	4190
464.779	4257
464.820	4624
464.859	4836
464.888	4582
464.938	4309
464.956	4588
465.018	5262
465.023	5227
465.091	5044
465.098	4981
465.158	4515
465.177	4396
465.226	4320
465.257	4250
465.293	4478
465.336	4697
465.361	4742
465.416	4907
465.428	4966
465.495	5188
465.496	5202
465.563	5690
465.575	5791
465.631	6340
465.654	6557
465.698	5999
465.734	5432
465.765	5208
465.813	4813
465.833	4745
465.893	4584
465.900	4595
465.968	4663
465.972	4649
466.035	4182
466.052	4070
466.102	4628
466.131	4877
466.170	4447
466.210	4024
466.237	4331
466.290	4894
466.304	4920
466.369	4832
466.372	4821
466.439	4356
466.449	4246
466.506	4852
466.528	5084
466.573	5092
466.607	5092
466.641	6367
466.687	8103
466.708	8154
466.766	8240
466.775	8012
466.842	6155
466.845	6052
466.909	5532
466.925	5388
466.977	5444
467.004	5465
467.044	5596
467.083	5713
467.111	6019
467.163	6540
467.178	6444
467.242	5979
467.245	6014
467.312	6476
467.321	6525
467.379	6220
467.400	6090
467.446	6353
467.480	6522
467.559	6318
467.638	5711
467.717	5980
467.796	6400
467.875	6572
467.955	6826
468.034	7932
468.113	10837
468.192	14243
468.271	11430
468.350	16228
468.429	23022
468.508	24203
468.588	16242
468.667	10373
468.746	7593
468.825	7093
468.904	6130
468.983	6331
469.062	7494
469.141	8068
469.220	6240
469.299	5838
469.378	6059
469.456	7646
469.535	7099
469.614	6491
469.693	6923
469.772	7064
469.851	8026
469.930	7767
470.009	6943
470.088	9601
470.166	12042
470.245	21499
470.324	28167
470.403	18935
470.482	10917
470.560	8513
470.639	6836
470.718	7276
470.797	6704
470.875	5998
470.954	6426
471.033	6230
471.111	5358
471.190	5802
471.269	5446
471.347	5372
471.426	6048
471.505	6711
471.583	5616
471.662	6658
471.740	6260
471.819	7205
471.898	6046
471.976	7266
472.055	5491
472.133	6213
472.212	6377
472.290	5388
472.369	5944
472.447	6039
472.526	5396
472.604	7362
472.683	6041
472.761	5178
472.839	5731
472.918	7028
472.996	5263
473.075	6542
473.153	6235
473.231	6207
473.310	6527
473.388	6368
473.466	6586
473.545	5739
473.623	6353
473.701	6000
473.780	6749
473.858	4909
473.936	6990
474.014	5923
474.093	6288
474.171	6280
474.249	6839
474.327	6404
474.405	5117
474.484	6248
474.562	6130
474.640	6105
474.718	5326
474.796	5629
474.874	6156
474.952	5660
475.030	5044
475.108	5737
475.187	5294
475.265	5772
475.343	6676
475.421	6496
475.499	6161
475.577	5924
475.655	6803
475.733	7476
475.811	8608
475.889	7996
475.966	7431
476.044	6304
476.122	5500
476.200	5867
476.278	4387
476.356	4462
476.434	5543
476.512	6117
476.590	6496
476.667	5890
476.745	5418
476.823	5847
476.901	5749
476.979	6280
477.056	4830
477.134	6252
477.212	5846
477.290	5408
477.367	5310
477.445	5633
477.523	4947
477.601	5439
477.678	5000
477.756	4874
477.834	5861
477.911	5276
477.989	6900
478.066	5622
478.144	5391
478.222	5910
478.299	5781
478.377	6563
478.454	5112
478.532	6009
478.609	5642
478.687	5388
478.764	5108
478.842	6579
478.919	5075
478.997	5254
479.074	5207
479.152	5561
479.229	5340
479.307	5587
479.384	5596
479.461	5373
479.539	4457
479.616	5704
479.694	4803
479.771	4699
479.848	4690
479.926	4224
480.003	6962
480.080	6084
480.157	5229
480.235	4666
480.312	5516
480.389	5862
480.467	6366
480.544	7399
480.621	6510
480.698	7864
480.775	6703
480.853	5492
480.930	5677
481.007	5758
481.084	6000
481.161	5803
481.238	6025
481.315	5022
481.392	4775
481.470	5808
481.547	5537
481.624	5509
481.701	5386
481.778	5462
481.855	5146
481.932	7788
482.009	7611
482.086	8291
482.163	7219
482.240	9021
482.317	9495
482.393	8334
482.470	7445
482.547	7286
482.624	6018
482.701	5785
482.778	6221
482.855	6186
482.932	6148
483.009	7088
483.085	7905
483.162	8557
483.239	9688
483.316	8926
483.393	9971
483.469	8141
483.546	6930
483.623	7784
483.699	6200
483.776	4997
483.853	5950
483.930	7020
484.006	8133
484.083	11439
484.160	9923
484.236	12733
484.313	10577
484.389	9916
484.466	10582
484.543	11668
484.619	14508
484.696	17171
484.772	11946
484.849	10773
484.925	8033
485.002	8405
485.078	8671
485.155	7979
485.231	7493
485.308	6605
485.384	7084
485.461	8007
485.537	8479
485.614	10412
485.690	6461
485.766	6901
485.843	6832
485.919	8340
485.995	7609
486.072	7877
486.148	6468
486.224	7215
486.301	6355
486.377	7557
486.453	6213
486.530	7903
486.606	9571
486.682	8873
486.758	8745
486.835	9888
486.911	8371
486.987	11244
487.063	10644
487.139	11040
487.215	10893
487.292	12708
487.368	13383
487.444	17360
487.520	23747
487.596	32797
487.672	74185
487.748	246181
487.824	383079
487.900	127446
487.976	31691
488.052	18359
488.128	14011
488.204	10124
488.280	10845
488.356	9784
488.432	10703
488.508	12225
488.584	7857
488.660	7433
488.736	7247
488.812	6663
488.888	7218
488.964	5918
489.039	8244
489.115	9063
489.191	8760
489.267	6424
489.343	6380
489.418	6280
489.494	6425
489.570	5605
489.646	8595
489.722	7344
489.797	6970
489.873	7349
489.949	10919
490.024	9721
490.100	6898
490.176	6784
490.251	6596
490.327	7326
490.403	6909
490.478	7418
490.554	6062
490.629	6367
490.705	6820
490.781	5997
490.856	6463
490.932	7182
491.007	6520
491.083	5888
491.158	6728
491.234	6853
491.309	8372
491.385	7127
491.460	5848
491.536	6948
491.611	5950
491.686	6381
491.762	6338
491.837	6995
491.913	7820
491.988	9358
492.063	9054
492.139	7968
492.214	6425
492.289	6494
492.365	5769
492.440	6563
492.515	6597
492.590	5750
492.666	5548
492.741	6975
492.816	5743
492.891	6095
492.967	6373
493.042	6553
493.117	4878
493.192	7038
493.267	7918
493.342	16921
493.418	22413
493.493	7725
493.568	5802
493.643	5646
493.718	5846
493.793	6176
493.868	6576
493.943	6332
494.018	6218
494.093	5854
494.168	7400
494.243	6199
494.318	6520
494.393	6152
494.468	5626
494.543	6563
494.618	6277
494.693	6062
494.768	6586
494.842	6297
494.917	7622
494.992	6817
495.067	6678
495.142	6351
495.217	5884
495.292	6791
495.366	6012
495.441	5908
495.516	8141
495.591	6476
495.665	8093
495.740	12200
495.815	9673
495.890	6723
495.964	5351
496.039	9260
496.114	7648
496.188	8891
496.263	8010
496.338	7538
496.412	6544
496.487	7554
496.561	7201
496.636	6827
496.710	7336
496.785	7919
496.860	7804
496.934	6599
497.009	7460
497.083	6974
497.158	7525
497.232	8262
497.307	9470
497.381	9921
497.455	8602
497.530	7650
497.604	6540
497.679	6899
497.753	7242
497.827	8396
497.902	7263
497.976	9348
498.050	14762
498.125	44806
498.199	45720
498.273	9907
498.348	8165
498.422	9540
498.496	10134
498.570	12143
498.645	7446
498.719	5598
498.793	7313
498.867	8290
498.941	8165
499.016	18536
499.090	45075
499.164	20964
499.238	8016
499.312	8309
499.386	8107
499.460	9894
499.534	10353
499.609	12778
499.683	9975
499.757	7155
499.831	9197
499.905	29665
499.979	29774
500.053	7856
500.127	7346
500.201	6820
500.275	7853
500.349	8264
500.422	9265
500.496	10214
500.570	12802
500.644	24017
500.718	35956
500.792	10783
500.866	5687
500.940	5870
501.013	5612
501.087	5070
501.161	5221
501.235	4541
501.309	11296
501.382	22686
501.456	22370
501.530	7156
501.603	9412
501.677	6153
501.751	2922
501.825	5672
501.898	6004
501.972	11440
502.046	8266
502.119	3949
502.193	6189
502.266	11178
502.340	7369
502.413	7593
502.487	10531
502.561	6166
502.634	5172
502.708	5207
502.781	3264
502.855	5241
502.928	3567
503.002	4841
503.075	3490
503.149	4090
503.222	4899
503.295	4303
503.369	5839
503.442	6356
503.516	9742
503.589	18694
503.662	15211
503.736	11345
503.809	16786
503.882	18162
503.956	27669
504.029	50038
504.102	135812
504.175	210685
504.249	79012
504.322	26818
504.395	13977
504.468	9601
504.542	7673
504.615	6343
504.688	6024
504.761	3817
504.834	5357
504.907	3597
504.980	4842
505.053	4057
505.127	1632
505.200	6481
505.273	4302
505.346	3741
505.419	3119
505.492	4703
505.565	3279
505.638	4240
505.711	2443
505.784	3374
505.857	2609
505.930	4740
506.003	2115
506.076	4905
506.149	2274
506.221	2318
506.294	5118
506.367	3428
506.440	12339
506.513	8927
506.586	4892
506.659	2446
506.731	3132
506.804	2375
506.877	2108
506.950	3389
507.022	4295
507.095	2311
507.168	2661
507.241	4683
507.313	2471
507.386	1391
507.459	3360
507.531	3195
507.604	2720
507.677	4120
507.749	1685
507.822	4687
507.894	4028
507.967	5572
508.040	3424
508.112	4537
508.185	5023
508.257	2307
508.330	5578
508.402	3819
508.475	2905
508.547	4345
508.620	3911
508.692	4197
508.765	4275
508.837	3170
508.909	3135
508.982	2712
509.054	4028
509.127	2914
509.199	3068
509.271	2388
509.344	2417
509.416	3589
509.488	2955
509.560	4715
509.633	4038
509.705	2731
509.777	3380
509.849	4423
509.922	2124
509.994	4528
510.066	3781
510.138	2333
510.210	7321
510.283	3860
510.355	4803
510.427	4111
510.499	3617
510.571	3779
510.643	2757
510.715	4699
510.787	2149
510.859	5010
510.931	3280
511.003	4183
511.076	4870
511.148	3544
511.219	2410
511.291	5194
511.363	4872
511.435	3979
511.507	3018
511.579	5010
511.651	5157
511.723	3483
511.795	3266
511.867	3915
511.939	3693
512.010	2992
512.082	4940
512.154	3190
512.226	3081
512.298	4934
512.369	4225
512.441	4861
512.513	4202
512.585	2832
512.656	3891
512.728	3270
512.800	3278
512.871	5034
512.943	3949
513.015	2207
513.086	3199
513.158	3562
513.230	3077
513.301	3465
513.373	4661
513.444	3518
513.516	3855
513.588	3272
513.659	3540
513.731	2761
513.802	2676
513.874	6208
513.945	4118
514.016	2638
514.088	4271
514.159	2603
514.231	4775
514.302	4720
514.374	4123
514.445	3321
514.516	6636
514.588	4217
514.659	4360
514.730	3949
514.802	6481
514.873	1330
514.944	6036
515.016	4925
515.087	3307
515.158	3745
515.229	6427
515.301	3110
515.372	4907
515.443	3560
515.514	4320
515.585	3916
515.656	4986
515.728	5777
515.799	3250
515.870	5197
515.941	6043
516.012	4184
516.083	7669
516.154	6508
516.225	9132
516.296	11553
516.367	11737
516.438	14848
516.509	20372
516.580	29708
516.651	108284
516.722	383545
516.793	168533
516.864	29933
516.935	26347
517.006	32499
517.077	40663
517.148	84367
517.219	402995
517.289	639068
517.360	121573
517.431	30289
517.502	14687
517.573	13768
517.643	11645
517.714	12149
517.785	14117
517.856	14684
517.926	20350
517.997	27356
518.068	33184
518.138	47929
518.209	72037
518.280	262997
518.350	831817
518.421	406207
518.492	68059
518.562	38190
518.633	36195
518.703	44412
518.774	94901
518.845	260774
518.915	255369
518.986	70278
519.056	29503
519.127	18457
519.197	15571
519.268	19296
519.338	15392
519.408	8147
519.479	6682
519.549	5699
519.620	7073
519.690	5871
519.760	5664
519.831	4811
519.901	3878
519.971	5368
520.042	4199
520.112	4352
520.182	5687
520.253	4991
520.323	3820
520.393	3087
520.463	7408
520.534	1601
520.604	8428
520.674	5514
520.744	4352
520.814	5115
520.885	5754
520.955	6508
521.025	16211
521.095	8805
521.165	5243
521.235	4069
521.305	2744
521.375	3744
521.445	3908
521.515	3400
521.585	5011
521.655	2022
521.725	4012
521.795	4932
521.865	1635
521.935	6736
522.005	2810
522.075	3203
522.145	4970
522.215	2184
522.285	4460
522.355	3419
522.424	6275
522.494	4654
522.564	4211
522.634	4487
522.704	8310
522.774	3984
522.843	4448
522.913	4151
522.983	3818
523.053	3624
523.122	4850
523.192	3068
523.262	4269
523.331	4289
523.401	4216
523.471	3976
523.540	4283
523.610	4234
523.680	3963
523.749	4202
523.819	5040
523.888	3241
523.958	3546
524.027	4406
524.097	4165
524.166	4222
524.236	3247
524.305	6215
524.375	3498
524.444	3515
524.514	6021
524.583	3738
524.653	3584
524.722	6038
524.791	2748
524.861	5663
524.930	3529
524.999	2955
525.069	5441
525.138	3866
525.207	5276
525.277	6601
525.346	4811
525.415	7250
525.484	7395
525.554	7710
525.623	9333
525.692	12022
525.761	15494
525.830	20894
525.900	26617
525.969	43796
526.038	78975
526.107	158908
526.176	480446
526.245	393599
526.314	110413
526.383	228027
526.452	321908
526.522	439411
526.591	428883
526.660	72543
526.729	39874
526.797	43654
526.867	57132
526.935	162752
527.004	641437
527.073	443459
527.142	60310
527.211	23607
527.280	14539
527.349	10569
527.418	7392
527.487	8608
527.555	5380
527.624	6627
527.693	3949
527.762	6488
527.831	4180
527.899	5591
527.968	5096
528.037	3424
528.106	5051
528.174	4361
528.243	4594
528.312	4691
528.380	4590
528.449	3534
528.518	5312
528.586	2465
528.655	5725
528.723	4746
528.792	3119
528.861	3717
528.929	2908
528.998	5093
529.066	3782
529.135	5505
529.203	4120
529.272	5400
529.340	7794
529.409	9258
529.477	5659
529.545	6508
529.614	9601
529.682	5815
529.751	7941
529.819	11638
529.887	9652
529.956	9140
530.024	8482
530.092	7887
530.161	8664
530.229	8470
530.297	9195
530.365	9574
530.434	9477
530.502	8908
530.570	9620
530.638	6985
530.707	7838
530.775	9028
530.843	7154
530.911	8500
530.979	8318
531.047	8942
531.115	9520
531.183	8454
531.252	8822
531.320	8883
531.388	8140
531.456	9151
531.524	7333
531.592	10151
531.660	11583
531.728	9514
531.796	8611
531.864	9182
531.932	8174
532.000	8747
532.067	9121
532.135	10140
532.203	11099
532.271	11558
532.339	12720
532.407	12538
532.475	11345
532.542	11508
532.610	11439
532.678	10430
532.746	14375
532.814	18463
532.881	12585
532.949	11865
533.017	11225
533.084	11173
533.152	9693
533.220	10441
533.287	8131
533.355	10573
533.423	10383
533.490	10098
533.558	10604
533.625	10696
533.693	10619
533.761	10639
533.828	10569
533.896	9865
533.963	12528
534.031	12892
534.098	13470
534.166	14363
534.233	13542
534.300	15642
534.368	15968
534.435	14494
534.503	14483
534.570	17092
534.637	18253
534.705	21272
534.772	25517
534.840	43650
534.907	203535
534.974	271315
535.041	39446
535.109	17751
535.176	12890
535.243	13593
535.310	13036
535.378	11236
535.445	12490
535.512	12481
535.579	12114
535.646	11281
535.714	12451
535.781	12970
535.848	12368
535.915	13544
535.982	12384
536.049	12124
536.116	13672
536.183	10971
536.250	10364
536.317	11581
536.384	12064
536.451	11756
536.518	11999
536.585	11106
536.652	13352
536.719	13261
536.786	10144
536.853	11150
536.920	12530
536.987	12075
537.053	10563
537.120	15809
537.187	14743
537.254	12566
537.321	12736
537.388	13161
537.454	11201
537.521	11642
537.588	11977
537.654	12253
537.721	12311
537.788	14277
537.855	12220
537.921	11986
537.988	10657
538.055	12630
538.121	10329
538.188	10928
538.254	9773
538.321	11160
538.388	11550
538.454	12737
538.521	13326
538.587	13247
538.654	12353
538.720	12805
538.787	11840
538.853	12606
538.920	11364
538.986	10202
539.053	10469
539.119	10886
539.185	10520
539.252	13024
539.318	11518
539.385	14805
539.451	10911
539.517	13364
539.583	13272
539.650	11103
539.716	13036
539.782	11379
539.849	9975
539.915	12366
539.981	10379
540.047	11385
540.114	10929
540.180	12189
540.246	11168
540.312	12939
540.378	11528
540.444	13688
540.510	13038
540.576	13932
540.643	11507
540.709	11121
540.775	11671
540.841	11009
540.907	12254
540.973	12788
541.039	11894
541.105	12382
541.171	12479
541.237	12819
541.303	12577
541.369	14390
541.435	12677
541.500	12408
541.566	9822
541.632	11590
541.698	11306
541.764	12996
541.830	11852
541.896	10646
541.961	12068
542.027	10944
542.093	12402
542.159	12303
542.224	11298
542.290	11844
542.356	11614
542.421	12451
542.487	12212
542.553	10478
542.618	11190
542.684	11235
542.750	10458
542.815	12595
542.881	11571
542.947	14589
543.012	13789
543.078	11175
543.143	10147
543.209	11652
543.274	10911
543.340	12066
543.405	11989
543.471	12684
543.536	11235
543.602	12591
543.667	11165
543.732	12740
543.798	10808
543.863	13087
543.928	12767
543.994	12196
544.059	12464
544.124	13579
544.190	11381
544.255	13061
544.320	13539
544.386	12039
544.451	13867
544.516	13976
544.581	12727
544.646	14329
544.712	15661
544.777	14131
544.842	13066
544.907	13169
544.972	13980
545.037	15882
545.102	14110
545.168	15679
545.233	15848
545.298	15898
545.363	14674
545.428	16004
545.493	17344
545.558	16992
545.623	16670
545.688	16589
545.753	17417
545.818	17020
545.883	18601
545.947	18415
546.012	18875
546.077	19368
546.142	21564
546.207	22166
546.272	22496
546.337	22784
546.401	25026
546.466	25864
546.531	25382
546.596	28375
546.661	29543
546.725	31480
546.790	33038
546.855	35534
546.919	39999
546.984	44914
547.049	47079
547.113	53979
547.178	61290
547.243	68056
547.307	79173
547.372	88360
547.436	87422
547.501	93475
547.565	99050
547.630	91819
547.695	88427
547.759	88474
547.823	89267
547.888	90724
547.952	92625
548.017	97299
548.081	98458
548.146	98476
548.210	101406
548.274	109775
548.339	106802
548.403	97872
548.468	92448
548.532	91356
548.596	92015
548.660	92323
548.725	101497
548.789	107936
548.853	107581
548.917	102544
548.982	99853
549.046	90275
549.110	80139
549.174	82984
549.238	95857
549.303	107315
549.367	110524
549.431	104742
549.495	97045
549.559	97593
549.623	114648
549.687	124449
549.751	120771
549.815	144838
549.879	145926
549.943	141156
550.007	148146
550.071	146837
550.135	130606
550.199	124029
550.263	123117
550.327	114337
550.391	115892
550.455	130408
550.519	138494
550.582	146615
550.646	165521
550.710	168398
550.774	164079
550.838	168357
550.901	172441
550.965	182115
551.029	188787
551.093	199866
551.156	216567
551.220	243586
551.284	270346
551.347	215793
551.411	183227
551.475	172551
551.538	180203
551.602	167055
551.666	157131
551.729	148457
551.793	142748
551.856	142421
551.920	138436
551.983	138479
552.047	136748
552.110	138188
552.174	138227
552.237	142336
552.301	131862
552.364	126438
552.428	124349
552.491	127613
552.554	130197
552.618	130805
552.681	132679
552.745	130256
552.808	151344
552.871	175399
552.934	148951
552.998	133236
553.061	128403
553.124	122260
553.187	119922
553.251	125432
553.314	124216
553.377	124751
553.440	133630
553.503	143156
553.567	148055
553.630	134114
553.693	131711
553.756	132651
553.819	130480
553.882	125085
553.945	125686
554.008	125652
554.071	127055
554.134	128067
554.197	120632
554.260	118154
554.323	119146
554.386	121056
554.449	124875
554.512	124601
554.575	120351
554.638	117943
554.701	117525
554.764	117509
554.827	113399
554.889	108812
554.952	103027
555.015	100534
555.078	103236
555.141	104370
555.203	101513
555.266	100462
555.329	100888
555.391	95176
555.454	94999
555.517	92279
555.580	88255
555.642	83697
555.705	83648
555.768	83212
555.830	81166
555.893	77039
555.955	75014
556.018	73386
556.080	74573
556.143	75406
556.206	74799
556.268	73433
556.330	71035
556.393	69523
556.455	67341
556.518	67077
556.580	64570
556.643	61534
556.705	59729
556.767	59551
556.830	59086
556.892	57815
556.955	56504
557.017	54690
557.079	55136
557.142	53085
557.204	51764
557.266	53045
557.328	48915
557.391	45654
557.453	44629
557.515	43914
557.577	45402
557.639	47364
557.701	46614
557.764	45808
557.826	47423
557.888	49420
557.950	51080
558.012	54207
558.074	66075
558.136	141519
558.198	338297
558.260	130748
558.322	53936
558.384	53068
558.446	55700
558.508	60535
558.570	67189
558.632	76801
558.694	90461
558.756	145270
558.818	394349
558.880	849479
558.942	369171
559.003	361121
559.065	181053
559.127	70200
559.189	67468
559.251	70416
559.312	93725
559.374	213548
559.436	640734
559.498	348099
559.559	83507
559.621	67223
559.683	72570
559.744	110021
559.806	343291
559.868	513257
559.929	121352
559.991	71759
560.052	111613
560.114	317307
560.176	207987
560.237	180530
560.299	298406
560.360	70788
560.422	29685
560.483	24843
560.545	22392
560.606	21693
560.667	20414
560.729	19860
560.790	18483
560.852	18878
560.913	17230
560.974	17785
561.036	17460
561.097	18074
561.158	16179
561.220	16519
561.281	15840
561.342	15378
561.403	15445
561.465	15101
561.526	16109
561.587	17701
561.648	13198
561.709	14445
561.771	14276
561.832	14131
561.893	14021
561.954	13860
562.015	13232
562.076	12934
562.137	13239
562.198	13700
562.259	13175
562.320	12506
562.381	13371
562.442	13870
562.503	13049
562.564	12647
562.625	12959
562.686	12417
562.747	12049
562.808	12863
562.869	12562
562.930	11760
562.991	10964
563.051	11598
563.112	11636
563.173	11741
563.234	10787
563.294	11150
563.355	10618
563.416	10703
563.477	10664
563.537	11064
563.598	11120
563.659	11241
563.720	10010
563.780	10923
563.841	11256
563.901	10492
563.962	10522
564.023	10504
564.083	10461
564.144	9780
564.204	9946
564.265	10497
564.325	10050
564.386	11762
564.446	10801
564.507	9189
564.567	9566
564.628	10288
564.688	10020
564.749	9260
564.809	10501
564.869	10702
564.930	10118
564.990	10631
565.050	8537
565.111	9041
565.171	8894
565.231	10016
565.292	10518
565.352	8886
565.412	9176
565.472	9036
565.532	9369
565.593	9338
565.653	8709
565.713	9304
565.773	9393
565.833	9795
565.893	10685
565.953	9333
566.013	9362
566.074	8756
566.134	9548
566.194	9442
566.254	10121
566.314	8398
566.374	8850
566.434	8913
566.494	9106
566.554	8713
566.614	9926
566.673	10184
566.733	9817
566.793	9356
566.853	8918
566.913	9678
566.973	9354
567.033	10443
567.092	9384
567.152	9338
567.212	9798
567.272	9938
567.331	9154
567.391	9329
567.451	10326
567.511	10764
567.570	9910
567.630	9854
567.690	9077
567.749	10692
567.809	10003
567.868	10143
567.928	8824
567.988	9186
568.047	10045
568.107	10052
568.166	9853
568.226	10177
568.285	11179
568.345	10913
568.404	10407
568.464	10118
568.523	10000
568.582	9516
568.642	9529
568.701	9469
568.761	9663
568.820	10140
568.879	10030
568.939	10330
568.998	10364
569.057	8682
569.116	9312
569.176	9490
569.235	8191
569.294	9527
569.353	7761
569.413	8496
569.472	8636
569.531	8878
569.590	8700
569.649	9092
569.708	8121
569.767	9023
569.827	8856
569.886	8477
569.945	8358
570.004	9549
570.063	8672
570.122	8983
570.181	8866
570.240	9325
570.299	9453
570.358	9632
570.417	8803
570.475	9348
570.534	9762
570.593	9815
570.652	9522
570.711	10353
570.770	8976
570.829	9161
570.887	9695
570.946	9670
571.005	9296
571.064	11729
571.122	11637
571.181	10292
571.240	9722
571.299	8971
571.357	8974
571.416	8501
571.475	8774
571.533	10003
571.592	8941
571.650	10412
571.709	9655
571.768	10679
571.826	11595
571.885	11102
571.943	9265
572.002	9307
572.060	9094
572.119	9367
572.177	9169
572.236	10024
572.294	8998
572.352	9852
572.411	10146
572.469	9476
572.528	8978
572.586	9192
572.644	8713
572.703	9733
572.761	7630
572.819	8377
572.877	8349
572.936	7028
572.994	7847
573.052	8062
573.110	7628
573.169	8503
573.227	9541
573.285	9956
573.343	8649
573.401	8564
573.459	8831
573.517	8208
573.576	9304
573.634	8677
573.692	8055
573.750	8574
573.808	9195
573.866	7768
573.924	8162
573.982	8695
574.040	7785
574.098	8536
574.155	8069
574.213	7736
574.271	7951
574.329	8795
574.387	8059
574.445	6924
574.503	7110
574.560	6784
574.618	7975
574.676	7363
574.734	7832
574.792	8229
574.849	6493
574.907	6274
574.965	6140
575.022	5798
575.080	5949
575.138	6373
575.195	5553
575.253	6320
575.311	6780
575.368	6364
575.426	6465
575.483	6613
575.541	6586
575.598	7062
575.656	6078
575.713	6683
575.771	6130
575.828	6745
575.886	5866
575.943	7199
576.001	5473
576.058	5222
576.115	5913
576.173	6624
576.230	5902
576.287	7315
576.345	6220
576.402	5357
576.459	5878
576.517	6417
576.574	6562
576.631	5313
576.688	5748
576.746	5127
576.803	5883
576.860	6013
576.917	6432
576.974	5613
577.031	5509
577.089	5603
577.146	5096
577.203	5017
577.260	5759
577.317	5948
577.374	5597
577.431	5153
577.488	4981
577.545	4776
577.602	5291
577.659	5573
577.716	5268
577.773	6021
577.830	4584
577.886	6121
577.943	5038
578.000	5821
578.057	5275
578.114	6183
578.171	6048
578.227	6898
578.284	6563
578.341	6471
578.398	5158
578.454	5108
578.511	5929
578.568	5966
578.625	5757
578.681	5402
578.738	5736
578.794	5281
578.851	5255
578.908	5586
578.964	5103
579.021	5256
579.077	5150
579.134	5797
579.190	5464
579.247	5957
579.303	4967
579.360	5599
579.416	5846
579.473	5331
579.529	5181
579.586	5823
579.642	5673
579.698	5721
579.755	6307
579.811	6408
579.867	5922
579.924	5603
579.980	5485
580.036	6968
580.093	6836
580.149	9166
580.205	8913
580.261	7335
580.317	7147
580.374	6376
580.430	6655
580.486	6321
580.542	6171
580.598	6735
580.619	6780
580.654	6866
580.692	6357
580.710	6118
580.765	6310
580.767	6323
580.823	6854
580.838	6993
580.879	7379
580.911	6950
580.935	6663
580.984	6521
580.991	6506
581.047	6943
581.057	6648
581.103	5403
581.130	6085
581.159	6781
581.203	6613
581.215	6580
581.270	6729
581.276	6652
581.326	5928
581.349	5968
581.382	6075
581.422	6090
581.438	6094
581.494	5630
581.494	5631
581.550	6272
581.567	6178
581.606	6010
581.640	5710
581.661	5528
581.713	6827
581.717	6934
581.773	6680
581.786	6633
581.829	6546
581.859	6401
581.885	6252
581.932	6013
581.940	5978
581.996	6155
582.004	6158
582.052	6223
582.077	6267
582.107	6267
582.150	6130
582.163	6103
582.219	5587
582.223	5637
582.274	6387
582.296	6351
582.330	6230
582.368	6376
582.386	6493
582.441	6060
582.441	6061
582.497	6139
582.514	5984
582.552	5904
582.587	6450
582.608	6570
582.659	5734
582.663	5701
582.719	6276
582.732	6305
582.774	6401
582.805	6862
582.830	7238
582.877	6796
582.885	6708
582.941	6872
582.950	6884
582.996	6991
583.023	7516
583.052	8131
583.095	7667
583.107	7522
583.162	7937
583.168	7922
583.218	7701
583.240	7262
583.273	6752
583.313	6411
583.328	6278
583.384	6937
583.385	6920
583.439	6284
583.458	6208
583.494	5999
583.531	5671
583.549	5629
583.603	6293
583.605	6308
583.660	6326
583.676	6158
583.715	5634
583.748	5537
583.770	5588
583.820	6521
583.825	6585
583.881	6088
583.893	5998
583.936	5962
583.965	5863
583.991	5655
584.038	6308
584.046	6420
584.101	5875
584.110	5915
584.156	6150
584.183	6237
584.211	6288
584.255	5892
584.266	5798
584.321	5923
584.328	5946
584.376	6404
584.400	6465
584.431	6351
584.472	6537
584.486	6566
584.541	6472
584.545	6478
584.596	6698
584.617	6737
584.651	6841
584.689	7376
584.706	7608
584.761	7767
584.762	7769
584.816	7787
584.834	8009
584.871	8173
584.906	8790
584.926	9088
584.978	8446
584.980	8444
585.035	10648
585.051	10777
585.090	10762
585.123	11733
585.145	12409
585.195	13281
585.200	13426
585.254	16306
585.267	17226
585.309	19980
585.340	21692
585.364	23149
585.412	26802
585.419	27393
585.473	32921
585.484	34576
585.528	43725
585.556	54435
585.583	74208
585.628	125469
585.637	142623
585.692	307392
585.700	334623
585.747	426741
585.772	350027
585.801	215125
585.845	74094
585.856	54512
585.910	28915
585.917	26631
585.965	19184
585.989	17086
586.019	15302
586.061	12705
586.074	12114
586.128	12568
586.133	12520
586.183	11345
586.205	10831
586.237	10356
586.277	10498
586.292	10627
586.346	10397
586.349	10427
586.401	10516
586.421	10495
586.455	10317
586.493	9926
586.509	10057
586.564	10550
586.565	10591
586.618	11904
586.637	12480
586.672	14075
586.709	15788
586.727	16443
586.781	17386
586.781	17370
586.835	12337
586.853	11507
586.889	10567
586.925	9703
586.944	9597
586.996	10047
586.998	10038
587.052	9046
587.068	9146
587.106	9892
587.140	10009
587.161	9912
587.212	10038
587.215	10033
587.269	9676
587.284	9698
587.323	9786
587.356	9762
587.377	9927
587.427	11017
587.431	11031
587.485	10504
587.499	10354
587.539	10458
587.571	10833
587.593	11081
587.643	11898
587.648	11962
587.702	12300
587.715	12357
587.755	12207
587.786	12264
587.810	12181
587.858	11903
587.864	11935
587.917	12638
587.930	12609
587.971	12337
588.001	12634
588.025	12724
588.073	12559
588.079	12616
588.133	13339
588.145	13546
588.187	13458
588.217	13662
588.241	14057
588.288	14385
588.295	14409
588.348	14731
588.360	14790
588.402	15585
588.431	16413
588.456	16540
588.503	16997
588.510	17222
588.564	19003
588.575	19461
588.617	20819
588.646	21910
588.671	23043
588.718	25593
588.725	26237
588.778	32672
588.789	34715
588.832	53595
588.861	69945
588.886	103248
588.932	179908
588.939	186701
588.993	229057
589.004	225634
589.047	119155
589.075	58618
589.100	42660
589.147	26396
589.154	25688
589.207	22934
589.218	22422
589.261	22290
589.290	22945
589.314	23718
589.361	25945
589.368	26935
589.421	36933
589.433	39885
589.475	72456
589.504	100193
589.528	133681
589.576	202947
589.582	196712
589.635	95684
589.647	75713
589.689	39153
589.718	20883
589.742	18906
589.790	15703
589.795	15513
589.849	14517
589.861	14475
589.902	14094
589.932	13655
589.955	13420
590.004	12999
590.009	12985
590.062	13174
590.075	13232
590.115	12623
590.146	12074
590.168	11979
590.218	11962
590.222	11906
590.275	11532
590.289	11481
590.328	12702
590.360	13547
590.381	13405
590.431	13238
590.435	13206
590.488	12812
590.503	12707
590.541	13041
590.574	13468
590.594	13468
590.645	13607
590.647	13609
590.700	13885
590.716	14025
590.753	14785
590.787	15533
590.806	15514
590.859	15586
590.859	15571
590.912	15466
590.930	15472
590.965	15499
591.001	15613
591.018	15442
591.071	14957
591.072	14970
591.124	14752
591.143	14818
591.177	15259
591.214	15597
591.230	15601
591.283	15798
591.285	15816
591.336	15256
591.356	15173
591.389	15759
591.427	16349
591.442	16128
591.495	15427
591.498	15392
591.547	15125
591.569	15068
591.600	15284
591.640	15520
591.653	15607
591.706	16210
591.711	16281
591.759	16222
591.782	16228
591.811	16685
591.853	17541
591.864	17618
591.917	17868
591.924	17935
591.969	17926
591.995	17970
592.022	17735
592.066	17351
592.075	17407
592.127	17936
592.137	18060
592.180	18418
592.208	18702
592.233	18841
592.279	19140
592.285	19163
592.338	19607
592.350	19732
592.390	19404
592.421	19207
592.443	19163
592.491	19198
592.495	19207
592.548	19842
592.562	20057
592.600	19961
592.633	19941
592.653	19750
592.704	19243
592.705	19388
592.775	21259
592.846	21085
592.916	20633
592.987	21507
593.058	21685
593.128	21874
593.199	22718
593.270	22513
593.341	22610
593.411	23875
593.482	23416
593.553	24677
593.623	24682
593.694	25646
593.764	26259
593.835	25782
593.906	26453
593.976	26474
594.047	27242
594.117	28505
594.188	29214
594.258	29616
594.329	29924
594.399	29478
594.470	31557
594.540	31573
594.611	33428
594.681	32542
594.751	31549
594.822	33667
594.892	34900
594.963	36312
595.033	36305
595.103	38780
595.174	39447
595.244	39789
595.314	41078
595.384	41849
595.455	44075
595.525	44714
595.595	46732
595.665	47247
595.736	44490
595.806	45897
595.876	46203
595.946	46757
596.016	48133
596.087	51398
596.157	51118
596.227	50400
596.297	54382
596.367	57834
596.437	61894
596.507	60766
596.577	59974
596.647	62341
596.717	65623
596.787	67181
596.857	67254
596.927	68191
596.997	68112
597.067	68589
597.137	69251
597.207	70529
597.277	69320
597.347	67106
597.417	65012
597.487	64642
597.557	65470
597.626	68868
597.696	69431
597.766	67736
597.836	64568
597.906	61355
597.975	60374
598.045	61975
598.115	63854
598.185	69134
598.254	77943
598.324	84296
598.394	85615
598.464	82439
598.533	82295
598.603	74524
598.672	72118
598.742	76652
598.812	75611
598.881	78102
598.951	75669
599.020	79187
599.090	81902
599.159	82933
599.229	79233
599.299	77391
599.368	79978
599.437	78747
599.507	71020
599.576	69350
599.646	69633
599.715	68899
599.785	66826
599.854	64417
599.924	63461
599.993	64589
600.062	65897
600.132	66648
600.201	70923
600.270	84062
600.340	88617
600.409	86095
600.478	85907
600.547	87693
600.617	77876
600.686	62021
600.755	57414
600.824	53062
600.894	52239
600.963	53097
601.032	52999
601.101	50599
601.170	47486
601.239	46898
601.308	46752
601.378	46631
601.447	47034
601.516	47202
601.585	48238
601.654	48288
601.723	49484
601.792	51284
601.861	51707
601.930	54935
601.999	54799
602.068	54485
602.137	54793
602.206	56195
602.275	57003
602.343	57297
602.412	57700
602.481	59016
602.550	59349
602.619	60923
602.688	61125
602.756	62288
602.825	63399
602.894	64578
602.963	64182
603.032	64665
603.100	67253
603.169	67215
603.238	67396
603.307	67587
603.375	68119
603.444	69538
603.513	69423
603.581	70073
603.650	72054
603.719	70111
603.787	72816
603.856	74491
603.924	76015
603.993	79020
604.061	82274
604.130	86022
604.198	87159
604.267	89016
604.335	90442
604.404	92320
604.472	94494
604.541	94919
604.609	94341
604.678	95120
604.746	96755
604.815	100617
604.883	102138
604.951	100627
605.020	103696
605.088	103507
605.156	105908
605.225	107285
605.293	108167
605.361	108302
605.429	107654
605.498	111307
605.566	113785
605.634	119474
605.702	125071
605.771	127521
605.839	127056
605.907	124274
605.975	121576
606.043	117808
606.111	118043
606.180	118341
606.248	115760
606.316	115145
606.384	115816
606.452	116757
606.520	116729
606.588	120630
606.656	122027
606.724	119452
606.792	112792
606.860	101567
606.928	90445
606.996	89007
607.064	87593
607.132	89441
607.200	96674
607.267	98021
607.335	100468
607.403	102308
607.471	97243
607.539	95457
607.607	93491
607.674	83990
607.742	83776
607.810	83101
607.878	83013
607.946	85306
608.013	89774
608.081	90175
608.149	92544
608.216	95950
608.284	97786
608.352	99321
608.419	95833
608.487	95644
608.555	93094
608.622	97427
608.690	104761
608.757	114419
608.825	115555
608.893	112137
608.960	105318
609.028	101262
609.095	102163
609.163	98962
609.230	88577
609.298	83805
609.365	86803
609.432	95501
609.500	102735
609.567	118749
609.635	137136
609.702	141539
609.769	133541
609.837	104506
609.904	90915
609.971	94523
610.039	106949
610.106	139221
610.173	256279
610.241	543284
610.308	271878
610.375	113223
610.442	96489
610.509	94350
610.577	93354
610.644	94549
610.711	97429
610.778	101989
610.845	106607
610.912	111329
610.980	115496
611.047	116157
611.114	113637
611.181	110573
611.248	108724
611.315	117499
611.382	118830
611.449	124139
611.516	126167
611.583	123753
611.650	124554
611.717	125740
611.784	129417
611.851	136795
611.918	145065
611.984	169575
612.051	230987
612.118	426497
612.185	897691
612.252	525938
612.319	190316
612.386	163453
612.452	148419
612.519	141137
612.586	138206
612.653	141958
612.719	145557
612.786	141173
612.853	129817
612.919	126548
612.986	129502
613.053	121324
613.120	113029
613.186	109036
613.253	113020
613.319	111778
613.386	110893
613.453	113299
613.519	114644
613.586	111541
613.652	113514
613.719	113014
613.785	112815
613.852	114715
613.918	113619
613.985	115838
614.051	120561
614.118	122096
614.184	116408
614.250	113050
614.317	117821
614.383	115756
614.449	117109
614.516	115674
614.582	115621
614.648	114957
614.715	114520
614.781	109316
614.847	110363
614.914	109886
614.980	107316
615.046	107793
615.112	111093
615.179	111995
615.245	113674
615.311	111702
615.377	112297
615.443	116154
615.509	115828
615.575	119630
615.642	118970
615.708	123734
615.774	128859
615.840	136789
615.906	148489
615.972	178598
616.038	257653
616.104	499785
616.170	996402
616.236	750636
616.302	259696
616.368	208137
616.434	151770
616.500	145317
616.565	164475
616.631	202334
616.697	160811
616.763	172390
616.829	263592
616.895	453631
616.961	389690
617.026	166406
617.092	123260
617.158	118137
617.224	114515
617.289	106080
617.355	99985
617.421	98194
617.487	99864
617.552	95201
617.618	93246
617.684	94768
617.749	96147
617.815	90152
617.880	87560
617.946	89640
618.012	90486
618.077	91937
618.143	87530
618.208	90364
618.274	96630
618.339	94937
618.405	78282
618.470	78843
618.536	76901
618.601	75642
618.667	70377
618.732	67425
618.798	67028
618.863	65534
618.928	65824
618.994	67011
619.059	65988
619.124	66089
619.190	65160
619.255	64787
619.320	65320
619.386	65290
619.451	64740
619.516	62868
619.581	63958
619.647	65819
619.712	66179
619.777	61544
619.842	63526
619.907	64878
619.972	65580
620.038	64629
620.103	63244
620.168	62543
620.233	64894
620.298	63206
620.363	66805
620.428	67016
620.493	70056
620.558	70440
620.623	70521
620.688	70764
620.753	70435
620.818	71061
620.883	70943
620.948	70655
621.013	69730
621.078	67446
621.143	69033
621.207	71189
621.272	68945
621.337	66614
621.402	65186
621.467	65264
621.532	65444
621.596	65886
621.661	63793
621.726	61689
621.791	63480
621.855	63181
621.920	62238
621.985	64428
622.049	65255
622.114	65607
622.179	66833
622.243	68483
622.308	69797
622.373	74197
622.437	70775
622.502	67244
622.566	67116
622.631	64852
622.695	68647
622.760	67500
622.824	67415
622.889	66930
622.953	65990
623.018	71897
623.082	72827
623.147	71570
623.211	70200
623.276	70739
623.340	67337
623.404	64415
623.469	64958
623.533	64926
623.597	63489
623.662	63601
623.726	58218
623.790	53759
623.854	53320
623.919	54818
623.983	56205
624.047	55698
624.111	56749
624.176	58243
624.240	58683
624.304	60744
624.368	58016
624.432	58407
624.496	60849
624.560	64089
624.625	63487
624.689	64427
624.753	66369
624.817	62174
624.881	60847
624.945	54410
625.009	53622
625.073	55040
625.137	55060
625.201	58973
625.265	60145
625.329	57647
625.393	56682
625.456	57173
625.520	59649
625.584	59951
625.648	62333
625.712	64580
625.776	65129
625.839	61207
625.903	50555
625.967	46280
626.031	52900
626.095	61803
626.158	54840
626.222	41930
626.286	41264
626.349	38274
626.413	34290
626.477	36566
626.540	34936
626.604	34998
626.668	35193
626.731	34364
626.795	34297
626.858	33945
626.922	32952
626.986	34402
627.049	33324
627.113	36294
627.176	34820
627.240	33569
627.303	32819
627.366	32380
627.430	33777
627.493	33183
627.557	31426
627.620	33865
627.684	34741
627.747	34433
627.810	29988
627.874	28941
627.937	27864
628.000	29213
628.064	27515
628.127	23991
628.190	25797
628.253	23859
628.317	21804
628.380	21404
628.443	20809
628.506	20183
628.569	20112
628.632	18854
628.696	19299
628.759	18373
628.822	17364
628.885	16803
628.948	17636
629.011	16693
629.074	16366
629.137	15394
629.200	15687
629.263	15505
629.326	15115
629.389	14712
629.452	14900
629.515	14932
629.578	13628
629.641	15423
629.704	13669
629.767	14512
629.830	14094
629.892	13942
629.955	12904
630.018	15666
630.081	13614
630.144	15676
630.207	13124
630.269	14939
630.332	13635
630.395	12932
630.458	12853
630.520	11353
630.583	13016
630.646	14016
630.708	12871
630.771	12816
630.834	14915
630.896	13442
630.959	13786
631.021	13902
631.084	13545
631.146	14301
631.209	13907
631.272	13462
631.334	14164
631.397	14825
631.459	14056
631.522	15535
631.584	15838
631.646	19072
631.709	18053
631.771	18745
631.834	17912
631.896	17199
631.958	14682
632.021	15740
632.083	13266
632.145	14721
632.208	12377
632.270	13402
632.332	11970
632.395	12718
632.457	14831
632.519	12222
632.581	13759
632.643	11998
632.706	13257
632.768	11459
632.830	13428
632.892	13274
632.954	12841
633.016	14323
633.078	12740
633.141	12928
633.203	12478
633.265	12719
633.327	13179
633.389	12791
633.451	13949
633.513	13144
633.575	13475
633.637	12865
633.698	14065
633.760	15382
633.822	15715
633.884	15903
633.946	16029
634.008	15872
634.070	17503
634.132	18877
634.193	20618
634.255	22612
634.317	24428
634.379	23026
634.441	19618
634.502	16616
634.564	16323
634.626	14070
634.687	14983
634.749	13594
634.811	13502
634.873	11742
634.934	11966
634.996	13499
635.057	12821
635.119	11804
635.181	13684
635.242	14583
635.304	12451
635.365	16086
635.427	12852
635.488	13319
635.550	12996
635.611	14164
635.673	11417
635.734	15625
635.796	15476
635.857	18589
635.918	18653
635.980	21497
636.041	23313
636.102	25184
636.164	24822
636.225	24980
636.286	18218
636.348	17914
636.409	15253
636.470	12737
636.531	13795
636.593	11613
636.654	12609
636.715	11163
636.776	11707
636.838	10793
636.899	11712
636.960	11107
637.021	9612
637.082	10294
637.143	11090
637.204	9211
637.265	9602
637.326	11376
637.387	11484
637.448	9444
637.509	11295
637.570	11088
637.631	11356
637.692	9389
637.753	8281
637.814	10624
637.875	8839
637.936	9859
637.997	8390
638.058	9065
638.119	9844
638.179	9739
638.240	8879
638.301	9423
638.362	8007
638.423	8443
638.483	10285
638.544	7146
638.605	9426
638.666	7531
638.726	7867
638.787	9139
638.848	8297
638.908	8863
638.969	8532
639.030	7495
639.090	6973
639.151	7559
639.211	9366
639.272	8699
639.332	8650
639.393	8855
639.453	8651
639.514	10072
639.574	9158
639.635	7700
639.695	7376
639.756	6245
639.816	8668
639.877	7478
639.937	8611
639.997	8785
640.058	6933
640.118	7132
640.178	7914
640.239	7495
640.299	8159
640.359	7151
640.420	8510
640.480	9648
640.540	12013
640.600	11247
640.661	9817
640.721	7102
640.781	9610
640.841	7059
640.901	8297
640.961	8460
641.021	8664
641.082	7906
641.142	7754
641.202	8007
641.262	5940
641.322	8222
641.382	6121
641.442	7502
641.502	7227
641.562	7801
641.622	6821
641.682	8114
641.742	9607
641.802	8392
641.861	8370
641.921	6392
641.981	7141
642.041	7026
642.101	6163
642.161	4937
642.221	5761
642.280	5917
642.340	6829
642.400	6048
642.460	6752
642.519	7116
642.579	6796
642.639	7807
642.698	4308
642.758	9215
642.818	6401
642.877	6453
642.937	6013
642.997	6510
643.056	7132
643.116	6134
643.175	8760
643.235	6846
643.294	7705
643.354	8517
643.414	9879
643.473	11717
643.532	15281
643.592	22499
643.651	36292
643.711	63418
643.770	122889
643.830	293350
643.889	532162
643.948	125384
644.008	27218
644.067	15998
644.126	12102
644.186	9218
644.245	9850
644.304	6576
644.363	9015
644.423	6796
644.482	8052
644.541	8861
644.600	7893
644.659	12558
644.719	15791
644.778	24887
644.837	45084
644.896	100175
644.955	212049
645.014	59352
645.073	14514
645.132	10003
645.191	8934
645.250	8220
645.309	10684
645.368	10767
645.427	16002
645.486	27997
645.545	47664
645.604	11659
645.663	8287
645.722	7175
645.781	8716
645.840	11471
645.898	13555
645.957	22083
646.016	33264
646.075	60609
646.134	118908
646.192	318353
646.251	398526
646.310	61691
646.369	19479
646.427	16121
646.486	10182
646.545	8795
646.603	8091
646.662	8148
646.721	7122
646.779	7070
646.838	7353
646.896	11686
646.955	16692
647.014	27080
647.072	54831
647.131	148665
647.189	59914
647.248	9358
647.306	7609
647.365	6169
647.423	4205
647.481	6656
647.540	2825
647.598	5004
647.657	3976
647.715	5122
647.773	4291
647.832	5461
647.890	2910
647.948	3901
648.007	4791
648.065	3300
648.123	3643
648.181	4795
648.240	4510
648.298	3420
648.356	3355
648.414	4144
648.472	4122
648.531	3442
648.589	3682
648.647	3366
648.705	3567
648.763	3542
648.821	4690
648.879	4668
648.937	4922
648.995	7888
649.053	10533
649.111	17544
649.169	29600
649.227	52591
649.285	114908
649.343	305133
649.401	125596
649.459	15977
649.516	9980
649.574	6302
649.632	9324
649.690	10545
649.748	12994
649.806	17712
649.863	39088
649.921	106695
649.979	60323
650.037	8287
650.094	2556
650.152	4434
650.210	3034
650.268	3499
650.325	2935
650.383	2985
650.440	1302
650.498	2701
650.556	2564
650.613	1724
650.671	3191
650.728	3200
650.786	3987
650.843	4633
650.901	1505
650.958	2222
651.016	2250
651.073	2845
651.131	1461
651.188	1314
651.246	1627
651.303	1470
651.360	1917
651.418	1942
651.475	2661
651.532	1744
651.590	1861
651.647	2212
651.704	1649
651.762	1349
651.819	1343
651.876	1759
651.933	1676
651.990	2321
652.048	133
652.105	1429
652.162	2149
652.219	678
652.276	2357
652.333	1643
652.390	1081
652.448	1737
652.505	1006
652.562	1198
652.619	1867
652.676	1772
652.733	2403
652.790	1420
652.847	781
652.904	996
652.961	-73
653.017	973
653.074	1173
653.131	1941
653.188	525
653.245	1339
653.302	1390
653.359	1536
653.415	962
653.472	920
653.529	2006
653.586	-139
653.642	1135
653.699	1437
653.756	1221
653.813	782
653.869	1448
653.926	947
653.983	753
654.039	1534
654.096	747
654.152	2082
654.209	141
654.266	1795
654.322	929
654.379	923
654.435	1434
654.492	1201
654.548	515
654.605	352
654.661	1621
654.717	1391
654.774	1646
654.830	1490
654.887	1361
654.943	698
655.000	1416
655.056	1872
655.112	1671
655.168	-169
655.225	1197
655.281	1605
655.337	1260
655.394	574
655.450	1645
655.506	1485
655.562	787
655.618	2167
655.675	465
655.731	1463
655.787	764
655.843	2129
655.899	1360
655.955	2401
656.011	1332
656.067	496
656.123	2074
656.179	2079
656.235	2610
656.291	1354
656.347	2549
656.403	2148
656.459	1299
656.515	1429
656.571	1257
656.627	672
656.683	1172
656.739	1490
656.795	1439
656.850	881
656.906	1136
656.962	1743
657.018	761
657.074	1781
657.129	3421
657.185	6202
657.241	13963
657.297	6997
657.352	1429
657.408	-152
657.464	1726
657.519	1501
657.575	226
657.630	817
657.686	607
657.742	305
657.797	773
657.853	582
657.908	1227
657.964	64
658.019	371
658.075	1090
658.130	322
658.186	-531
658.241	868
658.297	-498
658.352	714
658.407	1578
658.463	118
658.518	1153
658.573	651
658.629	66
658.684	-93
658.739	777
658.795	506
658.850	962
658.905	134
658.960	282
659.016	-506
659.071	372
659.126	100
659.181	-58
659.236	1781
659.291	1376
659.346	-832
659.401	425
659.457	490
659.512	231
659.567	1337
659.622	603
659.677	222
659.732	-484
659.787	113
659.842	343
659.897	218
659.952	923
660.007	824
660.061	592
660.116	-683
660.171	485
660.226	-630
660.281	923
660.336	-300
660.391	789
660.445	285
660.500	53
660.555	302
660.610	-115
660.664	702
660.719	216
660.774	860
660.828	-106
660.883	589
660.938	78
660.992	-674
661.047	322
661.101	224
661.156	-21
661.211	-77
661.265	395
661.320	412
661.374	288
661.429	-402
661.483	905
661.538	-1225
661.592	618
661.647	-36
661.701	156
661.755	137
661.810	1369
661.864	433
661.919	-45
661.973	759
662.027	261
662.081	-211
662.136	-489
662.190	-624
662.244	536
662.299	-150
662.353	328
662.407	-115
662.461	76
662.515	-245
662.569	-256
662.624	-167
662.678	-40
662.732	649
662.786	-11
662.840	-219
662.894	-92
662.948	301
663.002	-172
663.056	289
663.110	-309
663.164	-94
663.218	497
663.272	234
663.326	515
663.380	-107
663.434	-56
663.488	-251
663.542	-299
663.595	71
663.649	313
663.703	815
663.757	-208
663.811	-1081
663.864	-762
663.918	1
663.972	549
664.026	243
664.079	-312
664.133	502
664.187	-56
664.240	101
664.294	-139
664.348	774
664.401	193
664.455	307
664.508	-290
664.562	98
664.615	605
664.669	262
664.722	339
664.776	373
664.829	267
664.883	-580
664.936	-570
664.990	502
665.043	734
665.097	1
665.150	933
665.203	123
665.257	420
665.310	363
665.363	626
665.417	-65
665.470	-338
665.523	388
665.576	485
665.630	-44
665.683	255
665.736	103
665.789	255
665.842	-76
665.895	734
665.949	494
666.002	634
666.055	771
666.108	182
666.161	147
666.214	603
666.267	163
666.320	688
666.373	827
666.426	510
666.479	138
666.532	978
666.585	1113
666.638	500
666.691	476
666.744	963
666.796	-570
666.849	232
666.902	422
666.955	-108
667.008	161
667.060	22
667.113	173
667.166	-541
667.219	1063
667.271	455
667.324	3
667.377	177
667.430	621
667.482	34
667.535	540
667.587	326
667.640	178
667.693	-718
667.745	755
667.798	1227
667.850	524
667.903	951
667.955	272
668.008	469
668.060	279
668.113	225
668.165	525
668.218	789
668.270	393
668.322	201
668.375	-95
668.427	465
668.479	-62
668.532	755
668.584	438
668.636	330
668.689	909
668.741	168
668.793	430
668.845	429
668.898	-15
668.950	294
669.002	582
669.054	453
669.106	-93
669.158	1006
669.211	278
669.263	262
669.315	1108
669.367	387
669.419	-402
669.471	1085
669.523	918
669.575	735
669.627	-103
669.679	-165
669.731	819
669.783	783
669.835	352
669.886	-49
669.938	236
669.990	85
670.042	-443
670.094	339
670.146	415
670.197	73
670.249	579
670.301	197
670.353	1671
670.404	2136
670.456	2250
670.508	4152
670.560	5832
670.611	10022
670.663	17723
670.715	46010
670.766	68504
670.818	18482
670.869	2400
670.921	2061
670.972	1781
671.024	787
671.075	573
671.127	1840
671.178	144
671.230	386
671.281	1366
671.333	2033
671.384	1728
671.436	3987
671.487	5724
671.538	8188
671.590	12655
671.641	22176
671.692	43294
671.744	83679
671.795	49611
671.846	14721
671.897	6222
671.949	3494
672.000	2494
672.051	2294
672.102	1531
672.153	192
672.204	1016
672.256	708
672.307	333
672.358	824
672.409	862
672.460	504
672.511	174
672.562	452
672.613	145
672.664	739
672.715	72
672.766	343
672.817	-508
672.868	-447
672.919	431
672.970	-328
673.021	-97
673.071	-854
673.122	187
673.173	-149
673.224	261
673.275	33
673.326	-474
673.376	-196
673.427	23
673.478	31
673.528	504
673.579	-216
673.630	262
673.680	387
673.731	-487
673.782	-254
673.832	-588
673.883	269
673.934	-333
673.984	-202
674.035	186
674.085	-383
674.136	-160
674.186	-336
674.237	-669
674.287	-159
674.338	711
674.388	-335
674.438	-17
674.489	960
674.539	422
674.589	190
674.640	148
674.690	-74
674.740	-479
674.791	-306
674.841	-19
674.891	-263
674.942	-421
674.992	91
675.042	15
675.092	-571
675.142	-1279
675.193	203
675.243	-916
675.293	3
675.343	-804
675.393	-362
675.443	327
675.493	-407
675.543	-508
675.593	-358
675.643	-703
675.693	-288
675.743	-192
675.793	-127
675.843	-555
675.893	-617
675.943	71
675.993	-773
676.043	-127
676.093	169
676.142	360
676.192	-479
676.242	-402
676.292	-117
676.341	-99
676.391	-1
676.441	-719
676.491	-195
676.540	-1586
676.590	-224
676.640	-996
676.689	-914
676.739	-494
676.789	-175
676.838	-910
676.888	385
676.937	-37
676.987	-254
677.037	-644
677.086	-803
677.136	-54
677.185	-233
677.235	-653
677.284	-719
677.333	-1147
677.383	-708
677.432	-1232
677.482	-630
677.531	-346
677.580	-951
677.630	-841
677.679	-620
677.728	-801
677.778	-225
677.827	-856
677.876	-846
677.925	-1144
677.975	-1052
678.024	-362
678.073	-793
678.122	-1075
678.171	-455
678.220	-230
678.269	-324
678.319	-136
678.368	576
678.417	-328
678.466	-130
678.515	-259
678.564	-880
678.613	-1520
678.662	-960
678.711	-1085
678.760	-579
678.809	-812
678.857	-607
678.906	-568
678.955	-1674
679.004	-789
679.053	-601
679.102	-1186
679.151	-1056
679.199	-1337
679.248	-88
679.297	-723
679.346	-1374
679.394	-421
679.443	-589
679.492	-960
679.540	-305
679.589	-863
679.638	-135
679.686	-422
679.735	252
679.784	-361
679.832	-154
679.881	-660
679.929	-757
679.978	-751
680.026	-1097
680.075	-1234
680.123	-930
680.172	-762
680.220	-524
680.268	-504
680.317	-1061
680.365	-855
680.414	-1396
680.462	-1317
680.510	-431
680.559	-776
680.607	-1355
680.655	-1484
680.703	-1264
680.752	-161
680.800	-1170
680.848	-632
680.896	-491
680.945	-982
680.993	-1333
681.041	-191
681.089	-282
681.137	-599
681.185	-1318
681.233	-601
681.258	-841
681.281	-1077
681.329	-1283
681.377	-1163
681.380	-1112
681.425	-314
681.473	-806
681.502	-1066
681.521	-1267
681.569	-288
681.617	-762
681.624	-766
681.665	-844
681.713	175
681.745	-196
681.761	-382
681.809	-937
681.857	28
681.867	-133
681.904	-715
681.952	21
681.989	-409
682.000	-549
682.048	-1145
682.096	-755
682.111	-544
682.143	-129
682.191	-248
682.233	-181
682.239	-177
682.286	-907
682.334	-316
682.354	-423
682.382	-592
682.430	-503
682.476	-453
682.477	-459
682.525	-608
682.572	-114
682.598	-219
682.620	-315
682.667	30
682.715	-301
682.720	-303
682.763	-441
682.810	-344
682.841	-372
682.857	-386
682.905	144
682.952	358
682.963	215
683.000	-293
683.047	101
683.085	189
683.095	193
683.142	-536
683.190	-235
683.206	-8
683.237	391
683.284	-352
683.328	-228
683.332	-222
683.379	-97
683.426	-705
683.449	-555
683.473	-401
683.521	-390
683.568	-63
683.571	-48
683.615	30
683.662	-2
683.693	-70
683.709	-118
683.757	-150
683.804	-95
683.814	-91
683.851	-64
683.898	400
683.936	742
683.945	823
683.992	238
684.039	-38
684.057	-109
684.086	-250
684.133	-89
684.179	-146
684.180	-155
684.227	-280
684.274	483
684.300	144
684.321	-86
684.368	-53
684.415	232
684.422	141
684.462	-438
684.509	-133
684.543	44
684.556	95
684.603	739
684.649	195
684.665	228
684.696	325
684.743	842
684.786	1110
684.790	1120
684.837	34
684.883	552
684.908	343
684.930	180
684.977	949
685.023	636
685.029	614
685.070	413
685.117	426
685.150	439
685.164	422
685.210	-143
685.257	642
685.272	601
685.303	496
685.350	261
685.393	224
685.396	227
685.443	223
685.490	710
685.514	577
685.536	401
685.583	133
685.629	590
685.636	432
685.675	-413
685.722	683
685.757	126
685.768	-60
685.815	-212
685.861	694
685.878	651
685.908	485
685.954	430
686.000	1094
686.000	1105
686.047	795
686.093	655
686.121	871
686.139	963
686.185	1423
686.232	1232
686.242	1146
686.278	902
686.324	1084
686.363	966
686.370	924
686.416	1184
686.463	756
686.484	532
686.509	380
686.555	515
686.601	434
686.606	528
686.647	1161
686.693	807
686.727	440
686.739	350
686.785	386
686.831	872
686.848	760
686.877	501
686.923	301
686.969	800
686.969	804
687.015	1061
687.061	1048
687.090	1384
687.107	1461
687.153	1280
687.199	1239
687.211	900
687.245	38
687.291	673
687.332	-44
687.336	-83
687.382	909
687.428	1156
687.453	1159
687.474	1057
687.520	1189
687.565	1218
687.574	1124
687.611	654
687.657	946
687.695	872
687.702	930
687.748	1595
687.794	1924
687.816	2009
687.839	1832
687.885	1479
687.931	1622
687.937	1585
687.976	1467
688.022	1000
688.058	1314
688.067	1411
688.113	993
688.158	1101
688.179	1268
688.204	1441
688.249	823
688.295	1519
688.300	1518
688.340	1566
688.386	1220
688.421	1109
688.431	1094
688.477	1349
688.522	1556
688.542	1725
688.567	1911
688.613	1593
688.658	1440
688.663	1483
688.703	1707
688.749	1350
688.784	1620
688.794	1773
688.839	1283
688.884	1886
688.905	2007
688.930	1951
688.975	1707
689.020	1717
689.026	1647
689.065	1300
689.110	1395
689.146	1633
689.155	1672
689.201	1563
689.246	1237
689.267	1120
689.291	1151
689.336	1400
689.381	1621
689.388	1617
689.426	1661
689.471	1520
689.509	1885
689.516	1918
689.561	2016
689.606	1877
689.630	1970
689.651	2056
689.696	1773
689.741	1941
689.750	1869
689.785	1652
689.830	1578
689.871	1534
689.875	1534
689.920	1723
689.965	1389
689.992	1635
690.010	1800
690.054	1189
690.099	1387
690.112	1470
690.144	1760
690.189	1558
690.233	1503
690.233	1508
690.278	1979
690.323	1537
690.354	1752
690.367	1895
690.412	1991
690.457	2176
690.474	2302
690.501	2215
690.546	1537
690.590	1612
690.595	1565
690.635	1720
690.680	1839
690.716	2019
690.724	2016
690.769	2266
690.813	2268
690.836	2162
690.857	2265
690.902	2849
690.946	3074
690.957	3259
690.991	4218
691.035	5273
691.077	6287
691.080	6279
691.124	5132
691.168	4333
691.198	3790
691.213	3511
691.257	2854
691.301	2089
691.318	1863
691.346	1994
691.390	1920
691.434	2328
691.439	2339
691.478	2427
691.522	2583
691.559	2159
691.567	2079
691.611	2278
691.655	2220
691.680	2310
691.699	2426
691.743	2329
691.787	2639
691.800	2530
691.831	2294
691.875	2781
691.919	2636
691.921	2629
691.964	2528
692.008	2396
692.041	2322
692.052	2319
692.096	2375
692.139	2504
692.162	2448
692.183	2383
692.227	2276
692.271	2007
692.282	2045
692.315	2398
692.359	2810
692.402	3081
692.403	3087
692.447	2347
692.490	1977
692.523	1966
692.534	2065
692.578	2166
692.622	2210
692.643	2314
692.666	2360
692.709	2320
692.753	2159
692.763	2102
692.797	2077
692.840	2206
692.884	2376
692.884	2384
692.928	2177
692.971	2220
693.004	2036
693.015	2003
693.059	2182
693.102	2102
693.124	2070
693.146	2008
693.189	1891
693.233	1650
693.245	1667
693.276	2250
693.320	2741
693.363	3412
693.365	3417
693.407	3213
693.450	3221
693.485	3171
693.493	3225
693.537	3568
693.580	3598
693.605	3749
693.624	4099
693.667	5035
693.710	5757
693.725	5985
693.753	7554
693.797	10216
693.840	13158
693.845	13387
693.883	11423
693.926	9172
693.966	7558
693.970	7452
694.013	5842
694.056	4542
694.086	3451
694.099	3317
694.142	2840
694.185	2619
694.206	2489
694.229	2586
694.272	2801
694.315	2898
694.326	2878
694.358	2718
694.401	2636
694.444	2654
694.446	2639
694.487	2745
694.530	2705
694.566	2887
694.573	2925
694.616	3064
694.659	3046
694.686	3087
694.702	3093
694.745	3053
694.787	3019
694.806	3020
694.830	2951
694.873	2996
694.916	2547
694.926	2525
694.959	2804
695.002	2904
695.044	3120
695.046	3116
695.087	3087
695.130	3202
695.166	3206
695.172	3270
695.215	3452
695.258	3975
695.286	4144
695.301	4027
695.343	3854
695.386	3597
695.406	3399
695.428	3665
695.471	4139
695.514	4832
695.526	4955
695.556	4908
695.599	5064
695.641	5025
695.646	5020
695.684	4925
695.726	4764
695.766	4448
695.769	4430
695.811	4143
695.854	3809
695.886	3511
695.896	3609
695.938	3925
695.981	4306
696.005	4570
696.023	4702
696.065	4808
696.108	5058
696.125	5098
696.150	5172
696.192	5322
696.235	5512
696.245	5542
696.277	5646
696.319	5676
696.361	5818
696.365	5819
696.404	5970
696.446	5870
696.485	5871
696.488	5880
696.530	5719
696.572	5705
696.604	5612
696.614	5645
696.656	5643
696.698	5661
696.724	5708
696.740	5688
696.783	5548
696.825	5440
696.844	5368
696.867	5426
696.909	5436
696.951	5471
696.964	5478
696.992	5607
697.034	5768
697.076	5880
697.083	5871
697.118	5718
697.160	5643
697.202	5592
697.203	5573
697.244	5764
697.286	5952
697.323	5992
697.327	6006
697.369	6146
697.411	6103
697.442	6146
697.453	6163
697.494	6142
697.536	6096
697.562	6059
697.578	6182
697.620	6444
697.661	6778
697.682	6872
697.703	6722
697.744	6411
697.786	6179
697.801	6027
697.828	6323
697.869	6881
697.911	7355
697.921	7452
697.952	7096
697.994	6663
698.035	6166
698.040	6088
698.077	6247
698.118	6453
698.160	6617
698.160	6599
698.201	6895
698.243	7151
698.279	7406
698.284	7455
698.325	7678
698.367	7957
698.399	8091
698.408	8113
698.449	8144
698.491	8172
698.518	8168
698.532	8242
698.573	8389
698.614	8567
698.638	8622
698.656	8461
698.697	8071
698.738	7640
698.757	7425
698.779	7483
698.820	7547
698.862	7625
698.877	7631
698.903	7675
698.944	7712
698.985	7752
698.996	7744
699.026	7918
699.067	8137
699.116	8378
699.235	7954
699.354	8181
699.474	8390
699.593	7220
699.713	8157
699.832	7989
699.951	8293
700.070	8750
700.190	6944
700.309	7009
700.428	6299
700.547	6438
700.667	6367
700.786	7163
700.905	5966
701.024	6572
701.143	6152
701.262	7233
701.381	6013
701.500	6420
701.619	6412
701.738	6104
701.857	5958
701.976	5676
702.095	7305
702.214	6703
702.333	6793
702.452	6212
702.571	6938
702.690	7678
702.809	6606
702.928	6343
703.047	7000
703.165	6881
703.284	6029
703.403	6519
703.522	4693
703.640	5870
703.759	6386
703.878	5900
703.997	6118
704.115	6541
704.234	5740
704.353	5560
704.471	4261
704.590	4815
704.708	5450
704.827	5932
704.946	4786
705.064	5032
705.183	5226
705.301	6242
705.420	5491
705.538	5588
705.656	4415
705.775	5126
705.893	6697
706.012	5694
706.130	4533
706.249	6154
706.367	4472
706.485	5488
706.604	4305
706.722	4820
706.840	4161
706.958	5479
707.077	4647
707.195	4918
707.313	4227
707.431	3952
707.549	4030
707.668	4463
707.786	5143
707.904	4433
708.022	5538
708.140	4381
708.258	4742
708.376	5218
708.494	3950
708.612	4504
708.730	4502
708.848	5200
708.966	4475
709.084	4954
709.202	5010
709.320	4279
709.438	4116
709.556	3335
709.674	4180
709.791	4928
709.909	4347
710.027	4736
710.145	4051
710.263	3807
710.380	3536
710.498	3802
710.616	4220
710.733	3817
710.851	3192
710.969	4093
711.086	3110
711.204	3117
711.322	3633
711.439	3405
711.557	4182
711.674	4043
711.792	3353
711.909	3695
712.027	2889
712.144	2866
712.262	3640
712.379	4075
712.497	3617
712.614	3763
712.732	3480
712.849	3741
712.966	2749
713.084	4112
713.201	2870
713.318	4208
713.436	3645
713.553	3624
713.670	4170
713.787	5362
713.905	3331
714.022	4496
714.139	3790
714.256	6155
714.373	11529
714.490	24392
714.608	80131
714.725	333562
714.842	213278
714.959	15305
715.076	6750
715.193	5738
715.310	4850
715.427	4045
715.544	4393
715.661	3613
715.778	4090
715.895	3418
716.011	3680
716.128	3123
716.245	3357
716.362	3300
716.479	2422
716.596	3015
716.713	3439
716.829	2863
716.946	2480
717.063	3153
717.180	1849
717.296	3402
717.413	2703
717.530	3119
717.646	2157
717.763	3017
717.880	2290
717.996	2522
718.113	2222
718.229	1832
718.346	2054
718.462	1962
718.579	2260
718.695	2000
718.812	2894
718.928	2451
719.045	2316
719.161	1811
719.277	3110
719.394	3070
719.510	2788
719.626	3221
719.743	5147
719.859	9775
719.975	25399
720.092	121079
720.208	189682
720.324	15315
720.440	3888
720.557	3376
720.673	3912
720.789	3215
720.905	3391
721.021	2845
721.137	1761
721.253	2433
721.369	1937
721.486	2642
721.602	2251
721.718	2126
721.834	2868
721.950	1729
722.066	2036
722.181	1862
722.297	1924
722.413	3034
722.529	1673
722.645	2293
722.761	1800
722.877	1647
722.993	2288
723.108	3295
723.224	1648
723.340	2678
723.456	1286
723.571	2386
723.687	495
723.803	1967
723.918	513
724.034	1230
724.150	1931
724.265	2042
724.381	923
724.497	1625
724.612	1147
724.728	1771
724.843	1082
724.959	1695
725.074	1626
725.190	1742
725.305	1535
725.421	1727
725.536	1448
725.651	1598
725.767	2340
725.882	1881
725.997	2182
726.113	1233
726.228	1580
726.343	976
726.459	620
726.574	1158
726.689	1727
726.804	1584
726.920	792
727.035	729
727.150	718
727.265	1553
727.380	1712
727.495	1367
727.610	1518
727.725	945
727.841	1375
727.956	2252
728.071	2479
728.186	1728
728.301	1092
728.416	1684
728.531	1311
728.645	1998
728.760	1192
728.875	1637
728.990	1522
729.105	1033
729.220	636
729.335	951
729.449	1103
729.564	1007
729.679	1243
729.794	1872
729.908	1644
730.023	1130
730.138	1214
730.253	1836
730.367	1255
730.482	1181
730.596	1041
730.711	1822
730.826	1685
730.940	2290
731.055	2100
731.169	1903
731.284	2195
731.398	2417
731.513	2283
731.627	2720
731.742	3672
731.856	4236
731.970	3603
732.085	5618
732.199	8973
732.313	18654
732.428	58680
732.542	170898
732.656	65501
732.771	10549
732.885	6066
732.999	5652
733.113	6408
733.227	6796
733.342	6223
733.456	5500
733.570	4861
733.684	4781
733.798	5028
733.912	5004
734.026	4799
734.140	4104
734.254	4412
734.368	4668
734.482	4730
734.596	4967
734.710	3510
734.824	4612
734.938	4057
735.052	4242
735.166	4370
735.280	3976
735.393	2965
735.507	3644
735.621	3756
735.735	4479
735.849	3880
735.962	4299
736.076	3264
736.190	3809
736.303	4215
736.417	4064
736.531	4227
736.644	3725
736.758	3463
736.872	3960
736.985	3505
737.099	3976
737.212	2867
737.326	3423
737.439	3667
737.553	3761
737.666	3177
737.780	3374
737.893	3588
738.007	3455
738.120	3607
738.233	3303
738.347	3881
738.460	3956
738.573	3574
738.687	2918
738.800	3463
738.913	3613
739.026	2965
739.140	3843
739.253	2580
739.366	3286
739.479	2823
739.592	3144
739.705	2432
739.818	3649
739.932	3058
740.045	2207
740.158	2037
740.271	4030
740.384	2560
740.497	3221
740.610	3020
740.723	2388
740.836	2743
740.949	2674
741.062	2380
741.174	2834
741.287	3318
741.400	3494
741.513	1902
741.626	2591
741.739	2500
741.851	2902
741.964	2867
742.077	2603
742.189	1775
742.302	3315
742.415	2171
742.527	2292
742.640	3069
742.753	2889
742.865	2450
742.978	2261
743.090	2521
743.203	2461
743.316	1967
743.428	2495
743.541	2233
743.653	2164
743.766	1811
743.878	2785
743.990	3063
744.103	3572
744.215	2511
744.327	2263
744.440	3465
744.552	2082
744.664	2148
744.777	2463
744.889	1611
745.001	2228
745.113	2323
745.226	1825
745.338	2631
745.450	3057
745.562	1837
745.674	1610
745.786	1839
745.898	2087
746.010	2013
746.122	2460
746.234	1457
746.347	2475
746.459	1964
746.570	2588
746.682	3641
746.794	3241
746.906	2252
747.018	2002
747.130	2086
747.242	2083
747.354	1696
747.466	2331
747.577	1945
747.689	2225
747.801	2202
747.913	1391
748.024	1739
748.136	1804
748.248	1511
748.359	1885
748.471	2238
748.583	942
748.694	1473
748.806	2133
748.918	981
749.029	2214
749.141	1679
749.252	2578
749.364	1333
749.475	616
749.587	456
749.698	1970
749.809	1821
749.921	1690
750.032	573
750.144	1340
750.255	756
750.366	1213
750.478	1075
750.589	1979
750.700	921
750.811	1417
750.923	957
751.034	774
751.145	1727
751.256	1926
751.367	832
751.479	1336
751.590	385
751.701	1558
751.812	588
751.923	1228
752.034	1655
752.145	1198
752.256	1356
752.367	1461
752.478	848
752.589	1276
752.700	1357
752.811	847
752.922	430
753.032	990
753.143	983
753.254	1133
753.365	1773
753.476	1658
753.586	779
753.697	1040
753.808	71
753.919	856
754.029	1394
754.140	223
754.251	1417
754.361	1074
754.472	1506
754.582	1173
754.693	1373
754.804	2057
754.914	971
755.025	171
755.135	1203
755.246	1510
755.356	397
755.466	2256
755.577	795
755.687	1040
755.798	1202
755.908	1156
756.018	905
756.129	838
756.239	1356
756.349	1566
756.460	987
756.570	1939
756.680	1060
756.790	1243
756.900	1236
757.011	1191
757.121	1794
757.231	660
757.341	683
757.451	479
757.561	903
757.671	1164
757.781	709
757.891	1692
758.001	1120
758.111	2030
758.221	1433
758.331	1468
758.441	948
758.551	1321
758.661	833
758.771	1308
758.880	1150
758.990	1338
759.100	961
759.210	1559
759.320	1712
759.429	1434
759.539	1144
759.649	1429
759.758	1823
759.868	2726
759.978	1864
760.087	2590
760.197	2333
760.307	2292
760.416	2229
760.526	1394
760.635	1882
760.745	2289
760.854	2123
760.964	3295
761.073	2724
761.182	3405
761.292	828
761.401	2470
761.511	444
761.620	2084
761.729	1153
761.839	1420
761.948	834
762.057	504
762.166	1622
762.276	391
762.385	2228
762.494	1204
762.603	570
762.712	1161
762.822	756
762.931	1592
763.040	937
763.149	1471
763.258	1702
763.367	1686
763.476	2174
763.585	1259
763.694	790
763.803	1133
763.912	1984
764.021	1907
764.130	1210
764.238	1375
764.347	1109
764.456	1200
764.565	2127
764.674	1702
764.783	2305
764.891	1885
765.000	3646
765.109	3592
765.217	2245
765.326	3885
765.435	5133
765.543	6794
765.652	7151
765.761	10326
765.869	15408
765.978	22328
766.086	39737
766.195	76554
766.303	166228
766.412	255934
766.520	191480
766.629	96678
766.737	44181
766.846	26025
766.954	16383
767.062	13116
767.171	9312
767.279	7865
767.387	6249
767.496	5812
767.604	4679
767.712	4152
767.820	3850
767.928	3120
768.037	3339
768.145	4026
768.253	2723
768.361	1984
768.469	2354
768.577	2285
768.685	3787
768.793	3182
768.901	2627
769.009	4433
769.117	3366
769.225	6578
769.333	9506
769.441	15652
769.549	29790
769.657	68677
769.765	166244
769.873	195629
769.981	94123
770.088	33702
770.196	16495
770.304	10928
770.412	8022
770.519	6275
770.627	5788
770.735	4660
770.842	3915
770.950	2899
771.058	3036
771.165	3671
771.273	2979
771.380	3817
771.488	4581
771.595	4730
771.703	3126
771.810	4123
771.918	3363
772.025	4040
772.133	4637
772.240	3930
772.348	4623
772.455	4629
772.562	3581
772.670	3838
772.777	4285
772.884	3889
772.991	3655
773.099	3897
773.206	2979
773.313	3934
773.420	3701
773.528	3539
773.635	3289
773.742	3484
773.849	3191
773.956	3602
774.063	3422
774.170	2465
774.277	3516
774.384	2603
774.491	2921
774.598	3982
774.705	3558
774.812	3331
774.919	2694
775.026	2938
775.133	2733
775.239	3555
775.346	2882
775.453	2531
775.560	2267
775.667	2976
775.773	1461
775.880	3733
775.987	2494
776.093	3346
776.200	2953
776.307	2410
776.413	2531
776.520	2289
776.627	1537
776.733	2454
776.840	1485
776.946	4713
777.053	5050
777.159	6729
777.266	2611
777.372	6681
777.478	4359
777.585	3908
777.691	1369
777.798	2499
777.904	1885
778.010	2705
778.117	1745
778.223	2459
778.329	1741
778.435	1922
778.542	2449
778.648	1679
778.754	1646
778.860	3001
778.966	1706
779.072	1874
779.178	2067
779.284	1951
779.391	1325
779.497	1461
779.603	3503
779.708	1112
779.815	2837
779.920	6630
780.026	7155
780.132	2299
780.238	1940
780.344	1541
780.450	2707
780.556	653
780.661	999
780.767	1884
780.873	965
780.979	2027
781.085	1157
781.190	1097
781.296	1980
781.402	1007
781.507	551
781.613	1040
781.719	572
781.824	2579
781.930	1349
782.035	1562
782.141	1685
782.246	1238
782.352	1116
782.457	941
782.563	989
782.668	1373
782.773	849
782.879	1174
782.984	1789
783.090	2268
783.195	2217
783.300	1993
783.405	1128
783.511	723
783.616	1268
783.721	993
783.826	953
783.932	1197
784.037	728
784.142	975
784.247	816
784.352	1425
784.457	237
784.562	1700
784.667	1043
784.772	709
784.877	504
784.982	904
785.087	-11
785.192	1220
785.297	263
785.402	1166
785.507	74
785.611	905
785.716	639
785.821	1071
785.926	850
786.031	828
786.135	245
786.240	1264
786.345	-82
786.450	1649
786.554	218
786.659	524
786.763	293
786.868	1693
786.973	1993
787.077	-511
787.182	977
787.286	658
787.391	1245
787.495	361
787.600	-62
787.704	556
787.809	505
787.913	187
788.017	936
788.122	762
788.226	128
788.330	-168
788.435	1383
788.539	915
788.643	633
788.747	515
788.852	709
788.956	-465
789.060	863
789.164	866
789.268	-244
789.372	597
789.476	-41
789.580	-866
789.684	-597
789.788	1321
789.892	-803
789.996	452
790.100	-153
790.204	710
790.308	825
790.412	156
790.516	712
790.620	147
790.724	724
790.828	882
790.931	-1058
791.035	1049
791.139	211
791.242	-155
791.346	1315
791.450	686
791.554	-456
791.657	-621
791.761	1108
791.864	1155
791.968	855
792.072	1189
792.175	-218
792.279	974
792.382	-521
792.486	14
792.589	122
792.693	1096
792.796	-647
792.899	1059
793.003	843
793.106	-1663
793.209	88
793.313	680
793.416	-800
793.519	1646
793.623	87
793.726	156
793.829	92
793.932	-149
794.035	-357
794.138	1318
794.242	845
794.345	-38
794.448	-828
794.551	-918
794.654	2813
794.757	3593
794.860	427
794.963	848
795.066	-476
795.169	1410
795.272	-1016
795.375	233
795.477	-416
795.580	1176
795.683	-762
795.786	855
795.889	-1230
795.991	1251
796.094	1127
796.197	-781
796.300	1024
796.402	-349
796.505	-993
796.608	-606
796.710	467
796.813	804
796.915	-248
797.018	522
797.120	126
797.223	-996
797.326	1352
797.428	-594
797.530	-851
797.633	518
797.735	829
797.838	-23
797.940	522
798.042	-786
798.145	-285
798.247	912
798.349	-1911
798.452	880
798.554	222
798.656	-529
798.758	1287
798.860	-19
798.962	-791
799.065	-652
799.167	-531
799.269	1088
799.371	1489
799.473	1309
799.575	-1345
799.677	237
799.779	1040
799.881	-927
799.983	120
800.085	673
800.187	-27
800.289	-874
800.390	119
800.492	1207
800.594	1122
800.696	-378
800.798	451
800.899	-431
801.001	-110
801.103	-378
801.205	-661
801.306	766
801.408	-845
801.509	-366
801.611	56
801.713	387
801.814	-338
801.916	-645
802.017	90
802.119	-1193
802.220	-226
802.322	-1900
802.423	1075
802.525	-2489
802.626	-595
802.727	-129
802.829	-29
802.930	-1788
803.031	1269
803.133	64
803.234	-583
803.335	208
803.436	-1381
803.538	97
803.639	-1164
803.740	480
803.841	-1009
803.942	-119
804.043	855
804.144	-856
804.245	18
804.346	-224
804.447	-1194
804.548	-1007
804.649	799
804.750	-616
804.851	-720
804.952	-1085
805.053	-987
805.154	-1512
805.255	989
805.355	-532
805.456	358
805.557	-1022
805.658	-1564
805.758	-137
805.859	-1483
805.960	-54
806.061	-497
806.161	-444
806.262	-98
806.362	-704
806.463	-884
806.564	554
806.664	-787
806.765	-1190
806.865	-860
806.966	-643
807.066	-926
807.166	1109
807.267	592
807.367	-951
807.468	-611
807.568	-870
807.668	185
807.769	1008
807.869	-465
807.969	-166
808.069	-686
808.170	-185
808.270	-1683
808.370	-636
808.470	-921
808.570	-1336
808.670	-739
808.770	-429
808.870	-600
808.970	-129
809.070	-369
809.170	-843
809.271	-383
809.370	-730
809.470	-820
809.570	-420
809.670	-1557
809.770	-279
809.870	-461
809.970	-602
810.070	64
810.169	-164
810.269	-1043
810.369	-301
810.469	-1152
810.568	-739
810.668	-509
810.768	-478
810.867	-954
810.967	-1093
811.066	-747
811.166	-199
811.265	413
811.365	-448
811.464	-675
811.564	188
811.663	-252
811.763	-1548
811.862	-618
811.962	258
812.061	-788
812.160	-1002
812.260	-692
812.359	-1018
812.458	-1614
812.557	-18
812.657	-909
812.756	193
812.855	-935
812.954	-611
813.053	118
813.153	-229
813.252	-1586
813.351	-486
813.450	89
813.549	-94
813.648	-585
813.747	-1178
813.846	377
813.945	-822
814.044	-855
814.143	-89
814.242	373
814.341	-841
814.439	-579
814.538	-559
814.637	-747
814.736	-33
814.835	164
814.933	-714
815.032	660
815.131	-165
815.229	1782
815.328	2369
815.427	848
815.525	2081
815.624	791
815.722	655
815.821	1262
815.919	2232
816.018	490
816.116	2040
816.215	1224
816.313	2285
816.412	1410
816.510	2333
816.609	3217
816.707	3437
816.805	2021
816.904	1873
817.002	2220
817.100	3376
817.198	3040
817.296	1796
817.395	2127
817.493	3268
817.591	1654
817.689	2122
817.787	1401
817.885	1768
817.983	1854
818.081	1998
818.179	2796
818.277	5457
818.375	3267
818.473	2358
818.571	1829
818.669	2532
818.767	2327
818.865	888
818.963	1567
819.061	1481
819.158	1462
819.256	3150
819.354	4120
819.452	8473
819.549	3318
819.647	2285
819.745	1143
819.842	2304
819.940	1410
820.038	1481
820.135	1541
820.233	3660
820.330	557
820.428	552
820.525	2376
820.623	227
820.720	747
820.818	1630
820.915	2166
821.012	962
821.110	-34
821.207	1323
821.304	223
821.402	1382
821.499	2036
821.596	3446
821.693	837
821.791	1476
821.888	1405
821.985	1969
822.082	338
822.179	2857
822.276	1072
822.373	1085
822.470	1213
822.567	590
822.664	113
822.761	1547
822.858	416
822.955	1643
823.052	810
823.149	1438
823.246	597
823.343	22
823.440	1394
823.536	695
823.633	734
823.730	806
823.827	594
823.923	465
824.020	1502
824.117	1405
824.213	495
824.310	1025
824.407	48
824.503	1692
824.600	715
824.696	941
824.793	2415
824.889	1241
824.986	1569
825.082	635
825.179	1036
825.275	1351
825.371	509
825.468	-237
825.564	-247
825.660	653
825.757	845
825.853	1273
825.949	152
826.045	504
826.142	369
826.238	756
826.334	1397
826.430	-926
826.526	556
826.622	-350
826.718	727
826.814	792
826.910	998
827.006	-703
827.102	-201
827.198	1167
827.294	726
827.390	421
827.486	401
827.582	-898
827.678	129
827.774	1169
827.869	-771
827.965	795
828.061	-1156
828.157	1072
828.252	437
828.348	-819
828.444	392
828.539	-222
828.635	-563
828.731	972
828.826	-772
828.922	1231
829.017	161
829.113	1101
829.208	-308
829.304	388
829.399	1250
829.495	-91
829.590	749
829.685	733
829.781	431
829.876	273
829.971	-1122
830.066	177
830.162	374
830.257	526
830.352	-271
830.447	660
830.543	205
830.638	-584
830.733	623
830.828	-501
830.923	1231
831.018	633
831.113	650
831.208	14
831.303	-430
831.398	-310
831.493	398
831.588	1330
831.683	-768
831.778	-408
831.873	1079
831.967	461
832.062	-354
832.157	-627
832.252	1966
832.346	-767
832.441	97
832.536	195
832.631	528
832.725	-326
832.820	562
832.914	-421
833.009	-1382
833.104	-129
833.198	-276
833.293	-162
833.387	726
833.482	135
833.576	-453
833.670	309
833.765	-841
833.859	219
833.954	756
834.048	-332
834.142	-127
834.237	381
834.331	28
834.425	-56
834.519	-981
834.613	666
834.708	-262
834.802	356
834.896	-328
834.990	208
835.084	9
835.178	-352
835.272	-338
835.366	63
835.460	1410
835.554	-58
835.648	-160
835.742	-1098
835.836	-411
835.930	-629
836.024	430
836.117	832
836.211	-1319
836.305	388
836.399	273
836.493	-1230
836.586	75
836.680	-397
836.774	-835
836.867	1084
836.961	-865
837.055	-521
837.148	-298
837.242	-383
837.335	-685
837.429	255
837.522	-923
837.616	-309
837.709	-202
837.803	-705
837.896	82
837.989	-130
838.083	-179
838.176	-770
838.269	-971
838.363	-263
838.456	-862
838.549	-6
838.642	-1618
838.735	67
838.829	-190
838.922	-1018
839.015	207
839.108	-655
839.201	299
839.294	659
839.387	109
839.480	-992
839.573	-961
839.666	-165
839.759	-546
839.852	-1455
839.945	-550
840.038	-453
840.131	-977
840.223	-929
840.316	416
840.409	-487
840.502	-807
840.594	516
840.687	-1176
840.780	-506
840.873	-1131
840.965	-879
841.058	-827
841.150	318
841.243	-1478
841.336	-205
841.428	-991
841.521	-870
841.613	-531
841.706	309
841.798	-291
841.890	-461
841.983	-1224
842.075	528
842.167	-717
842.260	-668
842.352	-110
842.444	-397
842.537	-713
842.629	-331
842.721	-1942
842.813	60
842.905	-1120
842.997	-30
843.090	-414
843.182	-84
843.274	-1108
843.366	-195
843.458	-404
843.550	259
843.642	-1281
843.734	685
843.826	-894
843.918	-779
844.009	-608
844.101	-948
844.193	-881
844.285	-275
844.377	59
844.469	-193
844.560	-218
844.652	-116
844.744	-406
844.835	558
844.927	-1008
845.019	-913
845.110	-933
845.202	-225
845.293	-367
845.385	-1096
845.476	-999
845.568	146
845.659	-665
845.751	-104
845.842	-1052
845.934	-919
846.025	-1406
846.116	17
846.208	19
846.299	-824
846.390	-840
846.482	-463
846.573	-420
846.664	-904
846.755	-1398
846.846	635
846.937	-1769
847.029	-48
847.120	-716
847.211	-478
847.302	617
847.393	-1398
847.484	-475
847.575	-1260
847.666	-916
847.757	-768
847.847	-589
847.938	-615
848.029	-597
848.120	-760
848.211	-1253
848.302	-1139
848.392	-1136
848.483	-569
848.574	-753
848.664	-751
848.755	-676
848.846	38
848.936	-1182
849.027	-149
849.118	-586
849.208	172
849.299	-68
849.389	2405
849.480	4982
849.570	11848
849.661	25445
849.751	35270
849.841	8888
849.932	900
850.022	-902
850.112	24
850.203	-231
850.293	399
850.383	-1175
850.474	-413
850.564	-1021
850.654	-516
850.744	-694
850.834	-754
850.924	-522
851.014	-244
851.104	-1329
851.194	-941
851.284	-470
851.374	-88
851.464	-1329
851.554	-525
851.644	-1197
851.734	-71
851.824	-1161
851.914	-290
852.004	-651
852.094	-1067
852.183	-296
852.273	-96
852.363	-1132
852.452	-843
852.542	-835
852.632	-1306
852.721	226
852.811	-710
852.901	409
852.990	273
853.080	-374
853.169	-480
853.259	-551
853.348	-442
853.438	-279
853.527	2208
853.617	2266
853.706	6759
853.795	12053
853.885	27880
853.974	51779
854.063	98803
854.152	117847
854.242	37998
854.331	8778
854.420	2362
854.509	1670
854.598	1313
854.687	440
854.777	298
854.866	-208
854.955	1108
855.044	-729
855.133	-378
855.222	-1165
855.311	-711
855.400	-872
855.488	-1012
855.577	-521
855.666	-79
855.755	-66
855.844	-651
855.933	-739
856.021	-669
856.110	-632
856.199	-1736
856.288	-1584
856.376	-972
856.465	-687
856.554	-342
856.642	-565
856.731	-643
856.819	-822
856.908	-1329
856.996	-1542
857.085	-823
857.173	-358
857.262	-639
857.350	-609
857.438	-1160
857.527	-1415
857.615	170
857.703	49
857.792	-949
857.880	-1563
857.968	-1300
858.056	-774
858.145	-418
858.233	-1476
858.321	-687
858.409	-234
858.497	-1021
858.585	-1746
858.673	-341
858.761	-881
858.849	-481
858.937	-1092
859.025	-810
859.113	-646
859.201	-1218
859.289	263
859.377	-1155
859.465	-385
859.552	-434
859.640	-1448
859.728	-1141
859.816	-924
859.903	-218
859.991	-820
860.079	-16
860.166	-665
860.254	-348
860.342	-551
860.429	-882
860.517	-1568
860.604	-982
860.692	-513
860.779	-878
860.867	-1532
860.954	-1590
861.042	-406
861.129	233
861.216	-750
861.304	80
861.391	-138
861.478	-804
861.565	-988
861.653	-109
861.740	-417
861.827	-1417
861.914	-898
862.001	-1007
862.089	-1480
862.176	-555
862.263	-1222
862.350	-264
862.437	-1605
862.524	-864
862.611	-1102
862.698	341
862.785	-159
862.871	-438
862.958	-1357
863.045	-798
863.132	-247
863.219	-573
863.306	-1332
863.392	475
863.479	311
863.566	-1412
863.652	-84
863.739	-464
863.826	-1380
863.912	-459
863.999	-1328
864.086	-828
864.172	-440
864.259	-1173
864.345	-777
864.432	-213
864.518	-725
864.604	-365
864.691	-708
864.777	-233
864.863	613
864.950	776
865.036	1352
865.122	3741
865.209	3445
865.295	3961
865.381	2577
865.467	2603
865.553	4326
865.639	5372
865.726	8809
865.812	17216
865.898	30749
865.984	44107
866.070	80182
866.156	66982
866.242	16790
866.328	6104
866.414	3861
866.499	3925
866.585	3170
866.671	2755
866.757	2097
866.843	3175
866.928	1966
867.014	1769
867.100	2476
867.186	1252
867.271	1867
867.357	2089
867.442	1770
867.528	2542
867.614	2037
867.699	2559
867.785	2644
867.870	2103
867.956	2027
868.041	2408
868.127	1896
868.212	2059
868.297	2306
868.383	2510
868.468	1343
868.553	2257
868.639	1187
868.724	1976
868.809	1684
868.894	1459
868.979	1710
869.065	1661
869.150	1055
869.235	1694
869.320	1271
869.405	1056
869.490	1467
869.575	1166
869.660	181
869.745	2551
869.830	2127
869.915	1537
870.000	912
870.085	2383
870.169	2121
870.254	1893
870.339	457
870.424	1420
870.509	1304
870.593	1880
870.678	1702
870.763	1283
870.847	1031
870.932	988
871.016	1783
871.101	981
871.186	1545
871.270	2304
871.355	-144
871.439	1604
871.523	1496
871.608	969
871.692	454
871.777	1887
871.861	1874
871.945	1207
872.030	2063
872.114	1554
872.198	803
872.282	1220
872.367	1214
872.451	708
872.535	1079
872.619	662
872.703	418
872.787	1347
872.871	1093
872.955	259
873.039	1064
873.123	830
873.207	1898
873.291	966
873.375	961
873.459	1192
873.543	733
873.627	670
873.711	406
873.794	1004
873.878	473
873.962	-173
874.045	887
874.129	554
874.137	624
874.213	1329
874.245	1145
874.296	841
874.352	-85
874.380	-536
874.460	857
874.464	912
874.547	474
874.568	687
874.631	1313
874.676	637
874.714	58
874.784	982
874.798	1166
874.881	1015
874.892	979
874.965	790
874.999	768
875.048	676
875.107	665
875.131	672
875.215	403
875.215	403
875.298	537
875.323	703
875.381	1114
875.430	1373
875.465	1508
875.538	-318
875.548	-553
875.631	175
875.646	148
875.714	-49
875.753	311
875.798	793
875.861	600
875.881	500
875.964	1109
875.968	1056
876.047	246
876.076	588
876.130	1162
876.183	1286
876.213	1387
876.291	1542
876.296	1543
876.379	156
876.398	372
876.462	1166
876.506	859
876.545	545
876.613	597
876.628	659
876.711	1027
876.721	1041
876.794	1039
876.828	1098
876.877	1035
876.935	992
876.960	1070
877.043	1281
877.043	1283
877.125	1681
877.150	1680
877.208	1635
877.258	1148
877.291	830
877.365	509
877.374	483
877.456	717
877.472	740
877.539	988
877.579	1269
877.622	1439
877.687	862
877.704	716
877.787	1332
877.794	1292
877.869	910
877.901	942
877.952	825
878.008	70
878.034	-141
878.115	706
878.117	721
878.199	368
878.222	498
878.282	1081
878.329	1335
878.364	1338
878.437	1153
878.447	1138
878.529	213
878.544	326
878.611	1020
878.651	972
878.694	949
878.758	1405
878.776	1513
878.858	1426
878.865	1430
878.941	1151
878.972	933
879.023	808
879.078	637
879.105	711
879.185	1587
879.187	1597
879.269	1521
879.292	1360
879.351	966
879.399	896
879.433	877
879.506	1352
879.516	1423
879.598	1219
879.613	1179
879.680	1082
879.720	1712
879.762	2206
879.827	1111
879.844	897
879.926	1442
879.933	1431
880.007	1339
880.040	1577
880.089	1966
880.147	2318
880.171	2522
880.253	3621
880.254	3623
880.335	4574
880.360	4970
880.417	7095
880.467	10120
880.499	11728
880.574	12206
880.580	11891
880.662	5132
880.680	4122
880.744	2229
880.787	1627
880.825	1559
880.893	1645
880.907	1693
880.989	1338
881.000	1381
881.070	1923
881.106	1682
881.152	1158
881.213	1396
881.233	1490
881.315	1122
881.319	1131
881.396	1390
881.426	1319
881.478	1400
881.532	1350
881.559	1268
881.639	1277
881.641	1282
881.722	1653
881.745	1573
881.803	1663
881.852	1915
881.885	1953
881.958	1510
881.966	1473
882.047	1794
882.064	1765
882.129	1509
882.171	1419
882.210	1381
882.277	1192
882.291	1180
882.372	864
882.383	914
882.454	1974
882.489	2461
882.535	2461
882.596	1917
882.616	1892
882.697	1933
882.702	1943
882.778	1550
882.808	1362
882.859	1417
882.914	1784
882.940	1926
883.020	1547
883.021	1552
883.102	2042
883.127	2074
883.183	2546
883.233	2996
883.264	2533
883.339	1049
883.345	1008
883.426	440
883.445	566
883.507	1722
883.551	1790
883.587	1633
883.657	2362
883.668	2498
883.749	2226
883.763	2273
883.830	1802
883.869	1563
883.910	1683
883.975	1603
883.991	1620
884.072	1935
884.081	1953
884.152	2310
884.187	2337
884.233	2239
884.292	2536
884.314	2423
884.394	1214
884.398	1163
884.475	1290
884.504	1443
884.555	1419
884.610	1065
884.636	1120
884.716	1828
884.716	1844
884.797	2926
884.821	3078
884.877	2470
884.927	2123
884.958	2041
885.033	1685
885.038	1673
885.118	1856
885.139	1686
885.199	1461
885.244	1672
885.279	1881
885.350	2090
885.359	2172
885.439	2766
885.456	2760
885.520	1718
885.561	1502
885.600	1630
885.667	1487
885.680	1580
885.760	2162
885.773	2282
885.840	2335
885.878	2139
885.920	1999
885.984	2035
886.000	2077
886.080	1894
886.089	1904
886.160	2479
886.195	2694
886.240	2658
886.300	2483
886.320	2468
886.400	2378
886.406	2362
886.480	1934
886.511	1857
886.560	1956
886.616	1819
886.640	1878
886.720	2247
886.722	2244
886.800	2482
886.827	2533
886.879	2476
886.932	2502
886.959	2737
887.038	3150
887.039	3163
887.119	3159
887.143	3215
887.198	3028
887.248	2659
887.278	2638
887.354	2563
887.358	2577
887.437	2609
887.459	2675
887.517	2785
887.564	2662
887.596	2320
887.669	1532
887.676	1562
887.755	1961
887.774	2027
887.835	1996
887.880	2045
887.914	1956
887.985	1631
887.994	1785
888.073	3108
888.090	3384
888.153	3530
888.195	3540
888.232	2958
888.300	1979
888.311	2045
888.391	2304
888.405	2372
888.470	2196
888.510	1995
888.549	2201
888.615	2665
888.628	2731
888.708	3042
888.720	3064
888.787	2910
888.825	2791
888.866	2468
888.930	2037
888.945	2119
889.024	2489
889.035	2528
889.103	3144
889.140	3430
889.182	3049
889.245	2503
889.261	2549
889.340	2695
889.349	2708
889.419	2344
889.454	2125
889.498	2246
889.559	2422
889.577	2602
889.656	3347
889.664	3412
889.735	3024
889.768	2822
889.814	2884
889.873	2946
889.978	3214
890.083	3190
890.187	2940
890.292	3206
890.397	2796
890.501	2480
890.606	2561
890.710	2909
890.815	3878
890.919	2811
891.024	2275
891.128	2534
891.233	2219
891.337	3039
891.442	2438
891.546	3234
891.650	1724
891.755	2034
891.859	3886
891.963	3639
892.068	3171
892.172	2563
892.276	1904
892.380	2890
892.484	2898
892.589	3351
892.693	3232
892.797	1453
892.901	1991
893.005	1734
893.109	3158
893.213	4169
893.317	2656
893.421	2031
893.525	1944
893.629	1967
893.733	3260
893.837	2246
893.941	2683
894.045	2661
894.148	1502
894.252	2510
894.356	4013
894.460	3426
894.564	1679
894.667	1572
894.771	1923
894.875	554
894.978	2762
895.082	2208
895.186	3300
895.289	2767
895.393	2809
895.496	3089
895.600	2032
895.703	1808
895.807	1859
895.910	3056
896.014	2855
896.117	1779
896.221	2466
896.324	2150
896.427	2236
896.531	2756
896.634	2480
896.737	1711
896.840	2621
896.944	2120
897.047	2943
897.150	2562
897.253	1700
897.356	1930
897.460	1542
897.563	2266
897.666	2699
897.769	3438
897.872	2043
897.975	2336
898.078	2224
898.181	1663
898.284	2057
898.387	3025
898.490	2922
898.593	2038
898.695	1469
898.798	2625
898.901	1506
899.004	1588
899.107	2147
899.209	2475
899.312	3000
899.415	2106
899.518	1246
899.620	1768
899.723	850
899.826	1817
899.928	859
900.031	2085
900.133	2871
900.236	1986
900.338	1774
900.441	1421
900.543	2875
900.646	2100
900.748	2129
900.851	2598
900.953	2100
901.055	1364
901.158	1968
901.260	1438
901.362	2072
901.465	1810
901.567	1968
901.669	2514
901.771	2299
901.873	2763
901.976	1302
902.078	2240
902.180	1861
902.282	1008
902.384	1754
902.486	3350
902.588	2485
902.690	1137
902.792	2237
902.894	2019
902.996	2420
903.098	2242
903.200	1362
903.302	1346
903.404	1640
903.505	1201
903.607	2280
903.709	3413
903.811	2018
903.913	2069
904.014	2057
904.116	1260
904.218	1920
904.319	2448
904.421	3454
904.523	2967
904.624	1444
904.726	1752
904.827	1329
904.929	2046
905.030	1651
905.132	2343
905.233	2235
905.335	1652
905.436	2163
905.537	1311
905.639	1748
905.740	2150
905.841	2140
905.943	2086
906.044	1671
906.145	1492
906.247	1378
906.348	1157
906.449	1857
906.550	3064
906.651	2098
906.752	2050
906.854	1010
906.955	1861
907.056	1704
907.157	2487
907.258	2361
907.359	947
907.460	1375
907.561	1766
907.662	1166
907.762	2385
907.863	1992
907.964	2898
908.065	1379
908.166	1541
908.267	1299
908.367	1925
908.468	1312
908.569	979
908.670	1369
908.770	1977
908.871	1527
908.971	1868
909.072	2048
909.173	990
909.273	1984
909.374	1974
909.474	1270
909.575	1280
909.675	1168
909.776	2584
909.876	1435
909.977	1683
910.077	1810
910.177	3077
910.278	2090
910.378	1428
910.478	2079
910.579	1119
910.679	1971
910.779	2569
910.879	1928
910.980	2118
911.080	1986
911.180	1346
911.280	1475
911.380	1036
911.480	1276
911.580	1969
911.680	1170
911.780	2225
911.880	2478
911.980	655
912.080	1835
912.180	1530
912.280	844
912.380	1365
912.480	1203
912.580	1171
912.679	1218
912.779	1638
912.879	1399
912.979	2207
913.078	1115
913.178	814
913.278	1401
913.377	1683
913.477	1645
913.577	723
913.676	2564
913.776	2603
913.875	630
913.975	1248
914.074	1119
914.174	1632
914.273	398
914.373	1465
914.472	1185
914.572	543
914.671	1411
914.770	1528
914.870	1199
914.969	1556
915.068	1200
915.167	2738
915.267	1533
915.366	1814
915.465	1182
915.564	1349
915.663	1859
915.763	587
915.862	1481
915.961	1585
916.060	1713
916.159	1683
916.258	1314
916.357	1661
916.456	1516
916.555	1819
916.654	1779
916.752	2980
916.851	1950
916.950	2250
917.049	1132
917.148	1584
917.247	1022
917.345	1614
917.444	1529
917.543	1655
917.642	1346
917.740	695
917.839	2445
917.937	2640
918.036	2228
918.135	1961
918.233	1788
918.332	1511
918.430	653
918.529	1447
918.627	969
918.726	1610
918.824	2316
918.923	1359
919.021	1263
919.119	1220
919.218	868
919.316	1355
919.414	1554
919.512	2609
919.611	1661
919.709	2284
919.807	2202
919.905	3485
920.003	2874
920.102	1945
920.200	2339
920.298	1863
920.396	2092
920.494	3318
920.592	2164
920.690	2154
920.788	2034
920.886	2748
920.984	2683
921.082	2635
921.180	3055
921.277	2539
921.375	4011
921.473	5113
921.571	4320
921.669	3936
921.766	3432
921.864	4723
921.962	3899
922.060	3739
922.157	4314
922.255	4598
922.352	3868
922.450	5204
922.548	4669
922.645	5746
922.743	6959
922.840	10101
922.938	12720
923.035	10127
923.133	10543
923.230	11986
923.327	14951
923.425	12597
923.522	12462
923.619	12007
923.717	10809
923.814	10872
923.911	10117
924.008	12462
924.106	10817
924.203	10618
924.300	10709
924.397	10884
924.494	11291
924.591	10981
924.688	10001
924.786	10685
924.883	10949
924.979	11095
925.077	10748
925.173	9939
925.270	9508
925.367	10505
925.464	11206
925.561	12441
925.658	11306
925.755	9407
925.852	11080
925.948	10037
926.045	9708
926.142	10566
926.239	10533
926.335	9006
926.432	10815
926.529	10622
926.625	11265
926.722	8273
926.818	8293
926.915	10585
927.011	9080
927.108	8825
927.204	10209
927.301	8671
927.397	10117
927.494	10796
927.590	6987
927.687	8222
927.783	10187
927.879	10890
927.976	9095
928.072	8230
928.168	10315
928.264	10083
928.361	8686
928.457	10375
928.553	8315
928.649	9088
928.745	9261
928.841	8319
928.937	8673
929.033	9483
929.129	7957
929.225	10893
929.321	8478
929.417	6790
929.513	9310
929.609	8590
929.705	8116
929.801	8348
929.897	7177
929.993	7728
930.089	8801
930.184	6760
930.280	8491
930.376	10499
930.471	7394
930.567	7187
930.663	7942
930.758	6729
930.854	8110
930.950	7835
931.045	6731
931.141	7187
931.236	8852
931.332	7931
931.427	6177
931.523	9804
931.618	7785
931.714	5907
931.809	6928
931.905	8751
932.000	5991
932.095	6119
932.191	8967
932.286	8768
932.381	7755
932.476	5993
932.572	6454
932.667	6111
932.762	6109
932.857	7090
932.952	8663
933.047	8088
933.142	6092
933.237	6896
933.332	6995
933.427	7953
933.522	6330
933.617	5943
933.712	6916
933.807	8349
933.902	7840
933.997	9087
934.092	5208
934.187	6710
934.282	6820
934.376	7034
934.471	7964
934.566	6123
934.661	5536
934.755	7459
934.850	7390
934.945	6111
935.039	5244
935.134	5426
935.228	6578
935.323	10004
935.417	4675
935.512	4928
935.606	4890
935.701	7277
935.795	7245
935.890	6896
935.984	5535
936.079	4506
936.173	5867
936.267	5815
936.362	4785
936.456	6753
936.550	7820
936.644	6482
936.738	5504
936.833	4476
936.927	3095
937.021	5832
937.115	5783
937.209	6293
937.303	6297
937.397	5131
937.491	5515
937.585	6397
937.679	6034
937.773	4761
937.867	3949
937.961	4207
938.055	6850
938.149	6286
938.243	3969
938.337	4637
938.430	4993
938.524	7271
938.618	5755
938.712	5316
938.805	4937
938.899	6687
938.993	7461
939.086	5587
939.180	4497
939.274	4945
939.367	5667
939.461	6729
939.554	4728
939.648	4317
939.741	5195
939.835	5707
939.928	6718
940.022	6194
940.115	5325
940.208	6926
940.302	6446
940.395	7134
940.488	3997
940.582	4971
940.675	4118
940.768	4386
940.861	6152
940.954	6589
941.048	2803
941.141	3351
941.234	4388
941.327	4467
941.420	4782
941.513	5789
941.606	5121
941.699	4095
941.792	5162
941.885	4798
941.978	4481
942.071	5316
942.164	2994
942.257	3469
942.349	4468
942.442	4878
942.535	2995
942.628	4010
942.721	3796
942.813	4256
942.906	5111
942.999	4552
943.091	2955
943.184	3800
943.277	4795
943.369	2637
943.462	2989
943.554	4362
943.647	3802
943.739	6120
943.832	4807
943.924	2658
944.017	3006
944.109	3395
944.201	3212
944.294	4075
944.386	4058
944.478	3743
944.571	3294
944.663	3477
944.755	4770
944.847	5098
944.940	4243
945.032	2329
945.124	2591
945.216	4948
945.308	4115
945.400	4619
945.492	3543
945.584	5516
945.676	6001
945.768	4582
945.860	3903
945.952	5021
946.044	4446
946.136	3527
946.228	3026
946.320	3480
946.412	3661
946.503	4872
946.595	5067
946.687	3488
946.779	2563
946.870	3237
946.962	3504
947.054	3762
947.145	4769
947.237	2954
947.329	2642
947.420	4131
947.512	3223
947.603	2256
947.695	2676
947.786	2430
947.878	2753
947.969	4287
948.061	3230
948.152	3121
948.243	2001
948.335	1991
948.426	2220
948.517	3131
948.609	4129
948.700	4026
948.791	3233
948.882	1983
948.973	2752
949.065	3392
949.156	2994
949.247	1337
949.338	2904
949.429	1275
949.520	2361
949.611	3357
949.702	3983
949.793	2942
949.884	3161
949.975	2214
950.066	2352
950.157	1985
950.247	2106
950.338	2138
950.429	3393
950.520	2909
950.611	1718
950.701	2357
950.792	3182
950.883	3187
950.973	3564
951.064	2548
951.155	4191
951.245	4016
951.336	3936
951.427	2870
951.517	4476
951.608	4074
951.698	2112
951.788	2512
951.879	1496
951.969	2546
952.060	2432
952.150	3147
952.240	4624
952.331	1699
952.421	4314
952.511	1818
952.602	1504
952.692	1769
952.782	2143
952.872	2300
952.962	2831
953.052	2411
953.143	2776
953.233	1975
953.323	3264
953.413	2804
953.503	3504
953.593	2891
953.683	2660
953.773	1039
953.863	1696
953.953	1113
954.042	2478
954.132	2928
954.222	2680
954.312	1994
954.402	1853
954.492	2107
954.581	2375
954.671	2668
954.761	1323
954.850	2897
954.940	1438
955.030	1349
955.119	1938
955.209	2225
955.298	1763
955.388	3287
955.477	3343
955.567	612
955.656	2492
955.746	2396
955.835	1927
955.925	1860
956.014	2909
956.103	3419
956.193	3581
956.282	3483
956.371	1605
956.461	1902
956.550	2217
956.639	2454
956.728	1822
956.817	1967
956.906	2538
956.995	3703
957.085	1401
957.174	2816
957.263	2322
957.352	2114
957.441	2312
957.530	2334
957.619	1785
957.708	2628
957.796	2551
957.885	1747
957.974	2497
958.063	2703
958.152	889
958.241	1407
958.329	2052
958.418	2862
958.507	1834
958.596	2914
958.684	2224
958.773	2691
958.861	1920
958.950	2274
959.039	2014
959.127	1707
959.216	3169
959.304	1954
959.393	2422
959.481	2335
959.570	1939
959.658	1589
959.746	1257
959.835	2095
959.923	1623
960.011	1059
960.100	2408
960.188	2681
960.276	1743
960.365	2194
960.453	1357
960.541	1287
960.629	2076
960.717	1800
960.805	408
960.893	2303
960.981	2037
961.069	3572
961.158	2303
961.245	3801
961.333	2507
961.421	1749
961.509	2795
961.597	2298
961.685	1576
961.773	1959
961.861	1826
961.949	3379
962.036	1155
962.124	2667
962.212	1554
962.299	2013
962.387	1178
962.475	1649
962.562	1152
962.650	2956
962.738	2409
962.825	2242
962.913	1543
963.000	1273
963.088	1282
963.175	1823
963.263	1757
963.350	1113
963.438	918
963.525	1646
963.612	1845
963.700	1367
963.787	3204
963.874	2110
963.962	1472
964.049	1016
964.136	1705
964.223	1311
964.310	1581
964.398	2008
964.485	1527
964.572	1493
964.659	1670
964.746	1293
964.833	1421
964.920	1249
965.007	974
965.094	1677
965.181	1166
965.268	2306
965.355	1521
965.441	2046
965.528	1108
965.615	2216
965.702	2912
965.789	1888
965.875	2107
965.962	2209
966.049	1137
966.136	1898
966.222	2153
966.309	2916
966.395	2320
966.482	2405
966.569	1718
966.655	2581
966.742	1658
966.828	1922
966.915	893
967.001	1785
967.087	455
967.174	1047
967.260	1660
967.347	1275
967.433	1178
967.519	2256
967.605	1542
967.692	1633
967.778	2197
967.864	1044
967.950	1567
968.036	436
968.123	2006
968.209	1224
968.295	654
968.381	2567
968.467	1816
968.553	916
968.639	2207
968.725	1399
968.811	2434
968.897	2352
968.983	1501
969.069	925
969.154	1947
969.240	1781
969.326	965
969.412	1475
969.497	1031
969.583	1478
969.669	2295
969.755	1715
969.840	1334
969.926	2556
970.012	4036
970.097	5396
970.183	2580
970.268	2316
970.354	2194
970.439	749
970.525	2334
970.610	1108
970.696	2000
970.781	2712
970.866	600
970.952	1562
971.037	1411
971.122	2061
971.208	2360
971.293	2061
971.378	1242
971.463	1510
971.549	2346
971.634	1207
971.719	1092
971.804	1444
971.889	2157
971.974	1557
972.059	1494
972.144	1975
972.229	1470
972.314	1664
972.399	1674
972.484	733
972.569	1425
972.654	937
972.739	1808
972.824	763
972.908	1797
972.993	1352
973.078	1188
973.163	1431
973.247	1191
973.332	1079
973.417	1845
973.501	1292
973.586	1614
973.671	1475
973.755	1508
973.840	1966
973.924	2022
974.009	2843
974.093	2281
974.178	3375
974.262	2229
974.346	1860
974.431	2071
974.515	1764
974.600	1489
974.684	1773
974.768	2052
974.852	2809
974.937	921
975.021	2685
975.105	1141
975.189	1402
975.273	1126
975.358	1834
975.442	751
975.526	2583
975.610	874
975.694	1457
975.778	1955
975.862	1476
975.946	-327
976.030	3312
976.114	894
976.198	1046
976.281	1088
976.365	1580
976.449	1087
976.533	1983
976.617	800
976.700	1291
976.784	884
976.868	1896
976.951	1222
977.035	1494
977.119	1551
977.202	942
977.286	1677
977.369	1858
977.453	3894
977.536	3051
977.620	1534
977.703	2145
977.787	2102
977.870	2138
977.953	2606
978.037	598
978.120	2108
978.203	1375
978.287	1917
978.370	1336
978.453	1244
978.536	237
978.620	2523
978.703	2111
978.786	1215
978.869	1271
978.952	999
979.035	3395
979.118	1147
979.201	2214
979.284	2032
979.367	1395
979.450	1196
979.533	1794
979.616	1523
979.699	1179
979.782	1267
979.865	1915
979.948	1422
980.030	1120
980.113	1313
980.196	639
980.279	2051
980.361	1139
980.444	1707
980.526	2478
980.609	3530
980.692	3145
980.774	3406
980.857	1569
980.939	2392
981.022	934
981.104	2015
981.187	2171
981.269	2368
981.352	2157
981.434	1168
981.516	2468
981.599	2815
981.681	1635
981.763	1617
981.846	1364
981.928	2188
982.010	1440
982.092	1567
982.174	2511
982.256	1542
982.339	1870
982.421	1221
982.503	1297
982.585	668
982.667	2064
982.749	1655
982.831	1335
982.913	908
982.995	2872
983.077	1558
983.158	3061
983.240	1331
983.322	2493
983.404	4542
983.486	3198
983.568	3413
983.649	3080
983.731	3249
983.813	2480
983.894	2369
983.976	1978
984.058	2158
984.139	3418
984.221	1484
984.302	2428
984.384	1922
984.465	1492
984.547	1970
984.628	1918
984.710	3026
984.791	1800
984.872	2163
984.954	1874
985.035	3003
985.116	2096
985.198	1713
985.279	2964
985.360	1572
985.441	2009
985.522	3079
985.604	2066
985.685	481
985.766	2314
985.847	3354
985.928	1896
986.009	1686
986.090	2471
986.171	2720
986.252	1833
986.333	2096
986.414	2341
986.495	2550
986.576	2643
986.656	2317
986.737	2975
986.818	2263
986.899	1112
986.980	1459
987.060	3178
987.141	2230
987.222	2777
987.302	3307
987.383	4133
987.464	3662
987.544	3964
987.625	2936
987.705	4304
987.786	2872
987.866	3322
987.947	3046
988.027	3144
988.108	2933
988.188	3748
988.268	2589
988.349	3406
988.429	2798
988.509	3120
988.589	3138
988.670	2224
988.750	3686
988.830	2470
988.910	3080
988.990	2089
989.070	2343
989.151	2200
989.231	1695
989.311	2944
989.391	1655
989.471	2727
989.551	1500
989.631	1491
989.711	2978
989.791	1697
989.870	1567
989.950	2927
990.030	1681
990.110	2032
990.190	1466
990.269	2108
990.349	1984
990.429	2961
990.509	2888
990.588	1525
990.668	2536
990.747	2020
990.827	1615
990.907	1673
990.986	2496
991.066	2228
991.145	1697
991.225	2139
991.304	1634
991.383	2093
991.463	1871
991.542	2196
991.622	1498
991.701	1492
991.780	1198
991.859	1612
991.939	877
992.018	2064
992.097	2776
992.176	1558
992.256	874
992.335	954
992.414	2073
992.493	1389
992.572	1336
992.651	2348
992.730	1216
992.809	1492
992.888	554
992.967	1498
993.046	2020
993.125	1065
993.203	1376
993.282	1157
993.361	1281
993.440	2216
993.519	118
993.597	1607
993.676	275
993.755	1707
993.834	1498
993.912	-36
993.991	1310
994.069	1413
994.148	1547
994.226	874
994.305	1234
994.384	794
994.462	2333
994.540	343
994.619	692
994.697	1785
994.776	622
994.854	1352
994.932	1042
995.011	1512
995.089	586
995.167	825
995.245	1773
995.324	229
995.402	2067
995.480	1168
995.558	751
995.636	504
995.714	565
995.792	1360
995.870	-253
995.948	1791
996.026	299
996.104	438
996.182	1571
996.260	248
996.338	460
996.416	687
996.494	815
996.572	1291
996.649	813
996.727	-75
996.805	1312
996.883	1690
996.960	299
997.038	1490
997.116	1370
997.193	-62
997.271	918
997.348	362
997.426	657
997.504	1108
997.581	1285
997.658	471
997.736	-205
997.813	-526
997.891	1422
997.968	266
998.046	466
998.123	-209
998.200	1797
998.277	334
998.355	662
998.432	-311
998.509	647
998.586	1782
998.663	658
998.741	929
998.818	-312
998.895	-182
998.972	1246
999.049	835
999.126	-53
999.203	1839
999.280	943
999.357	719
999.434	-143
999.511	518
999.587	9
999.664	-120
999.741	792
999.818	486
999.895	-103
999.971	21
1000.048	897
1000.125	1621
1000.202	-537
1000.278	123
1000.355	567
1000.431	275
1000.508	-206
1000.584	217
1000.661	229
1000.738	174
1000.814	-231
1000.890	358
1000.967	204
1001.043	81
1001.120	-1558
1001.196	296
1001.272	-1080
1001.349	998
1001.425	532
1001.501	1128
1001.577	-249
1001.654	440
1001.730	57
1001.806	41
1001.882	-510
1001.958	1669
1002.034	928
1002.110	-61
1002.186	-359
1002.262	207
1002.338	-906
1002.414	651
1002.490	-260
1002.566	330
1002.642	-192
1002.718	569
1002.794	-746
1002.870	-233
1002.945	-43
1003.021	-223
1003.097	-480
1003.173	287
1003.248	33
1003.324	-433
1003.400	41
1003.475	-37
1003.551	-500
1003.626	-161
1003.702	-599
1003.777	-170
1003.853	-34
1003.928	88
1004.004	261
1004.079	-269
1004.155	-365
1004.230	-727
1004.305	73
1004.381	-24
1004.456	-710
1004.531	296
1004.607	-134
1004.682	22
1004.757	-849
1004.832	-357
1004.907	352
1004.982	876
1005.057	254
1005.133	-767
1005.208	-177
1005.283	225
1005.358	-306
1005.433	-845
1005.508	-19
1005.583	-688
1005.657	-91
1005.732	166
1005.807	-825
1005.882	-243
1005.957	-400
1006.032	314
1006.106	-759
1006.181	-278
1006.256	-536
1006.331	-419
1006.405	-1135
1006.480	-194
1006.554	-204
1006.629	100
1006.704	-167
1006.778	-214
1006.853	-441
1006.927	192
1007.002	-809
1007.076	-191
1007.150	-350
1007.225	-1227
1007.299	-562
1007.373	-666
1007.448	-567
1007.522	-413
1007.596	-284
1007.671	-392
1007.745	262
1007.819	-775
1007.893	-466
1007.967	119
1008.041	-781
1008.115	183
1008.190	-967
1008.264	-210
1008.338	-1411
1008.412	-259
1008.486	-615
1008.560	-10
1008.633	-859
1008.707	-509
1008.781	-460
1008.855	293
1008.929	-485
1009.003	-687
1009.076	-118
1009.150	-548
1009.224	100
1009.298	-510
1009.371	-1259
1009.445	62
1009.519	-904
1009.592	-1348
1009.666	-432
1009.739	-184
1009.813	-1424
1009.886	264
1009.960	-1306
1010.033	-235
1010.107	-595
1010.180	-1206
1010.253	-992
1010.327	-1299
1010.400	-496
1010.473	-753
1010.547	490
1010.620	-528
1010.693	-1427
1010.766	-522
1010.840	-271
1010.913	-527
1010.986	-1111
1011.059	-635
1011.132	-344
1011.205	392
1011.278	-846
1011.351	-483
1011.424	-72
1011.497	-677
1011.570	-606
1011.643	350
1011.716	-789
1011.789	-747
1011.862	-1077
1011.934	39
1012.007	-2208
1012.080	-874
1012.153	-311
1012.225	-711
1012.298	-1162
1012.371	-159
1012.443	-699
1012.516	-869
1012.588	-495
1012.661	-1091
1012.733	-921
1012.806	24
1012.879	-1115
1012.951	-1292
1013.023	-942
1013.096	42
1013.168	-589
1013.241	-397
1013.313	-842
1013.385	-1480
1013.458	-137
1013.530	-529
1013.602	-1551
1013.674	-522
1013.746	-1732
1013.819	-1468
1013.891	12
1013.963	-1359
1014.035	-108
1014.107	-588
1014.179	-672
1014.251	-1105
1014.323	-304
1014.395	-1398
1014.467	-1356
1014.539	-662
1014.611	-1626
1014.683	-920
1014.754	21
1014.826	-848
1014.898	-994
1014.970	-1126
1015.042	-456
1015.113	-466
1015.185	-1111
1015.257	-964
1015.328	-981
1015.400	-1510
1015.471	-1110
1015.543	-1204
1015.615	-930
1015.686	-1763
1015.757	-1395
1015.829	-464
1015.901	-1578
1015.972	-693
1016.043	-1381
1016.115	-259
1016.186	-1460
1016.257	-1437
1016.328	-1365
1016.400	341
1016.471	-1494
1016.542	-1112
1016.613	-724
1016.685	-585
1016.756	-1381
1016.827	-681
1016.898	-1417
1016.969	-982
1017.040	-1782
1017.111	-1316
1017.182	-1058
1017.253	-982
1017.324	-1727
1017.395	-551
1017.466	-981
1017.537	-591
1017.608	-937
1017.678	-660
1017.749	-891
1017.820	-1023
1017.891	-1364
1017.961	-1236
1018.032	-1419
1018.103	-1010
1018.173	-1019
1018.244	-692
1018.315	-323
1018.385	-712
1018.456	-1156
1018.526	-1508
1018.597	-935
1018.667	-866
1018.738	-2002
1018.808	-1635
1018.878	-2019
1018.949	-722
1019.019	-2161
1019.089	-1113
1019.160	-564
1019.230	-1046
1019.300	-1042
1019.371	-1845
1019.441	-1524
1019.511	-1306
1019.581	-996
1019.651	-1149
1019.721	-1197
1019.791	-1044
1019.861	-771
1019.931	-962
1020.001	-1086
1020.071	-854
1020.141	-961
1020.211	-11
1020.281	-1512
1020.351	-1669
1020.421	-983
1020.491	-915
1020.560	-2254
1020.630	-833
1020.700	-1022
1020.770	-1112
1020.839	-1011
1020.909	-1334
1020.979	-1026
1021.048	-749
1021.118	-1205
1021.187	-868
1021.257	-831
1021.326	-919
1021.396	-1368
1021.465	-764
1021.535	-1652
1021.604	-2182
1021.674	-1169
1021.743	-1278
1021.812	-834
1021.882	-961
1021.951	-648
1022.020	-562
1022.089	-731
1022.159	-877
1022.228	-1181
1022.297	-1853
1022.366	-1328
1022.435	-945
1022.504	-1038
1022.573	-1455
1022.642	-491
1022.711	-1523
1022.781	-1148
1022.849	-1023
1022.918	-1132
1022.987	-688
1023.056	-1759
1023.125	-1413
1023.194	-1225
1023.263	-1527
1023.331	-1296
1023.400	-1333
1023.469	-1422
1023.538	-767
1023.606	-2176
1023.675	-956
1023.744	-1269
1023.812	-1595
1023.881	-1261
1023.949	-1047
1024.018	-685
1024.086	-1052
1024.155	-1394
1024.223	-1544
1024.292	-641
1024.360	-495
1024.429	-1489
1024.497	-1501
1024.565	-1166
1024.634	-1558
1024.702	-1187
1024.770	-849
1024.838	-1843
1024.907	247
1024.975	-1093
1025.043	-1260
1025.111	-1931
1025.179	-1133
1025.247	-1098
1025.315	-110
1025.383	-1271
1025.451	-1017
1025.519	-592
1025.587	-1392
1025.655	-917
1025.723	-838
1025.791	-1331
1025.859	-886
1025.927	-947
1025.995	-623
1026.062	-581
1026.130	-1622
1026.198	-814
1026.266	-98
1026.333	-1033
1026.401	11
1026.469	-1668
1026.536	-1160
1026.604	-1548
1026.671	-1383
1026.739	-1112
1026.806	-428
1026.874	-1682
1026.941	-658
1027.009	-1142
1027.076	-1468
1027.144	-1196
1027.211	-2099
1027.278	-943
1027.345	-634
1027.413	-587
1027.480	-845
1027.547	-869
1027.614	-1382
1027.682	-709
1027.749	-752
1027.816	-1713
1027.883	-706
1027.950	-720
1028.017	-1680
1028.084	-417
1028.151	-626
1028.218	-1010
1028.285	-1173
1028.352	-1047
1028.419	-1345
1028.486	-2090
1028.553	-609
1028.619	-1740
1028.686	-1426
1028.753	-1331
1028.820	-1489
1028.886	-1090
1028.953	-1817
1029.020	-435
1029.086	-1412
1029.153	-1496
1029.220	-470
1029.286	-861
1029.353	-1884
1029.419	-1334
1029.486	-1070
1029.552	-1551
1029.619	-1143
1029.685	-1210
1029.751	-1661
1029.818	-705
1029.884	-978
1029.951	-761
1030.017	-973
1030.083	-505
1030.149	-873
1030.216	-1244
1030.282	-1096
1030.348	-2016
1030.414	-1619
1030.480	-1012
1030.546	-1031
1030.612	-1225
1030.678	-1588
1030.744	-2025
1030.810	-707
1030.876	-1256
1030.942	-668
1031.008	-1187
1031.074	-1492
1031.140	-1598
1031.206	-273
1031.272	-1404
1031.337	-1107
1031.403	-948
1031.469	-1121
1031.534	-815
1031.600	-1183
1031.666	-1995
1031.731	-980
1031.797	-1141
1031.863	-1468
1031.928	-2374
1031.994	-600
1032.059	-1118
1032.125	-1019
1032.190	-560
1032.256	-2215
1032.321	-1936
1032.386	-1750
1032.452	-712
1032.517	-1511
1032.582	-1514
1032.647	-949
1032.713	-1620
1032.778	-606
1032.843	-1455
1032.908	-944
1032.974	-1364
1033.039	-1484
1033.104	-1038
1033.169	-864
1033.234	-1822
1033.299	-474
1033.364	-1388
1033.429	-1668
1033.494	-1062
1033.559	-1746
1033.624	-1228
1033.688	-636
1033.753	-1711
1033.818	-847
1033.883	-263
1033.948	-544
1034.013	-510
1034.077	-96
1034.142	-463
1034.207	351
1034.271	1230
1034.336	1857
1034.400	730
1034.465	-172
1034.530	-1012
1034.594	-599
1034.658	-1870
1034.723	-899
1034.787	-1430
1034.852	-579
1034.916	-1610
1034.981	-1855
1035.045	-1092
1035.109	-1357
1035.173	-761
1035.238	-1774
1035.302	-1277
1035.366	-2416
1035.430	-1039
1035.495	-1002
1035.559	-879
1035.623	-1324
1035.687	-1818
1035.751	-1301
1035.815	-1299
1035.879	-1475
1035.943	-869
1036.007	-1198
1036.071	-1336
1036.135	-1444
1036.198	-1785
1036.262	-490
1036.326	-1189
1036.390	-1630
1036.454	-1025
1036.517	-1394
1036.581	-1260
1036.645	-1271
1036.709	-888
1036.772	-784
1036.836	-1749
1036.900	-642
1036.963	-1747
1037.026	-1484
1037.090	-1394
1037.154	-1491
1037.217	-1651
1037.280	-1440
1037.344	-1492
1037.407	-1550
1037.471	-1381
1037.534	-1308
1037.597	-1299
1037.661	-1803
1037.724	-865
1037.787	-1448
1037.850	-471
1037.913	-1552
1037.977	-1652
1038.040	-1075
1038.103	-1768
1038.166	-1215
1038.229	-1118
1038.292	-1581
1038.355	-2377
1038.418	-2086
1038.481	-1412
1038.544	-2099
1038.607	-1501
1038.670	-1887
1038.732	-877
1038.795	-1152
1038.858	-2277
1038.921	-971
1038.984	-1663
1039.046	-1591
1039.109	-2205
1039.172	-1520
1039.234	-1766
1039.297	-1106
1039.360	-1574
1039.422	-2287
1039.485	-1186
1039.547	-2630
1039.610	-1837
1039.672	-1520
1039.734	-1386
1039.797	-2215
1039.859	-1707
1039.922	-1037
1039.984	-2083
1040.046	-1324
1040.109	-1160
1040.171	-1814
1040.233	-1546
1040.295	-1475
1040.358	-2673
1040.420	-2085
1040.482	-1554
1040.544	-1994
1040.606	-1859
1040.668	-2080
1040.730	-1290
1040.792	-1090
1040.854	-1892
1040.916	-2069
1040.978	-1848
1041.040	-763
1041.102	-1786
1041.164	-1939
1041.225	-1437
1041.287	-2120
1041.349	-2268
1041.411	-2140
1041.472	-2115
1041.534	-2006
1041.596	-1502
1041.657	-1772
1041.719	-1675
1041.781	-1850
1041.842	-2271
1041.904	-1840
1041.965	-1734
1042.027	-1801
1042.088	-1940
1042.150	-1802
1042.211	-1786
1042.272	-1732
1042.334	-1936
1042.395	-2224
1042.456	-2305
1042.518	-2048
1042.579	-1176
1042.640	-1907
1042.701	-1815
1042.763	-2284
1042.824	-2553
1042.885	-1811
1042.946	-2152
1043.007	-1492
1043.068	-1781
1043.129	-1777
1043.190	-1585
1043.251	-1750
1043.312	-1956
1043.373	-1359
1043.434	-1958
1043.495	-1735
1043.556	-1569
1043.616	-1453
1043.677	-2164
1043.738	-1565
1043.799	-1759
1043.859	-1627
1043.920	-2594
1043.981	-1545
1044.041	-1985
1044.102	-1887
1044.162	-2300
1044.223	-1829
1044.284	-1704
1044.344	-2246
1044.405	-2458
1044.465	-1762
1044.525	-2133
1044.586	-1554
1044.646	-1463
1044.707	-1717
1044.767	-2194
1044.827	-1962
1044.887	-1814
1044.948	-770
1045.008	-1399
1045.068	-1505
1045.128	-1832
1045.188	-1504
1045.249	-1569
1045.309	-2515
1045.369	-1652
1045.429	-1680
1045.489	-2249
1045.549	-1905
1045.609	-1329
1045.669	-1887
1045.729	-1617
1045.789	-1919
1045.848	-1797
1045.908	-1305
1045.968	-1797
1046.028	-1493
1046.088	-1776
1046.147	-672
1046.207	-1143
1046.267	-1395
1046.326	-1729
1046.386	-1100
1046.446	-174
1046.505	-1124
1046.565	-1028
1046.624	-964
1046.684	-1264
1046.743	30
1046.803	570
1046.862	120
1046.922	0
