'Start Wavelength	183.907
'End Wavelength	1046.922
'Gate Delay	5.000
'Gate Width (ms)	1.050
'Laser Output Level	0.000
'X Position	0.000
'Y Position	0.000
'Z Position	0.000
'Grid Point Number	1.000
'Shot Number	100.000
183.907	1084.000
183.977	-782.000
184.047	-143
184.116	-30
184.186	-418
184.256	593
184.325	-346
184.395	-714
184.465	680
184.534	-39
184.604	-313
184.674	854
184.743	-758
184.813	637
184.883	-106
184.952	-38
185.022	721
185.092	-297
185.161	-478
185.231	423
185.301	-689
185.370	1110
185.440	-33
185.509	22
185.579	335
185.649	-198
185.718	627
185.788	790
185.857	47
185.927	-278
185.996	256
186.066	-385
186.136	156
186.205	586
186.275	266
186.344	434
186.414	549
186.483	-406
186.553	1283
186.622	741
186.692	281
186.761	426
186.831	413
186.900	-170
186.970	461
187.039	577
187.109	118
187.178	351
187.248	1006
187.317	251
187.387	-294
187.456	1007
187.526	661
187.595	296
187.664	261
187.734	602
187.803	16
187.873	556
187.942	496
188.012	654
188.081	374
188.150	420
188.220	1466
188.289	1011
188.358	935
188.428	611
188.497	414
188.567	738
188.636	107
188.705	370
188.775	30
188.844	5
188.913	1016
188.983	-403
189.052	1285
189.121	930
189.191	515
189.260	93
189.329	5
189.399	117
189.468	453
189.537	358
189.606	631
189.676	1498
189.745	431
189.814	-147
189.883	112
189.953	-293
190.022	-280
190.091	193
190.161	113
190.230	266
190.299	493
190.368	370
190.437	73
190.507	421
190.576	231
190.645	174
190.714	67
190.783	-378
190.853	1074
190.922	1280
190.991	383
191.060	1019
191.129	-89
191.198	85
191.268	128
191.337	-196
191.406	1309
191.475	-150
191.544	58
191.613	1019
191.682	379
191.752	26
191.821	569
191.890	387
191.959	-502
192.028	104
192.097	1044
192.166	773
192.235	-331
192.304	695
192.373	107
192.442	621
192.511	-54
192.580	269
192.650	290
192.719	220
192.788	-88
192.857	655
192.926	-5
192.995	764
193.064	951
193.133	1016
193.202	-224
193.271	1184
193.340	97
193.409	426
193.478	85
193.547	299
193.615	694
193.684	91
193.753	-42
193.822	657
193.891	665
193.960	1246
194.029	-82
194.098	130
194.167	-696
194.236	104
194.305	554
194.374	-333
194.443	-94
194.512	724
194.580	673
194.649	9
194.718	539
194.787	913
194.856	-292
194.925	186
194.994	-108
195.062	486
195.131	455
195.200	-774
195.269	-276
195.338	337
195.407	-11
195.475	116
195.544	-310
195.613	235
195.682	337
195.751	846
195.819	-403
195.888	301
195.957	1261
196.026	400
196.094	503
196.163	557
196.232	468
196.301	-350
196.369	-222
196.438	473
196.507	396
196.576	60
196.644	-12
196.713	-92
196.782	239
196.850	978
196.919	100
196.988	490
197.056	-130
197.125	476
197.194	-2
197.262	-96
197.331	683
197.400	-474
197.468	4
197.537	333
197.606	1159
197.674	290
197.743	-203
197.812	-179
197.880	646
197.949	123
198.017	523
198.086	30
198.155	876
198.223	-316
198.292	490
198.360	480
198.429	-345
198.497	-417
198.566	-431
198.635	490
198.703	747
198.772	1142
198.840	-428
198.909	-184
198.977	327
199.046	906
199.114	728
199.183	670
199.251	477
199.320	-12
199.388	-147
199.457	-222
199.525	271
199.594	-90
199.662	776
199.731	-165
199.799	105
199.867	1152
199.936	-376
200.004	155
200.073	926
200.141	-13
200.210	153
200.278	-223
200.346	873
200.415	609
200.483	776
200.552	1612
200.620	409
200.688	735
200.757	486
200.825	328
200.893	616
200.962	1067
201.030	38
201.098	297
201.167	483
201.235	474
201.303	976
201.372	1062
201.440	800
201.508	1548
201.577	671
201.645	509
201.713	1429
201.781	461
201.850	1375
201.918	1170
201.986	968
202.055	1083
202.123	551
202.191	273
202.259	1009
202.327	777
202.396	-350
202.464	561
202.532	1419
202.600	3391
202.669	2335
202.737	614
202.805	442
202.873	899
202.941	47
203.009	490
203.078	606
203.146	771
203.214	188
203.282	-728
203.350	357
203.418	739
203.487	1064
203.555	956
203.623	358
203.691	379
203.759	987
203.827	254
203.895	664
203.963	648
204.031	103
204.099	277
204.168	259
204.236	473
204.304	956
204.372	882
204.440	436
204.508	328
204.576	136
204.644	824
204.712	-125
204.780	-60
204.848	877
204.916	-151
204.984	91
205.052	207
205.120	784
205.188	481
205.256	-454
205.324	612
205.392	-280
205.460	139
205.528	-198
205.596	245
205.664	160
205.732	506
205.799	352
205.867	327
205.935	-1724
206.003	542
206.071	-343
206.139	204
206.207	-228
206.275	676
206.343	218
206.411	902
206.478	558
206.546	112
206.614	460
206.682	498
206.750	-188
206.818	1980
206.885	1636
206.953	-221
207.021	1333
207.089	789
207.157	-332
207.225	786
207.292	478
207.360	-289
207.428	-597
207.496	-140
207.563	-103
207.631	50
207.699	389
207.767	573
207.834	-249
207.902	404
207.970	275
208.038	176
208.105	-213
208.173	222
208.241	-367
208.309	1084
208.376	527
208.444	365
208.512	168
208.579	-535
208.647	1258
208.715	1951
208.782	516
208.850	1093
208.918	-20
208.985	1090
209.053	-511
209.120	337
209.188	440
209.256	318
209.323	-170
209.391	713
209.459	1529
209.526	343
209.594	-582
209.661	541
209.729	682
209.796	253
209.864	1224
209.932	-772
209.999	1715
210.067	562
210.134	340
210.202	373
210.269	1584
210.337	2099
210.404	1356
210.472	896
210.539	851
210.607	875
210.674	-473
210.742	1381
210.809	466
210.877	441
210.944	724
211.012	-295
211.079	1226
211.146	376
211.214	864
211.281	2205
211.349	2106
211.416	1170
211.484	1351
211.551	742
211.618	601
211.686	364
211.753	-401
211.821	1123
211.888	530
211.955	1102
212.023	513
212.090	853
212.157	-12
212.225	258
212.292	-258
212.359	1044
212.427	2882
212.494	1321
212.561	534
212.629	-140
212.696	18
212.763	165
212.831	-709
212.898	830
212.965	375
213.032	766
213.100	392
213.167	-65
213.234	384
213.301	760
213.369	471
213.436	133
213.503	-609
213.570	95
213.638	931
213.705	-333
213.772	652
213.839	758
213.906	1433
213.973	951
214.041	-67
214.108	-92
214.175	662
214.242	745
214.309	928
214.376	720
214.444	649
214.511	439
214.578	297
214.645	1218
214.712	911
214.779	672
214.846	-307
214.913	409
214.980	1520
215.048	1532
215.115	2853
215.182	1932
215.249	1372
215.316	785
215.383	1343
215.450	755
215.517	656
215.584	125
215.651	400
215.718	264
215.785	781
215.852	-648
215.919	1095
215.986	175
216.053	590
216.120	-97
216.187	-205
216.254	1067
216.321	298
216.388	100
216.455	195
216.522	-105
216.589	51
216.656	834
216.722	1131
216.789	512
216.856	900
216.923	281
216.990	932
217.057	436
217.124	808
217.191	116
217.258	287
217.324	-482
217.391	260
217.458	-10
217.525	-55
217.592	692
217.659	-1181
217.725	805
217.792	362
217.859	1095
217.926	-121
217.993	959
218.059	688
218.126	-45
218.193	249
218.260	901
218.327	105
218.393	336
218.460	-181
218.527	-376
218.594	556
218.660	226
218.727	1102
218.794	-438
218.860	1363
218.927	-635
218.994	-122
219.061	694
219.127	708
219.194	244
219.261	903
219.327	574
219.394	1087
219.461	-703
219.527	506
219.594	984
219.661	453
219.727	-129
219.794	1685
219.860	547
219.927	2023
219.994	4223
220.060	6011
220.127	6193
220.193	3969
220.260	2364
220.326	1308
220.393	573
220.460	-199
220.526	-33
220.593	500
220.659	2034
220.726	554
220.792	1306
220.859	888
220.925	996
220.992	805
221.058	2353
221.125	2781
221.191	1301
221.258	64
221.324	730
221.391	619
221.457	82
221.524	129
221.590	1614
221.657	1755
221.723	1263
221.789	1094
221.856	1270
221.922	-370
221.989	993
222.055	-124
222.121	-65
222.188	2764
222.254	1076
222.321	1257
222.387	668
222.453	432
222.520	205
222.586	-190
222.652	1662
222.719	24
222.785	411
222.851	33
222.918	706
222.984	592
223.050	445
223.116	-940
223.183	1238
223.249	-617
223.315	-361
223.382	486
223.448	-199
223.514	-233
223.580	-117
223.647	152
223.713	-190
223.779	471
223.845	624
223.911	643
223.978	-1428
224.044	397
224.110	-426
224.176	1020
224.242	249
224.309	-894
224.375	1104
224.441	18
224.507	-180
224.573	-867
224.639	1762
224.705	649
224.772	-41
224.838	-207
224.904	634
224.970	-121
225.036	297
225.102	-984
225.168	1509
225.234	1753
225.300	354
225.366	152
225.432	899
225.499	432
225.565	1071
225.631	121
225.697	626
225.763	911
225.829	882
225.895	408
225.961	234
226.027	1266
226.093	814
226.159	1808
226.225	1390
226.291	1626
226.357	2205
226.423	1311
226.489	1434
226.554	363
226.620	1278
226.686	1041
226.752	8
226.818	902
226.884	2872
226.950	2231
227.016	1089
227.082	2517
227.148	1030
227.214	1631
227.279	735
227.345	1411
227.411	2633
227.477	6485
227.543	13516
227.609	15183
227.674	8862
227.740	3599
227.806	2583
227.872	2186
227.938	1414
228.003	499
228.069	1163
228.135	316
228.201	955
228.267	245
228.332	1147
228.398	-198
228.464	1391
228.530	14
228.595	1287
228.661	-213
228.727	132
228.792	1564
228.858	182
228.924	-987
228.990	1971
229.055	-711
229.121	675
229.187	-184
229.252	524
229.318	-189
229.384	547
229.449	991
229.515	-1347
229.581	-661
229.646	1652
229.712	511
229.777	693
229.843	470
229.909	1876
229.974	752
230.040	349
230.105	261
230.171	-232
230.236	750
230.302	197
230.368	450
230.433	-373
230.499	178
230.564	906
230.630	566
230.695	425
230.761	1053
230.826	-1187
230.892	1334
230.957	-1128
231.023	-169
231.088	369
231.154	675
231.219	1090
231.284	507
231.350	1023
231.415	-558
231.481	311
231.546	952
231.612	670
231.677	296
231.742	-1150
231.808	1649
231.873	813
231.939	-1542
232.004	1362
232.069	1562
232.135	501
232.200	1278
232.265	1349
232.331	-18
232.396	1477
232.461	711
232.527	191
232.592	-392
232.657	791
232.723	1489
232.788	16
232.853	319
232.918	792
232.984	-20
233.049	682
233.114	-60
233.179	1508
233.245	1608
233.310	1015
233.375	-513
233.440	1133
233.506	630
233.571	821
233.636	107
233.701	413
233.766	800
233.832	811
233.897	279
233.962	-365
234.027	1558
234.092	1314
234.157	1111
234.222	1144
234.288	1701
234.353	2251
234.418	843
234.483	1765
234.548	859
234.613	18
234.678	477
234.743	-33
234.808	1316
234.873	-437
234.938	1670
235.004	-6
235.069	559
235.134	439
235.199	1298
235.264	896
235.329	-999
235.394	831
235.459	1560
235.524	-1013
235.589	1407
235.654	278
235.719	6
235.784	1440
235.849	342
235.913	916
235.978	785
236.043	453
236.108	1249
236.173	-50
236.238	963
236.303	508
236.368	-432
236.433	1270
236.498	591
236.563	631
236.627	1003
236.692	4561
236.757	3211
236.822	943
236.887	467
236.952	1438
237.017	-903
237.081	1518
237.146	424
237.211	1981
237.276	4233
237.341	7416
237.405	2144
237.470	1803
237.535	1350
237.600	779
237.664	1177
237.729	-375
237.794	223
237.859	1323
237.923	1200
237.988	-5
238.053	1268
238.118	680
238.182	2333
238.247	4194
238.312	-433
238.376	2015
238.441	-899
238.506	1433
238.570	-821
238.635	1364
238.700	722
238.764	538
238.829	1240
238.893	88
238.958	1455
239.023	1079
239.087	867
239.152	1681
239.216	737
239.281	1490
239.346	808
239.410	1430
239.475	850
239.539	3492
239.604	1739
239.668	2586
239.733	5008
239.797	14126
239.862	28554
239.926	22506
239.991	9367
240.055	4903
240.120	3234
240.184	3335
240.249	1299
240.313	1172
240.378	876
240.442	1935
240.507	2722
240.571	1208
240.635	1047
240.700	899
240.764	868
240.829	783
240.893	599
240.957	1004
241.022	1644
241.086	2850
241.151	969
241.215	49
241.279	1743
241.344	270
241.408	1270
241.472	393
241.537	1581
241.601	1510
241.665	355
241.730	104
241.794	2170
241.858	298
241.922	175
241.987	826
242.051	55
242.115	-215
242.179	451
242.244	152
242.308	1439
242.372	1456
242.436	802
242.501	1811
242.565	-24
242.629	675
242.693	1988
242.757	625
242.822	414
242.886	1736
242.950	1986
243.014	606
243.078	1483
243.142	517
243.206	485
243.271	1497
243.335	1366
243.399	1560
243.463	2582
243.527	5332
243.591	1800
243.655	1427
243.719	383
243.783	2095
243.847	951
243.911	802
243.975	869
244.040	357
244.104	2240
244.168	909
244.232	366
244.296	1326
244.360	1792
244.424	-302
244.488	1396
244.552	1535
244.615	-330
244.679	982
244.743	326
244.807	235
244.871	1126
244.935	1814
244.999	217
245.063	1063
245.127	1760
245.191	1203
245.255	897
245.319	2257
245.383	-977
245.446	1988
245.510	-117
245.574	950
245.638	1778
245.702	-84
245.766	1776
245.829	2674
245.893	493
245.957	531
246.021	1027
246.085	1858
246.149	1086
246.212	2999
246.276	3931
246.340	1906
246.404	1329
246.467	2111
246.531	-149
246.595	2056
246.659	2425
246.722	161
246.786	1749
246.850	2091
246.913	2513
246.977	171
247.041	2235
247.104	1191
247.168	1625
247.232	2350
247.295	6170
247.359	3063
247.423	1576
247.486	1897
247.550	2598
247.614	846
247.677	1730
247.741	1584
247.804	1519
247.868	6094
247.932	2904
247.995	6413
248.059	2355
248.122	444
248.186	2466
248.249	2024
248.313	8281
248.376	9090
248.440	5233
248.503	1142
248.567	3171
248.630	1527
248.694	2156
248.757	3508
248.821	10169
248.884	5479
248.948	3408
249.011	6478
249.075	11280
249.138	9902
249.202	3262
249.265	1336
249.328	2601
249.392	932
249.455	2408
249.519	1716
249.582	1836
249.645	2973
249.709	1790
249.772	1850
249.835	2102
249.899	1249
249.962	3028
250.025	1150
250.089	3265
250.152	5325
250.215	1499
250.279	2251
250.342	1575
250.405	1957
250.468	996
250.532	1436
250.595	3735
250.658	9954
250.721	21094
250.785	4516
250.848	3947
250.911	2315
250.974	3241
251.038	3041
251.101	6793
251.164	3134
251.227	2726
251.290	2389
251.354	4035
251.417	16096
251.480	15093
251.543	7633
251.606	30618
251.669	20368
251.732	6045
251.795	7096
251.859	7864
251.922	17501
251.985	8639
252.048	4258
252.111	3175
252.174	1663
252.237	4400
252.300	11859
252.363	9490
252.426	26838
252.489	8167
252.552	3553
252.615	1360
252.678	3876
252.741	8946
252.804	9614
252.867	26327
252.930	12466
252.993	5201
253.056	4779
253.119	3241
253.182	1758
253.245	2245
253.308	3428
253.371	1994
253.434	2068
253.497	3523
253.559	6246
253.622	3093
253.685	2984
253.748	2244
253.811	2504
253.874	3225
253.937	2791
254.000	2507
254.062	3233
254.125	5492
254.188	4304
254.251	2378
254.314	1736
254.376	2134
254.439	2752
254.502	2526
254.565	3351
254.628	7399
254.690	2655
254.753	1859
254.816	2277
254.878	2456
254.941	4312
255.004	4840
255.067	2879
255.129	1905
255.192	1911
255.255	820
255.317	1743
255.380	2176
255.443	2396
255.505	2560
255.568	1801
255.631	2006
255.693	4166
255.756	2575
255.819	3620
255.881	3201
255.944	3199
256.006	1310
256.069	1681
256.132	933
256.194	1976
256.257	2764
256.319	2441
256.382	3998
256.444	6117
256.507	3358
256.569	2449
256.632	1920
256.694	1688
256.757	3604
256.819	7860
256.882	2140
256.944	2325
257.007	2841
257.069	1682
257.132	1383
257.194	2008
257.257	2050
257.319	1788
257.381	1379
257.444	3454
257.506	8007
257.569	9622
257.631	6150
257.693	3218
257.756	2135
257.818	2233
257.880	1766
257.943	3113
258.005	1304
258.067	1898
258.130	1970
258.192	2716
258.254	1757
258.317	2505
258.379	2406
258.441	2940
258.503	4273
258.566	2781
258.628	4051
258.690	2043
258.753	3218
258.815	2410
258.877	2148
258.939	2977
259.001	2515
259.064	2119
259.126	848
259.188	2849
259.250	2631
259.312	2968
259.375	4798
259.437	3226
259.499	1862
259.561	2728
259.623	3244
259.685	2339
259.747	2145
259.809	4295
259.872	4933
259.934	7909
259.996	7502
260.058	3344
260.120	2326
260.182	3207
260.244	2940
260.306	2181
260.368	2604
260.430	3025
260.492	3210
260.554	5114
260.616	3737
260.678	5110
260.740	5516
260.802	2743
260.864	3577
260.926	1670
260.988	3223
261.050	3499
261.112	2788
261.174	5237
261.236	5009
261.298	2872
261.359	3360
261.421	4775
261.483	3140
261.545	3887
261.607	2199
261.669	3147
261.731	3864
261.793	3523
261.854	1708
261.916	3296
261.978	2581
262.040	3312
262.102	3339
262.164	2426
262.225	3170
262.287	2624
262.349	2551
262.411	3200
262.472	3945
262.534	2300
262.596	3481
262.658	3866
262.719	2602
262.781	4212
262.843	3161
262.904	3185
262.966	4045
263.028	4081
263.090	4808
263.151	9228
263.213	4578
263.275	4026
263.336	3687
263.398	4692
263.459	3906
263.521	4397
263.583	4347
263.644	3861
263.706	2560
263.767	2672
263.829	3468
263.891	2691
263.952	3144
264.014	2449
264.075	2509
264.137	2887
264.198	2704
264.260	2157
264.321	2034
264.383	3170
264.444	3706
264.506	2419
264.567	3030
264.629	3954
264.690	2322
264.752	3428
264.813	2847
264.875	2212
264.936	3376
264.998	2419
265.059	2980
265.120	3999
265.182	2912
265.243	3139
265.305	4017
265.366	3999
265.427	3303
265.489	3773
265.550	1806
265.611	3628
265.673	2916
265.734	3332
265.795	2668
265.857	3239
265.918	2125
265.979	4410
266.040	5068
266.102	5522
266.163	3606
266.224	3392
266.286	3683
266.347	3242
266.408	3391
266.469	4013
266.530	4282
266.592	3953
266.653	3881
266.714	4767
266.775	4915
266.836	4848
266.898	3912
266.959	4901
267.020	4364
267.081	6074
267.142	5051
267.203	5303
267.264	5032
267.326	6936
267.387	5066
267.448	4251
267.509	5637
267.570	4272
267.631	4090
267.692	3394
267.753	4640
267.814	3248
267.875	3651
267.936	4562
267.997	3049
268.058	2899
268.119	2627
268.180	2829
268.241	2300
268.302	2412
268.363	2501
268.424	2616
268.485	2435
268.546	2577
268.607	2069
268.668	2389
268.729	1912
268.790	2519
268.851	1934
268.912	2138
268.972	3136
269.033	1373
269.094	2087
269.155	3030
269.216	1994
269.277	3456
269.338	2344
269.398	2072
269.459	1570
269.520	2952
269.581	3284
269.642	2959
269.702	2225
269.763	3068
269.824	3552
269.885	3202
269.945	2618
270.006	2732
270.067	1538
270.128	2692
270.188	1872
270.249	1642
270.310	1630
270.370	2279
270.431	2494
270.492	1232
270.553	2472
270.613	2305
270.674	3107
270.734	2430
270.795	1991
270.856	1956
270.916	2587
270.977	3055
271.038	4268
271.098	2260
271.159	2310
271.219	3415
271.280	2701
271.340	2474
271.401	2603
271.462	2392
271.522	3349
271.583	3102
271.643	2979
271.704	3095
271.764	3531
271.825	4822
271.885	10172
271.946	12679
272.006	7724
272.066	8040
272.127	14885
272.187	17357
272.248	8396
272.308	5452
272.369	9569
272.429	5747
272.489	5706
272.550	5707
272.610	5938
272.671	5368
272.731	5357
272.791	4729
272.852	5920
272.912	5721
272.972	5502
273.033	5694
273.093	6174
273.153	7469
273.214	6278
273.274	7726
273.334	11059
273.394	15326
273.455	10827
273.515	11943
273.575	13351
273.635	12935
273.696	14613
273.756	18443
273.816	13857
273.876	12456
273.936	10866
273.997	11184
274.057	8063
274.117	6711
274.177	7573
274.237	11940
274.297	10758
274.358	7274
274.418	8986
274.478	6213
274.538	5123
274.598	4520
274.658	5827
274.718	5782
274.778	4506
274.838	4094
274.898	4808
274.958	7052
275.018	9899
275.078	7544
275.138	4379
275.198	4219
275.258	4042
275.318	4117
275.378	3730
275.438	4479
275.498	4156
275.558	5447
275.618	7936
275.678	4791
275.738	5071
275.798	4753
275.858	3010
275.918	3584
275.978	4467
276.038	3781
276.098	4183
276.157	3463
276.217	5629
276.277	4302
276.337	4304
276.397	3790
276.457	4322
276.517	4828
276.576	4429
276.636	4306
276.696	5142
276.756	6075
276.815	5370
276.875	6435
276.935	6102
276.995	6095
277.055	6091
277.114	6525
277.174	5362
277.234	5951
277.293	6327
277.353	4467
277.413	4586
277.472	6358
277.532	6049
277.592	10995
277.651	32356
277.711	55745
277.771	23937
277.830	58166
277.890	49460
277.950	46098
278.009	99671
278.069	47664
278.128	47229
278.188	62225
278.248	36746
278.307	70399
278.367	41151
278.426	15767
278.486	11180
278.545	10352
278.605	8929
278.664	8373
278.724	7880
278.783	10547
278.843	14557
278.902	9863
278.962	10145
279.021	12516
279.081	21191
279.140	20148
279.199	15084
279.259	16515
279.318	20796
279.378	28500
279.437	46378
279.496	104530
279.556	247237
279.615	221544
279.675	87255
279.734	49785
279.793	49606
279.853	53205
279.912	28311
279.971	22199
280.031	20739
280.090	26724
280.149	39539
280.208	62377
280.268	181369
280.327	186939
280.386	65029
280.445	35533
280.505	24307
280.564	19146
280.623	15733
280.682	12626
280.742	14682
280.801	10068
280.860	9566
280.919	9438
280.978	9596
281.037	9638
281.097	8559
281.156	11318
281.215	8961
281.274	8535
281.333	10895
281.392	9689
281.451	7013
281.510	7158
281.569	6780
281.628	7290
281.688	6887
281.747	7956
281.806	6793
281.865	6453
281.924	6187
281.983	6231
282.042	6347
282.101	6197
282.160	6167
282.219	6026
282.278	5681
282.337	6742
282.396	7170
282.454	7104
282.513	6486
282.572	7060
282.631	7402
282.690	6230
282.749	5969
282.808	7191
282.867	6672
282.926	6417
282.985	8156
283.043	8428
283.102	7464
283.161	8640
283.220	9404
283.279	10146
283.338	8747
283.396	8366
283.455	9715
283.514	10095
283.573	9687
283.631	9421
283.690	9491
283.749	10429
283.808	10381
283.866	11198
283.925	11531
283.984	10964
284.043	12530
284.101	13275
284.160	13483
284.219	16790
284.277	16514
284.336	18682
284.395	22750
284.453	22978
284.512	24809
284.570	28112
284.629	33058
284.688	39906
284.746	47080
284.805	57574
284.863	70386
284.922	87046
284.981	106059
285.039	130436
285.098	152697
285.156	143293
285.215	94017
285.273	99393
285.332	152411
285.390	162026
285.449	135574
285.507	108816
285.566	86352
285.624	69651
285.683	57177
285.741	47708
285.799	39334
285.858	34512
285.916	30627
285.975	26011
286.033	23177
286.091	21390
286.150	18047
286.208	17548
286.267	16238
286.325	14472
286.383	14068
286.442	13336
286.500	12142
286.558	11346
286.616	10765
286.675	10923
286.733	10618
286.791	9053
286.850	9759
286.908	9241
286.966	9154
287.024	7664
287.083	7422
287.141	7773
287.199	8060
287.257	7665
287.315	7930
287.374	6879
287.432	7391
287.490	6991
287.548	5689
287.606	6045
287.664	6515
287.723	6548
287.781	6409
287.839	6184
287.897	5544
287.955	6527
288.013	6309
288.071	9980
288.129	20817
288.187	52993
288.245	22024
288.303	9571
288.361	6682
288.419	6749
288.477	5123
288.535	6075
288.593	5350
288.651	5459
288.709	4473
288.767	5419
288.825	4697
288.883	5098
288.941	4775
288.999	4345
289.057	4359
289.115	3715
289.173	5011
289.231	4232
289.289	3708
289.346	4192
289.404	5503
289.462	4942
289.520	4539
289.578	4096
289.636	3674
289.694	4305
289.751	4185
289.809	3919
289.867	4216
289.925	5172
289.983	3849
290.040	4277
290.098	3943
290.156	3251
290.214	4277
290.271	3636
290.329	4778
290.387	4710
290.444	3615
290.502	3753
290.560	4076
290.617	3969
290.675	4686
290.733	3702
290.790	4126
290.848	4915
290.906	3259
290.963	3436
291.021	4294
291.078	3817
291.136	3712
291.194	3433
291.251	5577
291.309	4255
291.366	4016
291.424	4006
291.481	4269
291.539	6747
291.596	8512
291.654	5167
291.711	4388
291.769	3927
291.826	4425
291.884	4874
291.941	3542
291.999	3810
292.056	2756
292.114	3691
292.171	4244
292.228	4458
292.286	4806
292.343	4098
292.401	3419
292.458	4209
292.515	3009
292.573	5357
292.630	4426
292.687	3381
292.745	3673
292.802	4187
292.859	6081
292.917	8948
292.974	5520
293.031	4381
293.089	3963
293.146	4504
293.203	4596
293.260	3499
293.318	3545
293.375	3913
293.432	4617
293.489	5474
293.546	4426
293.604	6200
293.661	10844
293.718	16387
293.775	9552
293.832	10042
293.889	14642
293.947	12420
294.004	7001
294.061	6211
294.118	6585
294.175	10325
294.232	15826
294.289	12044
294.346	7180
294.403	6304
294.460	5018
294.517	4498
294.574	4252
294.631	3923
294.688	4741
294.745	4915
294.802	9782
294.859	6627
294.916	5275
294.973	4033
295.030	2993
295.087	2950
295.144	3946
295.201	4154
295.258	3360
295.315	3085
295.372	4654
295.429	7332
295.486	4566
295.542	3819
295.599	3610
295.656	4704
295.713	4847
295.770	7280
295.827	4007
295.883	3717
295.940	2886
295.997	3309
296.054	3112
296.111	3044
296.167	3053
296.224	2581
296.281	2453
296.338	3269
296.394	2880
296.451	2939
296.508	3825
296.564	5827
296.621	5495
296.678	8972
296.734	11430
296.791	5999
296.848	3911
296.904	3632
296.961	4159
297.018	6746
297.074	5788
297.131	4178
297.187	3713
297.244	4788
297.301	8744
297.357	14322
297.414	6411
297.470	3917
297.527	3566
297.583	2816
297.640	3346
297.696	3322
297.753	2645
297.809	3525
297.866	2783
297.922	3605
297.979	2100
298.035	2546
298.092	3078
298.148	5302
298.204	5901
298.261	3735
298.317	6307
298.374	10067
298.430	7002
298.486	4422
298.543	2813
298.599	3217
298.656	3270
298.712	2935
298.768	4357
298.824	4351
298.881	3006
298.937	3044
298.993	3722
299.050	3205
299.106	3258
299.162	2890
299.218	3742
299.275	3499
299.331	4278
299.387	7140
299.443	14602
299.500	30349
299.556	24086
299.612	11114
299.668	10968
299.724	24771
299.780	30721
299.837	13189
299.893	10211
299.949	21244
300.005	31351
300.061	24549
300.117	36366
300.173	17109
300.229	8588
300.285	7331
300.341	7063
300.397	5754
300.453	4752
300.510	5787
300.566	7055
300.622	13236
300.678	37884
300.734	46817
300.790	22285
300.845	18326
300.901	23060
300.957	31827
301.013	15818
301.069	8225
301.125	6061
301.181	4589
301.237	4785
301.293	3930
301.349	4533
301.405	3784
301.461	3794
301.516	3577
301.572	3727
301.628	3398
301.684	3002
301.740	3962
301.796	4588
301.851	5166
301.907	5526
301.963	6398
302.019	9242
302.074	22776
302.130	23296
302.186	10642
302.242	5669
302.297	4699
302.353	4157
302.409	5467
302.464	4843
302.520	4147
302.576	6945
302.631	8795
302.687	4927
302.743	3508
302.798	3288
302.854	3686
302.910	3090
302.965	2717
303.021	3215
303.076	2736
303.132	3221
303.187	4186
303.243	2895
303.299	3374
303.354	3397
303.410	2894
303.465	2500
303.521	2801
303.576	3848
303.632	2872
303.687	3875
303.743	8838
303.798	6751
303.853	4026
303.909	2479
303.964	2649
304.020	2852
304.075	2993
304.130	2529
304.186	3751
304.241	4192
304.297	4058
304.352	3527
304.358	3483
304.407	3128
304.449	3293
304.463	3351
304.518	2952
304.539	2904
304.573	2813
304.629	3251
304.630	3271
304.684	4273
304.720	6177
304.739	7086
304.794	9986
304.811	8965
304.850	6523
304.902	4521
304.905	4396
304.960	3753
304.992	3422
305.015	3196
305.071	3774
305.083	3619
305.126	3006
305.173	3142
305.181	3177
305.236	2395
305.264	2594
305.292	2764
305.347	3396
305.354	3333
305.402	3048
305.445	2826
305.457	2720
305.512	3457
305.535	3270
305.567	3100
305.622	3349
305.626	3384
305.678	4226
305.716	5662
305.733	6139
305.788	6852
305.807	6511
305.843	6234
305.897	8540
305.898	8559
305.953	8596
305.988	6105
306.008	4817
306.063	3394
306.078	3120
306.118	2619
306.168	2636
306.173	2641
306.228	2674
306.259	2957
306.283	3154
306.338	3110
306.349	3083
306.393	2832
306.440	2888
306.448	2941
306.503	4038
306.530	3319
306.558	2619
306.613	3598
306.620	3694
306.668	4636
306.711	5883
306.723	5989
306.778	5111
306.801	4734
306.833	4491
306.888	3573
306.892	3539
306.943	3182
306.982	3325
306.997	3413
307.052	3041
307.072	3056
307.107	3047
307.162	3517
307.163	3512
307.217	3504
307.253	3617
307.272	3639
307.327	3726
307.343	4023
307.381	4675
307.434	4351
307.436	4354
307.491	4936
307.524	5421
307.546	5507
307.600	5846
307.614	5515
307.655	4376
307.704	4024
307.710	4061
307.765	4041
307.795	4572
307.819	4948
307.874	5312
307.885	5343
307.929	5521
307.975	6374
307.984	6675
308.038	7662
308.065	8457
308.093	12768
308.148	23392
308.156	25703
308.202	32460
308.246	35879
308.257	35137
308.312	19674
308.336	14440
308.366	12018
308.421	10515
308.426	10383
308.475	10188
308.517	10225
308.530	10243
308.585	10759
308.607	10847
308.639	11117
308.694	12080
308.697	12123
308.748	13691
308.787	14784
308.803	15160
308.857	15539
308.877	16325
308.912	19910
308.967	25969
308.967	26041
309.021	41536
309.058	53567
309.076	59443
309.130	80646
309.148	86288
309.185	110329
309.238	147690
309.239	148254
309.293	170644
309.328	175082
309.348	161569
309.402	109199
309.418	94500
309.457	79960
309.508	65479
309.511	66445
309.566	89967
309.598	106635
309.620	128602
309.674	190559
309.688	206570
309.729	190443
309.778	152050
309.783	148263
309.837	96989
309.868	69599
309.892	60460
309.946	43165
309.959	39851
310.001	33422
310.049	26340
310.055	25620
310.109	20445
310.139	17647
310.163	16018
310.218	13048
310.229	12546
310.272	11631
310.319	10584
310.326	10428
310.381	9274
310.409	8858
310.435	8591
310.489	8024
310.499	7973
310.543	7521
310.589	6695
310.598	6665
310.652	6875
310.679	6934
310.706	6805
310.760	6343
310.769	6299
310.814	6876
310.859	7418
310.868	7353
310.923	6736
310.948	6558
310.977	6534
311.031	6266
311.038	6230
311.085	5675
311.128	5160
311.139	5236
311.193	5626
311.218	5778
311.247	5752
311.301	5658
311.308	5648
311.356	5658
311.398	5578
311.410	5564
311.464	5509
311.488	5486
311.518	5530
311.572	5525
311.578	5521
311.626	5219
311.668	4940
311.680	5089
311.734	5678
311.758	5951
311.788	5649
311.842	5075
311.847	5009
311.896	5736
311.937	6344
311.950	6177
312.004	5418
312.027	5083
312.058	4949
312.112	4688
312.117	4657
312.165	4885
312.207	5072
312.297	5428
312.386	5665
312.476	5157
312.566	5322
312.656	5052
312.745	4526
312.835	5883
312.925	6062
313.015	6229
313.104	6462
313.194	6416
313.284	6170
313.374	7151
313.463	7376
313.553	7632
313.643	7621
313.732	8594
313.822	8644
313.912	9991
314.001	9792
314.091	10709
314.180	10021
314.270	10934
314.360	9486
314.449	10586
314.539	9186
314.628	9644
314.718	9793
314.808	11340
314.897	11652
314.987	13102
315.076	14053
315.166	13109
315.255	11483
315.345	11804
315.434	11582
315.524	11273
315.613	14880
315.703	20487
315.792	65046
315.881	154981
315.971	41398
316.060	15272
316.150	11760
316.239	11495
316.328	10713
316.418	11392
316.507	11312
316.597	13855
316.686	14471
316.775	12349
316.865	12122
316.954	11838
317.043	10961
317.133	9628
317.222	9151
317.311	7914
317.400	7627
317.490	10523
317.579	11888
317.668	15626
317.757	29889
317.847	108396
317.936	224039
318.025	63741
318.114	61113
318.203	24862
318.293	13351
318.382	20141
318.471	20375
318.560	18089
318.649	15479
318.738	9828
318.828	7881
318.917	7286
319.006	7508
319.095	7753
319.184	10625
319.273	8220
319.362	7319
319.451	6863
319.540	6354
319.629	7854
319.718	7884
319.807	7979
319.896	7967
319.985	12925
320.074	9619
320.163	8218
320.252	7128
320.341	8533
320.430	8177
320.519	9565
320.608	9236
320.697	12456
320.786	13088
320.875	16456
320.964	16736
321.053	17619
321.142	19201
321.230	21087
321.319	24060
321.408	28559
321.497	23944
321.586	21324
321.675	17975
321.764	17872
321.852	17977
321.941	18542
322.030	18340
322.119	20320
322.207	25217
322.296	28843
322.385	32381
322.474	36644
322.562	37541
322.651	27796
322.740	21747
322.829	19433
322.917	15568
323.006	15042
323.095	13281
323.183	12794
323.272	12103
323.361	11825
323.449	13463
323.538	10821
323.626	11454
323.715	10625
323.804	8561
323.892	10264
323.981	9438
324.069	9038
324.158	8617
324.246	8446
324.335	8503
324.424	8902
324.512	7838
324.601	7662
324.689	7973
324.778	9449
324.866	7534
324.954	7590
325.043	6310
325.131	6739
325.220	7751
325.308	7777
325.397	7023
325.485	6921
325.574	6427
325.662	5663
325.750	5608
325.839	6241
325.927	6645
326.015	6756
326.104	5353
326.192	6559
326.280	5795
326.369	6094
326.457	6784
326.545	7318
326.634	5237
326.722	6552
326.810	7838
326.898	8584
326.987	9223
327.075	7328
327.163	7773
327.251	8134
327.340	9336
327.428	12479
327.516	12754
327.604	10415
327.692	7575
327.781	6895
327.869	6244
327.957	6829
328.045	5024
328.133	6115
328.221	4731
328.309	5194
328.397	6253
328.485	7976
328.574	14559
328.662	18693
328.750	10774
328.838	7272
328.926	7089
329.014	5893
329.102	6109
329.190	6936
329.278	5726
329.366	5121
329.454	4660
329.542	5500
329.630	5912
329.718	6458
329.806	5703
329.893	6887
329.981	4941
330.069	6014
330.157	7442
330.245	10005
330.333	6214
330.421	6224
330.509	6885
330.597	8083
330.684	6502
330.772	6896
330.860	6078
330.948	6960
331.036	6127
331.123	5590
331.211	5275
331.299	6083
331.387	6148
331.475	6205
331.562	6609
331.650	6413
331.738	5413
331.825	5830
331.913	6149
332.001	6450
332.089	5969
332.176	6405
332.264	7754
332.352	6807
332.439	6870
332.527	6784
332.614	7144
332.702	7618
332.790	8745
332.877	13969
332.965	32365
333.052	26335
333.140	42369
333.228	74589
333.315	20490
333.403	11473
333.490	16956
333.578	48472
333.665	116288
333.753	40320
333.840	13020
333.928	13530
334.015	14183
334.103	18433
334.190	26556
334.278	32023
334.365	41593
334.452	40349
334.540	27391
334.627	27429
334.715	34985
334.802	51426
334.889	82767
334.977	98627
335.064	59408
335.151	32359
335.239	22901
335.326	19921
335.413	21017
335.501	23103
335.588	21369
335.675	23853
335.762	30344
335.850	42091
335.937	61629
336.024	100718
336.111	146148
336.199	117973
336.286	56352
336.373	33902
336.460	22542
336.547	18317
336.635	15414
336.722	14230
336.809	11480
336.896	11823
336.983	11990
337.070	14983
337.157	15454
337.245	13940
337.332	11858
337.419	10903
337.506	10058
337.593	10197
337.680	10405
337.767	12107
337.854	8882
337.941	8653
338.028	8635
338.115	8405
338.202	9272
338.289	10141
338.376	9713
338.463	8714
338.550	8566
338.637	9103
338.724	7501
338.811	7148
338.898	7278
338.984	7690
339.071	7247
339.158	8215
339.245	7695
339.332	7530
339.419	6988
339.506	7416
339.593	6486
339.679	7228
339.766	6953
339.853	7047
339.940	6720
340.027	7864
340.113	6617
340.200	5973
340.287	5812
340.374	5977
340.460	6679
340.547	5169
340.634	7401
340.720	9019
340.807	6799
340.894	6860
340.980	6567
341.067	6578
341.154	7691
341.240	7348
341.327	7213
341.414	7264
341.500	6546
341.587	7601
341.674	6695
341.760	6962
341.847	7012
341.933	7690
342.020	5416
342.106	6592
342.193	6468
342.279	6989
342.366	6902
342.452	7102
342.539	6540
342.625	7265
342.712	7910
342.798	7254
342.885	5708
342.971	6082
343.058	6293
343.144	6946
343.230	6811
343.317	7526
343.403	5876
343.490	6795
343.576	5913
343.662	7389
343.749	6625
343.835	6910
343.921	9476
344.008	30385
344.094	37454
344.180	11374
344.267	7952
344.353	12183
344.439	8769
344.525	6670
344.612	6536
344.698	6769
344.784	5671
344.870	6363
344.957	5609
345.043	7805
345.129	6405
345.215	6936
345.301	7054
345.387	6343
345.474	5861
345.560	6360
345.646	5974
345.732	6306
345.818	5353
345.904	6551
345.990	5606
346.076	6463
346.162	5395
346.249	6734
346.335	5943
346.421	7521
346.507	10253
346.593	15155
346.679	6577
346.765	11206
346.851	16078
346.937	10765
347.023	8554
347.108	7122
347.194	7153
347.280	7533
347.366	13443
347.452	35583
347.538	37575
347.624	19736
347.710	11251
347.796	8182
347.882	7124
347.967	7911
348.053	7144
348.139	7161
348.225	6468
348.311	6259
348.397	7205
348.482	8735
348.568	9432
348.654	17124
348.740	45677
348.825	37755
348.911	16864
348.997	17067
349.083	17590
349.168	8190
349.254	7115
349.340	7579
349.425	7024
349.511	7770
349.597	7626
349.682	9430
349.768	11728
349.854	7647
349.939	7104
350.025	7024
350.110	7655
350.196	7352
350.282	6322
350.367	7830
350.453	6851
350.538	7450
350.624	6816
350.709	7390
350.795	6158
350.880	6429
350.966	7807
351.051	7123
351.137	6594
351.222	6794
351.308	8644
351.393	9470
351.479	6885
351.564	7381
351.649	7736
351.735	6820
351.820	7064
351.906	6879
351.991	6676
352.076	9431
352.162	8722
352.247	6924
352.332	6541
352.418	7327
352.503	7644
352.588	12482
352.673	8546
352.759	7244
352.844	6249
352.929	7246
353.014	6059
353.100	8180
353.185	8493
353.270	7341
353.355	7977
353.441	7594
353.526	6910
353.611	7862
353.696	6945
353.781	7866
353.866	5628
353.952	8366
354.037	7355
354.122	9141
354.207	8396
354.292	8394
354.377	7252
354.462	8006
354.547	6765
354.632	8441
354.717	8265
354.802	8457
354.887	7277
354.972	8572
355.057	6741
355.142	6987
355.227	7733
355.312	7942
355.397	7921
355.482	10822
355.567	7767
355.652	9187
355.737	9058
355.822	13252
355.907	10041
355.991	8368
356.076	7574
356.161	8666
356.246	7495
356.331	8143
356.416	10583
356.501	26296
356.585	18251
356.670	8615
356.755	10940
356.840	10348
356.924	26434
357.009	46765
357.094	17505
357.179	8864
357.263	8254
357.348	9942
357.433	8277
357.517	8859
357.602	8226
357.687	7762
357.771	9568
357.856	10061
357.941	10932
358.025	28510
358.110	62515
358.195	23656
358.279	10429
358.364	11722
358.448	14794
358.533	19401
358.617	15296
358.702	15546
358.787	10213
358.871	9802
358.956	9657
359.040	9815
359.125	8223
359.209	9596
359.294	11187
359.378	17272
359.462	13578
359.547	9310
359.631	8079
359.716	6952
359.800	7898
359.885	9563
359.969	7218
360.053	8505
360.138	8067
360.222	8088
360.306	8708
360.391	8827
360.475	9108
360.559	11475
360.644	11612
360.728	9965
360.812	20211
360.896	30013
360.981	13195
361.065	10584
361.149	10288
361.233	9586
361.318	8608
361.402	10006
361.486	10511
361.570	11519
361.654	11620
361.739	13787
361.823	31020
361.907	33952
361.991	17212
362.075	21035
362.159	28631
362.243	58479
362.327	128430
362.411	146912
362.495	55839
362.580	33416
362.664	30992
362.748	37716
362.832	61812
362.916	137110
363.000	316495
363.084	341644
363.168	137134
363.252	48623
363.336	30623
363.420	24784
363.503	25770
363.587	23567
363.671	20079
363.755	20341
363.839	23649
363.923	24662
364.007	33743
364.091	45040
364.175	75535
364.258	168448
364.342	378026
364.426	504061
364.510	239110
364.594	83042
364.677	47774
364.761	47957
364.845	30937
364.929	19187
365.013	15750
365.096	15969
365.180	13293
365.264	14539
365.347	20093
365.431	13335
365.515	10131
365.598	10874
365.682	12796
365.766	10432
365.849	10380
365.933	10704
366.017	11865
366.100	11026
366.184	10606
366.267	11435
366.351	10724
366.435	10251
366.518	10749
366.602	10916
366.685	9967
366.769	11230
366.852	11579
366.936	12229
367.019	11286
367.103	11026
367.186	12820
367.270	12115
367.353	11412
367.436	13758
367.520	13277
367.603	13002
367.687	12312
367.770	13077
367.853	13625
367.937	16715
368.020	16960
368.104	11399
368.187	11164
368.270	11238
368.353	10344
368.437	10655
368.520	11446
368.603	11884
368.687	13497
368.770	15211
368.853	10344
368.936	11032
369.020	9965
369.103	9080
369.186	8618
369.269	9411
369.352	10362
369.436	9723
369.519	9310
369.602	8151
369.685	10947
369.768	9366
369.851	9789
369.934	8795
370.018	9257
370.101	9897
370.184	12723
370.267	12362
370.350	12022
370.433	17429
370.516	50026
370.599	97672
370.682	36884
370.765	19530
370.848	19220
370.931	21441
371.014	15192
371.097	10893
371.180	13496
371.263	14018
371.346	12647
371.429	13838
371.511	13488
371.594	14755
371.677	15752
371.760	18523
371.843	22353
371.926	48303
372.009	62816
372.091	37136
372.174	28477
372.257	33869
372.340	25160
372.423	25071
372.505	23221
372.588	18963
372.671	20528
372.754	24198
372.836	20144
372.919	19704
373.002	21791
373.085	19357
373.167	20508
373.250	22673
373.332	28804
373.415	51869
373.498	69662
373.580	63150
373.663	168980
373.746	118460
373.828	26631
373.911	18522
373.993	16230
374.076	18772
374.159	16732
374.241	16789
374.324	20952
374.406	20918
374.489	32817
374.571	48584
374.654	22213
374.736	23001
374.819	38447
374.901	55766
374.983	46370
375.066	20381
375.148	18383
375.231	20882
375.313	22903
375.395	19289
375.478	17941
375.560	18829
375.643	17049
375.725	26033
375.807	44140
375.890	27162
375.972	14210
376.054	15090
376.136	14206
376.219	13685
376.301	22586
376.383	29101
376.465	16271
376.548	13511
376.630	16785
376.712	25340
376.794	14305
376.877	10875
376.959	10113
377.041	11603
377.123	10994
377.205	11677
377.287	10231
377.369	12093
377.452	11244
377.534	12061
377.616	11091
377.698	11334
377.780	10983
377.862	11123
377.944	12438
378.026	10172
378.108	11096
378.190	11326
378.272	11564
378.354	11706
378.436	10784
378.518	11486
378.600	11792
378.682	13133
378.764	15979
378.846	14233
378.928	10945
379.010	11391
379.091	12226
379.173	11766
379.255	10393
379.337	11479
379.419	14514
379.501	18915
379.583	13510
379.664	12747
379.746	12134
379.828	18426
379.910	18461
379.991	17915
380.073	12330
380.155	12921
380.237	11962
380.318	13341
380.400	13198
380.482	15412
380.564	15027
380.645	16458
380.727	15334
380.809	15979
380.890	14449
380.972	14176
381.053	15622
381.135	17710
381.217	17536
381.298	21939
381.380	17535
381.461	21614
381.543	36181
381.624	33599
381.706	21364
381.787	22618
381.869	23660
381.951	39333
382.032	65133
382.113	43350
382.195	26639
382.276	34397
382.358	39554
382.439	52467
382.521	67736
382.602	85791
382.684	90459
382.765	177887
382.846	466955
382.928	722030
383.009	408122
383.090	474048
383.172	949455
383.253	884973
383.334	343956
383.416	184387
383.497	156326
383.578	211178
383.659	427161
383.741	917714
383.822	1154579
383.903	617535
383.984	236752
384.066	135851
384.147	85374
384.228	64663
384.309	54941
384.390	51160
384.471	44528
384.553	41768
384.634	38708
384.715	38468
384.796	37419
384.877	39088
384.958	44445
385.039	37064
385.120	31164
385.201	30047
385.282	32499
385.363	42185
385.444	46904
385.525	45489
385.606	46849
385.687	39323
385.768	31630
385.849	33303
385.930	53355
386.011	59388
386.092	34322
386.173	29875
386.254	25617
386.335	24476
386.416	24034
386.496	26721
386.577	27645
386.658	24211
386.739	23101
386.820	25584
386.901	24848
386.981	30649
387.062	35679
387.143	37920
387.224	37357
387.304	37411
387.385	36090
387.466	33212
387.547	38033
387.627	38495
387.708	41038
387.789	47381
387.869	41995
387.950	33845
388.031	29537
388.111	28283
388.192	33905
388.273	37565
388.353	29105
388.434	19354
388.514	22650
388.595	36002
388.676	29089
388.756	20965
388.837	19947
388.917	17055
388.998	14094
389.078	17533
389.159	16708
389.239	14668
389.320	17460
389.400	15148
389.480	17956
389.561	21439
389.641	18146
389.722	16682
389.802	14756
389.883	18823
389.963	23258
390.043	18149
390.124	14320
390.204	17410
390.284	19961
390.365	16160
390.445	18263
390.525	21180
390.605	19359
390.686	16005
390.766	16831
390.846	17897
390.927	16475
391.007	15845
391.087	18205
391.167	18457
391.247	16492
391.328	19858
391.408	19636
391.488	20709
391.568	19769
391.648	21444
391.728	23150
391.808	23910
391.888	25101
391.969	28773
392.049	30468
392.129	30513
392.209	34675
392.289	42322
392.369	39679
392.449	41433
392.529	44973
392.609	53029
392.689	60094
392.769	76955
392.849	90976
392.929	116425
393.009	166335
393.089	256162
393.169	481147
393.248	954792
393.328	1400073
393.408	1258045
393.488	687459
393.568	334434
393.648	187523
393.728	125604
393.807	89662
393.887	71657
393.967	59048
394.047	50675
394.127	42598
394.206	40949
394.286	58961
394.366	124323
394.446	94671
394.525	36067
394.605	28305
394.685	28672
394.764	34836
394.844	59871
394.924	59722
395.003	31026
395.083	24123
395.163	23373
395.242	22405
395.322	23704
395.402	21516
395.481	26182
395.561	36486
395.640	96327
395.720	141104
395.799	64350
395.879	35023
395.958	34630
396.038	68486
396.117	169982
396.197	134090
396.276	59353
396.356	58306
396.435	74228
396.515	105987
396.594	173203
396.673	376098
396.753	864427
396.832	1241692
396.912	859628
396.991	346191
397.070	163976
397.150	101349
397.229	92402
397.308	161746
397.388	213662
397.467	92704
397.546	44471
397.625	31434
397.705	32347
397.784	27560
397.863	24028
397.942	23026
398.022	21362
398.101	19996
398.180	23417
398.259	18230
398.338	18106
398.417	15884
398.497	15895
398.576	15945
398.655	14263
398.734	14996
398.813	14279
398.892	14749
398.971	18196
399.050	13364
399.129	11518
399.208	12492
399.287	13092
399.366	10920
399.445	11570
399.524	11623
399.603	9991
399.682	10449
399.761	13631
399.840	16546
399.919	13942
399.998	10940
400.077	8843
400.156	8081
400.235	11830
400.313	8779
400.392	8950
400.471	12447
400.550	12027
400.629	8294
400.708	9761
400.786	7419
400.865	9416
400.944	7750
401.023	10363
401.102	7418
401.180	7991
401.259	8323
401.338	8070
401.416	7715
401.495	7111
401.574	8321
401.652	6912
401.731	8779
401.810	6704
401.888	7329
401.967	7039
402.046	8144
402.124	8582
402.203	6945
402.281	7973
402.360	7430
402.438	8029
402.517	6286
402.596	7827
402.674	7101
402.753	6943
402.831	7730
402.910	9272
402.988	14880
403.066	27807
403.145	16796
403.223	16359
403.302	23821
403.380	19782
403.459	18510
403.537	12672
403.615	10777
403.694	9203
403.772	9372
403.850	8122
403.929	8508
404.007	8036
404.085	11058
404.164	9771
404.242	8523
404.320	10908
404.398	14622
404.477	16984
404.555	34495
404.633	23384
404.711	12307
404.789	10132
404.868	7738
404.946	7374
405.024	6896
405.102	6777
405.180	6017
405.258	6014
405.336	7247
405.415	6314
405.493	7658
405.571	8874
405.649	7299
405.727	7805
405.805	10744
405.883	11626
405.961	9877
406.039	7333
406.117	7307
406.195	8220
406.273	11573
406.351	22543
406.429	12329
406.507	7182
406.585	5408
406.663	6840
406.740	6824
406.818	6406
406.896	6083
406.974	7255
407.052	6980
407.130	15536
407.208	14536
407.285	8082
407.363	5663
407.441	6868
407.519	6528
407.596	7826
407.674	16826
407.752	37074
407.830	21533
407.907	9658
407.985	5666
408.063	6919
408.141	6471
408.218	7330
408.296	5969
408.373	8068
408.451	8814
408.529	9039
408.606	8659
408.684	9214
408.762	9182
408.839	9828
408.917	10371
408.994	12419
409.072	13245
409.149	19977
409.227	33800
409.304	44910
409.382	48008
409.459	58529
409.537	68637
409.614	57887
409.692	46622
409.769	52605
409.846	75765
409.924	80417
410.001	57014
410.079	40130
410.156	29542
410.233	23587
410.311	19599
410.388	17999
410.465	16991
410.543	14976
410.620	15645
410.697	14668
410.775	14973
410.852	14603
410.929	16855
411.006	17828
411.083	14857
411.161	14628
411.238	13351
411.315	12824
411.392	11993
411.469	10823
411.547	10154
411.624	8764
411.701	9259
411.778	9462
411.855	9707
411.932	8018
412.009	7345
412.086	8732
412.163	7038
412.240	7332
412.317	7784
412.394	7494
412.471	7379
412.548	6507
412.625	7461
412.702	7094
412.779	7216
412.856	7478
412.933	6799
413.010	6978
413.087	6875
413.164	8603
413.241	9686
413.318	7108
413.395	6558
413.471	6709
413.548	6981
413.625	7106
413.702	5781
413.779	6236
413.855	5802
413.932	5568
414.009	5522
414.086	6189
414.162	6677
414.239	7270
414.316	8589
414.393	9986
414.469	5587
414.546	5326
414.623	5339
414.699	6131
414.776	5069
414.853	5573
414.929	6088
415.006	5298
415.082	6163
415.159	5712
415.236	5513
415.312	7141
415.389	6038
415.465	5694
415.542	5332
415.618	5024
415.695	6068
415.771	5260
415.848	4955
415.924	5419
416.000	5038
416.077	6452
416.153	4851
416.230	4774
416.306	5331
416.383	5801
416.459	5945
416.535	6123
416.612	7743
416.688	7500
416.764	8786
416.841	8633
416.917	7629
416.993	7741
417.069	6854
417.146	6662
417.222	5649
417.298	5699
417.374	5538
417.451	6241
417.527	5795
417.603	6210
417.679	5246
417.755	5888
417.831	4752
417.908	6337
417.984	5177
418.060	5755
418.136	5407
418.212	6001
418.288	5560
418.364	6172
418.440	5151
418.516	6361
418.592	5981
418.668	6190
418.744	5909
418.820	6892
418.896	6330
418.972	5616
419.048	6198
419.124	7611
419.200	5472
419.276	7041
419.352	5651
419.428	6498
419.504	6514
419.579	7602
419.655	6797
419.731	7418
419.807	7860
419.883	8679
419.959	8655
420.034	9222
420.110	9240
420.186	11762
420.262	11315
420.337	9600
420.413	11028
420.489	10072
420.565	12860
420.640	11826
420.716	12298
420.792	11870
420.867	14160
420.943	13838
421.019	14968
421.094	15653
421.170	16651
421.245	18484
421.321	20259
421.397	21929
421.472	31354
421.548	40105
421.623	32351
421.699	31161
421.774	35719
421.850	40010
421.925	47079
422.001	56591
422.076	68826
422.152	87182
422.227	115360
422.302	163459
422.378	240190
422.453	382379
422.529	536570
422.604	486977
422.679	409480
422.755	542058
422.830	474027
422.905	320049
422.981	217596
423.056	157431
423.131	118570
423.207	90503
423.282	73708
423.357	62036
423.432	51104
423.508	45006
423.583	39076
423.658	35613
423.733	31882
423.808	30140
423.883	30725
423.959	35154
424.034	39382
424.109	34204
424.184	23851
424.259	20464
424.334	18513
424.409	16385
424.484	14692
424.559	14826
424.634	12778
424.709	13033
424.784	12413
424.859	11552
424.934	10759
425.009	13273
425.084	13403
425.159	10105
425.234	10234
425.309	8914
425.384	9482
425.459	8617
425.534	9102
425.609	7119
425.683	7870
425.758	7536
425.833	8089
425.908	8629
425.983	8827
426.058	11821
426.132	7668
426.207	7960
426.282	8651
426.357	7114
426.431	7533
426.506	7285
426.581	6634
426.655	6869
426.730	6451
426.805	4887
426.879	6687
426.954	6078
427.029	6811
427.103	11756
427.178	17218
427.253	8902
427.327	6641
427.402	5931
427.476	6058
427.551	6978
427.625	6181
427.700	6159
427.774	6651
427.849	6736
427.923	7072
427.998	8539
428.072	12139
428.147	29669
428.221	128802
428.296	257527
428.370	101862
428.444	21582
428.519	10588
428.593	9888
428.667	11342
428.742	15512
428.816	54864
428.890	195962
428.965	196019
429.039	43344
429.113	12592
429.188	9462
429.262	7468
429.336	8880
429.410	8707
429.485	8396
429.559	8369
429.633	10097
429.707	14487
429.781	50588
429.855	184235
429.930	174057
430.004	47399
430.078	45683
430.152	153845
430.226	377617
430.300	258258
430.374	61585
430.448	23054
430.522	17973
430.596	23161
430.670	77881
430.744	229508
430.818	161632
430.892	31054
430.966	11477
431.040	7207
431.114	6573
431.188	5775
431.262	5441
431.336	5173
431.410	6222
431.484	6338
431.557	7077
431.631	9835
431.705	22845
431.779	108892
431.853	257037
431.927	118671
432.000	21613
432.074	8607
432.148	5090
432.222	4544
432.295	4052
432.369	4133
432.443	4268
432.516	9485
432.590	13888
432.664	4825
432.737	2540
432.811	2378
432.885	2939
432.958	3002
433.032	2822
433.106	2291
433.179	3365
433.253	2845
433.326	2626
433.400	1993
433.473	3113
433.547	3116
433.620	3716
433.694	3222
433.767	4290
433.841	3161
433.914	4248
433.988	3181
434.061	4983
434.134	3761
434.208	3674
434.281	3415
434.355	2824
434.428	3830
434.501	4141
434.575	3294
434.648	3373
434.721	3290
434.795	3142
434.868	3391
434.941	4882
435.014	5348
435.088	7405
435.161	12022
435.234	15896
435.307	16689
435.381	18291
435.454	24977
435.527	37745
435.600	36933
435.673	29485
435.746	21241
435.819	15568
435.892	12486
435.966	9932
436.039	8012
436.112	6681
436.185	4948
436.258	4988
436.331	3717
436.404	4307
436.477	3474
436.550	3469
436.623	3666
436.696	3405
436.769	3438
436.842	3127
436.915	3040
436.987	4106
437.060	3541
437.133	3189
437.206	2822
437.279	3341
437.352	2116
437.425	3388
437.498	2599
437.570	3360
437.643	1828
437.716	2758
437.789	3196
437.861	3279
437.934	2318
438.007	2538
438.080	2612
438.152	3175
438.225	4411
438.298	15520
438.370	22211
438.443	7624
438.516	2951
438.588	3631
438.661	3144
438.734	2828
438.806	2054
438.879	3355
438.951	2659
439.024	2649
439.096	1922
439.169	2683
439.241	1968
439.314	2478
439.386	3264
439.459	3348
439.531	2814
439.604	3481
439.676	2609
439.749	3028
439.821	2069
439.893	2749
439.966	1920
440.038	2520
440.110	3101
440.183	2957
440.255	2324
440.327	3866
440.400	6479
440.472	12014
440.544	5975
440.617	3288
440.689	3329
440.761	3987
440.833	3353
440.905	3439
440.978	2277
441.050	3247
441.122	3154
441.194	3092
441.266	3707
441.338	4107
441.411	3844
441.483	5995
441.555	5696
441.627	3562
441.699	4146
441.771	4768
441.843	4626
441.915	5074
441.987	4476
442.059	5855
442.131	5919
442.203	8770
442.275	11855
442.347	23285
442.419	67149
442.491	259431
442.563	348396
442.635	110505
442.706	28861
442.778	15436
442.850	11010
442.922	11344
442.994	10450
443.066	12479
443.137	15375
443.209	22211
443.281	38185
443.353	92761
443.425	302332
443.496	608003
443.568	509832
443.640	181864
443.711	50707
443.783	24547
443.855	16202
443.926	12605
443.998	10043
444.070	9437
444.141	8005
444.213	7201
444.285	7070
444.356	6833
444.428	5441
444.499	7092
444.571	6886
444.642	7518
444.714	7159
444.785	8658
444.857	9990
444.928	11033
445.000	11813
445.071	16519
445.143	21945
445.214	36717
445.285	67092
445.357	177428
445.428	477588
445.500	626469
445.571	504960
445.642	290932
445.714	97744
445.785	35241
445.856	20509
445.928	14097
445.999	11066
446.070	9341
446.141	8327
446.213	7408
446.284	5793
446.355	5763
446.426	4438
446.497	4321
446.569	4003
446.640	3530
446.711	3278
446.782	3703
446.853	2819
446.924	4070
446.995	2929
447.066	2648
447.138	2394
447.209	3025
447.280	1145
447.351	2928
447.422	1475
447.493	2202
447.564	1353
447.635	1919
447.706	1756
447.777	1885
447.847	924
447.918	1283
447.989	1762
448.060	2103
448.131	2390
448.202	1875
448.273	1545
448.344	2325
448.414	1427
448.485	2279
448.556	1602
448.627	1342
448.698	2046
448.768	855
448.839	397
448.910	987
448.981	1314
449.051	1806
449.122	1111
449.193	1809
449.263	872
449.334	1553
449.405	587
449.475	2202
449.546	2435
449.616	2842
449.687	2799
449.758	2708
449.828	1296
449.899	1766
449.969	386
450.040	1265
450.110	1813
450.181	1916
450.251	757
450.322	1142
450.392	1329
450.463	1908
450.533	1615
450.604	1192
450.674	1180
450.744	3702
450.815	3370
450.885	3611
450.955	4596
451.026	3741
451.096	2418
451.166	2918
451.237	4821
451.307	5950
451.377	3572
451.447	2634
451.518	1528
451.588	2292
451.658	1621
451.728	1577
451.799	1770
451.869	2070
451.939	1625
452.009	1282
452.079	735
452.149	2086
452.219	2326
452.289	3138
452.360	2522
452.430	3616
452.500	6470
452.570	11796
452.640	31913
452.710	67441
452.780	54946
452.850	26271
452.920	12336
452.990	7672
453.060	5142
453.129	3331
453.199	2197
453.269	4192
453.339	4241
453.409	4316
453.479	4878
453.549	5291
453.619	4493
453.688	1604
453.758	1486
453.828	1518
453.898	1316
453.968	1319
454.037	650
454.087	1446
454.107	1758
454.168	1186
454.177	1086
454.247	658
454.249	670
454.316	565
454.330	623
454.386	782
454.411	609
454.456	223
454.492	962
454.525	1616
454.574	1212
454.595	995
454.655	1346
454.665	1396
454.734	2053
454.736	2077
454.804	2301
454.817	2390
454.873	2686
454.898	2491
454.943	2095
454.979	1385
455.013	703
455.060	1426
455.082	1731
455.141	1364
455.152	1284
455.221	2501
455.222	2513
455.291	2004
455.303	2467
455.360	4256
455.384	4590
455.430	4719
455.465	3447
455.499	2274
455.546	1945
455.569	1839
455.627	2173
455.638	2200
455.707	1453
455.708	1468
455.777	1495
455.789	1576
455.846	1846
455.869	1787
455.916	1605
455.950	1517
455.985	1404
456.031	1717
456.054	1900
456.112	2086
456.124	2068
456.193	1604
456.193	1582
456.262	1462
456.274	1677
456.332	2653
456.355	2498
456.401	2070
456.436	1895
456.470	1768
456.516	2206
456.540	2355
456.597	2507
456.609	2524
456.678	2916
456.678	2898
456.747	2944
456.759	2970
456.817	3039
456.840	3005
456.886	2909
456.920	2804
456.955	2850
457.001	3669
457.024	3925
457.082	4386
457.093	4441
457.162	5182
457.163	5202
457.232	3964
457.243	3894
457.301	3596
457.324	3831
457.370	4465
457.405	5211
457.439	5929
457.485	6019
457.508	6158
457.566	7807
457.577	8443
457.646	12582
457.647	12692
457.715	32211
457.727	37136
457.784	68278
457.808	93499
457.853	128151
457.889	136565
457.922	124515
457.969	78495
457.991	76468
458.050	103345
458.060	108475
458.129	201492
458.130	203169
458.198	189158
458.211	170193
458.267	80111
458.292	53589
458.336	36444
458.372	35137
458.405	49838
458.453	78051
458.474	100189
458.533	190628
458.543	198677
458.611	307963
458.614	307926
458.680	164234
458.694	130563
458.749	54881
458.775	36496
458.818	22612
458.855	17353
458.887	14459
458.936	11311
458.955	10483
459.016	8887
459.024	8730
459.093	8019
459.097	8015
459.162	7210
459.177	7018
459.230	6753
459.257	6803
459.299	6771
459.338	6338
459.368	5761
459.418	5129
459.437	5133
459.499	5214
459.505	5190
459.574	5607
459.579	5622
459.643	5399
459.659	5219
459.711	4960
459.740	5294
459.780	5746
459.820	5611
459.849	5412
459.900	5611
459.917	5673
459.981	5368
459.986	5281
460.054	4190
460.061	4152
460.123	4771
460.141	5030
460.191	5468
460.222	5178
460.260	4839
460.302	5221
460.328	5221
460.382	4778
460.397	4885
460.462	5556
460.465	5608
460.534	6971
460.543	7227
460.602	16321
460.623	20073
460.671	29256
460.703	38937
460.739	38933
460.783	29217
460.808	22744
460.864	7402
460.876	6218
460.944	4925
460.945	4909
461.013	4710
461.024	4623
461.081	4914
461.104	5295
461.150	5195
461.184	4842
461.218	5046
461.264	5616
461.286	5704
461.345	5566
461.355	5442
461.423	4241
461.425	4220
461.491	4359
461.505	4531
461.559	5014
461.585	5171
461.628	5670
461.665	5911
461.696	5902
461.745	6041
461.764	5847
461.825	5371
461.832	5487
461.901	5614
461.905	5692
461.969	5488
461.985	5340
462.037	5833
462.065	6240
462.105	5735
462.145	5011
462.173	5068
462.225	5264
462.241	5341
462.305	5542
462.310	5560
462.378	5967
462.385	5973
462.446	6037
462.465	6203
462.514	6305
462.545	6201
462.582	5795
462.625	5531
462.650	5683
462.705	5566
462.718	5449
462.785	5395
462.786	5400
462.854	5081
462.865	5096
462.922	5338
462.945	5344
462.990	5149
463.025	5043
463.058	5354
463.104	5554
463.126	5415
463.184	5777
463.194	5855
463.262	5414
463.264	5410
463.330	5361
463.344	5329
463.398	5952
463.424	6222
463.466	5517
463.504	5022
463.533	5313
463.583	5447
463.601	5445
463.663	6041
463.669	6042
463.737	5376
463.743	5339
463.805	6239
463.823	6476
463.873	6748
463.903	6875
463.940	6703
463.982	6441
464.008	6545
464.062	6764
464.076	6592
464.142	5945
464.144	5967
464.211	6162
464.221	6230
464.279	5778
464.301	5549
464.347	5661
464.381	5812
464.414	5905
464.461	5791
464.482	5986
464.540	6786
464.550	6723
464.617	5912
464.620	5881
464.685	5977
464.699	6003
464.753	6175
464.779	6183
464.820	6001
464.859	5817
464.888	5924
464.938	6210
464.956	6464
465.018	7163
465.023	7095
465.091	6107
465.098	5996
465.158	6210
465.177	6298
465.226	6340
465.257	6301
465.293	6579
465.336	6929
465.361	6842
465.416	6403
465.428	6442
465.495	6918
465.496	6929
465.563	6689
465.575	6658
465.631	6987
465.654	7082
465.698	6764
465.734	6554
465.765	6596
465.813	6395
465.833	6282
465.893	6118
465.900	6169
465.968	6491
465.972	6502
466.035	6126
466.052	6009
466.102	6463
466.131	6635
466.170	6503
466.210	6448
466.237	6710
466.290	7138
466.304	7040
466.369	6489
466.372	6505
466.439	6728
466.449	6716
466.506	6945
466.528	7057
466.573	7532
466.607	7828
466.641	8196
466.687	8718
466.708	8668
466.766	8402
466.775	8348
466.842	7825
466.845	7786
466.909	7249
466.925	7092
466.977	8283
467.004	8907
467.044	8489
467.083	8023
467.111	8363
467.163	8953
467.178	8813
467.242	8151
467.245	8177
467.312	8403
467.321	8417
467.379	8643
467.400	8699
467.446	9292
467.480	9688
467.559	9871
467.638	9369
467.717	8959
467.796	10969
467.875	11201
467.955	11775
468.034	14475
468.113	16054
468.192	20093
468.271	25096
468.350	37175
468.429	53674
468.508	55694
468.588	35408
468.667	20561
468.746	14737
468.825	12744
468.904	12388
468.983	10497
469.062	10769
469.141	11970
469.220	9726
469.299	9963
469.378	9141
469.456	9537
469.535	9544
469.614	9602
469.693	9822
469.772	11350
469.851	10697
469.930	13046
470.009	14177
470.088	18317
470.166	29967
470.245	58886
470.324	80891
470.403	53847
470.482	28941
470.560	18854
470.639	13899
470.718	13006
470.797	10887
470.875	10320
470.954	9843
471.033	10308
471.111	9027
471.190	9493
471.269	9647
471.347	9477
471.426	9663
471.505	9140
471.583	8645
471.662	8446
471.740	8821
471.819	9026
471.898	8549
471.976	8445
472.055	7798
472.133	8800
472.212	8711
472.290	8745
472.369	8536
472.447	9151
472.526	8277
472.604	9009
472.683	8971
472.761	9211
472.839	9243
472.918	10010
472.996	9345
473.075	10260
473.153	9808
473.231	9631
473.310	10456
473.388	9773
473.466	9321
473.545	9877
473.623	9999
473.701	9532
473.780	10344
473.858	9153
473.936	11224
474.014	10401
474.093	11040
474.171	10774
474.249	10346
474.327	9833
474.405	8878
474.484	10194
474.562	10238
474.640	9153
474.718	9238
474.796	8725
474.874	9620
474.952	9046
475.030	9340
475.108	8843
475.187	9440
475.265	8753
475.343	10570
475.421	10905
475.499	9351
475.577	9718
475.655	9830
475.733	9013
475.811	10385
475.889	8956
475.966	9501
476.044	8713
476.122	9418
476.200	9508
476.278	9175
476.356	8669
476.434	9266
476.512	8825
476.590	10567
476.667	11326
476.745	9329
476.823	8881
476.901	9416
476.979	9503
477.056	10061
477.134	9099
477.212	8710
477.290	8830
477.367	8567
477.445	9490
477.523	7499
477.601	8716
477.678	8654
477.756	8858
477.834	8900
477.911	8549
477.989	8438
478.066	9107
478.144	8556
478.222	9174
478.299	10124
478.377	10914
478.454	9414
478.532	8594
478.609	8988
478.687	8936
478.764	8804
478.842	9555
478.919	8805
478.997	9161
479.074	9122
479.152	9104
479.229	9609
479.307	9233
479.384	9230
479.461	8819
479.539	9174
479.616	9103
479.694	9178
479.771	8973
479.848	8145
479.926	8130
480.003	10549
480.080	9964
480.157	9436
480.235	10090
480.312	9220
480.389	10160
480.467	10314
480.544	11169
480.621	12013
480.698	12519
480.775	12061
480.853	10871
480.930	10380
481.007	10765
481.084	11216
481.161	12142
481.238	12015
481.315	10121
481.392	10713
481.470	11065
481.547	12044
481.624	11446
481.701	11304
481.778	11785
481.855	12950
481.932	14011
482.009	15310
482.086	17094
482.163	19686
482.240	22285
482.317	24101
482.393	21211
482.470	17926
482.547	17558
482.624	15597
482.701	15338
482.778	14613
482.855	13880
482.932	15466
483.009	17141
483.085	19723
483.162	21850
483.239	23913
483.316	23089
483.393	24113
483.469	19251
483.546	17870
483.623	16291
483.699	14663
483.776	12142
483.853	12893
483.930	13175
484.006	13159
484.083	15535
484.160	13437
484.236	14189
484.313	14564
484.389	14382
484.466	18647
484.543	23079
484.619	30350
484.696	33256
484.772	22875
484.849	16124
484.925	14874
485.002	14626
485.078	13055
485.155	12138
485.231	11831
485.308	11518
485.384	11552
485.461	11104
485.537	11164
485.614	12796
485.690	11167
485.766	10936
485.843	11578
485.919	11414
485.995	11401
486.072	10847
486.148	9752
486.224	10917
486.301	11432
486.377	11245
486.453	10134
486.530	10262
486.606	12226
486.682	11101
486.758	13053
486.835	13040
486.911	13027
486.987	16293
487.063	16894
487.139	19269
487.215	21750
487.292	25390
487.368	29503
487.444	38594
487.520	56128
487.596	83335
487.672	192631
487.748	627727
487.824	1000542
487.900	417782
487.976	111309
488.052	53459
488.128	35881
488.204	25100
488.280	22919
488.356	19087
488.432	18477
488.508	17826
488.584	14034
488.660	14522
488.736	14068
488.812	12076
488.888	12697
488.964	12512
489.039	14500
489.115	17338
489.191	14930
489.267	11808
489.343	10835
489.418	12333
489.494	11493
489.570	11063
489.646	12906
489.722	11401
489.797	11479
489.873	12571
489.949	13724
490.024	13766
490.100	12477
490.176	12849
490.251	12267
490.327	13981
490.403	12766
490.478	12542
490.554	12683
490.629	12358
490.705	11962
490.781	13291
490.856	11872
490.932	12292
491.007	12285
491.083	11681
491.158	11643
491.234	10904
491.309	12905
491.385	11998
491.460	10024
491.536	12569
491.611	10409
491.686	11867
491.762	10582
491.837	13457
491.913	13721
491.988	15466
492.063	17015
492.139	12881
492.214	11508
492.289	11582
492.365	10226
492.440	11220
492.515	10222
492.590	10868
492.666	10378
492.741	11711
492.816	12377
492.891	10887
492.967	10766
493.042	12031
493.117	10480
493.192	12354
493.267	13983
493.342	20335
493.418	23869
493.493	11882
493.568	11726
493.643	11302
493.718	11680
493.793	11378
493.868	11714
493.943	11229
494.018	11225
494.093	11338
494.168	11244
494.243	10722
494.318	12318
494.393	11605
494.468	12233
494.543	11921
494.618	11367
494.693	12402
494.768	12337
494.842	11876
494.917	12926
494.992	12601
495.067	12581
495.142	11523
495.217	12625
495.292	12767
495.366	12324
495.441	11114
495.516	13142
495.591	13349
495.665	17433
495.740	25442
495.815	17733
495.890	12581
495.964	11916
496.039	15139
496.114	14101
496.188	15845
496.263	15508
496.338	13007
496.412	11772
496.487	12719
496.561	12828
496.636	12152
496.710	12393
496.785	12625
496.860	12348
496.934	12612
497.009	13063
497.083	13267
497.158	12907
497.232	13667
497.307	15179
497.381	17058
497.455	17580
497.530	13540
497.604	11978
497.679	12636
497.753	12838
497.827	12709
497.902	13039
497.976	13654
498.050	15641
498.125	28773
498.199	32449
498.273	16750
498.348	15756
498.422	16305
498.496	17956
498.570	20341
498.645	14058
498.719	9993
498.793	12667
498.867	12976
498.941	12088
499.016	17225
499.090	27307
499.164	20845
499.238	14536
499.312	15358
499.386	16230
499.460	17301
499.534	19693
499.609	22770
499.683	19882
499.757	12146
499.831	12333
499.905	20001
499.979	21589
500.053	12972
500.127	13112
500.201	13263
500.275	14589
500.349	15349
500.422	15504
500.496	18494
500.570	21633
500.644	31284
500.718	34229
500.792	15923
500.866	11087
500.940	10709
501.013	11065
501.087	11515
501.161	11593
501.235	10982
501.309	14611
501.382	18111
501.456	19841
501.530	12093
501.603	11063
501.677	10739
501.751	9383
501.825	12392
501.898	10719
501.972	12567
502.046	12455
502.119	8313
502.193	11542
502.266	11898
502.340	10899
502.413	10598
502.487	13127
502.561	10668
502.634	12240
502.708	12690
502.781	9908
502.855	12037
502.928	9700
503.002	11018
503.075	9877
503.149	10396
503.222	11180
503.295	10982
503.369	12292
503.442	12675
503.516	17210
503.589	22414
503.662	22619
503.736	25428
503.809	34133
503.882	45221
503.956	66956
504.029	131500
504.102	368487
504.175	586023
504.249	271830
504.322	96521
504.395	50482
504.468	31703
504.542	22898
504.615	17372
504.688	16244
504.761	12958
504.834	13620
504.907	11457
504.980	12350
505.053	10641
505.127	7862
505.200	12574
505.273	9252
505.346	10584
505.419	8889
505.492	10372
505.565	9658
505.638	9385
505.711	7390
505.784	7167
505.857	8284
505.930	9062
506.003	7603
506.076	9651
506.149	7307
506.221	6242
506.294	8791
506.367	7346
506.440	10692
506.513	10833
506.586	7946
506.659	7569
506.731	8167
506.804	7700
506.877	6759
506.950	7870
507.022	8335
507.095	6230
507.168	8400
507.241	8758
507.313	7208
507.386	6117
507.459	8421
507.531	8030
507.604	6736
507.677	8387
507.749	5857
507.822	8465
507.894	8058
507.967	8793
508.040	7044
508.112	7974
508.185	8106
508.257	6425
508.330	9130
508.402	7148
508.475	6932
508.547	7739
508.620	7679
508.692	7621
508.765	7150
508.837	6489
508.909	8658
508.982	7235
509.054	7531
509.127	7352
509.199	7319
509.271	6454
509.344	6963
509.416	7853
509.488	7153
509.560	9136
509.633	6657
509.705	6768
509.777	7651
509.849	8099
509.922	5842
509.994	6706
510.066	8217
510.138	5761
510.210	9581
510.283	7485
510.355	7595
510.427	7920
510.499	8319
510.571	8439
510.643	6836
510.715	9082
510.787	6328
510.859	8631
510.931	7449
511.003	8070
511.076	8663
511.148	6967
511.219	6998
511.291	7835
511.363	9503
511.435	7416
511.507	8054
511.579	7557
511.651	8430
511.723	6853
511.795	7419
511.867	7374
511.939	7264
512.010	7541
512.082	8990
512.154	7328
512.226	7616
512.298	9527
512.369	8089
512.441	9915
512.513	8749
512.585	7002
512.656	8438
512.728	8182
512.800	6678
512.871	8784
512.943	8694
513.015	6396
513.086	8603
513.158	8926
513.230	7176
513.301	8801
513.373	9718
513.444	8526
513.516	7267
513.588	8096
513.659	8774
513.731	9030
513.802	6919
513.874	10519
513.945	10217
514.016	7839
514.088	8740
514.159	7101
514.231	8891
514.302	8837
514.374	9798
514.445	7186
514.516	11472
514.588	8708
514.659	9081
514.730	9376
514.802	10074
514.873	7646
514.944	11620
515.016	9596
515.087	8996
515.158	9466
515.229	11400
515.301	9573
515.372	12327
515.443	9559
515.514	10679
515.585	10342
515.656	12115
515.728	12140
515.799	10716
515.870	13417
515.941	13451
516.012	13363
516.083	17105
516.154	18686
516.225	23639
516.296	29654
516.367	34484
516.438	43625
516.509	57734
516.580	87928
516.651	311410
516.722	1086432
516.793	524078
516.864	98113
516.935	77765
517.006	90887
517.077	119028
517.148	253915
517.219	1097568
517.289	1701337
517.360	392310
517.431	96974
517.502	52971
517.573	42871
517.643	36076
517.714	35253
517.785	39882
517.856	43705
517.926	58644
517.997	75956
518.068	100036
518.138	139220
518.209	224289
518.280	742012
518.350	2195118
518.421	1149393
518.492	256641
518.562	136453
518.633	124439
518.703	156304
518.774	300331
518.845	734643
518.915	758245
518.986	258150
519.056	104990
519.127	63921
519.197	47158
519.268	38828
519.338	30401
519.408	23217
519.479	21295
519.549	17724
519.620	18145
519.690	15176
519.760	14553
519.831	13416
519.901	13338
519.971	13866
520.042	12319
520.112	11155
520.182	12706
520.253	11975
520.323	11128
520.393	9650
520.463	13399
520.534	8531
520.604	13301
520.674	11454
520.744	10204
520.814	10470
520.885	12038
520.955	10381
521.025	15071
521.095	12127
521.165	10658
521.235	10013
521.305	9259
521.375	9865
521.445	10560
521.515	8783
521.585	11441
521.655	9085
521.725	10804
521.795	11740
521.865	7719
521.935	12326
522.005	8836
522.075	10181
522.145	11413
522.215	8645
522.285	10423
522.355	9489
522.424	10600
522.494	10997
522.564	10899
522.634	11717
522.704	16537
522.774	11284
522.843	10858
522.913	9737
522.983	10241
523.053	9512
523.122	11734
523.192	10321
523.262	11755
523.331	12397
523.401	11616
523.471	10724
523.540	11054
523.610	10658
523.680	10883
523.749	11687
523.819	12766
523.888	11594
523.958	12067
524.027	11362
524.097	11134
524.166	11513
524.236	10374
524.305	13395
524.375	10179
524.444	10334
524.514	13009
524.583	10748
524.653	11657
524.722	13326
524.791	10787
524.861	13729
524.930	12001
524.999	13035
525.069	14861
525.138	12622
525.207	13191
525.277	15271
525.346	15592
525.415	17831
525.484	20054
525.554	22486
525.623	28176
525.692	34612
525.761	43052
525.830	56791
525.900	76342
525.969	116836
526.038	226916
526.107	438183
526.176	1252701
526.245	1088635
526.314	341235
526.383	607820
526.452	902633
526.522	1100272
526.591	1114870
526.660	242757
526.729	124864
526.797	124158
526.867	163326
526.935	432488
527.004	1503163
527.073	1129280
527.142	213809
527.211	78190
527.280	48792
527.349	35239
527.418	26248
527.487	24200
527.555	17961
527.624	17469
527.693	16119
527.762	16639
527.831	14496
527.899	15659
527.968	13260
528.037	12179
528.106	13182
528.174	13204
528.243	12968
528.312	12378
528.380	13105
528.449	11824
528.518	12821
528.586	9642
528.655	12061
528.723	11065
528.792	11554
528.861	10720
528.929	8846
528.998	12346
529.066	10546
529.135	11071
529.203	11185
529.272	9796
529.340	12201
529.409	13182
529.477	10777
529.545	10595
529.614	13297
529.682	10586
529.751	11731
529.819	14876
529.887	12735
529.956	12180
530.024	12933
530.092	11757
530.161	12775
530.229	11978
530.297	12644
530.365	13825
530.434	12923
530.502	12472
530.570	13140
530.638	11219
530.707	13137
530.775	14064
530.843	11828
530.911	12525
530.979	12659
531.047	12440
531.115	14369
531.183	13387
531.252	12724
531.320	11977
531.388	11319
531.456	13793
531.524	12239
531.592	14240
531.660	15837
531.728	13231
531.796	13377
531.864	13268
531.932	12737
532.000	13680
532.067	12927
532.135	14458
532.203	15289
532.271	14864
532.339	18183
532.407	18224
532.475	17377
532.542	16142
532.610	16306
532.678	15786
532.746	20950
532.814	30268
532.881	19802
532.949	17571
533.017	16302
533.084	15359
533.152	14066
533.220	14764
533.287	14101
533.355	15889
533.423	16576
533.490	15437
533.558	15751
533.625	16537
533.693	15097
533.761	16985
533.828	17007
533.896	15553
533.963	18685
534.031	19341
534.098	23284
534.166	25731
534.233	23560
534.300	27698
534.368	28186
534.435	28247
534.503	31382
534.570	35871
534.637	42781
534.705	51006
534.772	59650
534.840	111633
534.907	513366
534.974	735788
535.041	120566
535.109	43755
535.176	30656
535.243	26702
535.310	25976
535.378	24878
535.445	24742
535.512	25406
535.579	25135
535.646	23568
535.714	25223
535.781	26650
535.848	27509
535.915	26061
535.982	24136
536.049	24743
536.116	25044
536.183	23274
536.250	22829
536.317	23776
536.384	24590
536.451	26084
536.518	26773
536.585	24501
536.652	27320
536.719	28010
536.786	24241
536.853	24498
536.920	26032
536.987	25986
537.053	24889
537.120	31586
537.187	32289
537.254	28979
537.321	28439
537.388	30020
537.454	26582
537.521	26718
537.588	27961
537.654	28336
537.721	29308
537.788	29934
537.855	27448
537.921	28197
537.988	26955
538.055	26859
538.121	24744
538.188	23655
538.254	23342
538.321	24962
538.388	26834
538.454	29135
538.521	31779
538.587	30376
538.654	28689
538.720	27952
538.787	29393
538.853	27921
538.920	28305
538.986	25209
539.053	24051
539.119	25470
539.185	26268
539.252	28413
539.318	28566
539.385	32459
539.451	28897
539.517	28429
539.583	29519
539.650	29154
539.716	31295
539.782	26936
539.849	25713
539.915	28293
539.981	26733
540.047	27402
540.114	27346
540.180	28797
540.246	27611
540.312	31732
540.378	30979
540.444	30602
540.510	29940
540.576	34441
540.643	29269
540.709	26582
540.775	27986
540.841	27793
540.907	26698
540.973	28095
541.039	26972
541.105	28735
541.171	29058
541.237	30389
541.303	30381
541.369	31132
541.435	30725
541.500	29487
541.566	26909
541.632	26718
541.698	27783
541.764	30226
541.830	28052
541.896	27523
541.961	28436
542.027	27446
542.093	30509
542.159	31600
542.224	28455
542.290	30074
542.356	29650
542.421	29629
542.487	27789
542.553	26013
542.618	27703
542.684	28309
542.750	27982
542.815	29586
542.881	29332
542.947	32932
543.012	33577
543.078	27165
543.143	25560
543.209	27925
543.274	26454
543.340	27528
543.405	29016
543.471	30834
543.536	30320
543.602	28670
543.667	27733
543.732	29049
543.798	29032
543.863	31024
543.928	29231
543.994	28767
544.059	30178
544.124	31384
544.190	32259
544.255	32095
544.320	33103
544.386	31512
544.451	32995
544.516	32207
544.581	32136
544.646	34362
544.712	37851
544.777	34316
544.842	34639
544.907	33412
544.972	34084
545.037	36052
545.102	35477
545.168	35687
545.233	37208
545.298	37797
545.363	36218
545.428	38987
545.493	40708
545.558	41369
545.623	40638
545.688	38697
545.753	41741
545.818	42007
545.883	45240
545.947	44714
546.012	48326
546.077	48527
546.142	52112
546.207	51288
546.272	56609
546.337	58137
546.401	59314
546.466	62151
546.531	63827
546.596	68115
546.661	71350
546.725	77392
546.790	80201
546.855	85287
546.919	93823
546.984	105435
547.049	113011
547.113	128235
547.178	142164
547.243	159883
547.307	184119
547.372	209143
547.436	208255
547.501	216553
547.565	234794
547.630	217250
547.695	208378
547.759	207647
547.823	211178
547.888	211608
547.952	220380
548.017	226111
548.081	232141
548.146	230723
548.210	236788
548.274	254271
548.339	255891
548.403	232522
548.468	217960
548.532	213292
548.596	216521
548.660	219782
548.725	234902
548.789	254891
548.853	252344
548.917	239472
548.982	233937
549.046	215387
549.110	194645
549.174	193727
549.238	225392
549.303	248850
549.367	258021
549.431	247575
549.495	230949
549.559	230815
549.623	259983
549.687	287926
549.751	277234
549.815	329410
549.879	341461
549.943	324055
550.007	334295
550.071	337330
550.135	305840
550.199	289908
550.263	286396
550.327	266692
550.391	270936
550.455	300519
550.519	318715
550.582	336684
550.646	377921
550.710	390403
550.774	382382
550.838	387871
550.901	398155
550.965	422760
551.029	444888
551.093	479009
551.156	525207
551.220	602671
551.284	670065
551.347	529953
551.411	430919
551.475	401557
551.538	409555
551.602	387819
551.666	361450
551.729	343702
551.793	329208
551.856	326245
551.920	318155
551.983	319656
552.047	314420
552.110	315996
552.174	318146
552.237	326556
552.301	307722
552.364	292490
552.428	287135
552.491	292442
552.554	303293
552.618	301925
552.681	312448
552.745	311028
552.808	365864
552.871	447072
552.934	372492
552.998	321064
553.061	300095
553.124	283449
553.187	278591
553.251	288985
553.314	285515
553.377	285296
553.440	304027
553.503	311709
553.567	312572
553.630	303788
553.693	302076
553.756	302512
553.819	295631
553.882	282484
553.945	281135
554.008	284184
554.071	286728
554.134	290779
554.197	272027
554.260	261462
554.323	265306
554.386	269222
554.449	285141
554.512	286161
554.575	272661
554.638	267918
554.701	266872
554.764	265457
554.827	256780
554.889	246036
554.952	230534
555.015	226201
555.078	232569
555.141	235366
555.203	230591
555.266	228576
555.329	230321
555.391	220007
555.454	217226
555.517	211936
555.580	207033
555.642	198776
555.705	194053
555.768	192811
555.830	187969
555.893	176371
555.955	174653
556.018	171019
556.080	171171
556.143	177378
556.206	176042
556.268	170028
556.330	167559
556.393	162451
556.455	160773
556.518	155790
556.580	150918
556.643	145499
556.705	143647
556.767	140204
556.830	138640
556.892	136607
556.955	134632
557.017	131254
557.079	130521
557.142	126274
557.204	127811
557.266	129370
557.328	121888
557.391	112508
557.453	109540
557.515	108897
557.577	112893
557.639	113089
557.701	113463
557.764	113983
557.826	117669
557.888	122535
557.950	128953
558.012	137150
558.074	167549
558.136	355580
558.198	879551
558.260	377872
558.322	145816
558.384	135022
558.446	140450
558.508	153542
558.570	170187
558.632	194757
558.694	240974
558.756	378587
558.818	967060
558.880	1919727
558.942	1017873
559.003	975457
559.065	532828
559.127	205324
559.189	180172
559.251	186440
559.312	245614
559.374	544877
559.436	1490448
559.498	913875
559.559	256213
559.621	186201
559.683	190772
559.744	287061
559.806	829226
559.868	1257858
559.929	372443
559.991	201791
560.052	295162
560.114	827390
560.176	587605
560.237	476785
560.299	813208
560.360	220869
560.422	85761
560.483	66195
560.545	60075
560.606	56194
560.667	53572
560.729	51427
560.790	48104
560.852	47209
560.913	44966
560.974	44625
561.036	43869
561.097	43596
561.158	43655
561.220	41906
561.281	39794
561.342	40207
561.403	39880
561.465	39361
561.526	40718
561.587	41379
561.648	36916
561.709	35558
561.771	35094
561.832	34951
561.893	34510
561.954	35051
562.015	34675
562.076	33956
562.137	33052
562.198	32427
562.259	34139
562.320	33969
562.381	33750
562.442	33218
562.503	32422
562.564	31311
562.625	31868
562.686	30256
562.747	31038
562.808	30315
562.869	29157
562.930	30171
562.991	29445
563.051	28814
563.112	29921
563.173	29883
563.234	28240
563.294	28069
563.355	27814
563.416	28402
563.477	28269
563.537	27320
563.598	26599
563.659	27025
563.720	27039
563.780	27633
563.841	27609
563.901	27727
563.962	26436
564.023	26428
564.083	26215
564.144	25269
564.204	25671
564.265	24459
564.325	25760
564.386	26719
564.446	25348
564.507	24686
564.567	24730
564.628	23334
564.688	23911
564.749	23680
564.809	24730
564.869	25022
564.930	24311
564.990	25202
565.050	24499
565.111	23882
565.171	22516
565.231	23978
565.292	24261
565.352	23431
565.412	24554
565.472	23337
565.532	23471
565.593	24610
565.653	23799
565.713	23966
565.773	24219
565.833	25324
565.893	26487
565.953	22508
566.013	22355
566.074	22748
566.134	22350
566.194	21841
566.254	22413
566.314	21864
566.374	21111
566.434	22335
566.494	22870
566.554	21593
566.614	22599
566.673	22529
566.733	23790
566.793	23450
566.853	23830
566.913	23380
566.973	23116
567.033	23897
567.092	22261
567.152	22775
567.212	23555
567.272	23263
567.331	24471
567.391	24485
567.451	25126
567.511	26060
567.570	25157
567.630	25218
567.690	23652
567.749	22098
567.809	23316
567.868	22530
567.928	23734
567.988	23441
568.047	23719
568.107	24421
568.166	24337
568.226	23246
568.285	25274
568.345	25791
568.404	25677
568.464	25047
568.523	23908
568.582	25118
568.642	24344
568.701	22410
568.761	23431
568.820	24139
568.879	24314
568.939	24126
568.998	24654
569.057	23103
569.116	24330
569.176	23550
569.235	22198
569.294	24093
569.353	22157
569.413	23273
569.472	21870
569.531	21623
569.590	21809
569.649	21486
569.708	21957
569.767	22587
569.827	22023
569.886	22367
569.945	22845
570.004	23024
570.063	22857
570.122	22551
570.181	23356
570.240	23629
570.299	23493
570.358	23225
570.417	23876
570.475	24108
570.534	23623
570.593	23777
570.652	24669
570.711	23669
570.770	23763
570.829	23756
570.887	23490
570.946	24832
571.005	25356
571.064	28048
571.122	32439
571.181	28246
571.240	24972
571.299	22953
571.357	22930
571.416	22482
571.475	22690
571.533	23026
571.592	25140
571.650	24229
571.709	25763
571.768	29909
571.826	31650
571.885	28535
571.943	25523
572.002	24874
572.060	23274
572.119	22413
572.177	21351
572.236	22973
572.294	23188
572.352	25498
572.411	25565
572.469	25336
572.528	22628
572.586	22240
572.644	21350
572.703	22070
572.761	20745
572.819	20808
572.877	20568
572.936	19233
572.994	19825
573.052	20875
573.110	21387
573.169	21488
573.227	21530
573.285	21462
573.343	22063
573.401	21632
573.459	22623
573.517	23293
573.576	24351
573.634	24319
573.692	23674
573.750	24146
573.808	21496
573.866	20977
573.924	21102
573.982	21090
574.040	21597
574.098	20556
574.155	20514
574.213	20494
574.271	22069
574.329	24293
574.387	22528
574.445	20241
574.503	19709
574.560	19893
574.618	20285
574.676	20846
574.734	20801
574.792	19030
574.849	18515
574.907	17770
574.965	16819
575.022	15747
575.080	15925
575.138	16505
575.195	15528
575.253	15646
575.311	16792
575.368	16282
575.426	15678
575.483	17293
575.541	16391
575.598	16867
575.656	17340
575.713	18292
575.771	18354
575.828	17555
575.886	16906
575.943	15617
576.001	15126
576.058	14787
576.115	15769
576.173	16435
576.230	16751
576.287	17070
576.345	16555
576.402	16586
576.459	18221
576.517	15485
576.574	15819
576.631	15510
576.688	14884
576.746	14417
576.803	13813
576.860	14897
576.917	14709
576.974	15387
577.031	15495
577.089	14621
577.146	13940
577.203	13221
577.260	14623
577.317	14025
577.374	13586
577.431	13067
577.488	13764
577.545	12665
577.602	14166
577.659	14097
577.716	14577
577.773	14076
577.830	13179
577.886	14705
577.943	13531
578.000	12990
578.057	13087
578.114	14001
578.171	14378
578.227	13734
578.284	13230
578.341	14850
578.398	14327
578.454	14364
578.511	14328
578.568	13351
578.625	13173
578.681	13738
578.738	13495
578.794	13359
578.851	13715
578.908	13955
578.964	13376
579.021	13744
579.077	13574
579.134	13386
579.190	13731
579.247	15085
579.303	13790
579.360	14308
579.416	14078
579.473	14595
579.529	13371
579.586	13120
579.642	14769
579.698	14346
579.755	13744
579.811	13920
579.867	14055
579.924	13908
579.980	13520
580.036	14720
580.093	15285
580.149	14438
580.205	15525
580.261	15703
580.317	15371
580.374	16148
580.430	15511
580.486	15623
580.542	14320
580.598	16237
580.619	16270
580.654	16343
580.692	15417
580.710	14983
580.765	15927
580.767	15970
580.823	17122
580.838	17116
580.879	17169
580.911	17303
580.935	17422
580.984	16306
580.991	16179
581.047	16075
581.057	16007
581.103	15726
581.130	15934
581.159	16166
581.203	15548
581.215	15403
581.270	15629
581.276	15412
581.326	13460
581.349	13929
581.382	14631
581.422	14312
581.438	14185
581.494	15036
581.494	15016
581.550	13925
581.567	14169
581.606	14749
581.640	14682
581.661	14632
581.713	15336
581.717	15402
581.773	14920
581.786	14883
581.829	14714
581.859	14828
581.885	15045
581.932	14739
581.940	14660
581.996	15829
582.004	15736
582.052	15241
582.077	15013
582.107	14775
582.150	14587
582.163	14538
582.219	13945
582.223	13984
582.274	14549
582.296	14485
582.330	14416
582.368	14987
582.386	15299
582.441	15756
582.441	15758
582.497	14952
582.514	14858
582.552	14835
582.587	14265
582.608	13910
582.659	14117
582.663	14135
582.719	15583
582.732	15380
582.774	14918
582.805	14886
582.830	14735
582.877	15589
582.885	15746
582.941	14740
582.950	14740
582.996	14579
583.023	14892
583.052	15502
583.095	15987
583.107	16023
583.162	15194
583.168	15259
583.218	16019
583.240	15572
583.273	14762
583.313	14504
583.328	14486
583.384	14764
583.385	14766
583.439	14645
583.458	14624
583.494	14725
583.531	15085
583.549	15276
583.603	15159
583.605	15153
583.660	15153
583.676	15329
583.715	15812
583.748	15618
583.770	15487
583.820	15458
583.825	15447
583.881	15479
583.893	15456
583.936	15285
583.965	15375
583.991	15402
584.038	14950
584.046	14958
584.101	14971
584.110	15203
584.156	16092
584.183	16159
584.211	16170
584.255	15951
584.266	15960
584.321	17000
584.328	16909
584.376	16065
584.400	16474
584.431	16880
584.472	16456
584.486	16381
584.541	17629
584.545	17676
584.596	18541
584.617	18657
584.651	18809
584.689	18719
584.706	18662
584.761	20135
584.762	20140
584.816	20585
584.834	20992
584.871	21894
584.906	22530
584.926	23000
584.978	24291
584.980	24351
585.035	26962
585.051	27907
585.090	30440
585.123	32961
585.145	34703
585.195	38658
585.200	39163
585.254	46589
585.267	48772
585.309	55990
585.340	60931
585.364	65495
585.412	76595
585.419	78592
585.473	97167
585.484	102379
585.528	131702
585.556	161961
585.583	217196
585.628	354807
585.637	403139
585.692	834547
585.700	905302
585.747	1133737
585.772	985768
585.801	675462
585.845	279341
585.856	220520
585.910	108270
585.917	98800
585.965	70232
585.989	60739
586.019	52872
586.061	45064
586.074	43337
586.128	39005
586.133	38712
586.183	36442
586.205	35561
586.237	34450
586.277	33654
586.292	33503
586.346	32537
586.349	32510
586.401	32350
586.421	32205
586.455	31951
586.493	32201
586.509	32581
586.564	32693
586.565	32714
586.618	34917
586.637	36382
586.672	41468
586.709	47807
586.727	50283
586.781	56685
586.781	56691
586.835	44928
586.853	41735
586.889	36799
586.925	33452
586.944	32452
586.996	31091
586.998	31105
587.052	31159
587.068	31359
587.106	31808
587.140	31900
587.161	31759
587.212	31244
587.215	31288
587.269	31591
587.284	32014
587.323	33125
587.356	33498
587.377	33660
587.427	34277
587.431	34378
587.485	35756
587.499	35935
587.539	36574
587.571	37227
587.593	37840
587.643	39716
587.648	39897
587.702	40326
587.715	40478
587.755	40377
587.786	40465
587.810	40779
587.858	41013
587.864	41082
587.917	41391
587.930	41429
587.971	41661
588.001	42116
588.025	42558
588.073	42985
588.079	43058
588.133	43084
588.145	42972
588.187	42821
588.217	43244
588.241	44268
588.288	46237
588.295	46460
588.348	47545
588.360	47753
588.402	49302
588.431	50615
588.456	51810
588.503	53971
588.510	54461
588.564	57866
588.575	58629
588.617	62456
588.646	65328
588.671	68304
588.718	73958
588.725	75754
588.778	91827
588.789	95921
588.832	140812
588.861	176874
588.886	250258
588.932	413098
588.939	426165
588.993	508387
589.004	503688
589.047	285692
589.075	155258
589.100	119507
589.147	76779
589.154	75506
589.207	69036
589.218	67866
589.261	68444
589.290	69297
589.314	71249
589.361	76255
589.368	78973
589.421	103329
589.433	109490
589.475	180173
589.504	237808
589.528	307002
589.576	450863
589.582	436994
589.635	230620
589.647	188314
589.689	109010
589.718	65315
589.742	60542
589.790	52898
589.795	52598
589.849	50354
589.861	49791
589.902	48181
589.932	47043
589.955	47167
590.004	47363
590.009	47338
590.062	46276
590.075	46028
590.115	45985
590.146	45780
590.168	45825
590.218	45704
590.222	45844
590.275	47094
590.289	47380
590.328	48389
590.360	48996
590.381	48879
590.431	48446
590.435	48563
590.488	49352
590.503	49540
590.541	49857
590.574	49971
590.594	50687
590.645	52650
590.647	52789
590.700	54222
590.716	54681
590.753	55960
590.787	56667
590.806	57053
590.859	58258
590.859	58336
590.912	57804
590.930	57611
590.965	58753
591.001	59798
591.018	59890
591.071	59521
591.072	59435
591.124	58511
591.143	58046
591.177	59159
591.214	60344
591.230	60407
591.283	60473
591.285	60375
591.336	59698
591.356	59371
591.389	59456
591.427	59288
591.442	59378
591.495	59420
591.498	59337
591.547	59982
591.569	60242
591.600	60579
591.640	60649
591.653	60939
591.706	61885
591.711	61889
591.759	63930
591.782	64912
591.811	66597
591.853	68775
591.864	68888
591.917	68789
591.924	68663
591.969	68366
591.995	68057
592.022	68363
592.066	68646
592.075	69201
592.127	71938
592.137	72349
592.180	73187
592.208	73513
592.233	74461
592.279	75963
592.285	76286
592.338	78025
592.350	78285
592.390	78232
592.421	77993
592.443	78801
592.491	80221
592.495	80422
592.548	81444
592.562	81597
592.600	80919
592.633	80109
592.653	80807
592.704	81848
592.705	82357
592.775	84401
592.846	85870
592.916	86196
592.987	87177
593.058	87745
593.128	88600
593.199	88439
593.270	90938
593.341	93448
593.411	96832
593.482	100403
593.553	100988
593.623	102298
593.694	105047
593.764	106100
593.835	103866
593.906	104209
593.976	107243
594.047	109079
594.117	114918
594.188	117812
594.258	117684
594.329	115980
594.399	119749
594.470	124349
594.540	126835
594.611	129399
594.681	128215
594.751	128198
594.822	135488
594.892	138012
594.963	142222
595.033	146411
595.103	153209
595.174	152336
595.244	156261
595.314	160030
595.384	165105
595.455	168296
595.525	173130
595.595	179901
595.665	180526
595.736	174795
595.806	178396
595.876	180302
595.946	182684
596.016	188859
596.087	197042
596.157	195732
596.227	198691
596.297	208459
596.367	221860
596.437	231723
596.507	230893
596.577	230759
596.647	239572
596.717	248508
596.787	255011
596.857	251953
596.927	255756
596.997	254271
597.067	257633
597.137	260426
597.207	262291
597.277	262729
597.347	252678
597.417	246350
597.487	245338
597.557	250111
597.626	257631
597.696	257728
597.766	257045
597.836	239979
597.906	230699
597.975	227096
598.045	233335
598.115	245029
598.185	262192
598.254	291707
598.324	310605
598.394	315255
598.464	304815
598.533	298858
598.603	281971
598.672	273220
598.742	279691
598.812	278978
598.881	287015
598.951	283711
599.020	288694
599.090	299413
599.159	301962
599.229	289808
599.299	285481
599.368	291300
599.437	285832
599.507	261907
599.576	254647
599.646	249888
599.715	245267
599.785	245476
599.854	236873
599.924	233535
599.993	233793
600.062	238515
600.132	247325
600.201	261485
600.270	300936
600.340	310943
600.409	307922
600.478	302942
600.547	309485
600.617	273054
600.686	219812
600.755	201672
600.824	188809
600.894	183908
600.963	185785
601.032	181190
601.101	175940
601.170	167920
601.239	162333
601.308	161545
601.378	161664
601.447	162648
601.516	162992
601.585	163954
601.654	168063
601.723	165888
601.792	173164
601.861	176394
601.930	185002
601.999	186114
602.068	183869
602.137	186524
602.206	189977
602.275	191149
602.343	195002
602.412	194026
602.481	199518
602.550	201925
602.619	206143
602.688	209519
602.756	210578
602.825	212945
602.894	216279
602.963	220755
603.032	223128
603.100	223950
603.169	226358
603.238	225696
603.307	228327
603.375	230227
603.444	234967
603.513	241016
603.581	245104
603.650	247594
603.719	242198
603.787	251560
603.856	261501
603.924	264303
603.993	276742
604.061	285205
604.130	298546
604.198	302539
604.267	307490
604.335	311902
604.404	318345
604.472	320641
604.541	323222
604.609	327133
604.678	329092
604.746	330132
604.815	340958
604.883	344441
604.951	342512
605.020	350897
605.088	357096
605.156	366421
605.225	369107
605.293	369286
605.361	372356
605.429	376263
605.498	386097
605.566	391786
605.634	411660
605.702	425577
605.771	433868
605.839	433394
605.907	426067
605.975	411159
606.043	407383
606.111	404350
606.180	403838
606.248	398104
606.316	396522
606.384	395911
606.452	398891
606.520	411987
606.588	423024
606.656	424651
606.724	414931
606.792	387422
606.860	354520
606.928	326542
606.996	313502
607.064	311248
607.132	318568
607.200	336748
607.267	346835
607.335	353360
607.403	358187
607.471	345023
607.539	336698
607.607	333661
607.674	299020
607.742	300881
607.810	296891
607.878	297515
607.946	305540
608.013	318779
608.081	322938
608.149	325922
608.216	340989
608.284	345482
608.352	344734
608.419	340789
608.487	336783
608.555	333156
608.622	345681
608.690	364866
608.757	400294
608.825	401722
608.893	390136
608.960	369100
609.028	353943
609.095	352492
609.163	351696
609.230	315669
609.298	297251
609.365	313653
609.432	339266
609.500	366874
609.567	414516
609.635	465656
609.702	479267
609.769	450388
609.837	357221
609.904	322920
609.971	339324
610.039	374240
610.106	453189
610.173	728367
610.241	1331859
610.308	773327
610.375	393013
610.442	343058
610.509	329588
610.577	328532
610.644	335555
610.711	346638
610.778	352446
610.845	368569
610.912	385198
610.980	400801
611.047	399886
611.114	392828
611.181	382370
611.248	382692
611.315	401918
611.382	411361
611.449	425839
611.516	429083
611.583	425686
611.650	429435
611.717	438172
611.784	445456
611.851	467849
611.918	497385
611.984	562566
612.051	709935
612.118	1118838
612.185	1963572
612.252	1328837
612.319	642290
612.386	553359
612.452	508511
612.519	482746
612.586	470790
612.653	480072
612.719	491296
612.786	472983
612.853	439261
612.919	433594
612.986	436561
613.053	413966
613.120	391652
613.186	378850
613.253	380596
613.319	382071
613.386	384351
613.453	389307
613.519	390792
613.586	382806
613.652	386058
613.719	385617
613.785	389676
613.852	396078
613.918	389984
613.985	397569
614.051	409239
614.118	403830
614.184	389942
614.250	392898
614.317	396919
614.383	394857
614.449	400104
614.516	397302
614.582	397730
614.648	393376
614.715	387794
614.781	380434
614.847	380843
614.914	378478
614.980	367569
615.046	371518
615.112	383123
615.179	381090
615.245	387400
615.311	383951
615.377	389909
615.443	394224
615.509	399193
615.575	410801
615.642	409041
615.708	422914
615.774	440755
615.840	468982
615.906	501396
615.972	585500
616.038	778103
616.104	1287189
616.170	2143978
616.236	1738059
616.302	830825
616.368	684477
616.434	529237
616.500	497016
616.565	547595
616.631	662582
616.697	562596
616.763	582041
616.829	810753
616.895	1266263
616.961	1132980
617.026	578875
617.092	437921
617.158	411978
617.224	394564
617.289	366540
617.355	351542
617.421	346680
617.487	344543
617.552	330912
617.618	328006
617.684	327993
617.749	330404
617.815	316126
617.880	309824
617.946	313410
618.012	316008
618.077	322426
618.143	307022
618.208	309009
618.274	328593
618.339	325924
618.405	273491
618.470	274309
618.536	269334
618.601	267105
618.667	249565
618.732	238316
618.798	235084
618.863	235291
618.928	235281
618.994	239601
619.059	239568
619.124	241427
619.190	235090
619.255	233745
619.320	236161
619.386	236559
619.451	231548
619.516	225761
619.581	227214
619.647	232544
619.712	232925
619.777	221229
619.842	224028
619.907	226847
619.972	231498
620.038	227195
620.103	223182
620.168	223591
620.233	227915
620.298	229455
620.363	233749
620.428	241062
620.493	244067
620.558	250087
620.623	251675
620.688	248578
620.753	246984
620.818	252162
620.883	251077
620.948	251057
621.013	245515
621.078	243227
621.143	246430
621.207	245876
621.272	240628
621.337	233475
621.402	231909
621.467	228912
621.532	228781
621.596	230180
621.661	220340
621.726	223346
621.791	225054
621.855	226636
621.920	221936
621.985	226641
622.049	230981
622.114	233314
622.179	235413
622.243	240870
622.308	248745
622.373	258078
622.437	247419
622.502	237651
622.566	236353
622.631	234172
622.695	239841
622.760	236652
622.824	237439
622.889	238269
622.953	236966
623.018	251998
623.082	253814
623.147	250382
623.211	242764
623.276	245805
623.340	236256
623.404	230770
623.469	228617
623.533	231937
623.597	224872
623.662	223340
623.726	207233
623.790	197336
623.854	190819
623.919	195225
623.983	195917
624.047	202126
624.111	204448
624.176	206412
624.240	208691
624.304	214837
624.368	205884
624.432	209008
624.496	212443
624.560	224895
624.625	224558
624.689	223160
624.753	234116
624.817	221361
624.881	215928
624.945	195600
625.009	191022
625.073	195752
625.137	203616
625.201	213529
625.265	211173
625.329	204839
625.393	203891
625.456	211030
625.520	213337
625.584	213642
625.648	221509
625.712	227802
625.776	221796
625.839	211368
625.903	180322
625.967	169530
626.031	182200
626.095	210786
626.158	193535
626.222	155738
626.286	145076
626.349	139629
626.413	129599
626.477	131323
626.540	133202
626.604	131314
626.668	131013
626.731	127968
626.795	127280
626.858	129920
626.922	127982
626.986	125784
627.049	125699
627.113	131276
627.176	124958
627.240	122810
627.303	124374
627.366	122777
627.430	124796
627.493	122629
627.557	119157
627.620	122877
627.684	126530
627.747	127447
627.810	116301
627.874	107012
627.937	100829
628.000	106108
628.064	101068
628.127	92389
628.190	92110
628.253	89380
628.317	82142
628.380	81413
628.443	77561
628.506	77081
628.569	76134
628.632	71722
628.696	70634
628.759	70494
628.822	67786
628.885	66202
628.948	65362
629.011	65090
629.074	62133
629.137	61119
629.200	60038
629.263	60879
629.326	56630
629.389	58738
629.452	57790
629.515	57143
629.578	56494
629.641	58757
629.704	58131
629.767	57328
629.830	55133
629.892	55302
629.955	53785
630.018	56466
630.081	54655
630.144	55063
630.207	52328
630.269	54327
630.332	50294
630.395	52111
630.458	50643
630.520	48090
630.583	50740
630.646	52929
630.708	51457
630.771	52281
630.834	55689
630.896	53296
630.959	53486
631.021	52930
631.084	52070
631.146	53005
631.209	54438
631.272	53052
631.334	54581
631.397	55658
631.459	55441
631.522	60029
631.584	60674
631.646	65315
631.709	68041
631.771	65968
631.834	64412
631.896	60505
631.958	56571
632.021	54847
632.083	53301
632.145	53264
632.208	49778
632.270	51936
632.332	50447
632.395	49742
632.457	52464
632.519	48680
632.581	50448
632.643	49479
632.706	50388
632.768	47841
632.830	50795
632.892	51713
632.954	50204
633.016	52655
633.078	50808
633.141	50061
633.203	50485
633.265	50861
633.327	49695
633.389	50106
633.451	51854
633.513	49782
633.575	52783
633.637	52048
633.698	52921
633.760	56601
633.822	58212
633.884	60236
633.946	59928
634.008	62958
634.070	64800
634.132	69088
634.193	73748
634.255	80866
634.317	81969
634.379	81441
634.441	71183
634.502	64734
634.564	59332
634.626	55822
634.687	52348
634.749	51894
634.811	50923
634.873	49502
634.934	50045
634.996	51113
635.057	49535
635.119	52359
635.181	51286
635.242	53028
635.304	50627
635.365	54721
635.427	50460
635.488	52187
635.550	51104
635.611	52773
635.673	51971
635.734	58318
635.796	59839
635.857	67326
635.918	70633
635.980	78670
636.041	82358
636.102	87755
636.164	88019
636.225	83993
636.286	71395
636.348	65603
636.409	57427
636.470	55043
636.531	52017
636.593	50234
636.654	48586
636.715	46376
636.776	46790
636.838	44587
636.899	43473
636.960	42994
637.021	42590
637.082	41649
637.143	41868
637.204	40018
637.265	39267
637.326	41646
637.387	42512
637.448	41309
637.509	42235
637.570	40946
637.631	41668
637.692	38203
637.753	37206
637.814	38387
637.875	36800
637.936	39082
637.997	37531
638.058	37642
638.119	36514
638.179	37968
638.240	37207
638.301	38179
638.362	35823
638.423	36015
638.483	35546
638.544	34495
638.605	34674
638.666	34859
638.726	35506
638.787	35929
638.848	34043
638.908	34325
638.969	32621
639.030	32787
639.090	32248
639.151	33746
639.211	33723
639.272	34963
639.332	34030
639.393	36583
639.453	37624
639.514	39408
639.574	34339
639.635	31756
639.695	32267
639.756	30851
639.816	31055
639.877	30895
639.937	32911
639.997	31942
640.058	29941
640.118	31286
640.178	31686
640.239	31562
640.299	32398
640.359	31483
640.420	35585
640.480	39796
640.540	45036
640.600	44808
640.661	39542
640.721	36241
640.781	36833
640.841	31183
640.901	32604
640.961	32775
641.021	34009
641.082	36153
641.142	32709
641.202	31879
641.262	28040
641.322	30894
641.382	28610
641.442	30344
641.502	29048
641.562	31188
641.622	31076
641.682	33490
641.742	39601
641.802	34961
641.861	30985
641.921	29598
641.981	29316
642.041	28380
642.101	27133
642.161	28386
642.221	27783
642.280	29525
642.340	28676
642.400	28206
642.460	30000
642.519	29247
642.579	29105
642.639	30526
642.698	26875
642.758	32345
642.818	29616
642.877	29979
642.937	29490
642.997	29765
643.056	30101
643.116	29494
643.175	32479
643.235	33048
643.294	32947
643.354	36876
643.414	40623
643.473	49141
643.532	60513
643.592	80555
643.651	117200
643.711	178342
643.770	310529
643.830	667996
643.889	1118997
643.948	361629
644.008	99858
644.067	61367
644.126	46320
644.186	40485
644.245	36581
644.304	33302
644.363	34752
644.423	32243
644.482	33730
644.541	37526
644.600	39557
644.659	50094
644.719	62797
644.778	86351
644.837	134245
644.896	259631
644.955	526495
645.014	184884
645.073	54268
645.132	42051
645.191	37673
645.250	37175
645.309	41250
645.368	44079
645.427	57023
645.486	93080
645.545	152434
645.604	51791
645.663	33729
645.722	34381
645.781	37838
645.840	45237
645.898	56388
645.957	79387
646.016	109061
646.075	171113
646.134	293301
646.192	705739
646.251	884274
646.310	205742
646.369	74133
646.427	60009
646.486	44445
646.545	36186
646.603	32949
646.662	31007
646.721	30710
646.779	32191
646.838	35669
646.896	46211
646.955	56631
647.014	83384
647.072	151101
647.131	379199
647.189	184335
647.248	38320
647.306	28848
647.365	26626
647.423	22152
647.481	24335
647.540	21941
647.598	22338
647.657	21518
647.715	21796
647.773	20225
647.832	21404
647.890	18918
647.948	20075
648.007	19516
648.065	18509
648.123	18126
648.181	19630
648.240	18682
648.298	17934
648.356	18162
648.414	19027
648.472	17915
648.531	18982
648.589	17215
648.647	19138
648.705	17046
648.763	18908
648.821	20713
648.879	21385
648.937	25067
648.995	33554
649.053	41709
649.111	60303
649.169	87526
649.227	139745
649.285	276654
649.343	676222
649.401	335277
649.459	62681
649.516	36733
649.574	30941
649.632	32388
649.690	38626
649.748	45263
649.806	63067
649.863	108758
649.921	282020
649.979	191852
650.037	34238
650.094	18963
650.152	18488
650.210	15657
650.268	15528
650.325	15366
650.383	14313
650.440	13412
650.498	14767
650.556	13787
650.613	14007
650.671	14076
650.728	15170
650.786	14955
650.843	21639
650.901	15579
650.958	12976
651.016	12596
651.073	12876
651.131	11834
651.188	11564
651.246	11649
651.303	10725
651.360	11479
651.418	11607
651.475	11305
651.532	10192
651.590	11108
651.647	10687
651.704	10560
651.762	10534
651.819	10772
651.876	10384
651.933	9569
651.990	10120
652.048	7522
652.105	9820
652.162	10475
652.219	10266
652.276	10115
652.333	10176
652.390	8782
652.448	10375
652.505	9803
652.562	10090
652.619	9285
652.676	9937
652.733	9874
652.790	9428
652.847	8673
652.904	10281
652.961	7608
653.017	8365
653.074	9417
653.131	9087
653.188	8025
653.245	8887
653.302	8592
653.359	9158
653.415	9207
653.472	9093
653.529	9333
653.586	9402
653.642	9002
653.699	10765
653.756	8329
653.813	8463
653.869	9082
653.926	9165
653.983	8430
654.039	10374
654.096	8616
654.152	9984
654.209	6978
654.266	8901
654.322	7190
654.379	8956
654.435	9142
654.492	8653
654.548	8427
654.605	7830
654.661	8612
654.717	9118
654.774	8233
654.830	8021
654.887	7841
654.943	8019
655.000	7945
655.056	8132
655.112	9079
655.168	8009
655.225	8993
655.281	9707
655.337	8543
655.394	8039
655.450	7912
655.506	7966
655.562	7864
655.618	9533
655.675	7685
655.731	7226
655.787	6663
655.843	9583
655.899	7515
655.955	8508
656.011	9127
656.067	9017
656.123	8479
656.179	8231
656.235	10213
656.291	8602
656.347	9570
656.403	8117
656.459	7317
656.515	8475
656.571	8520
656.627	8275
656.683	8271
656.739	9386
656.795	7741
656.850	8768
656.906	8373
656.962	9701
657.018	10286
657.074	12367
657.129	14937
657.185	23330
657.241	51172
657.297	32643
657.352	10837
657.408	8783
657.464	7856
657.519	8102
657.575	6793
657.630	7051
657.686	8025
657.742	7390
657.797	7659
657.853	7593
657.908	8478
657.964	5987
658.019	7210
658.075	8084
658.130	7601
658.186	6675
658.241	7280
658.297	6709
658.352	6566
658.407	7105
658.463	5495
658.518	6875
658.573	6075
658.629	6862
658.684	6945
658.739	7572
658.795	6100
658.850	6624
658.905	6105
658.960	6582
659.016	5676
659.071	7125
659.126	6276
659.181	7153
659.236	6947
659.291	7145
659.346	5294
659.401	6470
659.457	6866
659.512	5703
659.567	7407
659.622	6266
659.677	6034
659.732	4694
659.787	5492
659.842	6352
659.897	6022
659.952	6710
660.007	6058
660.061	6614
660.116	4515
660.171	5993
660.226	6012
660.281	7395
660.336	4956
660.391	7244
660.445	4970
660.500	6336
660.555	5867
660.610	5398
660.664	5949
660.719	6340
660.774	6147
660.828	6965
660.883	5555
660.938	6968
660.992	4726
661.047	6799
661.101	5460
661.156	6299
661.211	5356
661.265	5987
661.320	5731
661.374	6246
661.429	5284
661.483	6933
661.538	4247
661.592	5961
661.647	5125
661.701	6371
661.755	6179
661.810	6553
661.864	5397
661.919	6082
661.973	5829
662.027	5837
662.081	5263
662.136	5516
662.190	6649
662.244	5995
662.299	5358
662.353	6786
662.407	5277
662.461	5836
662.515	5204
662.569	5405
662.624	5647
662.678	5437
662.732	5853
662.786	6026
662.840	5178
662.894	5893
662.948	5132
663.002	5599
663.056	5096
663.110	4840
663.164	5222
663.218	5641
663.272	5897
663.326	5788
663.380	5922
663.434	6359
663.488	4798
663.542	5810
663.595	5904
663.649	5969
663.703	5982
663.757	5153
663.811	5251
663.864	6090
663.918	5884
663.972	6496
664.026	5249
664.079	6395
664.133	6754
664.187	6570
664.240	6689
664.294	6429
664.348	5971
664.401	6006
664.455	5735
664.508	6239
664.562	5287
664.615	6365
664.669	5566
664.722	6279
664.776	4603
664.829	5650
664.883	6020
664.936	5478
664.990	5902
665.043	6553
665.097	5955
665.150	6954
665.203	4873
665.257	5818
665.310	5504
665.363	6520
665.417	6710
665.470	7174
665.523	6089
665.576	6332
665.630	6274
665.683	6713
665.736	6909
665.789	6289
665.842	6413
665.895	6429
665.949	6178
666.002	6053
666.055	6517
666.108	7890
666.161	5864
666.214	6552
666.267	7239
666.320	6275
666.373	7216
666.426	6920
666.479	7404
666.532	7394
666.585	7538
666.638	8263
666.691	6343
666.744	6949
666.796	6074
666.849	7427
666.902	7749
666.955	7300
667.008	5308
667.060	7409
667.113	7115
667.166	7715
667.219	7610
667.271	7795
667.324	7107
667.377	7730
667.430	6849
667.482	7774
667.535	7380
667.587	6750
667.640	6405
667.693	6643
667.745	6312
667.798	7060
667.850	6563
667.903	7508
667.955	7707
668.008	7759
668.060	6998
668.113	6549
668.165	7381
668.218	7037
668.270	6983
668.322	7024
668.375	6601
668.427	7695
668.479	6084
668.532	7071
668.584	7014
668.636	6460
668.689	6648
668.741	5896
668.793	6563
668.845	6332
668.898	6520
668.950	6508
669.002	6524
669.054	7471
669.106	6195
669.158	7535
669.211	6000
669.263	6545
669.315	7210
669.367	7172
669.419	5868
669.471	7268
669.523	5964
669.575	7179
669.627	6484
669.679	6631
669.731	7127
669.783	6629
669.835	6173
669.886	6211
669.938	6305
669.990	6363
670.042	6194
670.094	7052
670.146	6440
670.197	7556
670.249	6799
670.301	7618
670.353	8335
670.404	10115
670.456	9535
670.508	13049
670.560	16431
670.611	20321
670.663	27358
670.715	57996
670.766	96780
670.818	38908
670.869	11098
670.921	9888
670.972	9764
671.024	8015
671.075	7540
671.127	8497
671.178	8387
671.230	10758
671.281	11607
671.333	13625
671.384	16827
671.436	22459
671.487	30433
671.538	41457
671.590	57685
671.641	83893
671.692	149172
671.744	271563
671.795	213499
671.846	85302
671.897	39123
671.949	24347
672.000	17282
672.051	14307
672.102	11606
672.153	9626
672.204	9182
672.256	9056
672.307	7626
672.358	8075
672.409	5826
672.460	6665
672.511	6049
672.562	6841
672.613	5216
672.664	6413
672.715	5864
672.766	5399
672.817	4041
672.868	5601
672.919	5004
672.970	5003
673.021	4712
673.071	4471
673.122	4442
673.173	5379
673.224	4855
673.275	5339
673.326	4619
673.376	4997
673.427	4716
673.478	4966
673.528	5352
673.579	4968
673.630	4070
673.680	5936
673.731	5133
673.782	5597
673.832	4777
673.883	5984
673.934	4814
673.984	4928
674.035	4521
674.085	4839
674.136	4895
674.186	5834
674.237	4195
674.287	5836
674.338	5354
674.388	5194
674.438	5806
674.489	6545
674.539	6769
674.589	6450
674.640	5353
674.690	6147
674.740	4814
674.791	5919
674.841	5419
674.891	5184
674.942	4539
674.992	4560
675.042	4419
675.092	5696
675.142	4125
675.193	4598
675.243	4013
675.293	5356
675.343	4310
675.393	5216
675.443	5106
675.493	6096
675.543	3568
675.593	4514
675.643	4171
675.693	4843
675.743	3952
675.793	4785
675.843	3068
675.893	4259
675.943	3474
675.993	4175
676.043	4326
676.093	4902
676.142	3447
676.192	4206
676.242	3523
676.292	4828
676.341	3263
676.391	3586
676.441	3108
676.491	3642
676.540	3490
676.590	3299
676.640	3734
676.689	4131
676.739	2359
676.789	3980
676.838	2948
676.888	3959
676.937	3799
676.987	3588
677.037	3323
677.086	3750
677.136	2981
677.185	3913
677.235	2302
677.284	3509
677.333	4079
677.383	3956
677.432	2611
677.482	3610
677.531	3506
677.580	3150
677.630	3252
677.679	2950
677.728	2874
677.778	3908
677.827	2726
677.876	3263
677.925	3343
677.975	3865
678.024	4603
678.073	4381
678.122	3814
678.171	5060
678.220	3949
678.269	4979
678.319	5800
678.368	6741
678.417	5214
678.466	4959
678.515	4096
678.564	3836
678.613	2454
678.662	2694
678.711	2910
678.760	3941
678.809	3262
678.857	4325
678.906	4080
678.955	3598
679.004	4033
679.053	3950
679.102	2624
679.151	3839
679.199	2647
679.248	2704
679.297	2710
679.346	2820
679.394	2188
679.443	3231
679.492	3173
679.540	4052
679.589	3697
679.638	3985
679.686	3565
679.735	4307
679.784	4096
679.832	5100
679.881	4096
679.929	3754
679.978	3833
680.026	3405
680.075	3216
680.123	2749
680.172	3282
680.220	3031
680.268	2715
680.317	2815
680.365	2423
680.414	2690
680.462	2176
680.510	3542
680.559	2613
680.607	2897
680.655	2580
680.703	3669
680.752	1867
680.800	2715
680.848	1919
680.896	3302
680.945	1983
680.993	3005
681.041	2079
681.089	2008
681.137	2452
681.185	3183
681.233	2205
681.258	2486
681.281	2747
681.329	1429
681.377	2735
681.380	2730
681.425	2561
681.473	3008
681.502	3136
681.521	3207
681.569	3815
681.617	3499
681.624	3487
681.665	3397
681.713	2264
681.745	2857
681.761	3126
681.809	2196
681.857	2904
681.867	2905
681.904	2903
681.952	3285
681.989	2746
682.000	2571
682.048	3177
682.096	2742
682.111	2718
682.143	2668
682.191	2401
682.233	3699
682.239	3884
682.286	2057
682.334	3096
682.354	2789
682.382	2374
682.430	3689
682.476	3673
682.477	3668
682.525	3181
682.572	2252
682.598	2959
682.620	3552
682.667	2087
682.715	3464
682.720	3465
682.763	3446
682.810	3231
682.841	2908
682.857	2741
682.905	3126
682.952	2694
682.963	2737
683.000	2785
683.047	2223
683.085	3062
683.095	3308
683.142	2971
683.190	3528
683.206	3262
683.237	2711
683.284	2707
683.328	2722
683.332	2726
683.379	2885
683.426	2491
683.449	2902
683.473	3300
683.521	2806
683.568	2720
683.571	2713
683.615	2478
683.662	3620
683.693	2702
683.709	2182
683.757	2861
683.804	2547
683.814	2576
683.851	2734
683.898	2964
683.936	2581
683.945	2473
683.992	2546
684.039	3105
684.057	2820
684.086	2410
684.133	3075
684.179	2499
684.180	2470
684.227	3910
684.274	3205
684.300	2989
684.321	2885
684.368	2617
684.415	3291
684.422	3234
684.462	2822
684.509	3193
684.543	3148
684.556	3139
684.603	3531
684.649	2670
684.665	2777
684.696	2845
684.743	2424
684.786	3585
684.790	3690
684.837	3328
684.883	3263
684.908	3022
684.930	2821
684.977	3395
685.023	2669
685.029	2767
685.070	3448
685.117	3003
685.150	3674
685.164	3890
685.210	2733
685.257	3713
685.272	3380
685.303	2844
685.350	3782
685.393	3389
685.396	3335
685.443	3409
685.490	2992
685.514	2858
685.536	2847
685.583	2963
685.629	3070
685.636	3081
685.675	3024
685.722	3556
685.757	2963
685.768	2777
685.815	3180
685.861	3259
685.878	3307
685.908	3422
685.954	2823
686.000	3257
686.000	3261
686.047	3536
686.093	3842
686.121	3477
686.139	3173
686.185	3717
686.232	2634
686.242	2817
686.278	3638
686.324	3479
686.363	3557
686.370	3535
686.416	3187
686.463	3537
686.484	3364
686.509	3211
686.555	3044
686.601	2823
686.606	2838
686.647	2958
686.693	2889
686.727	3418
686.739	3645
686.785	3030
686.831	3561
686.848	3649
686.877	3659
686.923	3333
686.969	3139
686.969	3140
687.015	3347
687.061	3078
687.090	4034
687.107	4403
687.153	3718
687.199	3971
687.211	3690
687.245	3284
687.291	3512
687.332	3555
687.336	3533
687.382	4116
687.428	4031
687.453	3944
687.474	3924
687.520	3428
687.565	3872
687.574	3886
687.611	4023
687.657	4256
687.695	4045
687.702	3993
687.748	4422
687.794	4656
687.816	4656
687.839	4601
687.885	3879
687.931	4171
687.937	4063
687.976	3547
688.022	4003
688.058	3826
688.067	3760
688.113	4179
688.158	3791
688.179	3715
688.204	3744
688.249	3609
688.295	4442
688.300	4375
688.340	3655
688.386	3858
688.421	3691
688.431	3712
688.477	3767
688.522	3976
688.542	4233
688.567	4517
688.613	4485
688.658	4617
688.663	4617
688.703	4648
688.749	4485
688.784	4576
688.794	4576
688.839	4616
688.884	4696
688.905	4809
688.930	4971
688.975	4469
689.020	4219
689.026	4216
689.065	4042
689.110	4093
689.146	3635
689.155	3606
689.201	3676
689.246	4329
689.267	4394
689.291	4276
689.336	4026
689.381	3607
689.388	3599
689.426	3948
689.471	4654
689.509	4142
689.516	3985
689.561	4519
689.606	4020
689.630	4097
689.651	4293
689.696	3914
689.741	4553
689.750	4548
689.785	4492
689.830	4451
689.871	4133
689.875	4112
689.920	4462
689.965	4438
689.992	4483
690.010	4425
690.054	3896
690.099	4444
690.112	4322
690.144	4271
690.189	4720
690.233	4380
690.233	4383
690.278	4754
690.323	4445
690.354	5083
690.367	5332
690.412	4966
690.457	4844
690.474	4957
690.501	4958
690.546	4867
690.590	4075
690.595	4037
690.635	4178
690.680	3919
690.716	4508
690.724	4605
690.769	3901
690.813	4513
690.836	4145
690.857	4076
690.902	4836
690.946	5029
690.957	5204
690.991	5407
691.035	5029
691.077	5478
691.080	5512
691.124	5489
691.168	5513
691.198	5115
691.213	4885
691.257	5069
691.301	4645
691.318	4681
691.346	4956
691.390	4763
691.434	5001
691.439	5002
691.478	4657
691.522	4775
691.559	4248
691.567	4274
691.611	4844
691.655	5232
691.680	5573
691.699	5462
691.743	4753
691.787	4702
691.800	4477
691.831	4481
691.875	5163
691.919	4807
691.921	4817
691.964	4932
692.008	4601
692.041	4446
692.052	4537
692.096	4701
692.139	5846
692.162	5765
692.183	5328
692.227	5240
692.271	4521
692.282	4460
692.315	4760
692.359	4584
692.402	5017
692.403	5026
692.447	5037
692.490	4615
692.523	4592
692.534	4631
692.578	5031
692.622	4612
692.643	4761
692.666	4872
692.709	4404
692.753	4835
692.763	4780
692.797	4878
692.840	5226
692.884	5462
692.884	5469
692.928	5022
692.971	4646
693.004	4533
693.015	4611
693.059	4944
693.102	5262
693.124	5358
693.146	5261
693.189	4930
693.233	4530
693.245	4497
693.276	4733
693.320	4941
693.363	5574
693.365	5560
693.407	5128
693.450	5002
693.485	4950
693.493	4984
693.537	4966
693.580	4668
693.605	4925
693.624	5218
693.667	5399
693.710	5848
693.725	5825
693.753	5868
693.797	6307
693.840	7026
693.845	7047
693.883	6612
693.926	6014
693.966	5507
693.970	5501
694.013	5242
694.056	5450
694.086	5337
694.099	5227
694.142	4839
694.185	4493
694.206	4452
694.229	4892
694.272	5132
694.315	6050
694.326	6147
694.358	5904
694.401	5992
694.444	5519
694.446	5496
694.487	5538
694.530	5761
694.566	5577
694.573	5514
694.616	5328
694.659	5348
694.686	5105
694.702	5118
694.745	5504
694.787	5558
694.806	5591
694.830	5454
694.873	5286
694.916	5303
694.926	5168
694.959	5452
695.002	6270
695.044	6903
695.046	6930
695.087	6912
695.130	6234
695.166	6127
695.172	6223
695.215	6169
695.258	6776
695.286	6977
695.301	7089
695.343	7472
695.386	7623
695.406	7759
695.428	8037
695.471	8442
695.514	9111
695.526	9188
695.556	9473
695.599	10479
695.641	10738
695.646	10788
695.684	10400
695.726	9369
695.766	9016
695.769	9023
695.811	8624
695.854	8278
695.886	7884
695.896	8005
695.938	8552
695.981	9099
696.005	9423
696.023	9701
696.065	10388
696.108	10894
696.125	11124
696.150	11146
696.192	11333
696.235	10985
696.245	11002
696.277	11113
696.319	10916
696.361	11029
696.365	10990
696.404	10939
696.446	11113
696.485	11054
696.488	11057
696.530	10828
696.572	10650
696.604	10663
696.614	10758
696.656	10803
696.698	10971
696.724	11027
696.740	11011
696.783	10943
696.825	10906
696.844	10850
696.867	10996
696.909	10986
696.951	11291
696.964	11373
696.992	11523
697.034	11493
697.076	11560
697.083	11557
697.118	12005
697.160	12438
697.202	12953
697.203	12937
697.244	12304
697.286	11777
697.323	11069
697.327	11110
697.369	11518
697.411	11769
697.442	12011
697.453	12048
697.494	11986
697.536	12018
697.562	11958
697.578	12183
697.620	12805
697.661	13282
697.682	13576
697.703	13611
697.744	13540
697.786	13517
697.801	13474
697.828	13699
697.869	13926
697.911	14195
697.921	14246
697.952	13837
697.994	13156
698.035	12552
698.040	12444
698.077	12715
698.118	13105
698.160	13377
698.160	13350
698.201	13971
698.243	14468
698.279	14943
698.284	15029
698.325	15524
698.367	15985
698.399	16330
698.408	16321
698.449	16158
698.491	15925
698.518	15759
698.532	15974
698.573	16509
698.614	17101
698.638	17368
698.656	17125
698.697	16504
698.738	15866
698.757	15544
698.779	15786
698.820	16160
698.862	16559
698.877	16670
698.903	16589
698.944	16408
698.985	16219
698.996	16136
699.026	16207
699.067	16254
699.116	16279
699.235	15785
699.354	16096
699.474	13935
699.593	15091
699.713	14987
699.832	16432
699.951	16633
700.070	16105
700.190	13778
700.309	14866
700.428	13172
700.547	13569
700.667	13752
700.786	14223
700.905	12486
701.024	14367
701.143	13319
701.262	15343
701.381	14350
701.500	15098
701.619	13113
701.738	15011
701.857	13655
701.976	13480
702.095	13663
702.214	14460
702.333	13944
702.452	14319
702.571	14969
702.690	14762
702.809	14545
702.928	14067
703.047	12662
703.165	13975
703.284	12445
703.403	14251
703.522	12500
703.640	13467
703.759	12677
703.878	13091
703.997	12260
704.115	12879
704.234	12313
704.353	12847
704.471	10834
704.590	11817
704.708	10979
704.827	12273
704.946	12157
705.064	12292
705.183	11394
705.301	12768
705.420	10121
705.538	11248
705.656	9801
705.775	10818
705.893	11613
706.012	11789
706.130	11022
706.249	11250
706.367	9679
706.485	10981
706.604	9680
706.722	10138
706.840	10537
706.958	11897
707.077	9582
707.195	10602
707.313	9427
707.431	10475
707.549	8787
707.668	9075
707.786	10360
707.904	9675
708.022	9714
708.140	10128
708.258	9142
708.376	10633
708.494	9328
708.612	11524
708.730	10033
708.848	10351
708.966	9637
709.084	11947
709.202	9365
709.320	8895
709.438	9401
709.556	8765
709.674	8219
709.791	9723
709.909	7555
710.027	9145
710.145	8430
710.263	8918
710.380	8236
710.498	9040
710.616	8338
710.733	8918
710.851	7630
710.969	8833
711.086	8831
711.204	8946
711.322	8285
711.439	8153
711.557	6710
711.674	9162
711.792	8253
711.909	8510
712.027	6911
712.144	7566
712.262	7253
712.379	8844
712.497	7277
712.614	7828
712.732	8358
712.849	8667
712.966	8574
713.084	8678
713.201	6669
713.318	8380
713.436	8531
713.553	9309
713.670	8948
713.787	10130
713.905	7387
714.022	9616
714.139	9147
714.256	14981
714.373	24021
714.490	55294
714.608	170322
714.725	647923
714.842	303062
714.959	30409
715.076	15484
715.193	13471
715.310	10879
715.427	8946
715.544	8801
715.661	8698
715.778	7461
715.895	9050
716.011	8050
716.128	7936
716.245	7057
716.362	7523
716.479	6199
716.596	6384
716.713	6884
716.829	7284
716.946	6712
717.063	7455
717.180	6194
717.296	6802
717.413	6851
717.530	5631
717.646	5490
717.763	5941
717.880	5099
717.996	6166
718.113	5919
718.229	6363
718.346	4912
718.462	6721
718.579	5451
718.695	6367
718.812	6126
718.928	6203
719.045	6032
719.161	6469
719.277	5530
719.394	7199
719.510	6541
719.626	8999
719.743	10955
719.859	23234
719.975	62413
720.092	281419
720.208	311177
720.324	27234
720.440	9761
720.557	8360
720.673	7333
720.789	7178
720.905	6809
721.021	6120
721.137	4427
721.253	6483
721.369	4488
721.486	6052
721.602	4916
721.718	5487
721.834	4578
721.950	4697
722.066	3893
722.181	5507
722.297	4497
722.413	5953
722.529	4159
722.645	5268
722.761	5222
722.877	5237
722.993	6299
723.108	8821
723.224	5930
723.340	5167
723.456	4160
723.571	4861
723.687	3372
723.803	5184
723.918	4041
724.034	4631
724.150	3902
724.265	5263
724.381	4191
724.497	4953
724.612	4033
724.728	4933
724.843	3631
724.959	4448
725.074	3919
725.190	5049
725.305	4080
725.421	5262
725.536	4348
725.651	5161
725.767	3676
725.882	4654
725.997	3236
726.113	4945
726.228	4040
726.343	4094
726.459	3405
726.574	4319
726.689	3711
726.804	3764
726.920	2919
727.035	4243
727.150	3987
727.265	4110
727.380	4569
727.495	5431
727.610	3659
727.725	4094
727.841	3261
727.956	5015
728.071	3952
728.186	4277
728.301	3735
728.416	5072
728.531	4306
728.645	4239
728.760	3755
728.875	3944
728.990	3209
729.105	4799
729.220	4222
729.335	4889
729.449	3683
729.564	3374
729.679	3392
729.794	5019
729.908	4043
730.023	5312
730.138	3364
730.253	4657
730.367	3357
730.482	4598
730.596	4043
730.711	6736
730.826	7871
730.940	7662
731.055	5664
731.169	6954
731.284	5868
731.398	8008
731.513	7177
731.627	8640
731.742	11125
731.856	13604
731.970	13935
732.085	19048
732.199	28602
732.313	60008
732.428	181230
732.542	425906
732.656	128328
732.771	30626
732.885	19828
732.999	20654
733.113	19059
733.227	19515
733.342	17112
733.456	16851
733.570	16899
733.684	16025
733.798	15131
733.912	15858
734.026	14570
734.140	15856
734.254	14058
734.368	14919
734.482	14914
734.596	14323
734.710	14309
734.824	13911
734.938	13197
735.052	14016
735.166	12789
735.280	15120
735.393	14031
735.507	13642
735.621	12062
735.735	12345
735.849	13023
735.962	13712
736.076	12745
736.190	13197
736.303	12447
736.417	12387
736.531	11552
736.644	11419
736.758	11763
736.872	11585
736.985	12205
737.099	11533
737.212	10849
737.326	11569
737.439	11991
737.553	11543
737.666	11233
737.780	12123
737.893	11312
738.007	11535
738.120	10571
738.233	11614
738.347	9450
738.460	10962
738.573	11033
738.687	10724
738.800	11090
738.913	12000
739.026	10580
739.140	10214
739.253	9443
739.366	10997
739.479	10481
739.592	10108
739.705	9967
739.818	12022
739.932	8251
740.045	10938
740.158	9563
740.271	11758
740.384	8636
740.497	10214
740.610	10245
740.723	9128
740.836	9090
740.949	10701
741.062	8876
741.174	9222
741.287	9525
741.400	9095
741.513	8449
741.626	10162
741.739	8258
741.851	8983
741.964	9992
742.077	8105
742.189	8123
742.302	10587
742.415	7382
742.527	9243
742.640	7830
742.753	8305
742.865	8569
742.978	8477
743.090	8180
743.203	9674
743.316	6733
743.428	7930
743.541	7051
743.653	5972
743.766	7113
743.878	8407
743.990	7708
744.103	9677
744.215	7794
744.327	7944
744.440	9919
744.552	6797
744.664	7817
744.777	9197
744.889	6778
745.001	7396
745.113	8032
745.226	6679
745.338	7065
745.450	8423
745.562	6714
745.674	7409
745.786	7387
745.898	7722
746.010	6358
746.122	7917
746.234	7222
746.347	7198
746.459	4911
746.570	7154
746.682	8744
746.794	10092
746.906	6425
747.018	7121
747.130	6420
747.242	7092
747.354	6198
747.466	7169
747.577	5916
747.689	7203
747.801	6626
747.913	6131
748.024	5968
748.136	6512
748.248	5657
748.359	6834
748.471	6496
748.583	5122
748.694	5081
748.806	7258
748.918	5843
749.029	6258
749.141	6503
749.252	6867
749.364	3966
749.475	6065
749.587	4397
749.698	5713
749.809	5452
749.921	5755
750.032	4597
750.144	5693
750.255	4398
750.366	6007
750.478	4944
750.589	5850
750.700	4233
750.811	6426
750.923	4887
751.034	5969
751.145	5790
751.256	5416
751.367	4530
751.479	5365
751.590	4354
751.701	5452
751.812	3697
751.923	5586
752.034	5503
752.145	5541
752.256	4502
752.367	5388
752.478	4193
752.589	5897
752.700	4958
752.811	4998
752.922	4198
753.032	5140
753.143	4387
753.254	4476
753.365	6252
753.476	5534
753.586	4321
753.697	5185
753.808	4262
753.919	5307
754.029	4201
754.140	4944
754.251	5077
754.361	4488
754.472	4882
754.582	4382
754.693	5141
754.804	5693
754.914	4451
755.025	3719
755.135	4613
755.246	5505
755.356	2876
755.466	4634
755.577	4744
755.687	4806
755.798	3857
755.908	4427
756.018	3406
756.129	4737
756.239	4235
756.349	5328
756.460	4775
756.570	5322
756.680	3979
756.790	5527
756.900	4559
757.011	3841
757.121	3298
757.231	4571
757.341	3950
757.451	3380
757.561	3447
757.671	4634
757.781	4136
757.891	4165
758.001	3710
758.111	5628
758.221	4696
758.331	5199
758.441	4435
758.551	5452
758.661	4853
758.771	5440
758.880	4293
758.990	4611
759.100	4414
759.210	4960
759.320	5494
759.429	6148
759.539	6066
759.649	5578
759.758	6758
759.868	7468
759.978	7093
760.087	8434
760.197	6955
760.307	6638
760.416	6417
760.526	5752
760.635	6762
760.745	8061
760.854	8420
760.964	9592
761.073	9463
761.182	8109
761.292	5438
761.401	5746
761.511	4715
761.620	4909
761.729	3740
761.839	3646
761.948	3909
762.057	3558
762.166	4491
762.276	3790
762.385	5228
762.494	5104
762.603	3118
762.712	4311
762.822	2940
762.931	3715
763.040	2723
763.149	4498
763.258	3083
763.367	3172
763.476	3943
763.585	4129
763.694	2475
763.803	4355
763.912	3009
764.021	3813
764.130	3107
764.238	4395
764.347	4061
764.456	4590
764.565	2854
764.674	3979
764.783	2659
764.891	3679
765.000	3677
765.109	4701
765.217	3303
765.326	5255
765.435	5073
765.543	6160
765.652	5941
765.761	8641
765.869	9806
765.978	15846
766.086	28784
766.195	61288
766.303	166059
766.412	336376
766.520	196791
766.629	49672
766.737	22349
766.846	14409
766.954	9476
767.062	9136
767.171	6706
767.279	6261
767.387	4635
767.496	5452
767.604	3713
767.712	5336
767.820	4205
767.928	4695
768.037	3005
768.145	4874
768.253	4271
768.361	3357
768.469	2968
768.577	2440
768.685	4146
768.793	4952
768.901	4148
769.009	5555
769.117	3904
769.225	6108
769.333	7775
769.441	13545
769.549	24800
769.657	60985
769.765	188036
769.873	237698
769.981	58457
770.088	18553
770.196	10946
770.304	9558
770.412	8128
770.519	7087
770.627	5325
770.735	5648
770.842	5579
770.950	6443
771.058	4868
771.165	8328
771.273	7121
771.380	8887
771.488	12673
771.595	11592
771.703	10569
771.810	10359
771.918	10837
772.025	14968
772.133	14568
772.240	13906
772.348	16317
772.455	14249
772.562	13797
772.670	13593
772.777	13902
772.884	13403
772.991	11920
773.099	13106
773.206	11777
773.313	13998
773.420	11915
773.528	11803
773.635	11925
773.742	13139
773.849	11918
773.956	11739
774.063	11691
774.170	11754
774.277	11864
774.384	11667
774.491	10146
774.598	12267
774.705	10434
774.812	11781
774.919	11064
775.026	12222
775.133	11186
775.239	11290
775.346	9842
775.453	11272
775.560	9443
775.667	11962
775.773	8534
775.880	11490
775.987	9420
776.093	13294
776.200	10168
776.307	8118
776.413	10263
776.520	12402
776.627	8026
776.733	9726
776.840	8453
776.946	13261
777.053	11550
777.159	13783
777.266	8866
777.372	13618
777.478	12306
777.585	10346
777.691	7801
777.798	10938
777.904	7290
778.010	8772
778.117	8903
778.223	7961
778.329	7773
778.435	8144
778.542	8999
778.648	8926
778.754	7130
778.860	9254
778.966	8565
779.072	8307
779.178	7590
779.284	6707
779.391	8071
779.497	7226
779.603	8512
779.708	6198
779.815	7230
779.920	11006
780.026	8538
780.132	9034
780.238	5455
780.344	7843
780.450	8964
780.556	5099
780.661	7754
780.767	7651
780.873	4917
780.979	7823
781.085	7541
781.190	7271
781.296	5494
781.402	7619
781.507	6161
781.613	5800
781.719	7763
781.824	6488
781.930	6034
782.035	8049
782.141	6481
782.246	6230
782.352	5733
782.457	7044
782.563	6714
782.668	7293
782.773	4511
782.879	5636
782.984	6904
783.090	5943
783.195	6889
783.300	7095
783.405	5487
783.511	4946
783.616	5252
783.721	7196
783.826	3579
783.932	7032
784.037	5087
784.142	6469
784.247	4227
784.352	6058
784.457	4612
784.562	6830
784.667	4933
784.772	4275
784.877	3989
784.982	7336
785.087	5010
785.192	5152
785.297	3964
785.402	5808
785.507	4834
785.611	4657
785.716	4935
785.821	5803
785.926	4214
786.031	4959
786.135	4318
786.240	6244
786.345	2454
786.450	5558
786.554	3832
786.659	4113
786.763	4182
786.868	5485
786.973	4638
787.077	3795
787.182	3254
787.286	5629
787.391	4056
787.495	3459
787.600	3023
787.704	4334
787.809	4717
787.913	3845
788.017	4004
788.122	5103
788.226	3536
788.330	3820
788.435	4678
788.539	5502
788.643	3090
788.747	3104
788.852	3659
788.956	4543
789.060	4097
789.164	4517
789.268	2478
789.372	4969
789.476	3450
789.580	3277
789.684	3926
789.788	5155
789.892	3239
789.996	2376
790.100	1829
790.204	4622
790.308	4437
790.412	2402
790.516	2832
790.620	3696
790.724	3754
790.828	3328
790.931	805
791.035	3840
791.139	2614
791.242	2651
791.346	4108
791.450	3978
791.554	2132
791.657	2184
791.761	3172
791.864	4267
791.968	4098
792.072	3279
792.175	2993
792.279	4020
792.382	2235
792.486	2909
792.589	3188
792.693	4243
792.796	1187
792.899	5129
793.003	3047
793.106	2342
793.209	1986
793.313	3556
793.416	701
793.519	3844
793.623	3705
793.726	3004
793.829	1574
793.932	2862
794.035	1429
794.138	4191
794.242	3659
794.345	1527
794.448	1885
794.551	1798
794.654	4611
794.757	4006
794.860	3067
794.963	2968
795.066	1507
795.169	3633
795.272	1867
795.375	4131
795.477	1274
795.580	2785
795.683	1006
795.786	3692
795.889	1184
795.991	3743
796.094	3187
796.197	2023
796.300	3606
796.402	3017
796.505	268
796.608	2554
796.710	2415
796.813	4175
796.915	2859
797.018	2795
797.120	2228
797.223	2325
797.326	3266
797.428	1782
797.530	1172
797.633	3238
797.735	3830
797.838	2744
797.940	3830
798.042	3128
798.145	1452
798.247	3305
798.349	646
798.452	3153
798.554	2130
798.656	2318
798.758	4034
798.860	2016
798.962	1653
799.065	1409
799.167	2030
799.269	4022
799.371	3454
799.473	4528
799.575	1358
799.677	1946
799.779	2508
799.881	1582
799.983	2807
800.085	2554
800.187	1129
800.289	958
800.390	1133
800.492	3511
800.594	1851
800.696	1245
800.798	830
800.899	2456
801.001	944
801.103	2648
801.205	1816
801.306	2483
801.408	1171
801.509	2849
801.611	1940
801.713	3002
801.814	217
801.916	1200
802.017	493
802.119	1344
802.220	1260
802.322	1026
802.423	3224
802.525	1121
802.626	760
802.727	2816
802.829	2092
802.930	-388
803.031	2192
803.133	2441
803.234	1586
803.335	1914
803.436	-269
803.538	1789
803.639	112
803.740	2331
803.841	992
803.942	2483
804.043	1137
804.144	1622
804.245	1252
804.346	1231
804.447	369
804.548	1519
804.649	2397
804.750	1881
804.851	1
804.952	1920
805.053	1342
805.154	1226
805.255	2289
805.355	2355
805.456	601
805.557	810
805.658	241
805.758	2921
805.859	573
805.960	1402
806.061	-6
806.161	1551
806.262	687
806.362	920
806.463	902
806.564	1986
806.664	1590
806.765	1513
806.865	703
806.966	1012
807.066	-175
807.166	2185
807.267	1182
807.367	1129
807.468	1776
807.568	271
807.668	994
807.769	2213
807.869	641
807.969	1236
808.069	712
808.170	2081
808.270	466
808.370	2030
808.470	1580
808.570	510
808.670	1226
808.770	1265
808.870	271
808.970	2065
809.070	914
809.170	1034
809.271	695
809.370	1552
809.470	755
809.570	728
809.670	658
809.770	1383
809.870	736
809.970	1791
810.070	907
810.169	1448
810.269	-468
810.369	2194
810.469	659
810.568	2016
810.668	316
810.768	1692
810.867	1069
810.967	1079
811.066	824
811.166	1067
811.265	1250
811.365	1239
811.464	775
811.564	1468
811.663	1774
811.763	117
811.862	1175
811.962	2198
812.061	1157
812.160	1187
812.260	791
812.359	1052
812.458	-12
812.557	2083
812.657	402
812.756	2450
812.855	-339
812.954	1443
813.053	1176
813.153	1287
813.252	31
813.351	2122
813.450	370
813.549	1613
813.648	1591
813.747	1586
813.846	1826
813.945	1536
814.044	1622
814.143	1570
814.242	1453
814.341	1110
814.439	1444
814.538	2787
814.637	1690
814.736	2668
814.835	1311
814.933	2652
815.032	3353
815.131	5943
815.229	9589
815.328	10660
815.427	7539
815.525	7254
815.624	6344
815.722	6882
815.821	6198
815.919	7704
816.018	5990
816.116	8329
816.215	6499
816.313	9280
816.412	9514
816.510	8754
816.609	11193
816.707	11424
816.805	9409
816.904	10400
817.002	9083
817.100	10274
817.198	11114
817.296	9272
817.395	8870
817.493	9187
817.591	7805
817.689	9853
817.787	7495
817.885	8039
817.983	8363
818.081	9146
818.179	10553
818.277	14601
818.375	9260
818.473	9388
818.571	7742
818.669	9735
818.767	8938
818.865	7988
818.963	6298
819.061	8117
819.158	7418
819.256	11727
819.354	12279
819.452	17575
819.549	8969
819.647	9167
819.745	6466
819.842	8739
819.940	7527
820.038	6320
820.135	6403
820.233	9009
820.330	6113
820.428	6592
820.525	8071
820.623	6269
820.720	5436
820.818	7555
820.915	6537
821.012	6872
821.110	5808
821.207	6929
821.304	5607
821.402	8287
821.499	6965
821.596	7355
821.693	6405
821.791	7174
821.888	6360
821.985	7900
822.082	4293
822.179	6978
822.276	6489
822.373	5224
822.470	6142
822.567	6325
822.664	3521
822.761	7262
822.858	4961
822.955	5602
823.052	4373
823.149	6148
823.246	4806
823.343	4472
823.440	4896
823.536	6715
823.633	5155
823.730	4992
823.827	6285
823.923	4675
824.020	5922
824.117	7623
824.213	5290
824.310	4748
824.407	4382
824.503	6037
824.600	3197
824.696	5418
824.793	6040
824.889	6016
824.986	3845
825.082	3353
825.179	5236
825.275	7369
825.371	4991
825.468	4325
825.564	2923
825.660	7605
825.757	5656
825.853	5426
825.949	2543
826.045	4130
826.142	4793
826.238	4410
826.334	5206
826.430	3924
826.526	3120
826.622	3713
826.718	5604
826.814	5192
826.910	2584
827.006	2679
827.102	3166
827.198	6701
827.294	5045
827.390	4520
827.486	2817
827.582	3147
827.678	3311
827.774	5982
827.869	1840
827.965	4735
828.061	2753
828.157	5828
828.252	4498
828.348	2991
828.444	3231
828.539	4007
828.635	3823
828.731	5117
828.826	2385
828.922	5316
829.017	4166
829.113	5053
829.208	2771
829.304	3739
829.399	5739
829.495	3646
829.590	3765
829.685	3612
829.781	4224
829.876	4301
829.971	1806
830.066	2878
830.162	3576
830.257	4626
830.352	2180
830.447	2864
830.543	3628
830.638	3543
830.733	4551
830.828	2628
830.923	3821
831.018	4535
831.113	3616
831.208	1132
831.303	1344
831.398	2999
831.493	3941
831.588	6059
831.683	1451
831.778	2605
831.873	2311
831.967	5026
832.062	3559
832.157	2364
832.252	2404
832.346	3190
832.441	4375
832.536	3106
832.631	2401
832.725	1989
832.820	2500
832.914	3666
833.009	1383
833.104	2000
833.198	2201
833.293	3925
833.387	3652
833.482	4215
833.576	1650
833.670	4273
833.765	3127
833.859	3432
833.954	2347
834.048	3601
834.142	2079
834.237	2159
834.331	3115
834.425	3501
834.519	1622
834.613	2724
834.708	1174
834.802	3484
834.896	1855
834.990	2849
835.084	1057
835.178	2092
835.272	2038
835.366	3452
835.460	2787
835.554	2096
835.648	486
835.742	1115
835.836	2197
835.930	1814
836.024	2939
836.117	3500
836.211	682
836.305	2280
836.399	1619
836.493	1544
836.586	2986
836.680	2509
836.774	322
836.867	2822
836.961	1014
837.055	1051
837.148	1416
837.242	2695
837.335	2062
837.429	2239
837.522	1034
837.616	1856
837.709	2243
837.803	2128
837.896	2390
837.989	1658
838.083	1335
838.176	1747
838.269	219
838.363	2199
838.456	1190
838.549	3414
838.642	773
838.735	2426
838.829	1497
838.922	1914
839.015	1368
839.108	1069
839.201	2277
839.294	2151
839.387	778
839.480	1023
839.573	418
839.666	1834
839.759	1601
839.852	1496
839.945	1383
840.038	615
840.131	560
840.223	1453
840.316	2188
840.409	2938
840.502	824
840.594	3557
840.687	49
840.780	1192
840.873	-4
840.965	2033
841.058	2533
841.150	2848
841.243	312
841.336	2723
841.428	44
841.521	1336
841.613	362
841.706	2102
841.798	829
841.890	2100
841.983	-98
842.075	2390
842.167	917
842.260	1342
842.352	1918
842.444	1228
842.537	138
842.629	1279
842.721	362
842.813	1672
842.905	-368
842.997	1614
843.090	1350
843.182	688
843.274	-428
843.366	1444
843.458	899
843.550	2866
843.642	978
843.734	1764
843.826	236
843.918	1548
844.009	1533
844.101	1189
844.193	910
844.285	1894
844.377	1863
844.469	1563
844.560	261
844.652	2375
844.744	993
844.835	770
844.927	1574
845.019	1132
845.110	337
845.202	1474
845.293	-57
845.385	1876
845.476	914
845.568	1984
845.659	371
845.751	2281
845.842	297
845.934	616
846.025	104
846.116	1125
846.208	305
846.299	1621
846.390	539
846.482	1499
846.573	938
846.664	2146
846.755	1007
846.846	865
846.937	-234
847.029	679
847.120	212
847.211	840
847.302	1274
847.393	567
847.484	1447
847.575	-99
847.666	-576
847.757	955
847.847	874
847.938	2371
848.029	1522
848.120	806
848.211	468
848.302	795
848.392	531
848.483	1934
848.574	448
848.664	1069
848.755	463
848.846	1477
848.936	383
849.027	2380
849.118	1492
849.208	1634
849.299	4660
849.389	9381
849.480	18028
849.570	33253
849.661	68204
849.751	72012
849.841	14980
849.932	2839
850.022	1214
850.112	1810
850.203	744
850.293	929
850.383	-18
850.474	600
850.564	-124
850.654	1018
850.744	362
850.834	2081
850.924	925
851.014	1465
851.104	1102
851.194	305
851.284	575
851.374	933
851.464	317
851.554	1013
851.644	394
851.734	2394
851.824	548
851.914	591
852.004	503
852.094	1006
852.183	342
852.273	1093
852.363	799
852.452	1706
852.542	130
852.632	440
852.721	639
852.811	953
852.901	1478
852.990	2025
853.080	1940
853.169	1670
853.259	2445
853.348	2371
853.438	4115
853.527	6144
853.617	9808
853.706	20023
853.795	36506
853.885	75195
853.974	124464
854.063	230268
854.152	221206
854.242	66652
854.331	17716
854.420	9226
854.509	6070
854.598	6229
854.687	3244
854.777	3407
854.866	1923
854.955	2606
855.044	1152
855.133	2304
855.222	1143
855.311	1795
855.400	610
855.488	1541
855.577	562
855.666	1204
855.755	1469
855.844	983
855.933	914
856.021	1376
856.110	720
856.199	230
856.288	71
856.376	338
856.465	-461
856.554	867
856.642	1251
856.731	1913
856.819	-23
856.908	918
856.996	528
857.085	411
857.173	-154
857.262	261
857.350	249
857.438	984
857.527	-94
857.615	1258
857.703	769
857.792	1
857.880	-239
857.968	433
858.056	340
858.145	932
858.233	-356
858.321	556
858.409	402
858.497	310
858.585	36
858.673	874
858.761	-805
858.849	-213
858.937	674
859.025	1672
859.113	851
859.201	615
859.289	813
859.377	1168
859.465	506
859.552	653
859.640	-124
859.728	1325
859.816	204
859.903	610
859.991	-104
860.079	1417
860.166	662
860.254	1436
860.342	823
860.429	1008
860.517	-51
860.604	870
860.692	402
860.779	401
860.867	659
860.954	687
861.042	551
861.129	741
861.216	246
861.304	1123
861.391	430
861.478	1164
861.565	247
861.653	847
861.740	-600
861.827	824
861.914	1052
862.001	1093
862.089	149
862.176	1070
862.263	561
862.350	1134
862.437	316
862.524	415
862.611	1343
862.698	1208
862.785	604
862.871	2403
862.958	1225
863.045	564
863.132	334
863.219	1018
863.306	-220
863.392	1404
863.479	455
863.566	1533
863.652	1209
863.739	1795
863.826	798
863.912	1765
863.999	990
864.086	1424
864.172	1417
864.259	1909
864.345	1437
864.432	2062
864.518	2124
864.604	2328
864.691	1462
864.777	3476
864.863	3396
864.950	5492
865.036	6878
865.122	13467
865.209	11875
865.295	11274
865.381	10592
865.467	11645
865.553	13092
865.639	17638
865.726	26830
865.812	48372
865.898	75976
865.984	108380
866.070	190903
866.156	129743
866.242	36146
866.328	17239
866.414	11736
866.499	11587
866.585	9215
866.671	10042
866.757	8983
866.843	8940
866.928	7555
867.014	8841
867.100	7056
867.186	8358
867.271	7392
867.357	7856
867.442	6231
867.528	7212
867.614	7544
867.699	7232
867.785	7323
867.870	7846
867.956	7256
868.041	7593
868.127	7571
868.212	7986
868.297	6966
868.383	7033
868.468	7647
868.553	8548
868.639	6501
868.724	7291
868.809	5080
868.894	6462
868.979	6063
869.065	7211
869.150	4816
869.235	7516
869.320	5504
869.405	5462
869.490	6561
869.575	5981
869.660	4412
869.745	7802
869.830	5775
869.915	5822
870.000	5732
870.085	5760
870.169	7260
870.254	7668
870.339	4680
870.424	6112
870.509	5365
870.593	8050
870.678	5555
870.763	5885
870.847	4691
870.932	7131
871.016	4723
871.101	4985
871.186	7198
871.270	6992
871.355	4628
871.439	6957
871.523	5455
871.608	5425
871.692	6139
871.777	7478
871.861	5445
871.945	5583
872.030	4161
872.114	5966
872.198	3621
872.282	4926
872.367	4308
872.451	5044
872.535	4614
872.619	5780
872.703	5036
872.787	6450
872.871	4283
872.955	3784
873.039	3230
873.123	6789
873.207	4548
873.291	4291
873.375	4496
873.459	5387
873.543	3599
873.627	4063
873.711	3845
873.794	6378
873.878	2412
873.962	3771
874.045	3557
874.129	4387
874.137	4317
874.213	3614
874.245	3857
874.296	4249
874.352	3773
874.380	3543
874.460	4643
874.464	4686
874.547	3749
874.568	3991
874.631	4706
874.676	4710
874.714	4687
874.784	5347
874.798	5486
874.881	3350
874.892	3461
874.965	4282
874.999	4492
875.048	4687
875.107	4370
875.131	4263
875.215	2607
875.215	2608
875.298	4059
875.323	4319
875.381	4931
875.430	5527
875.465	5856
875.538	4672
875.548	4512
875.631	3401
875.646	3153
875.714	2087
875.753	3049
875.798	4211
875.861	4982
875.881	5133
875.964	3340
875.968	3359
876.047	4039
876.076	4017
876.130	3993
876.183	4429
876.213	4629
876.291	5295
876.296	5329
876.379	3168
876.398	3286
876.462	3708
876.506	3156
876.545	2759
876.613	3518
876.628	3718
876.711	4120
876.721	4340
876.794	5826
876.828	5152
876.877	3925
876.935	3863
876.960	3975
877.043	3725
877.043	3732
877.125	5964
877.150	5759
877.208	4774
877.258	4091
877.291	3752
877.365	3524
877.374	3488
877.456	3187
877.472	3209
877.539	3801
877.579	4931
877.622	6023
877.687	4949
877.704	4612
877.787	5171
877.794	5129
877.869	4603
877.901	4695
877.952	4537
878.008	3347
878.034	3049
878.115	3592
878.117	3609
878.199	3132
878.222	3773
878.282	5458
878.329	5557
878.364	5432
878.437	5597
878.447	5582
878.529	3082
878.544	3243
878.611	4545
878.651	4649
878.694	5003
878.758	5460
878.776	5443
878.858	5888
878.865	5836
878.941	4669
878.972	3868
879.023	3340
879.078	4660
879.105	5265
879.185	5303
879.187	5311
879.269	6619
879.292	6481
879.351	5604
879.399	5379
879.433	5329
879.506	5198
879.516	5226
879.598	5033
879.613	5027
879.680	5230
879.720	6125
879.762	6855
879.827	5558
879.844	5273
879.926	6189
879.933	6230
880.007	6929
880.040	7380
880.089	8108
880.147	9441
880.171	10267
880.253	14267
880.254	14270
880.335	18266
880.360	20308
880.417	31373
880.467	44054
880.499	49747
880.574	50805
880.580	48845
880.662	19992
880.680	14996
880.744	9115
880.787	6194
880.825	6197
880.893	6728
880.907	6701
880.989	5357
881.000	5416
881.070	7414
881.106	7304
881.152	6015
881.213	5516
881.233	5657
881.315	5647
881.319	5659
881.396	6277
881.426	6353
881.478	6780
881.532	7533
881.559	7508
881.639	6217
881.641	6192
881.722	5558
881.745	5277
881.803	6233
881.852	6879
881.885	6323
881.958	5469
881.966	5525
882.047	6156
882.064	6030
882.129	4604
882.171	4125
882.210	4191
882.277	4244
882.291	4534
882.372	6820
882.383	7034
882.454	7764
882.489	7801
882.535	7642
882.596	7962
882.616	7862
882.697	7036
882.702	6934
882.778	5296
882.808	5011
882.859	5035
882.914	4759
882.940	4995
883.020	6115
883.021	6141
883.102	6638
883.127	7264
883.183	8680
883.233	8701
883.264	7387
883.339	5007
883.345	4976
883.426	3693
883.445	3808
883.507	5518
883.551	5669
883.587	6078
883.657	8453
883.668	8661
883.749	8862
883.763	8747
883.830	6171
883.869	4969
883.910	5107
883.975	5832
883.991	5995
884.072	5663
884.081	5783
884.152	8854
884.187	9532
884.233	9336
884.292	9433
884.314	8492
884.394	4249
884.398	4088
884.475	4067
884.504	3663
884.555	4057
884.610	5150
884.636	5869
884.716	7265
884.716	7298
884.797	9916
884.821	10388
884.877	8840
884.927	7656
884.958	7099
885.033	5172
885.038	5131
885.118	4969
885.139	4802
885.199	5200
885.244	5902
885.279	7012
885.350	8772
885.359	8998
885.439	10776
885.456	10965
885.520	7823
885.561	6289
885.600	6390
885.667	6309
885.680	6523
885.760	7483
885.773	7598
885.840	5874
885.878	5047
885.920	5480
885.984	5987
886.000	6258
886.080	7838
886.089	7912
886.160	7989
886.195	8217
886.240	7808
886.300	6926
886.320	7067
886.400	8066
886.406	8075
886.480	6333
886.511	5788
886.560	6468
886.616	6806
886.640	6664
886.720	6413
886.722	6386
886.800	6990
886.827	7269
886.879	7643
886.932	7730
886.959	8235
887.038	9851
887.039	9868
887.119	8651
887.143	8328
887.198	8216
887.248	8037
887.278	7879
887.354	7488
887.358	7543
887.437	8075
887.459	8191
887.517	8529
887.564	8706
887.596	7676
887.669	5424
887.676	5409
887.755	4902
887.774	4816
887.835	5474
887.880	5863
887.914	6773
887.985	8570
887.994	8848
888.073	11166
888.090	11571
888.153	11723
888.195	11738
888.232	9631
888.300	5944
888.311	6117
888.391	6954
888.405	7109
888.470	6793
888.510	6496
888.549	6694
888.615	7221
888.628	7708
888.708	10167
888.720	10554
888.787	8951
888.825	7910
888.866	6837
888.930	5248
888.945	5802
889.024	8516
889.035	8867
889.103	9187
889.140	9273
889.182	8437
889.245	7225
889.261	7722
889.340	9893
889.349	10120
889.419	7938
889.454	6786
889.498	6845
889.559	6905
889.577	7484
889.656	9923
889.664	10138
889.735	9352
889.768	8928
889.814	9247
889.873	9607
889.978	8185
890.083	7318
890.187	9557
890.292	9602
890.397	8278
890.501	6873
890.606	5834
890.710	7752
890.815	11388
890.919	8432
891.024	8697
891.128	7054
891.233	6579
891.337	11314
891.442	8937
891.546	8302
891.650	6690
891.755	6550
891.859	9992
891.963	10327
892.068	8745
892.172	6218
892.276	5165
892.380	8336
892.484	11594
892.589	10961
892.693	8292
892.797	5564
892.901	5698
893.005	7294
893.109	11477
893.213	9476
893.317	6813
893.421	5466
893.525	4841
893.629	7071
893.733	9725
893.837	7437
893.941	6688
894.045	5255
894.148	4684
894.252	5325
894.356	10855
894.460	10922
894.564	7182
894.667	6145
894.771	4954
894.875	4298
894.978	7484
895.082	8984
895.186	8359
895.289	6448
895.393	6497
895.496	8568
895.600	5667
895.703	5079
895.807	7033
895.910	6534
896.014	7081
896.117	5720
896.221	8425
896.324	6988
896.427	5173
896.531	5195
896.634	6382
896.737	6476
896.840	8349
896.944	9328
897.047	9312
897.150	6648
897.253	3911
897.356	5024
897.460	3719
897.563	6238
897.666	9589
897.769	7109
897.872	4273
897.975	5620
898.078	5683
898.181	4825
898.284	7144
898.387	9009
898.490	7707
898.593	5787
898.695	5229
898.798	5392
898.901	5332
899.004	7013
899.107	6082
899.209	7010
899.312	9090
899.415	4033
899.518	4011
899.620	4180
899.723	4589
899.826	5563
899.928	4225
900.031	6906
900.133	8185
900.236	5615
900.338	3662
900.441	4942
900.543	6352
900.646	5812
900.748	6314
900.851	6697
900.953	4768
901.055	5269
901.158	5629
901.260	4810
901.362	3958
901.465	4930
901.567	7289
901.669	6865
901.771	6447
901.873	5940
901.976	6666
902.078	5442
902.180	4807
902.282	4593
902.384	5966
902.486	8798
902.588	5982
902.690	3903
902.792	4521
902.894	6180
902.996	7612
903.098	6415
903.200	4312
903.302	4191
903.404	4540
903.505	4668
903.607	5733
903.709	10109
903.811	6885
903.913	4897
904.014	4473
904.116	4429
904.218	4489
904.319	5743
904.421	10869
904.523	6969
904.624	5420
904.726	4363
904.827	4239
904.929	4797
905.030	5305
905.132	8940
905.233	5145
905.335	3956
905.436	4372
905.537	3483
905.639	5073
905.740	5774
905.841	7012
905.943	5939
906.044	5143
906.145	4940
906.247	3594
906.348	5108
906.449	6116
906.550	5946
906.651	4268
906.752	4544
906.854	3979
906.955	4248
907.056	5132
907.157	8153
907.258	6610
907.359	3931
907.460	3362
907.561	3373
907.662	4458
907.762	4600
907.863	6625
907.964	5672
908.065	4699
908.166	4430
908.267	4605
908.367	3382
908.468	4275
908.569	6025
908.670	6284
908.770	4522
908.871	6226
908.971	6264
909.072	4607
909.173	4652
909.273	5216
909.374	7508
909.474	4510
909.575	5147
909.675	5221
909.776	5793
909.876	5707
909.977	4536
910.077	6278
910.177	7118
910.278	5887
910.378	4673
910.478	5321
910.579	6781
910.679	6247
910.779	6840
910.879	6962
910.980	6197
911.080	6207
911.180	4272
911.280	3333
911.380	4270
911.480	4584
911.580	4853
911.680	4516
911.780	6083
911.880	6275
911.980	4185
912.080	4620
912.180	4199
912.280	5193
912.380	3411
912.480	4005
912.580	4133
912.679	4625
912.779	6392
912.879	5056
912.979	5771
913.078	3717
913.178	3178
913.278	4577
913.377	4074
913.477	4222
913.577	5063
913.676	7348
913.776	6678
913.875	4392
913.975	4811
914.074	5892
914.174	5913
914.273	3139
914.373	6022
914.472	5166
914.572	4911
914.671	4258
914.770	4328
914.870	3670
914.969	4257
915.068	6319
915.167	5540
915.267	4397
915.366	4814
915.465	5764
915.564	5357
915.663	4892
915.763	6124
915.862	7204
915.961	6400
916.060	4145
916.159	3927
916.258	4154
916.357	4711
916.456	5126
916.555	6218
916.654	6017
916.752	7142
916.851	5608
916.950	3830
917.049	4893
917.148	4549
917.247	4419
917.345	4098
917.444	4708
917.543	5007
917.642	4754
917.740	7026
917.839	8444
917.937	8252
918.036	6623
918.135	5118
918.233	3885
918.332	5383
918.430	4604
918.529	4948
918.627	5839
918.726	6674
918.824	5620
918.923	5002
919.021	5016
919.119	4587
919.218	4711
919.316	5191
919.414	6015
919.512	7777
919.611	7387
919.709	6354
919.807	8110
919.905	8302
920.003	8385
920.102	7360
920.200	7629
920.298	8110
920.396	7781
920.494	6810
920.592	6770
920.690	7033
920.788	7910
920.886	8220
920.984	8628
921.082	9231
921.180	10132
921.277	9769
921.375	11529
921.473	15025
921.571	13364
921.669	12738
921.766	11234
921.864	13501
921.962	11825
922.060	12229
922.157	12635
922.255	12988
922.352	13485
922.450	15015
922.548	14643
922.645	18757
922.743	23504
922.840	37070
922.938	34882
923.035	31864
923.133	31895
923.230	38613
923.327	42490
923.425	37805
923.522	38912
923.619	34953
923.717	32047
923.814	31609
923.911	31025
924.008	32953
924.106	30419
924.203	29955
924.300	32014
924.397	31367
924.494	32074
924.591	30172
924.688	31155
924.786	29676
924.883	31099
924.979	31579
925.077	30777
925.173	30184
925.270	30453
925.367	30705
925.464	31600
925.561	35396
925.658	32735
925.755	30241
925.852	34042
925.948	31191
926.045	29992
926.142	32468
926.239	29350
926.335	26432
926.432	30615
926.529	32382
926.625	33125
926.722	25654
926.818	27918
926.915	29656
927.011	28141
927.108	28500
927.204	26987
927.301	24601
927.397	32074
927.494	29620
927.590	20402
927.687	27661
927.783	32124
927.879	28403
927.976	23944
928.072	24554
928.168	30041
928.264	26010
928.361	27307
928.457	28864
928.553	22921
928.649	26616
928.745	24265
928.841	24643
928.937	26350
929.033	24159
929.129	26905
929.225	28610
929.321	21903
929.417	23762
929.513	26412
929.609	22007
929.705	24687
929.801	24597
929.897	21326
929.993	23709
930.089	23043
930.184	21568
930.280	26768
930.376	28156
930.471	18933
930.567	21303
930.663	22883
930.758	21235
930.854	22613
930.950	21888
931.045	19686
931.141	23412
931.236	27798
931.332	18288
931.427	22130
931.523	25427
931.618	21154
931.714	15788
931.809	22855
931.905	22377
932.000	13875
932.095	18760
932.191	25642
932.286	26662
932.381	18879
932.476	18731
932.572	21375
932.667	17295
932.762	18367
932.857	23618
932.952	24114
933.047	18395
933.142	17453
933.237	21665
933.332	21498
933.427	22882
933.522	17074
933.617	17653
933.712	18850
933.807	24794
933.902	24986
933.997	21833
934.092	16573
934.187	21177
934.282	19031
934.376	22107
934.471	20529
934.566	15797
934.661	18571
934.755	22272
934.850	21344
934.945	16403
935.039	15735
935.134	13756
935.228	22243
935.323	24207
935.417	13965
935.512	13431
935.606	16173
935.701	20027
935.795	21140
935.890	16864
935.984	13333
936.079	14895
936.173	17955
936.267	15501
936.362	15258
936.456	20320
936.550	21000
936.644	15826
936.738	14264
936.833	12997
936.927	13343
937.021	17568
937.115	18879
937.209	17958
937.303	14622
937.397	13690
937.491	17019
937.585	18178
937.679	14234
937.773	13968
937.867	12081
937.961	15661
938.055	20886
938.149	14319
938.243	10579
938.337	11000
938.430	15859
938.524	18647
938.618	14141
938.712	13402
938.805	14934
938.899	19847
938.993	18667
939.086	11066
939.180	11414
939.274	15219
939.367	17270
939.461	15071
939.554	13659
939.648	12032
939.741	12722
939.835	18509
939.928	19345
940.022	16133
940.115	15250
940.208	17962
940.302	19604
940.395	17824
940.488	12438
940.582	14280
940.675	11437
940.768	14181
940.861	18017
940.954	14778
941.048	10235
941.141	11594
941.234	12199
941.327	13780
941.420	15674
941.513	15239
941.606	10808
941.699	14462
941.792	17413
941.885	13412
941.978	15603
942.071	12791
942.164	9211
942.257	11511
942.349	13345
942.442	12458
942.535	9566
942.628	11270
942.721	13341
942.813	11473
942.906	13417
942.999	11067
943.091	10944
943.184	11827
943.277	10413
943.369	8515
943.462	10130
943.554	11894
943.647	12328
943.739	16428
943.832	12394
943.924	7768
944.017	8963
944.109	9340
944.201	10793
944.294	10922
944.386	11670
944.478	9387
944.571	9315
944.663	10933
944.755	11801
944.847	13143
944.940	10641
945.032	8084
945.124	9965
945.216	11992
945.308	11308
945.400	9713
945.492	10935
945.584	14265
945.676	12157
945.768	11092
945.860	13882
945.952	13298
946.044	10569
946.136	9664
946.228	10105
946.320	10063
946.412	12818
946.503	13620
946.595	11945
946.687	8489
946.779	7048
946.870	10188
946.962	8458
947.054	9369
947.145	11358
947.237	8599
947.329	11692
947.420	10282
947.512	8479
947.603	6697
947.695	8410
947.786	7869
947.878	9933
947.969	10389
948.061	12105
948.152	7300
948.243	7003
948.335	6434
948.426	7998
948.517	10715
948.609	10672
948.700	10419
948.791	7386
948.882	6631
948.973	8279
949.065	9907
949.156	7788
949.247	7933
949.338	6823
949.429	6156
949.520	7950
949.611	10335
949.702	8956
949.793	7982
949.884	9278
949.975	7395
950.066	6182
950.157	7335
950.247	7462
950.338	6435
950.429	7400
950.520	7172
950.611	7294
950.701	10189
950.792	10633
950.883	8849
950.973	8168
951.064	9371
951.155	9531
951.245	9002
951.336	9746
951.427	11042
951.517	10965
951.608	8872
951.698	7342
951.788	6270
951.879	5941
951.969	6675
952.060	7140
952.150	8879
952.240	10713
952.331	8061
952.421	8701
952.511	5586
952.602	5057
952.692	5073
952.782	5921
952.872	7887
952.962	8247
953.052	7234
953.143	6432
953.233	7402
953.323	7925
953.413	8999
953.503	8967
953.593	7556
953.683	6792
953.773	5455
953.863	5949
953.953	6759
954.042	8384
954.132	8504
954.222	7930
954.312	6503
954.402	6824
954.492	7127
954.581	7758
954.671	6628
954.761	6913
954.850	6386
954.940	3708
955.030	5565
955.119	5513
955.209	6865
955.298	8129
955.388	8067
955.477	7755
955.567	5177
955.656	5987
955.746	6456
955.835	5753
955.925	6141
956.014	8083
956.103	9915
956.193	10501
956.282	7013
956.371	7158
956.461	7601
956.550	6559
956.639	6304
956.728	5836
956.817	6536
956.906	7760
956.995	7334
957.085	5965
957.174	6711
957.263	5352
957.352	6934
957.441	6612
957.530	5954
957.619	5304
957.708	5589
957.796	5994
957.885	5716
957.974	5631
958.063	6054
958.152	4136
958.241	5024
958.329	5033
958.418	5308
958.507	6294
958.596	7762
958.684	5445
958.773	5599
958.861	4934
958.950	3822
959.039	5017
959.127	5987
959.216	6360
959.304	5543
959.393	6249
959.481	5522
959.570	4880
959.658	4001
959.746	5372
959.835	5746
959.923	4448
960.011	3624
960.100	6678
960.188	6553
960.276	4359
960.365	4724
960.453	3856
960.541	3991
960.629	4943
960.717	3935
960.805	3388
960.893	6135
960.981	6652
961.069	8753
961.158	8004
961.245	8542
961.333	7168
961.421	4932
961.509	6471
961.597	5936
961.685	5320
961.773	6860
961.861	6463
961.949	5870
962.036	3734
962.124	4687
962.212	4459
962.299	3810
962.387	3907
962.475	5250
962.562	4963
962.650	6875
962.738	4083
962.825	4082
962.913	4377
963.000	4911
963.088	5857
963.175	5150
963.263	4485
963.350	4872
963.438	4983
963.525	4126
963.612	4342
963.700	4831
963.787	5957
963.874	3796
963.962	4020
964.049	4532
964.136	4575
964.223	3762
964.310	4802
964.398	4609
964.485	4997
964.572	5054
964.659	5173
964.746	2979
964.833	4072
964.920	4130
965.007	3541
965.094	5275
965.181	5326
965.268	4097
965.355	4541
965.441	4357
965.528	4198
965.615	6210
965.702	4713
965.789	5008
965.875	6007
965.962	6133
966.049	5631
966.136	7366
966.222	6338
966.309	7880
966.395	6869
966.482	5990
966.569	5238
966.655	6150
966.742	5114
966.828	4085
966.915	3820
967.001	3457
967.087	3438
967.174	4414
967.260	4314
967.347	5151
967.433	5215
967.519	6069
967.605	5350
967.692	4656
967.778	3401
967.864	4620
967.950	4381
968.036	4451
968.123	4653
968.209	3651
968.295	2411
968.381	5012
968.467	3824
968.553	2897
968.639	5656
968.725	5351
968.811	7636
968.897	6127
968.983	4497
969.069	3562
969.154	3895
969.240	4287
969.326	2387
969.412	3637
969.497	3883
969.583	3869
969.669	5662
969.755	5386
969.840	6799
969.926	10226
970.012	12265
970.097	14474
970.183	10070
970.268	6111
970.354	5397
970.439	3970
970.525	5066
970.610	4109
970.696	4515
970.781	4369
970.866	2360
970.952	4878
971.037	3396
971.122	5280
971.208	4801
971.293	5450
971.378	3722
971.463	4194
971.549	3875
971.634	4353
971.719	3804
971.804	3502
971.889	4919
971.974	3533
972.059	3802
972.144	4800
972.229	4279
972.314	3578
972.399	3967
972.484	2368
972.569	4465
972.654	1987
972.739	4461
972.824	2897
972.908	3817
972.993	2970
973.078	3845
973.163	4290
973.247	4252
973.332	3555
973.417	5321
973.501	4661
973.586	4548
973.671	3529
973.755	3370
973.840	3989
973.924	6362
974.009	7829
974.093	6112
974.178	6236
974.262	4983
974.346	4535
974.431	3551
974.515	4532
974.600	4985
974.684	5554
974.768	4974
974.852	4959
974.937	3502
975.021	5437
975.105	4310
975.189	3448
975.273	3819
975.358	3729
975.442	3913
975.526	4976
975.610	3439
975.694	3145
975.778	4889
975.862	3951
975.946	2625
976.030	6056
976.114	3414
976.198	4187
976.281	5041
976.365	4409
976.449	4014
976.533	3729
976.617	3460
976.700	2772
976.784	3054
976.868	3077
976.951	4225
977.035	3412
977.119	4432
977.202	5117
977.286	5049
977.369	7741
977.453	9236
977.536	7350
977.620	5999
977.703	5992
977.787	4394
977.870	6413
977.953	5579
978.037	2826
978.120	5531
978.203	4225
978.287	4509
978.370	4494
978.453	3809
978.536	4462
978.620	5623
978.703	4589
978.786	3801
978.869	3598
978.952	3441
979.035	6042
979.118	4463
979.201	3979
979.284	4579
979.367	3611
979.450	5282
979.533	3338
979.616	4384
979.699	4026
979.782	4723
979.865	4254
979.948	3732
980.030	2850
980.113	4181
980.196	3873
980.279	4872
980.361	3997
980.444	4573
980.526	7566
980.609	10019
980.692	9575
980.774	7314
980.857	5289
980.939	6673
981.022	4414
981.104	4839
981.187	5092
981.269	5641
981.352	4771
981.434	5521
981.516	3842
981.599	6423
981.681	4902
981.763	5350
981.846	5245
981.928	5241
982.010	4179
982.092	5002
982.174	5784
982.256	4404
982.339	4860
982.421	4368
982.503	5168
982.585	3516
982.667	4338
982.749	4668
982.831	4658
982.913	4936
982.995	5521
983.077	5111
983.158	6328
983.240	5145
983.322	9099
983.404	10598
983.486	8255
983.568	7434
983.649	6900
983.731	7431
983.813	5435
983.894	7465
983.976	5969
984.058	6419
984.139	6582
984.221	5076
984.302	6686
984.384	6086
984.465	5454
984.547	6024
984.628	5026
984.710	7258
984.791	5493
984.872	5859
984.954	5756
985.035	7074
985.116	5958
985.198	6256
985.279	7432
985.360	5597
985.441	5860
985.522	7738
985.604	6285
985.685	3219
985.766	7328
985.847	6948
985.928	5585
986.009	5421
986.090	6283
986.171	6368
986.252	5600
986.333	6212
986.414	5740
986.495	7490
986.576	5971
986.656	7431
986.737	6748
986.818	6161
986.899	5913
986.980	6296
987.060	7608
987.141	8241
987.222	9128
987.302	9050
987.383	9550
987.464	8883
987.544	9478
987.625	7749
987.705	9430
987.786	8651
987.866	8059
987.947	8819
988.027	8451
988.108	7495
988.188	7374
988.268	7250
988.349	8691
988.429	7529
988.509	7586
988.589	7972
988.670	5964
988.750	6882
988.830	8011
988.910	8232
988.990	7110
989.070	7172
989.151	7323
989.231	6659
989.311	7062
989.391	5925
989.471	7259
989.551	6825
989.631	6418
989.711	7905
989.791	7562
989.870	6278
989.950	7431
990.030	6449
990.110	5880
990.190	5781
990.269	5726
990.349	6043
990.429	5569
990.509	5246
990.588	6119
990.668	6630
990.747	5620
990.827	5755
990.907	7045
990.986	6045
991.066	4984
991.145	4732
991.225	7156
991.304	6387
991.383	5197
991.463	5608
991.542	5757
991.622	3946
991.701	5230
991.780	4237
991.859	4806
991.939	5572
992.018	6371
992.097	4675
992.176	5264
992.256	4864
992.335	5116
992.414	5007
992.493	3818
992.572	4544
992.651	5611
992.730	4415
992.809	4725
992.888	4057
992.967	5121
993.046	4265
993.125	3133
993.203	4896
993.282	4600
993.361	4455
993.440	4382
993.519	3092
993.597	4364
993.676	4762
993.755	4520
993.834	4285
993.912	2638
993.991	5239
994.069	3231
994.148	4055
994.226	3152
994.305	4156
994.384	4060
994.462	5211
994.540	2993
994.619	2870
994.697	5404
994.776	4702
994.854	4556
994.932	3699
995.011	4343
995.089	3534
995.167	3908
995.245	4220
995.324	2549
995.402	4308
995.480	2940
995.558	4069
995.636	2916
995.714	3131
995.792	5020
995.870	2335
995.948	2859
996.026	3697
996.104	3123
996.182	4093
996.260	2261
996.338	2960
996.416	2537
996.494	3345
996.572	3626
996.649	2545
996.727	2563
996.805	3304
996.883	2555
996.960	2799
997.038	3783
997.116	3178
997.193	1988
997.271	1944
997.348	1820
997.426	2639
997.504	2551
997.581	3043
997.658	1738
997.736	695
997.813	2244
997.891	3044
997.968	1456
998.046	3297
998.123	2562
998.200	3876
998.277	2642
998.355	2318
998.432	390
998.509	1918
998.586	1998
998.663	2350
998.741	2043
998.818	1411
998.895	1839
998.972	2601
999.049	2794
999.126	2163
999.203	2205
999.280	2485
999.357	1971
999.434	1710
999.511	2397
999.587	1926
999.664	1621
999.741	2395
999.818	2440
999.895	2226
999.971	1487
1000.048	1394
1000.125	2882
1000.202	1944
1000.278	2754
1000.355	2310
1000.431	1445
1000.508	865
1000.584	1161
1000.661	1394
1000.738	1369
1000.814	1358
1000.890	2340
1000.967	1947
1001.043	1872
1001.120	807
1001.196	1356
1001.272	259
1001.349	1805
1001.425	2188
1001.501	1664
1001.577	1255
1001.654	826
1001.730	1142
1001.806	858
1001.882	1313
1001.958	2612
1002.034	1136
1002.110	855
1002.186	655
1002.262	657
1002.338	493
1002.414	1548
1002.490	1897
1002.566	430
1002.642	722
1002.718	1202
1002.794	1145
1002.870	1225
1002.945	1277
1003.021	1336
1003.097	758
1003.173	1887
1003.248	1548
1003.324	398
1003.400	748
1003.475	641
1003.551	113
1003.626	1308
1003.702	114
1003.777	824
1003.853	713
1003.928	309
1004.004	684
1004.079	1843
1004.155	866
1004.230	73
1004.305	1758
1004.381	189
1004.456	103
1004.531	-303
1004.607	1065
1004.682	353
1004.757	455
1004.832	444
1004.907	590
1004.982	578
1005.057	711
1005.133	131
1005.208	319
1005.283	-92
1005.358	867
1005.433	-447
1005.508	903
1005.583	595
1005.657	-130
1005.732	1420
1005.807	-847
1005.882	391
1005.957	355
1006.032	967
1006.106	1204
1006.181	1277
1006.256	430
1006.331	4
1006.405	-650
1006.480	-319
1006.554	-159
1006.629	511
1006.704	401
1006.778	677
1006.853	509
1006.927	-125
1007.002	-226
1007.076	90
1007.150	319
1007.225	-106
1007.299	-325
1007.373	-95
1007.448	46
1007.522	415
1007.596	361
1007.671	-1236
1007.745	703
1007.819	-142
1007.893	-483
1007.967	598
1008.041	-991
1008.115	29
1008.190	-765
1008.264	553
1008.338	-526
1008.412	-484
1008.486	-78
1008.560	230
1008.633	-455
1008.707	75
1008.781	1012
1008.855	-452
1008.929	95
1009.003	26
1009.076	-860
1009.150	236
1009.224	710
1009.298	-46
1009.371	-340
1009.445	445
1009.519	373
1009.592	-1301
1009.666	227
1009.739	-96
1009.813	-1133
1009.886	160
1009.960	-609
1010.033	515
1010.107	-149
1010.180	-1146
1010.253	-463
1010.327	-571
1010.400	-1146
1010.473	-361
1010.547	-14
1010.620	-422
1010.693	-630
1010.766	147
1010.840	164
1010.913	-788
1010.986	-1028
1011.059	-1307
1011.132	-649
1011.205	553
1011.278	318
1011.351	-1087
1011.424	588
1011.497	-1433
1011.570	-345
1011.643	84
1011.716	-1015
1011.789	-659
1011.862	-84
1011.934	-306
1012.007	-1292
1012.080	-252
1012.153	-719
1012.225	-4
1012.298	-1143
1012.371	-845
1012.443	-54
1012.516	-1520
1012.588	-793
1012.661	-1083
1012.733	-639
1012.806	-109
1012.879	-1083
1012.951	-938
1013.023	-837
1013.096	-733
1013.168	-1084
1013.241	-144
1013.313	-852
1013.385	-1112
1013.458	-514
1013.530	-583
1013.602	-1065
1013.674	60
1013.746	-1605
1013.819	-696
1013.891	-935
1013.963	-960
1014.035	-586
1014.107	-541
1014.179	-936
1014.251	-1323
1014.323	-673
1014.395	-950
1014.467	-320
1014.539	-745
1014.611	-1272
1014.683	-1016
1014.754	-594
1014.826	-1099
1014.898	79
1014.970	-1476
1015.042	616
1015.113	-1183
1015.185	-691
1015.257	-992
1015.328	-870
1015.400	-857
1015.471	-825
1015.543	-1903
1015.615	-1168
1015.686	-888
1015.757	-588
1015.829	-1125
1015.901	-960
1015.972	-1332
1016.043	-1087
1016.115	-528
1016.186	-892
1016.257	-830
1016.328	-1061
1016.400	143
1016.471	-1181
1016.542	-1364
1016.613	-723
1016.685	-336
1016.756	-321
1016.827	-1240
1016.898	-377
1016.969	-594
1017.040	-1031
1017.111	-915
1017.182	-1003
1017.253	-1457
1017.324	-909
1017.395	-1563
1017.466	-1282
1017.537	-1574
1017.608	-212
1017.678	-884
1017.749	-1260
1017.820	-721
1017.891	-1539
1017.961	-1477
1018.032	-685
1018.103	-589
1018.173	-1880
1018.244	-1711
1018.315	-1295
1018.385	-1495
1018.456	-1925
1018.526	-1613
1018.597	-1795
1018.667	-1266
1018.738	-1621
1018.808	-964
1018.878	-796
1018.949	-648
1019.019	-1605
1019.089	-779
1019.160	-269
1019.230	-1702
1019.300	-1570
1019.371	-1521
1019.441	-299
1019.511	-1303
1019.581	-1016
1019.651	-1414
1019.721	-191
1019.791	-1096
1019.861	-268
1019.931	-413
1020.001	-1114
1020.071	-1444
1020.141	-1604
1020.211	-1129
1020.281	-634
1020.351	-1313
1020.421	-810
1020.491	-201
1020.560	-1621
1020.630	-1189
1020.700	-99
1020.770	-1687
1020.839	-1113
1020.909	-184
1020.979	-1165
1021.048	-561
1021.118	-1385
1021.187	-1423
1021.257	-608
1021.326	-960
1021.396	-1768
1021.465	-976
1021.535	-1102
1021.604	-948
1021.674	-1117
1021.743	-903
1021.812	-856
1021.882	-1233
1021.951	-1267
1022.020	-1011
1022.089	-1128
1022.159	-1467
1022.228	-416
1022.297	-1434
1022.366	-722
1022.435	-1567
1022.504	-1106
1022.573	-1364
1022.642	-559
1022.711	-1460
1022.781	-1535
1022.849	-1269
1022.918	-1869
1022.987	-1286
1023.056	-2340
1023.125	-1326
1023.194	-1243
1023.263	-1853
1023.331	-932
1023.400	-1608
1023.469	-1050
1023.538	-1987
1023.606	-2179
1023.675	-1054
1023.744	-1469
1023.812	-1508
1023.881	-1421
1023.949	-1689
1024.018	-1246
1024.086	-1842
1024.155	-1224
1024.223	-1930
1024.292	-1261
1024.360	-924
1024.429	-1671
1024.497	-1675
1024.565	-759
1024.634	-1475
1024.702	-1101
1024.770	-1423
1024.838	-1784
1024.907	-1853
1024.975	-855
1025.043	-723
1025.111	-1475
1025.179	-1788
1025.247	-1382
1025.315	-1265
1025.383	-1011
1025.451	-988
1025.519	-1246
1025.587	-783
1025.655	-1091
1025.723	-2254
1025.791	-1523
1025.859	-1244
1025.927	-871
1025.995	-1568
1026.062	-881
1026.130	-2200
1026.198	-1234
1026.266	-1694
1026.333	-1217
1026.401	-1024
1026.469	-1244
1026.536	-767
1026.604	-1366
1026.671	-1307
1026.739	-1681
1026.806	-1804
1026.874	-1291
1026.941	-1616
1027.009	-2401
1027.076	-1774
1027.144	-581
1027.211	-2144
1027.278	-1852
1027.345	-1041
1027.413	-959
1027.480	-1901
1027.547	-1319
1027.614	-845
1027.682	-1322
1027.749	-2127
1027.816	-1407
1027.883	-234
1027.950	-1140
1028.017	-1678
1028.084	-944
1028.151	-1795
1028.218	-1268
1028.285	-1568
1028.352	-1554
1028.419	-1549
1028.486	-931
1028.553	-833
1028.619	-1511
1028.686	-989
1028.753	-1358
1028.820	-774
1028.886	-1273
1028.953	-1925
1029.020	-2124
1029.086	-1826
1029.153	-1673
1029.220	-1840
1029.286	-832
1029.353	-1074
1029.419	-1793
1029.486	-1579
1029.552	-726
1029.619	-1321
1029.685	-1510
1029.751	-1624
1029.818	-89
1029.884	-2497
1029.951	357
1030.017	-1473
1030.083	-678
1030.149	-1194
1030.216	-1377
1030.282	-2211
1030.348	-1268
1030.414	-2045
1030.480	-1944
1030.546	-1653
1030.612	-932
1030.678	-1458
1030.744	-2040
1030.810	-2087
1030.876	-1627
1030.942	-2315
1031.008	-1740
1031.074	-1466
1031.140	-1323
1031.206	-214
1031.272	-2014
1031.337	-1361
1031.403	-1489
1031.469	-1572
1031.534	-1363
1031.600	-1011
1031.666	-2040
1031.731	-1255
1031.797	-1470
1031.863	-1080
1031.928	-1577
1031.994	-797
1032.059	-1213
1032.125	-1764
1032.190	-1657
1032.256	-1465
1032.321	-1435
1032.386	-1961
1032.452	-1385
1032.517	-1303
1032.582	-814
1032.647	-1156
1032.713	-1770
1032.778	-1202
1032.843	-1431
1032.908	-2990
1032.974	-1182
1033.039	-1096
1033.104	-2122
1033.169	-762
1033.234	-705
1033.299	-478
1033.364	218
1033.429	-475
1033.494	-797
1033.559	-1335
1033.624	-552
1033.688	-1072
1033.753	-1133
1033.818	-216
1033.883	558
1033.948	1050
1034.013	1341
1034.077	2307
1034.142	3307
1034.207	4608
1034.271	8025
1034.336	8816
1034.400	5776
1034.465	2753
1034.530	-52
1034.594	-514
1034.658	-1715
1034.723	-1054
1034.787	-1060
1034.852	-784
1034.916	-1235
1034.981	-1735
1035.045	-329
1035.109	-1413
1035.173	-1338
1035.238	-1438
1035.302	-1068
1035.366	-1683
1035.430	-1663
1035.495	-619
1035.559	-1085
1035.623	-897
1035.687	-1640
1035.751	-1301
1035.815	-1532
1035.879	-956
1035.943	-2204
1036.007	-1486
1036.071	-1902
1036.135	-1710
1036.198	-1144
1036.262	-1469
1036.326	-1011
1036.390	-925
1036.454	-423
1036.517	-190
1036.581	51
1036.645	1125
1036.709	-117
1036.772	-117
1036.836	-1159
1036.900	-1287
1036.963	-1686
1037.026	-1284
1037.090	-1717
1037.154	-1358
1037.217	-925
1037.280	-1518
1037.344	-625
1037.407	-1486
1037.471	-1300
1037.534	-2298
1037.597	-374
1037.661	-1073
1037.724	-607
1037.787	-961
1037.850	-1676
1037.913	-1343
1037.977	-1448
1038.040	-1988
1038.103	-2089
1038.166	-2436
1038.229	-1490
1038.292	-1450
1038.355	-1111
1038.418	-1409
1038.481	-998
1038.544	-1456
1038.607	-1633
1038.670	-911
1038.732	-1491
1038.795	-2085
1038.858	-1778
1038.921	-1205
1038.984	-1476
1039.046	-1793
1039.109	-1891
1039.172	-1815
1039.234	-2359
1039.297	-1318
1039.360	-881
1039.422	-2028
1039.485	-1656
1039.547	-1758
1039.610	-1874
1039.672	-1145
1039.734	-1759
1039.797	-2087
1039.859	-2338
1039.922	-1239
1039.984	-1890
1040.046	-1785
1040.109	-1305
1040.171	-1372
1040.233	-1861
1040.295	-1758
1040.358	-2469
1040.420	-1257
1040.482	-1490
1040.544	-2067
1040.606	-1696
1040.668	-1443
1040.730	-2130
1040.792	-1803
1040.854	-1372
1040.916	-2135
1040.978	-1874
1041.040	-769
1041.102	-1927
1041.164	-2247
1041.225	-1687
1041.287	-2206
1041.349	-1265
1041.411	-2013
1041.472	-2480
1041.534	-1772
1041.596	-2376
1041.657	-1577
1041.719	-1439
1041.781	-1526
1041.842	-1798
1041.904	-1564
1041.965	-1757
1042.027	-1545
1042.088	-1489
1042.150	-1901
1042.211	-1557
1042.272	-1881
1042.334	-2261
1042.395	-1925
1042.456	-2008
1042.518	-2315
1042.579	-932
1042.640	-1653
1042.701	-1510
1042.763	-2494
1042.824	-1238
1042.885	-1793
1042.946	-797
1043.007	-1027
1043.068	-1573
1043.129	-2818
1043.190	-2817
1043.251	-741
1043.312	-2145
1043.373	-1929
1043.434	-1251
1043.495	-1420
1043.556	-932
1043.616	-2034
1043.677	-2022
1043.738	-1910
1043.799	-2023
1043.859	-1636
1043.920	-1701
1043.981	-2371
1044.041	-923
1044.102	-2630
1044.162	-991
1044.223	-1969
1044.284	-1467
1044.344	-2205
1044.405	-1548
1044.465	-1161
1044.525	-1886
1044.586	-1756
1044.646	-1441
1044.707	-892
1044.767	-2224
1044.827	-793
1044.887	-1989
1044.948	-343
1045.008	-1854
1045.068	-2422
1045.128	-1055
1045.188	-1710
1045.249	-1253
1045.309	-1542
1045.369	-1797
1045.429	-1725
1045.489	-1726
1045.549	-586
1045.609	-1739
1045.669	-2032
1045.729	-1497
1045.789	-2106
1045.848	-1555
1045.908	-1886
1045.968	-1284
1046.028	-1438
1046.088	-1684
1046.147	-2068
1046.207	-2075
1046.267	-1005
1046.326	-1303
1046.386	-951
1046.446	-32
1046.505	-1450
1046.565	-1101
1046.624	-1131
1046.684	-1253
1046.743	-872
1046.803	70
1046.862	-93
1046.922	0
