'Start Wavelength	183.907
'End Wavelength	1046.922
'Gate Delay	5.000
'Gate Width (ms)	1.050
'Laser Output Level	0.000
'X Position	0.000
'Y Position	0.000
'Z Position	0.000
'Grid Point Number	1.000
'Shot Number	100.000
183.907	598.000
183.977	-644.000
184.047	-412
184.116	542
184.186	452
184.256	128
184.325	-656
184.395	-824
184.465	643
184.534	-656
184.604	21
184.674	-111
184.743	-51
184.813	293
184.883	-337
184.952	107
185.022	454
185.092	337
185.161	577
185.231	-182
185.301	-105
185.370	87
185.440	218
185.509	-802
185.579	-63
185.649	516
185.718	-438
185.788	-10
185.857	-72
185.927	-418
185.996	755
186.066	-104
186.136	3
186.205	-6
186.275	-43
186.344	-162
186.414	194
186.483	-536
186.553	399
186.622	1048
186.692	316
186.761	64
186.831	1130
186.900	-316
186.970	546
187.039	779
187.109	-384
187.178	-206
187.248	756
187.317	-325
187.387	-188
187.456	288
187.526	-243
187.595	310
187.664	269
187.734	201
187.803	91
187.873	239
187.942	406
188.012	-151
188.081	233
188.150	-736
188.220	200
188.289	565
188.358	778
188.428	-206
188.497	18
188.567	203
188.636	-266
188.705	278
188.775	537
188.844	-907
188.913	440
188.983	-72
189.052	550
189.121	-22
189.191	29
189.260	-54
189.329	-599
189.399	362
189.468	245
189.537	72
189.606	408
189.676	498
189.745	505
189.814	882
189.883	-74
189.953	-266
190.022	185
190.091	385
190.161	-2
190.230	818
190.299	-28
190.368	347
190.437	618
190.507	-445
190.576	495
190.645	54
190.714	-283
190.783	748
190.853	-43
190.922	-183
190.991	91
191.060	543
191.129	-374
191.198	27
191.268	-165
191.337	-586
191.406	-202
191.475	315
191.544	-55
191.613	-127
191.682	146
191.752	-243
191.821	107
191.890	-651
191.959	160
192.028	-357
192.097	358
192.166	220
192.235	-202
192.304	423
192.373	-131
192.442	-226
192.511	157
192.580	18
192.650	551
192.719	-44
192.788	142
192.857	-326
192.926	-101
192.995	-56
193.064	-181
193.133	-65
193.202	371
193.271	-456
193.340	190
193.409	259
193.478	251
193.547	-214
193.615	-351
193.684	-318
193.753	-825
193.822	1
193.891	-219
193.960	126
194.029	-220
194.098	225
194.167	-105
194.236	5
194.305	-26
194.374	7
194.443	-275
194.512	-198
194.580	55
194.649	-356
194.718	-197
194.787	-491
194.856	-1109
194.925	-46
194.994	-151
195.062	-112
195.131	328
195.200	265
195.269	-575
195.338	-354
195.407	695
195.475	-45
195.544	-187
195.613	-134
195.682	553
195.751	-69
195.819	-365
195.888	536
195.957	766
196.026	144
196.094	92
196.163	-309
196.232	83
196.301	-438
196.369	-303
196.438	677
196.507	-6
196.576	-385
196.644	174
196.713	116
196.782	-315
196.850	-600
196.919	262
196.988	-52
197.056	93
197.125	41
197.194	664
197.262	-392
197.331	-43
197.400	-265
197.468	-555
197.537	-531
197.606	308
197.674	367
197.743	213
197.812	-30
197.880	944
197.949	-140
198.017	264
198.086	-158
198.155	-435
198.223	-592
198.292	-622
198.360	-572
198.429	318
198.497	11
198.566	-257
198.635	-173
198.703	420
198.772	245
198.840	128
198.909	-615
198.977	-103
199.046	-438
199.114	367
199.183	-398
199.251	1246
199.320	-972
199.388	-459
199.457	-619
199.525	414
199.594	-664
199.662	-13
199.731	-162
199.799	714
199.867	-215
199.936	268
200.004	37
200.073	897
200.141	41
200.210	-539
200.278	-234
200.346	223
200.415	-165
200.483	-76
200.552	-194
200.620	52
200.688	109
200.757	-68
200.825	-143
200.893	-399
200.962	267
201.030	-374
201.098	-67
201.167	-58
201.235	-536
201.303	-234
201.372	642
201.440	-366
201.508	39
201.577	234
201.645	-379
201.713	-698
201.781	-697
201.850	-76
201.918	-296
201.986	170
202.055	195
202.123	243
202.191	217
202.259	-222
202.327	-463
202.396	-464
202.464	-427
202.532	-133
202.600	624
202.669	1041
202.737	144
202.805	119
202.873	-194
202.941	1058
203.009	-59
203.078	-304
203.146	-115
203.214	-509
203.282	-271
203.350	579
203.418	-696
203.487	143
203.555	-483
203.623	-59
203.691	269
203.759	-173
203.827	302
203.895	-515
203.963	27
204.031	228
204.099	-38
204.168	158
204.236	475
204.304	61
204.372	-395
204.440	-122
204.508	-218
204.576	-464
204.644	-199
204.712	-142
204.780	-453
204.848	-44
204.916	-639
204.984	-76
205.052	188
205.120	-23
205.188	-466
205.256	-354
205.324	-563
205.392	384
205.460	100
205.528	-632
205.596	257
205.664	-119
205.732	-671
205.799	545
205.867	593
205.935	-1113
206.003	63
206.071	-353
206.139	-127
206.207	368
206.275	135
206.343	-261
206.411	-617
206.478	-181
206.546	-768
206.614	-22
206.682	-700
206.750	326
206.818	406
206.885	572
206.953	-674
207.021	597
207.089	83
207.157	-747
207.225	289
207.292	-744
207.360	-786
207.428	-102
207.496	-518
207.563	264
207.631	-1020
207.699	-277
207.767	-68
207.834	-660
207.902	-49
207.970	-116
208.038	-365
208.105	-155
208.173	-349
208.241	-486
208.309	470
208.376	-142
208.444	-320
208.512	-835
208.579	-2195
208.647	-343
208.715	394
208.782	-75
208.850	-561
208.918	-459
208.985	-62
209.053	-294
209.120	-944
209.188	-1003
209.256	-438
209.323	-1148
209.391	-1170
209.459	992
209.526	-147
209.594	-1038
209.661	-245
209.729	-331
209.796	113
209.864	283
209.932	-1386
209.999	1101
210.067	63
210.134	-269
210.202	-419
210.269	636
210.337	-46
210.404	-529
210.472	-199
210.539	-943
210.607	-399
210.674	-81
210.742	-392
210.809	-522
210.877	-573
210.944	-108
211.012	-1507
211.079	1372
211.146	-285
211.214	-22
211.281	-279
211.349	328
211.416	47
211.484	-556
211.551	-164
211.618	-411
211.686	-586
211.753	-859
211.821	231
211.888	-392
211.955	185
212.023	-1303
212.090	-62
212.157	-280
212.225	-35
212.292	-271
212.359	118
212.427	616
212.494	-101
212.561	-381
212.629	-1231
212.696	-625
212.763	-3
212.831	-1087
212.898	113
212.965	-507
213.032	282
213.100	-170
213.167	290
213.234	-259
213.301	-138
213.369	474
213.436	164
213.503	-620
213.570	-556
213.638	-439
213.705	-1838
213.772	-569
213.839	-636
213.906	465
213.973	-362
214.041	163
214.108	-193
214.175	-226
214.242	-882
214.309	-266
214.376	-380
214.444	-130
214.511	269
214.578	-867
214.645	-219
214.712	87
214.779	156
214.846	-612
214.913	237
214.980	-16
215.048	-1310
215.115	1033
215.182	-614
215.249	-803
215.316	-1251
215.383	-549
215.450	-477
215.517	-291
215.584	-524
215.651	-240
215.718	123
215.785	-23
215.852	-1110
215.919	822
215.986	-499
216.053	-285
216.120	-593
216.187	174
216.254	-649
216.321	-165
216.388	-734
216.455	-164
216.522	-24
216.589	764
216.656	-412
216.722	-5
216.789	-744
216.856	-533
216.923	-322
216.990	510
217.057	-731
217.124	-669
217.191	-1242
217.258	-165
217.324	-1500
217.391	377
217.458	-404
217.525	-163
217.592	209
217.659	-1277
217.725	368
217.792	182
217.859	-276
217.926	-965
217.993	-407
218.059	-238
218.126	92
218.193	-5
218.260	-1072
218.327	-917
218.393	-879
218.460	354
218.527	-414
218.594	-553
218.660	-824
218.727	-526
218.794	-1007
218.860	157
218.927	-1185
218.994	-909
219.061	-1216
219.127	-263
219.194	-949
219.261	363
219.327	-629
219.394	131
219.461	-2569
219.527	-554
219.594	-325
219.661	-104
219.727	-926
219.794	753
219.860	-1452
219.927	-958
219.994	267
220.060	932
220.127	1228
220.193	478
220.260	-538
220.326	769
220.393	-1125
220.460	-530
220.526	-889
220.593	-736
220.659	1468
220.726	-917
220.792	-672
220.859	-276
220.925	-946
220.992	-1171
221.058	-804
221.125	41
221.191	-318
221.258	-1134
221.324	132
221.391	-868
221.457	-1236
221.524	-516
221.590	546
221.657	-1
221.723	-178
221.789	-1341
221.856	-71
221.922	-898
221.989	406
222.055	199
222.121	-1364
222.188	1256
222.254	-488
222.321	-284
222.387	-275
222.453	399
222.520	-768
222.586	-641
222.652	-399
222.719	-1178
222.785	-441
222.851	-526
222.918	-818
222.984	212
223.050	-826
223.116	-2001
223.183	340
223.249	-719
223.315	-864
223.382	-400
223.448	-93
223.514	-604
223.580	-448
223.647	-130
223.713	-1245
223.779	-376
223.845	-529
223.911	-373
223.978	-708
224.044	-126
224.110	-1208
224.176	88
224.242	-768
224.309	-1625
224.375	-128
224.441	-165
224.507	-720
224.573	-1589
224.639	-390
224.705	-1053
224.772	163
224.838	-920
224.904	300
224.970	-344
225.036	-686
225.102	-861
225.168	193
225.234	-4
225.300	-1057
225.366	-426
225.432	-298
225.499	-209
225.565	-333
225.631	76
225.697	-438
225.763	-731
225.829	-504
225.895	-393
225.961	-177
226.027	-77
226.093	-841
226.159	803
226.225	-36
226.291	-258
226.357	-565
226.423	-155
226.489	-292
226.554	-491
226.620	-333
226.686	-858
226.752	138
226.818	-345
226.884	-620
226.950	152
227.016	-633
227.082	444
227.148	-471
227.214	-16
227.279	-750
227.345	-335
227.411	-126
227.477	85
227.543	2158
227.609	1736
227.674	931
227.740	-143
227.806	426
227.872	-555
227.938	-206
228.003	-70
228.069	-550
228.135	-1102
228.201	-297
228.267	-572
228.332	-596
228.398	-1676
228.464	-232
228.530	-750
228.595	-417
228.661	-1381
228.727	-1656
228.792	1012
228.858	-798
228.924	-2005
228.990	513
229.055	-2028
229.121	-166
229.187	-483
229.252	-76
229.318	-668
229.384	361
229.449	-1166
229.515	-2007
229.581	-1322
229.646	643
229.712	-202
229.777	-796
229.843	-437
229.909	-572
229.974	-580
230.040	-783
230.105	-507
230.171	-1484
230.236	-307
230.302	-959
230.368	-1153
230.433	-1111
230.499	-700
230.564	299
230.630	-1914
230.695	-1060
230.761	-252
230.826	-1998
230.892	382
230.957	-1485
231.023	-1133
231.088	3
231.154	-655
231.219	-938
231.284	-322
231.350	-868
231.415	-1076
231.481	32
231.546	-829
231.612	-696
231.677	-1226
231.742	-1952
231.808	343
231.873	-1182
231.939	-2713
232.004	256
232.069	849
232.135	-1146
232.200	-217
232.265	-224
232.331	-122
232.396	-773
232.461	-671
232.527	-679
232.592	-1646
232.657	-689
232.723	-1347
232.788	-1009
232.853	-92
232.918	-338
232.984	-1993
233.049	-966
233.114	-1538
233.179	-253
233.245	153
233.310	-432
233.375	-1811
233.440	-545
233.506	-447
233.571	-1851
233.636	-997
233.701	-335
233.766	-1356
233.832	74
233.897	-1319
233.962	-1557
234.027	-187
234.092	-418
234.157	-764
234.222	-925
234.288	-941
234.353	-1071
234.418	-268
234.483	-234
234.548	-572
234.613	-996
234.678	-331
234.743	-1170
234.808	-268
234.873	-2200
234.938	609
235.004	-682
235.069	-190
235.134	-614
235.199	-9
235.264	-1097
235.329	-2362
235.394	-429
235.459	509
235.524	-2005
235.589	-63
235.654	-312
235.719	-2125
235.784	-445
235.849	-643
235.913	-1085
235.978	-323
236.043	-684
236.108	-131
236.173	-1028
236.238	-290
236.303	-1331
236.368	-1433
236.433	350
236.498	-818
236.563	-463
236.627	-1179
236.692	605
236.757	392
236.822	-768
236.887	-1172
236.952	97
237.017	-1768
237.081	333
237.146	-1196
237.211	438
237.276	757
237.341	844
237.405	-1696
237.470	-1363
237.535	-524
237.600	-313
237.664	-774
237.729	-1574
237.794	-1759
237.859	210
237.923	-797
237.988	-548
238.053	377
238.118	-1015
238.182	-259
238.247	889
238.312	-1055
238.376	-119
238.441	-2414
238.506	487
238.570	-1359
238.635	616
238.700	-624
238.764	-1214
238.829	-752
238.893	-1210
238.958	636
239.023	-701
239.087	-75
239.152	-426
239.216	-1434
239.281	150
239.346	-97
239.410	63
239.475	-763
239.539	292
239.604	-1233
239.668	42
239.733	60
239.797	1858
239.862	5245
239.926	3554
239.991	1884
240.055	340
240.120	-839
240.184	-167
240.249	-1098
240.313	-1176
240.378	-278
240.442	-567
240.507	-423
240.571	-970
240.635	-677
240.700	-1211
240.764	-639
240.829	-595
240.893	-1045
240.957	-461
241.022	-372
241.086	265
241.151	-1694
241.215	-1513
241.279	437
241.344	-1162
241.408	72
241.472	-2255
241.537	1087
241.601	-525
241.665	-1166
241.730	-251
241.794	743
241.858	-1249
241.922	-935
241.987	-762
242.051	-1034
242.115	-1446
242.179	-337
242.244	-858
242.308	-440
242.372	-858
242.436	-1327
242.501	-1274
242.565	-773
242.629	-1465
242.693	-116
242.757	-1338
242.822	-635
242.886	-78
242.950	-39
243.014	-2207
243.078	-367
243.142	-760
243.206	-1736
243.271	-137
243.335	-1390
243.399	109
243.463	-701
243.527	553
243.591	-91
243.655	-604
243.719	-1632
243.783	13
243.847	-305
243.911	-586
243.975	-1169
244.040	-1986
244.104	832
244.168	-911
244.232	-764
244.296	-578
244.360	-565
244.424	-1256
244.488	-733
244.552	455
244.615	-2135
244.679	-250
244.743	-836
244.807	-1967
244.871	620
244.935	-707
244.999	-1750
245.063	-1317
245.127	385
245.191	-428
245.255	-593
245.319	-354
245.383	-2062
245.446	511
245.510	-1552
245.574	-512
245.638	-694
245.702	-2008
245.766	-88
245.829	236
245.893	-1003
245.957	-1662
246.021	117
246.085	-977
246.149	-731
246.212	820
246.276	90
246.340	-921
246.404	-1055
246.467	395
246.531	-2826
246.595	-68
246.659	-188
246.722	-1879
246.786	-542
246.850	-1076
246.913	-838
246.977	-1938
247.041	-81
247.104	-602
247.168	-658
247.232	-704
247.295	667
247.359	-60
247.423	-807
247.486	-524
247.550	317
247.614	-697
247.677	-461
247.741	-522
247.804	-1121
247.868	-61
247.932	-183
247.995	1867
248.059	-585
248.122	-1477
248.186	270
248.249	-842
248.313	1059
248.376	2434
248.440	461
248.503	-1314
248.567	1038
248.630	-1279
248.694	-367
248.757	620
248.821	2073
248.884	1303
248.948	-465
249.011	1458
249.075	2179
249.138	2231
249.202	-362
249.265	-374
249.328	653
249.392	-1852
249.455	-206
249.519	-1528
249.582	-883
249.645	-151
249.709	70
249.772	-744
249.835	-715
249.899	-423
249.962	-432
250.025	-560
250.089	-733
250.152	1238
250.215	-108
250.279	-1238
250.342	-435
250.405	-419
250.468	-882
250.532	-1244
250.595	-94
250.658	-269
250.721	3826
250.785	-146
250.848	1388
250.911	-1559
250.974	-183
251.038	-1395
251.101	1210
251.164	-821
251.227	74
251.290	-1243
251.354	-126
251.417	697
251.480	2078
251.543	344
251.606	5388
251.669	3305
251.732	491
251.795	753
251.859	856
251.922	2925
251.985	1205
252.048	569
252.111	230
252.174	-1100
252.237	165
252.300	3011
252.363	911
252.426	4933
252.489	891
252.552	62
252.615	-1251
252.678	-39
252.741	907
252.804	31
252.867	4523
252.930	1750
252.993	1203
253.056	253
253.119	-593
253.182	-1185
253.245	-649
253.308	224
253.371	-342
253.434	527
253.497	449
253.559	1151
253.622	6
253.685	-621
253.748	323
253.811	-978
253.874	206
253.937	-555
254.000	-32
254.062	-180
254.125	71
254.188	120
254.251	-404
254.314	-1083
254.376	-1238
254.439	248
254.502	149
254.565	436
254.628	1336
254.690	-317
254.753	-481
254.816	-746
254.878	-413
254.941	303
255.004	507
255.067	-232
255.129	-902
255.192	-554
255.255	-2013
255.317	-648
255.380	304
255.443	-618
255.505	-374
255.568	-1102
255.631	-904
255.693	-892
255.756	-856
255.819	260
255.881	-520
255.944	-380
256.006	-850
256.069	-870
256.132	-597
256.194	-410
256.257	-262
256.319	-692
256.382	-729
256.444	71
256.507	-419
256.569	-1081
256.632	-989
256.694	-1106
256.757	-350
256.819	381
256.882	-1090
256.944	-472
257.007	446
257.069	-956
257.132	-1256
257.194	-30
257.257	-574
257.319	-1372
257.381	-1426
257.444	490
257.506	1011
257.569	1830
257.631	454
257.693	-33
257.756	-381
257.818	-593
257.880	-779
257.943	130
258.005	-786
258.067	-937
258.130	17
258.192	-346
258.254	-514
258.317	-392
258.379	503
258.441	-928
258.503	418
258.566	-992
258.628	542
258.690	-1264
258.753	610
258.815	-406
258.877	-907
258.939	-260
259.001	138
259.064	-848
259.126	-1119
259.188	-661
259.250	-196
259.312	-937
259.375	293
259.437	-648
259.499	561
259.561	-942
259.623	-315
259.685	-1169
259.747	-913
259.809	184
259.872	312
259.934	1027
259.996	1690
260.058	-338
260.120	-1326
260.182	-748
260.244	237
260.306	-878
260.368	452
260.430	-1457
260.492	-519
260.554	-33
260.616	-332
260.678	-516
260.740	426
260.802	-866
260.864	144
260.926	-1165
260.988	661
261.050	-1352
261.112	-679
261.174	483
261.236	571
261.298	-498
261.359	-162
261.421	886
261.483	-779
261.545	144
261.607	-1253
261.669	-996
261.731	182
261.793	640
261.854	-901
261.916	245
261.978	-691
262.040	617
262.102	713
262.164	-634
262.225	-194
262.287	-243
262.349	-811
262.411	-256
262.472	640
262.534	-754
262.596	-399
262.658	-3
262.719	-809
262.781	445
262.843	-887
262.904	-782
262.966	-301
263.028	-373
263.090	742
263.151	933
263.213	619
263.275	-1095
263.336	-605
263.398	128
263.459	-1158
263.521	-281
263.583	899
263.644	-458
263.706	-403
263.767	-978
263.829	-115
263.891	-501
263.952	-241
264.014	-1365
264.075	-279
264.137	-262
264.198	-360
264.260	-723
264.321	228
264.383	-710
264.444	476
264.506	-330
264.567	-450
264.629	-143
264.690	-2420
264.752	-151
264.813	-635
264.875	-624
264.936	693
264.998	-1106
265.059	-608
265.120	-75
265.182	-549
265.243	-1030
265.305	83
265.366	-1190
265.427	-686
265.489	669
265.550	-1469
265.611	-884
265.673	-1320
265.734	-966
265.795	-337
265.857	-1326
265.918	-1240
265.979	-949
266.040	158
266.102	-253
266.163	236
266.224	-1348
266.286	-330
266.347	-1209
266.408	-490
266.469	-688
266.530	-361
266.592	-992
266.653	-282
266.714	-657
266.775	-624
266.836	92
266.898	-987
266.959	-476
267.020	57
267.081	207
267.142	-315
267.203	-484
267.264	-1510
267.326	864
267.387	-238
267.448	-401
267.509	375
267.570	-188
267.631	-1149
267.692	-527
267.753	-316
267.814	-1334
267.875	-484
267.936	-400
267.997	-532
268.058	-504
268.119	-660
268.180	602
268.241	-622
268.302	-434
268.363	-301
268.424	-1282
268.485	-89
268.546	-971
268.607	-477
268.668	-749
268.729	-534
268.790	-1395
268.851	-345
268.912	-1052
268.972	-232
269.033	-850
269.094	-980
269.155	-195
269.216	-859
269.277	-804
269.338	-884
269.398	-130
269.459	-644
269.520	-852
269.581	-432
269.642	-914
269.702	-781
269.763	-794
269.824	-997
269.885	-198
269.945	-551
270.006	-834
270.067	-1155
270.128	-1414
270.188	-994
270.249	-1338
270.310	-639
270.370	-223
270.431	-748
270.492	-1185
270.553	-983
270.613	-512
270.674	-855
270.734	-703
270.795	-570
270.856	-576
270.916	-776
270.977	-356
271.038	-55
271.098	-120
271.159	-1067
271.219	-747
271.280	59
271.340	249
271.401	-499
271.462	-921
271.522	-1426
271.583	-469
271.643	-627
271.704	-595
271.764	498
271.825	380
271.885	1902
271.946	2594
272.006	690
272.066	756
272.127	3316
272.187	2627
272.248	1351
272.308	-80
272.369	1189
272.429	900
272.489	-411
272.550	170
272.610	783
272.671	28
272.731	-418
272.791	-1026
272.852	-253
272.912	4
272.972	-496
273.033	-675
273.093	-185
273.153	445
273.214	-313
273.274	638
273.334	1742
273.394	3084
273.455	1520
273.515	1227
273.575	2929
273.635	1122
273.696	2178
273.756	3439
273.816	2011
273.876	1293
273.936	503
273.997	1113
274.057	618
274.117	-433
274.177	393
274.237	1730
274.297	2880
274.358	42
274.418	781
274.478	1227
274.538	-156
274.598	-1029
274.658	929
274.718	177
274.778	640
274.838	179
274.898	-195
274.958	646
275.018	1827
275.078	-36
275.138	39
275.198	-295
275.258	-1092
275.318	26
275.378	-317
275.438	-74
275.498	-172
275.558	-300
275.618	1133
275.678	61
275.738	129
275.798	-649
275.858	-676
275.918	-570
275.978	-856
276.038	-151
276.098	99
276.157	472
276.217	826
276.277	646
276.337	-794
276.397	-507
276.457	-301
276.517	430
276.576	496
276.636	-21
276.696	70
276.756	504
276.815	-214
276.875	399
276.935	121
276.995	5
277.055	-241
277.114	-74
277.174	-653
277.234	683
277.293	101
277.353	-173
277.413	-319
277.472	224
277.532	551
277.592	1583
277.651	5682
277.711	12875
277.771	3927
277.830	12728
277.890	11911
277.950	7420
278.009	22866
278.069	9774
278.128	9505
278.188	14421
278.248	6439
278.307	14357
278.367	10354
278.426	2431
278.486	1748
278.545	912
278.605	1307
278.664	1136
278.724	930
278.783	2013
278.843	3946
278.902	1876
278.962	830
279.021	1152
279.081	3688
279.140	2918
279.199	1740
279.259	2619
279.318	3634
279.378	4271
279.437	7997
279.496	20341
279.556	61423
279.615	52366
279.675	18497
279.734	9254
279.793	8685
279.853	12342
279.912	6536
279.971	3792
280.031	3310
280.090	5232
280.149	9326
280.208	11102
280.268	41473
280.327	46494
280.386	13348
280.445	6720
280.505	4570
280.564	3215
280.623	2770
280.682	2245
280.742	2914
280.801	1367
280.860	1592
280.919	947
280.978	1402
281.037	709
281.097	-137
281.156	1835
281.215	1088
281.274	401
281.333	1890
281.392	1520
281.451	710
281.510	1314
281.569	287
281.628	1050
281.688	788
281.747	595
281.806	694
281.865	1287
281.924	262
281.983	93
282.042	627
282.101	215
282.160	625
282.219	663
282.278	7
282.337	1107
282.396	98
282.454	-175
282.513	473
282.572	1376
282.631	1243
282.690	1062
282.749	287
282.808	494
282.867	693
282.926	546
282.985	886
283.043	172
283.102	230
283.161	671
283.220	1213
283.279	2239
283.338	1580
283.396	161
283.455	492
283.514	1388
283.573	1796
283.631	926
283.690	1045
283.749	116
283.808	1772
283.866	1938
283.925	1602
283.984	1161
284.043	1803
284.101	1985
284.160	1429
284.219	2451
284.277	2966
284.336	3459
284.395	4342
284.453	3611
284.512	4387
284.570	5747
284.629	5375
284.688	8150
284.746	9581
284.805	11216
284.863	15091
284.922	19082
284.981	23609
285.039	32056
285.098	44148
285.156	57453
285.215	45056
285.273	38795
285.332	55349
285.390	49903
285.449	37486
285.507	28058
285.566	20047
285.624	16452
285.683	12841
285.741	9959
285.799	8670
285.858	6263
285.916	5576
285.975	4581
286.033	4732
286.091	3247
286.150	3313
286.208	3207
286.267	2047
286.325	2373
286.383	2680
286.442	2254
286.500	1152
286.558	1595
286.616	1168
286.675	2019
286.733	1671
286.791	1187
286.850	738
286.908	624
286.966	945
287.024	222
287.083	106
287.141	494
287.199	1365
287.257	827
287.315	825
287.374	93
287.432	524
287.490	347
287.548	-26
287.606	52
287.664	613
287.723	853
287.781	907
287.839	-85
287.897	460
287.955	317
288.013	558
288.071	1165
288.129	3017
288.187	14121
288.245	5724
288.303	1834
288.361	208
288.419	131
288.477	75
288.535	433
288.593	-351
288.651	-244
288.709	83
288.767	84
288.825	-475
288.883	136
288.941	574
288.999	-439
289.057	-767
289.115	454
289.173	505
289.231	20
289.289	-691
289.346	-441
289.404	122
289.462	353
289.520	-613
289.578	183
289.636	-383
289.694	-177
289.751	433
289.809	-5
289.867	272
289.925	9
289.983	442
290.040	291
290.098	-241
290.156	-729
290.214	10
290.271	-188
290.329	769
290.387	-24
290.444	630
290.502	-351
290.560	279
290.617	-244
290.675	208
290.733	-162
290.790	158
290.848	-353
290.906	46
290.963	282
291.021	-388
291.078	-364
291.136	-163
291.194	254
291.251	67
291.309	-295
291.366	612
291.424	313
291.481	105
291.539	-157
291.596	1262
291.654	-256
291.711	-28
291.769	594
291.826	-7
291.884	1170
291.941	-577
291.999	-41
292.056	-96
292.114	-585
292.171	-566
292.228	754
292.286	-215
292.343	-668
292.401	89
292.458	50
292.515	141
292.573	260
292.630	-88
292.687	322
292.745	288
292.802	-679
292.859	453
292.917	1857
292.974	1125
293.031	596
293.089	-491
293.146	-298
293.203	51
293.260	-92
293.318	-352
293.375	114
293.432	159
293.489	494
293.546	500
293.604	256
293.661	1353
293.718	4145
293.775	2883
293.832	2083
293.889	2502
293.947	1691
294.004	702
294.061	593
294.118	581
294.175	2097
294.232	3292
294.289	1957
294.346	386
294.403	261
294.460	203
294.517	-363
294.574	-106
294.631	-741
294.688	229
294.745	780
294.802	3222
294.859	2059
294.916	-243
294.973	-265
295.030	-269
295.087	-62
295.144	177
295.201	-66
295.258	-233
295.315	-489
295.372	550
295.429	2535
295.486	1141
295.542	-138
295.599	-435
295.656	223
295.713	44
295.770	1753
295.827	-63
295.883	76
295.940	-104
295.997	-240
296.054	-897
296.111	-272
296.167	423
296.224	-767
296.281	-676
296.338	-53
296.394	-910
296.451	-1357
296.508	175
296.564	1196
296.621	878
296.678	2906
296.734	4762
296.791	1218
296.848	32
296.904	-332
296.961	1530
297.018	2212
297.074	1622
297.131	608
297.187	-111
297.244	371
297.301	2795
297.357	7046
297.414	1425
297.470	-118
297.527	-218
297.583	-86
297.640	149
297.696	339
297.753	-266
297.809	-1180
297.866	-119
297.922	-619
297.979	-648
298.035	-470
298.092	492
298.148	456
298.204	862
298.261	150
298.317	900
298.374	3242
298.430	2721
298.486	427
298.543	-207
298.599	189
298.656	-332
298.712	-633
298.768	208
298.824	-493
298.881	-867
298.937	-747
298.993	-594
299.050	-497
299.106	316
299.162	-531
299.218	42
299.275	-107
299.331	567
299.387	910
299.443	4598
299.500	9326
299.556	7304
299.612	2292
299.668	2045
299.724	5975
299.780	9379
299.837	2748
299.893	2041
299.949	5228
300.005	9463
300.061	6699
300.117	12616
300.173	5747
300.229	2153
300.285	1304
300.341	1771
300.397	737
300.453	-265
300.510	-503
300.566	870
300.622	2574
300.678	10073
300.734	14513
300.790	7012
300.845	6338
300.901	7275
300.957	9821
301.013	6437
301.069	1433
301.125	824
301.181	-47
301.237	693
301.293	722
301.349	358
301.405	-238
301.461	-204
301.516	-298
301.572	-468
301.628	-610
301.684	343
301.740	-368
301.796	1329
301.851	767
301.907	830
301.963	1343
302.019	2280
302.074	10005
302.130	10528
302.186	5249
302.242	1257
302.297	574
302.353	357
302.409	990
302.464	1018
302.520	-102
302.576	1847
302.631	3677
302.687	464
302.743	1076
302.798	-664
302.854	-732
302.910	-475
302.965	-1000
303.021	-469
303.076	-670
303.132	-78
303.187	196
303.243	247
303.299	-185
303.354	-721
303.410	-77
303.465	-660
303.521	-672
303.576	-660
303.632	-127
303.687	734
303.743	1719
303.798	3403
303.853	131
303.909	-32
303.964	21
304.020	641
304.075	-32
304.130	843
304.186	-484
304.241	1875
304.297	221
304.352	-310
304.358	-300
304.407	-216
304.449	-233
304.463	-237
304.518	-316
304.539	-311
304.573	-322
304.629	-599
304.630	-586
304.684	29
304.720	1283
304.739	1892
304.794	4589
304.811	3788
304.850	1842
304.902	886
304.905	828
304.960	-182
304.992	-203
305.015	-237
305.071	231
305.083	193
305.126	120
305.173	-600
305.181	-717
305.236	-27
305.264	-18
305.292	-32
305.347	-440
305.354	-375
305.402	39
305.445	116
305.457	119
305.512	138
305.535	36
305.567	-13
305.622	-252
305.626	-196
305.678	756
305.716	1262
305.733	1423
305.788	3286
305.807	2971
305.843	2576
305.897	3392
305.898	3395
305.953	3696
305.988	2117
306.008	1291
306.063	684
306.078	529
306.118	310
306.168	-89
306.173	-128
306.228	-458
306.259	-14
306.283	310
306.338	327
306.349	324
306.393	281
306.440	-16
306.448	-50
306.503	246
306.530	377
306.558	575
306.613	488
306.620	559
306.668	1197
306.711	2177
306.723	2251
306.778	2065
306.801	1546
306.833	1233
306.888	807
306.892	774
306.943	115
306.982	357
306.997	520
307.052	112
307.072	219
307.107	373
307.162	391
307.163	393
307.217	839
307.253	881
307.272	875
307.327	1003
307.343	910
307.381	633
307.434	809
307.436	837
307.491	1295
307.524	1574
307.546	1651
307.600	1807
307.614	1738
307.655	1202
307.704	760
307.710	773
307.765	450
307.795	371
307.819	235
307.874	1062
307.885	917
307.929	675
307.975	1654
307.984	1787
308.038	1785
308.065	2036
308.093	3700
308.148	7049
308.156	7902
308.202	11508
308.246	15184
308.257	15069
308.312	7666
308.336	5067
308.366	3948
308.421	3062
308.426	2960
308.475	2320
308.517	2250
308.530	2153
308.585	1795
308.607	1758
308.639	2122
308.694	2540
308.697	2571
308.748	3105
308.787	3143
308.803	3092
308.857	3301
308.877	3322
308.912	3833
308.967	5277
308.967	5296
309.021	10005
309.058	13345
309.076	14979
309.130	21947
309.148	23686
309.185	32275
309.238	45638
309.239	45854
309.293	56115
309.328	58753
309.348	53200
309.402	31520
309.418	25461
309.457	19877
309.508	14645
309.511	14810
309.566	20407
309.598	24293
309.620	32575
309.674	56583
309.688	62884
309.729	57044
309.778	43209
309.783	42029
309.837	25718
309.868	17198
309.892	14737
309.946	10696
309.959	10023
310.001	9170
310.049	8173
310.055	7915
310.109	6034
310.139	4627
310.163	3783
310.218	2659
310.229	2469
310.272	2831
310.319	3248
310.326	3130
310.381	2065
310.409	1538
310.435	1387
310.489	1239
310.499	1224
310.543	1546
310.589	1878
310.598	1795
310.652	1064
310.679	808
310.706	1162
310.760	1787
310.769	1868
310.814	1951
310.859	2157
310.868	2135
310.923	1700
310.948	1545
310.977	1609
311.031	2011
311.038	2008
311.085	1803
311.128	1655
311.139	1685
311.193	1891
311.218	1966
311.247	1907
311.301	1731
311.308	1711
311.356	1337
311.398	919
311.410	968
311.464	1207
311.488	1331
311.518	1494
311.572	1826
311.578	1842
311.626	1576
311.668	1424
311.680	1427
311.734	1356
311.758	1332
311.788	1391
311.842	1473
311.847	1482
311.896	1691
311.937	1819
311.950	1877
312.004	2143
312.027	2245
312.058	1917
312.112	1325
312.117	1265
312.165	1319
312.207	1365
312.297	924
312.386	767
312.476	2101
312.566	1147
312.656	1572
312.745	2128
312.835	1479
312.925	1967
313.015	584
313.104	1719
313.194	1781
313.284	1519
313.374	1809
313.463	2364
313.553	2445
313.643	1563
313.732	2357
313.822	2345
313.912	3216
314.001	2687
314.091	3469
314.180	2528
314.270	3252
314.360	2183
314.449	3548
314.539	1515
314.628	2775
314.718	2133
314.808	3004
314.897	3541
314.987	3940
315.076	4220
315.166	3976
315.255	3241
315.345	3004
315.434	2985
315.524	3386
315.613	3866
315.703	5039
315.792	13636
315.881	48629
315.971	12636
316.060	5232
316.150	3544
316.239	3489
316.328	2660
316.418	2970
316.507	3025
316.597	4112
316.686	3483
316.775	3231
316.865	2830
316.954	2681
317.043	3332
317.133	2729
317.222	2511
317.311	2274
317.400	891
317.490	4313
317.579	3056
317.668	4978
317.757	7494
317.847	23353
317.936	72891
318.025	19218
318.114	17507
318.203	6885
318.293	2986
318.382	4142
318.471	5176
318.560	4568
318.649	4343
318.738	2814
318.828	1938
318.917	2468
319.006	1541
319.095	2017
319.184	2864
319.273	3260
319.362	2058
319.451	1840
319.540	1192
319.629	2649
319.718	2641
319.807	1933
319.896	2483
319.985	3528
320.074	2170
320.163	1594
320.252	1614
320.341	2687
320.430	1503
320.519	2800
320.608	1833
320.697	3250
320.786	3536
320.875	4099
320.964	4627
321.053	5129
321.142	5124
321.230	5991
321.319	6311
321.408	8892
321.497	8444
321.586	6705
321.675	4085
321.764	4405
321.852	4430
321.941	4877
322.030	4821
322.119	5413
322.207	6940
322.296	7055
322.385	8657
322.474	11934
322.562	13258
322.651	8301
322.740	6130
322.829	5954
322.917	4107
323.006	3833
323.095	3461
323.183	3336
323.272	2920
323.361	3160
323.449	3935
323.538	2086
323.626	3533
323.715	2519
323.804	1969
323.892	2276
323.981	2020
324.069	3071
324.158	2677
324.246	3106
324.335	1632
324.424	2182
324.512	1877
324.601	2796
324.689	2324
324.778	3116
324.866	2018
324.954	2469
325.043	1505
325.131	1199
325.220	2831
325.308	2563
325.397	1737
325.485	2290
325.574	1143
325.662	1176
325.750	1413
325.839	2187
325.927	1497
326.015	2228
326.104	1787
326.192	1928
326.280	1455
326.369	1921
326.457	1223
326.545	2760
326.634	1536
326.722	1513
326.810	2356
326.898	2663
326.987	1431
327.075	1713
327.163	2412
327.251	2594
327.340	2060
327.428	4189
327.516	3746
327.604	2855
327.692	2267
327.781	1788
327.869	1201
327.957	1527
328.045	424
328.133	1409
328.221	781
328.309	1436
328.397	1589
328.485	2973
328.574	3747
328.662	5290
328.750	2684
328.838	2165
328.926	1564
329.014	1409
329.102	1767
329.190	2217
329.278	1333
329.366	2357
329.454	1080
329.542	1339
329.630	678
329.718	1976
329.806	1148
329.893	2424
329.981	480
330.069	1230
330.157	1816
330.245	2638
330.333	2602
330.421	2102
330.509	1749
330.597	2937
330.684	1545
330.772	2308
330.860	1288
330.948	1723
331.036	1282
331.123	1399
331.211	1966
331.299	2080
331.387	1947
331.475	1894
331.562	1551
331.650	1936
331.738	1845
331.825	1570
331.913	1844
332.001	1356
332.089	1916
332.176	1600
332.264	1822
332.352	1930
332.439	2107
332.527	1767
332.614	1479
332.702	2715
332.790	1413
332.877	3148
332.965	7380
333.052	6961
333.140	8287
333.228	20012
333.315	4868
333.403	3104
333.490	3549
333.578	8945
333.665	30449
333.753	11019
333.840	2642
333.928	3387
334.015	3344
334.103	3776
334.190	5726
334.278	6960
334.365	11045
334.452	12661
334.540	7343
334.627	6114
334.715	7040
334.802	10479
334.889	21137
334.977	32428
335.064	19005
335.151	8144
335.239	5257
335.326	4807
335.413	5221
335.501	4629
335.588	5071
335.675	5718
335.762	5995
335.850	8406
335.937	12325
336.024	23712
336.111	42775
336.199	41188
336.286	16725
336.373	8525
336.460	4653
336.547	4825
336.635	3851
336.722	3460
336.809	3591
336.896	2948
336.983	2794
337.070	3523
337.157	3143
337.245	3454
337.332	3547
337.419	2580
337.506	2304
337.593	2179
337.680	2228
337.767	2943
337.854	1873
337.941	2123
338.028	1879
338.115	1251
338.202	2797
338.289	2944
338.376	2843
338.463	2182
338.550	1806
338.637	2423
338.724	2574
338.811	2945
338.898	2100
338.984	1072
339.071	1749
339.158	1698
339.245	2066
339.332	2821
339.419	2006
339.506	3188
339.593	260
339.679	2559
339.766	2020
339.853	1815
339.940	2044
340.027	2450
340.113	1744
340.200	2913
340.287	2150
340.374	1317
340.460	2160
340.547	512
340.634	3146
340.720	3943
340.807	2055
340.894	1746
340.980	1800
341.067	1166
341.154	2722
341.240	1718
341.327	2584
341.414	2820
341.500	723
341.587	2277
341.674	1914
341.760	3163
341.847	2065
341.933	1364
342.020	1357
342.106	1977
342.193	1516
342.279	2429
342.366	1355
342.452	2276
342.539	1815
342.625	2025
342.712	3193
342.798	2902
342.885	1625
342.971	1411
343.058	1002
343.144	1930
343.230	2170
343.317	1808
343.403	1889
343.490	2153
343.576	1492
343.662	1686
343.749	1586
343.835	2600
343.921	3240
344.008	13570
344.094	23256
344.180	5080
344.267	2406
344.353	4792
344.439	4124
344.525	2434
344.612	2161
344.698	2233
344.784	1256
344.870	2340
344.957	1240
345.043	2581
345.129	1679
345.215	2796
345.301	1099
345.387	2361
345.474	1360
345.560	1773
345.646	471
345.732	1724
345.818	2116
345.904	1644
345.990	742
346.076	2106
346.162	1390
346.249	2314
346.335	1322
346.421	1256
346.507	3059
346.593	7287
346.679	2020
346.765	2863
346.851	4239
346.937	2999
347.023	2673
347.108	1902
347.194	2290
347.280	2454
347.366	3096
347.452	10870
347.538	13526
347.624	9276
347.710	4505
347.796	2165
347.882	2270
347.967	2004
348.053	1582
348.139	2298
348.225	1342
348.311	2206
348.397	1477
348.482	3179
348.568	2218
348.654	3916
348.740	11910
348.825	8395
348.911	4174
348.997	5995
349.083	9495
349.168	2303
349.254	1126
349.340	2292
349.425	2640
349.511	2156
349.597	2417
349.682	2019
349.768	5618
349.854	2859
349.939	2239
350.025	2302
350.110	1696
350.196	964
350.282	979
350.367	2559
350.453	1476
350.538	2195
350.624	1379
350.709	1795
350.795	1452
350.880	1751
350.966	3042
351.051	2351
351.137	2215
351.222	2011
351.308	2283
351.393	3840
351.479	1697
351.564	1211
351.649	1368
351.735	1556
351.820	1478
351.906	2076
351.991	1513
352.076	3491
352.162	4267
352.247	2237
352.332	2058
352.418	1806
352.503	1528
352.588	5487
352.673	3635
352.759	1756
352.844	569
352.929	2271
353.014	576
353.100	2157
353.185	3112
353.270	2275
353.355	2666
353.441	3328
353.526	1330
353.611	2227
353.696	1407
353.781	3398
353.866	801
353.952	2529
354.037	1853
354.122	2866
354.207	2421
354.292	1975
354.377	1995
354.462	2253
354.547	2069
354.632	2540
354.717	2188
354.802	2792
354.887	2022
354.972	2330
355.057	1609
355.142	1793
355.227	2175
355.312	2680
355.397	2169
355.482	4275
355.567	2057
355.652	3728
355.737	3046
355.822	6000
355.907	3779
355.991	3215
356.076	1026
356.161	2884
356.246	1533
356.331	2006
356.416	2840
356.501	12493
356.585	9619
356.670	1713
356.755	4278
356.840	3884
356.924	10367
357.009	26007
357.094	8813
357.179	2773
357.263	2518
357.348	3844
357.433	2223
357.517	2823
357.602	1367
357.687	2567
357.771	3125
357.856	3143
357.941	3780
358.025	10295
358.110	32160
358.195	13000
358.279	3430
358.364	3742
358.448	5017
358.533	8705
358.617	5467
358.702	6607
358.787	3938
358.871	2851
358.956	2593
359.040	2868
359.125	1737
359.209	2667
359.294	2698
359.378	4411
359.462	3429
359.547	3092
359.631	1950
359.716	1428
359.800	1925
359.885	2400
359.969	1061
360.053	3182
360.138	1671
360.222	2664
360.306	2159
360.391	2981
360.475	3163
360.559	2796
360.644	3023
360.728	2572
360.812	8352
360.896	16186
360.981	5158
361.065	2568
361.149	3264
361.233	2470
361.318	1420
361.402	2754
361.486	3525
361.570	2551
361.654	2537
361.739	3948
361.823	12735
361.907	17433
361.991	4649
362.075	4773
362.159	5719
362.243	12358
362.327	30269
362.411	47645
362.495	15986
362.580	7369
362.664	6782
362.748	6615
362.832	11932
362.916	25638
363.000	81934
363.084	121524
363.168	49464
363.252	13538
363.336	6833
363.420	6257
363.503	5405
363.587	4885
363.671	5318
363.755	3182
363.839	5407
363.923	4666
364.007	6676
364.091	8459
364.175	12622
364.258	33142
364.342	89174
364.426	174668
364.510	82713
364.594	22491
364.677	11761
364.761	17782
364.845	12709
364.929	4656
365.013	3628
365.096	3368
365.180	3023
365.264	3403
365.347	4455
365.431	2826
365.515	1829
365.598	1849
365.682	4422
365.766	1762
365.849	3196
365.933	2766
366.017	4456
366.100	2156
366.184	1713
366.267	4204
366.351	3429
366.435	1801
366.518	2037
366.602	3437
366.685	2294
366.769	3237
366.852	2692
366.936	3717
367.019	2951
367.103	2135
367.186	3809
367.270	3399
367.353	2256
367.436	4376
367.520	3000
367.603	4087
367.687	2165
367.770	3466
367.853	4092
367.937	7062
368.020	7127
368.104	2648
368.187	3607
368.270	2746
368.353	2473
368.437	2622
368.520	3021
368.603	2866
368.687	3141
368.770	7083
368.853	2998
368.936	4201
369.020	3840
369.103	2236
369.186	2063
369.269	2123
369.352	3571
369.436	2849
369.519	2517
369.602	1446
369.685	4253
369.768	1257
369.851	2759
369.934	2758
370.018	1727
370.101	1761
370.184	5443
370.267	3595
370.350	2943
370.433	4771
370.516	13867
370.599	29296
370.682	9630
370.765	6666
370.848	7493
370.931	9372
371.014	5790
371.097	2789
371.180	4359
371.263	3228
371.346	1854
371.429	4543
371.511	2594
371.594	4242
371.677	5145
371.760	6471
371.843	6112
371.926	17584
372.009	30573
372.091	14910
372.174	9458
372.257	14454
372.340	8450
372.423	7235
372.505	7451
372.588	5265
372.671	7203
372.754	9106
372.836	6684
372.919	5306
373.002	5527
373.085	4856
373.167	6451
373.250	6576
373.332	11650
373.415	19770
373.498	35282
373.580	19595
373.663	48332
373.746	44123
373.828	8560
373.911	6154
373.993	4158
374.076	4587
374.159	3316
374.241	4605
374.324	8803
374.406	7369
374.489	12510
374.571	26703
374.654	9211
374.736	8569
374.819	17339
374.901	26698
374.983	25017
375.066	7835
375.148	4628
375.231	5065
375.313	6328
375.395	4633
375.478	4458
375.560	5731
375.643	5293
375.725	8428
375.807	19953
375.890	12941
375.972	2954
376.054	4391
376.136	3530
376.219	4017
376.301	8001
376.383	14300
376.465	6404
376.548	3709
376.630	5642
376.712	13121
376.794	5384
376.877	3094
376.959	1688
377.041	3352
377.123	2191
377.205	3441
377.287	2505
377.369	3645
377.452	2448
377.534	3296
377.616	2270
377.698	3306
377.780	2148
377.862	3490
377.944	4447
378.026	2367
378.108	3456
378.190	2846
378.272	3075
378.354	3242
378.436	2226
378.518	2529
378.600	2949
378.682	4334
378.764	4961
378.846	5332
378.928	2663
379.010	2531
379.091	4405
379.173	3512
379.255	1465
379.337	3035
379.419	3535
379.501	7476
379.583	3134
379.664	3376
379.746	2427
379.828	6853
379.910	5918
379.991	7207
380.073	2964
380.155	3536
380.237	2084
380.318	3116
380.400	2753
380.482	4654
380.564	4134
380.645	4507
380.727	3617
380.809	5058
380.890	2999
380.972	2885
381.053	4222
381.135	4692
381.217	5089
381.298	8341
381.380	4689
381.461	5427
381.543	13255
381.624	15119
381.706	5636
381.787	5068
381.869	6641
381.951	12322
382.032	29529
382.113	19334
382.195	5999
382.276	9280
382.358	9838
382.439	16962
382.521	21723
382.602	30138
382.684	20126
382.765	35746
382.846	98396
382.928	214705
383.009	110836
383.090	90573
383.172	268037
383.253	320954
383.334	100732
383.416	45104
383.497	31227
383.578	35539
383.659	73696
383.741	231860
383.822	430393
383.903	210429
383.984	56709
384.066	35695
384.147	21968
384.228	14453
384.309	11957
384.390	10716
384.471	8888
384.553	9151
384.634	8158
384.715	9293
384.796	8032
384.877	8783
384.958	11202
385.039	10030
385.120	6957
385.201	6627
385.282	6413
385.363	9219
385.444	8652
385.525	10117
385.606	14894
385.687	11975
385.768	6875
385.849	7000
385.930	18513
386.011	26894
386.092	9854
386.173	6432
386.254	6347
386.335	6566
386.416	5446
386.496	6833
386.577	8467
386.658	5685
386.739	4923
386.820	6728
386.901	4698
386.981	7693
387.062	7977
387.143	9090
387.224	10859
387.304	12168
387.385	10335
387.466	7795
387.547	9870
387.627	10436
387.708	11966
387.789	16987
387.869	15054
387.950	9635
388.031	6699
388.111	4782
388.192	7674
388.273	9056
388.353	7011
388.434	4843
388.514	5726
388.595	14201
388.676	13613
388.756	6926
388.837	6543
388.917	5572
388.998	2418
389.078	4907
389.159	4147
389.239	2296
389.320	5432
389.400	2521
389.480	4953
389.561	6817
389.641	5278
389.722	4295
389.802	2912
389.883	6044
389.963	9883
390.043	5589
390.124	3017
390.204	4847
390.284	5732
390.365	4122
390.445	5308
390.525	5200
390.605	5344
390.686	3711
390.766	4328
390.846	4844
390.927	3741
391.007	3158
391.087	4445
391.167	3794
391.247	2021
391.328	4413
391.408	4513
391.488	5744
391.568	2375
391.648	4354
391.728	6166
391.808	6035
391.888	5499
391.969	7728
392.049	7939
392.129	8145
392.209	8031
392.289	13240
392.369	9826
392.449	9181
392.529	8924
392.609	12002
392.689	13702
392.769	19034
392.849	20679
392.929	25411
393.009	35773
393.089	53300
393.169	101193
393.248	258457
393.328	537150
393.408	500329
393.488	218458
393.568	84744
393.648	44363
393.728	28498
393.807	19204
393.887	17184
393.967	13405
394.047	10997
394.127	8273
394.206	9646
394.286	14622
394.366	42498
394.446	38161
394.525	10230
394.605	7103
394.685	6939
394.764	9165
394.844	13747
394.924	14048
395.003	7616
395.083	5212
395.163	5134
395.242	4987
395.322	5178
395.402	3662
395.481	6850
395.561	7100
395.640	23733
395.720	38667
395.799	17077
395.879	8001
395.958	7219
396.038	16791
396.117	59283
396.197	54793
396.276	15728
396.356	11827
396.435	15504
396.515	21617
396.594	34380
396.673	79597
396.753	241095
396.832	475253
396.912	324134
396.991	100611
397.070	40974
397.150	22410
397.229	22445
397.308	41710
397.388	60971
397.467	25049
397.546	11071
397.625	5792
397.705	8004
397.784	6666
397.863	6246
397.942	5872
398.022	4975
398.101	4150
398.180	5689
398.259	4507
398.338	4547
398.417	3443
398.497	3522
398.576	3711
398.655	3197
398.734	3314
398.813	4109
398.892	2948
398.971	4138
399.050	3070
399.129	2391
399.208	3340
399.287	3515
399.366	1513
399.445	3061
399.524	2665
399.603	1162
399.682	2552
399.761	3451
399.840	4186
399.919	3071
399.998	2594
400.077	1459
400.156	648
400.235	5467
400.313	1360
400.392	1312
400.471	3950
400.550	4766
400.629	2029
400.708	2550
400.786	1171
400.865	2779
400.944	1850
401.023	3643
401.102	2340
401.180	1767
401.259	1760
401.338	1409
401.416	2325
401.495	1752
401.574	2426
401.652	1593
401.731	2243
401.810	883
401.888	1449
401.967	687
402.046	1417
402.124	2004
402.203	365
402.281	2288
402.360	1131
402.438	3006
402.517	283
402.596	1748
402.674	580
402.753	1744
402.831	1657
402.910	2719
402.988	5681
403.066	14563
403.145	8286
403.223	7174
403.302	11751
403.380	10072
403.459	9213
403.537	3441
403.615	2220
403.694	1252
403.772	2976
403.850	1917
403.929	1328
404.007	1157
404.085	3625
404.164	2499
404.242	1603
404.320	3619
404.398	3816
404.477	4973
404.555	16433
404.633	11739
404.711	4099
404.789	3026
404.868	1271
404.946	1207
405.024	1066
405.102	980
405.180	129
405.258	282
405.336	1926
405.415	321
405.493	2111
405.571	3019
405.649	1634
405.727	1053
405.805	3454
405.883	2455
405.961	3100
406.039	1542
406.117	493
406.195	1784
406.273	2862
406.351	10763
406.429	6008
406.507	1935
406.585	938
406.663	1762
406.740	934
406.818	811
406.896	872
406.974	2178
407.052	874
407.130	6546
407.208	8137
407.285	2223
407.363	485
407.441	1726
407.519	1019
407.596	1753
407.674	2225
407.752	5254
407.830	4206
407.907	2216
407.985	154
408.063	2234
408.141	766
408.218	1605
408.296	345
408.373	1986
408.451	1541
408.529	2675
408.606	2406
408.684	2238
408.762	2273
408.839	1926
408.917	2123
408.994	2329
409.072	2701
409.149	4329
409.227	8194
409.304	12254
409.382	12139
409.459	15353
409.537	19577
409.614	14177
409.692	8454
409.769	11594
409.846	21060
409.924	23305
410.001	12069
410.079	8602
410.156	6238
410.233	4648
410.311	3182
410.388	3773
410.465	3568
410.543	3168
410.620	3963
410.697	3420
410.775	3763
410.852	2892
410.929	4809
411.006	4697
411.083	2942
411.161	3095
411.238	2825
411.315	2366
411.392	3111
411.469	2137
411.547	1823
411.624	1173
411.701	1171
411.778	2196
411.855	1823
411.932	2237
412.009	1554
412.086	2311
412.163	1234
412.240	746
412.317	1732
412.394	1094
412.471	1945
412.548	1261
412.625	1345
412.702	1472
412.779	1176
412.856	1318
412.933	1346
413.010	1556
413.087	1928
413.164	2632
413.241	2601
413.318	966
413.395	2458
413.471	1227
413.548	1840
413.625	1386
413.702	1334
413.779	1804
413.855	1441
413.932	1310
414.009	-99
414.086	1404
414.162	1895
414.239	2047
414.316	2623
414.393	4741
414.469	767
414.546	649
414.623	1154
414.699	1064
414.776	1562
414.853	792
414.929	1061
415.006	1204
415.082	970
415.159	2054
415.236	606
415.312	1140
415.389	1337
415.465	662
415.542	467
415.618	514
415.695	1419
415.771	1091
415.848	711
415.924	1344
416.000	681
416.077	1482
416.153	-92
416.230	374
416.306	559
416.383	841
416.459	1533
416.535	816
416.612	499
416.688	1882
416.764	1534
416.841	689
416.917	1436
416.993	1420
417.069	1001
417.146	-122
417.222	29
417.298	1755
417.374	403
417.451	920
417.527	621
417.603	491
417.679	992
417.755	943
417.831	206
417.908	873
417.984	1097
418.060	-613
418.136	1099
418.212	1929
418.288	734
418.364	763
418.440	110
418.516	1612
418.592	944
418.668	1062
418.744	1410
418.820	1332
418.896	785
418.972	340
419.048	1407
419.124	2523
419.200	1006
419.276	1210
419.352	-108
419.428	1324
419.504	517
419.579	1687
419.655	1080
419.731	1905
419.807	2382
419.883	2288
419.959	1455
420.034	2004
420.110	2021
420.186	2546
420.262	3027
420.337	2154
420.413	1692
420.489	2358
420.565	3221
420.640	2344
420.716	3167
420.792	1834
420.867	3884
420.943	2837
421.019	3529
421.094	3286
421.170	4109
421.245	3973
421.321	4508
421.397	4952
421.472	6967
421.548	7956
421.623	7930
421.699	7292
421.774	8917
421.850	9715
421.925	11597
422.001	14157
422.076	17796
422.152	21759
422.227	30057
422.302	42684
422.378	65047
422.453	109713
422.529	185406
422.604	221116
422.679	188503
422.755	226432
422.830	175798
422.905	104770
422.981	64698
423.056	44933
423.131	32838
423.207	24520
423.282	19122
423.357	16979
423.432	12807
423.508	11097
423.583	10545
423.658	9058
423.733	8143
423.808	7092
423.883	8384
423.959	8796
424.034	9928
424.109	9294
424.184	6052
424.259	4957
424.334	4098
424.409	3670
424.484	3074
424.559	3089
424.634	3340
424.709	2875
424.784	2848
424.859	3004
424.934	2939
425.009	4115
425.084	4421
425.159	1895
425.234	2256
425.309	1523
425.384	1834
425.459	1505
425.534	2128
425.609	1819
425.683	2138
425.758	2336
425.833	1422
425.908	2545
425.983	1970
426.058	4240
426.132	1969
426.207	1003
426.282	2168
426.357	621
426.431	1405
426.506	2102
426.581	1026
426.655	1871
426.730	1203
426.805	618
426.879	1781
426.954	1614
427.029	983
427.103	3377
427.178	7567
427.253	3825
427.327	1733
427.402	750
427.476	429
427.551	1511
427.625	914
427.700	1772
427.774	1116
427.849	1833
427.923	836
427.998	1760
428.072	1744
428.147	6810
428.221	32787
428.296	86616
428.370	38655
428.444	4832
428.519	2006
428.593	1803
428.667	1727
428.742	3330
428.816	11911
428.890	55836
428.965	71516
429.039	15943
429.113	2426
429.188	2114
429.262	1050
429.336	1887
429.410	2467
429.485	2103
429.559	1900
429.633	2414
429.707	2707
429.781	10900
429.855	54287
429.930	63194
430.004	15343
430.078	10207
430.152	36146
430.226	119462
430.300	97671
430.374	18254
430.448	5796
430.522	3767
430.596	5406
430.670	18816
430.744	72526
430.818	65322
430.892	10795
430.966	2195
431.040	1485
431.114	957
431.188	125
431.262	839
431.336	624
431.410	1548
431.484	71
431.557	1567
431.631	1445
431.705	5004
431.779	26092
431.853	83933
431.927	45726
432.000	6580
432.074	1342
432.148	780
432.222	254
432.295	302
432.369	85
432.443	-118
432.516	3487
432.590	7453
432.664	2067
432.737	-474
432.811	-524
432.885	326
432.958	751
433.032	-229
433.106	16
433.179	-93
433.253	611
433.326	-171
433.400	283
433.473	602
433.547	-340
433.620	794
433.694	-673
433.767	366
433.841	-982
433.914	222
433.988	175
434.061	236
434.134	-121
434.208	772
434.281	-401
434.355	825
434.428	-237
434.501	381
434.575	-231
434.648	-253
434.721	116
434.795	70
434.868	-260
434.941	69
435.014	684
435.088	481
435.161	2259
435.234	3855
435.307	2597
435.381	3300
435.454	6336
435.527	11305
435.600	10833
435.673	6652
435.746	3483
435.819	2793
435.892	1843
435.966	712
436.039	487
436.112	1136
436.185	56
436.258	226
436.331	71
436.404	463
436.477	-603
436.550	317
436.623	378
436.696	219
436.769	756
436.842	235
436.915	222
436.987	235
437.060	45
437.133	-70
437.206	-341
437.279	300
437.352	-184
437.425	-186
437.498	-145
437.570	141
437.643	-540
437.716	-471
437.789	-896
437.861	283
437.934	-365
438.007	263
438.080	-531
438.152	554
438.225	459
438.298	6392
438.370	14497
438.443	4445
438.516	35
438.588	457
438.661	-508
438.734	910
438.806	-354
438.879	-403
438.951	-128
439.024	-171
439.096	67
439.169	501
439.241	-1008
439.314	-168
439.386	-621
439.459	135
439.531	-510
439.604	-623
439.676	-284
439.749	-817
439.821	-26
439.893	441
439.966	109
440.038	-56
440.110	573
440.183	-862
440.255	-497
440.327	909
440.400	1365
440.472	6809
440.544	3174
440.617	413
440.689	1554
440.761	895
440.833	473
440.905	173
440.978	-218
441.050	457
441.122	444
441.194	-460
441.266	-289
441.338	-921
441.411	883
441.483	2083
441.555	1854
441.627	1274
441.699	854
441.771	679
441.843	363
441.915	720
441.987	335
442.059	1116
442.131	979
442.203	1460
442.275	1895
442.347	4739
442.419	15250
442.491	73519
442.563	129305
442.635	43258
442.706	7021
442.778	3958
442.850	2642
442.922	2369
442.994	2457
443.066	2310
443.137	2621
443.209	4151
443.281	8081
443.353	20659
443.425	82615
443.496	217458
443.568	200068
443.640	72677
443.711	15351
443.783	6949
443.855	3123
443.926	2548
443.998	1586
444.070	2134
444.141	2044
444.213	1416
444.285	1442
444.356	1353
444.428	372
444.499	390
444.571	753
444.642	1536
444.714	844
444.785	1096
444.857	1837
444.928	2174
445.000	1704
445.071	3669
445.143	4611
445.214	7216
445.285	14193
445.357	41435
445.428	149160
445.500	247981
445.571	185597
445.642	113155
445.714	32648
445.785	9788
445.856	4076
445.928	3039
445.999	1706
446.070	1656
446.141	1436
446.213	2286
446.284	334
446.355	955
446.426	317
446.497	-50
446.569	334
446.640	454
446.711	649
446.782	546
446.853	-414
446.924	-236
446.995	-386
447.066	544
447.138	134
447.209	-101
447.280	-815
447.351	141
447.422	-831
447.493	167
447.564	-232
447.635	-370
447.706	-117
447.777	-686
447.847	-130
447.918	-385
447.989	193
448.060	380
448.131	-287
448.202	1
448.273	-185
448.344	-284
448.414	-54
448.485	-307
448.556	-800
448.627	-286
448.698	-172
448.768	-93
448.839	-787
448.910	-335
448.981	-316
449.051	-560
449.122	-575
449.193	-319
449.263	-606
449.334	-430
449.405	-128
449.475	-78
449.546	-595
449.616	-18
449.687	992
449.758	160
449.828	-481
449.899	-481
449.969	-913
450.040	-854
450.110	-882
450.181	128
450.251	-1179
450.322	81
450.392	-91
450.463	-441
450.533	-453
450.604	21
450.674	-620
450.744	-221
450.815	8
450.885	-271
450.955	1085
451.026	170
451.096	-511
451.166	-88
451.237	754
451.307	1789
451.377	237
451.447	-295
451.518	-1121
451.588	283
451.658	-535
451.728	-317
451.799	-99
451.869	-27
451.939	-1075
452.009	-454
452.079	496
452.149	88
452.219	-413
452.289	-226
452.360	89
452.430	173
452.500	126
452.570	1918
452.640	8376
452.710	22895
452.780	19298
452.850	8070
452.920	2317
452.990	1175
453.060	1288
453.129	-88
453.199	-718
453.269	462
453.339	159
453.409	-142
453.479	380
453.549	1109
453.619	723
453.688	185
453.758	-501
453.828	-332
453.898	-247
453.968	-334
454.037	-532
454.087	-371
454.107	-317
454.168	-749
454.177	-832
454.247	-1220
454.249	-1184
454.316	-722
454.330	-685
454.386	-588
454.411	-629
454.456	-777
454.492	-468
454.525	-214
454.574	-729
454.595	-978
454.655	-157
454.665	-32
454.734	-760
454.736	-727
454.804	-258
454.817	-86
454.873	563
454.898	160
454.943	-626
454.979	-276
455.013	18
455.060	88
455.082	88
455.141	-343
455.152	-418
455.221	321
455.222	339
455.291	46
455.303	157
455.360	614
455.384	861
455.430	1182
455.465	1076
455.499	932
455.546	751
455.569	651
455.627	991
455.638	1047
455.707	133
455.708	150
455.777	-131
455.789	5
455.846	625
455.869	437
455.916	-41
455.950	26
455.985	103
456.031	-217
456.054	-407
456.112	264
456.124	388
456.193	105
456.193	83
456.262	464
456.274	551
456.332	968
456.355	808
456.401	326
456.436	507
456.470	689
456.516	555
456.540	529
456.597	765
456.609	755
456.678	804
456.678	784
456.747	508
456.759	514
456.817	780
456.840	1065
456.886	1343
456.920	1250
456.955	1266
457.001	1418
457.024	1361
457.082	1101
457.093	1103
457.162	2522
457.163	2544
457.232	1528
457.243	1525
457.301	1744
457.324	1848
457.370	1847
457.405	2153
457.439	2720
457.485	2641
457.508	2547
457.566	3202
457.577	3489
457.646	5365
457.647	5430
457.715	16040
457.727	18343
457.784	34554
457.808	45942
457.853	58010
457.889	62779
457.922	56383
457.969	34175
457.991	35806
458.050	52032
458.060	55050
458.129	97949
458.130	99002
458.198	84732
458.211	74912
458.267	34809
458.292	21944
458.336	15098
458.372	14723
458.405	23920
458.453	40122
458.474	52429
458.533	97892
458.543	101264
458.611	149595
458.614	149974
458.680	73362
458.694	54936
458.749	22702
458.775	14753
458.818	9192
458.855	7624
458.887	6812
458.936	5520
458.955	5055
459.016	4046
459.024	4002
459.093	4095
459.097	4114
459.162	3216
459.177	3049
459.230	3544
459.257	3818
459.299	3574
459.338	3440
459.368	3427
459.418	3141
459.437	3140
459.499	3514
459.505	3522
459.574	3806
459.579	3793
459.643	3251
459.659	3211
459.711	3376
459.740	3406
459.780	3239
459.820	3062
459.849	2956
459.900	3077
459.917	3136
459.981	3016
459.986	2972
460.054	2788
460.061	2764
460.123	2890
460.141	2956
460.191	3255
460.222	3349
460.260	3163
460.302	3134
460.328	3266
460.382	3391
460.397	3415
460.462	3950
460.465	3980
460.534	4724
460.543	4763
460.602	8930
460.623	10854
460.671	15643
460.703	19393
460.739	17372
460.783	12837
460.808	10296
460.864	3597
460.876	3281
460.944	3291
460.945	3283
461.013	3323
461.024	3291
461.081	3239
461.104	3387
461.150	3454
461.184	3461
461.218	3680
461.264	3823
461.286	3785
461.345	3858
461.355	3831
461.423	3695
461.425	3672
461.491	2740
461.505	2781
461.559	3116
461.585	3048
461.628	3450
461.665	3947
461.696	3915
461.745	3745
461.764	3765
461.825	4262
461.832	4309
461.901	3855
461.905	3855
461.969	3418
461.985	3310
462.037	4127
462.065	4590
462.105	3978
462.145	3258
462.173	3418
462.225	3976
462.241	4031
462.305	4137
462.310	4144
462.378	3986
462.385	3975
462.446	4124
462.465	4275
462.514	4181
462.545	3880
462.582	3884
462.625	4213
462.650	4290
462.705	4035
462.718	3937
462.785	4087
462.786	4089
462.854	3378
462.865	3330
462.922	4094
462.945	4322
462.990	4134
463.025	4007
463.058	3974
463.104	4036
463.126	4193
463.184	4523
463.194	4482
463.262	3874
463.264	3868
463.330	3691
463.344	3612
463.398	4511
463.424	4811
463.466	3891
463.504	3291
463.533	4096
463.583	5283
463.601	5093
463.663	4291
463.669	4283
463.737	4413
463.743	4387
463.805	4618
463.823	4761
463.873	4196
463.903	3889
463.940	4363
463.982	4739
464.008	4632
464.062	4331
464.076	4352
464.142	4765
464.144	4774
464.211	4575
464.221	4551
464.279	4354
464.301	4229
464.347	4520
464.381	4757
464.414	4350
464.461	3715
464.482	3820
464.540	4277
464.550	4335
464.617	4607
464.620	4611
464.685	5014
464.699	5036
464.753	4210
464.779	3880
464.820	4395
464.859	4831
464.888	4448
464.938	3740
464.956	4184
465.018	5854
465.023	5849
465.091	5582
465.098	5529
465.158	4566
465.177	4385
465.226	4704
465.257	4694
465.293	5089
465.336	5519
465.361	5402
465.416	5225
465.428	5200
465.495	5060
465.496	5065
465.563	4124
465.575	3999
465.631	4992
465.654	5323
465.698	5267
465.734	5203
465.765	5013
465.813	4722
465.833	4874
465.893	5282
465.900	5240
465.968	4811
465.972	4771
466.035	4523
466.052	4428
466.102	5063
466.131	5460
466.170	4998
466.210	4425
466.237	4846
466.290	5662
466.304	5574
466.369	5074
466.372	5091
466.439	5320
466.449	5325
466.506	5791
466.528	5998
466.573	6371
466.607	6564
466.641	6470
466.687	6389
466.708	6595
466.766	7032
466.775	6874
466.842	5617
466.845	5544
466.909	5941
466.925	6031
466.977	5499
467.004	5195
467.044	5868
467.083	6543
467.111	6287
467.163	5735
467.178	5822
467.242	6145
467.245	6149
467.312	6007
467.321	5978
467.379	6771
467.400	7039
467.446	6413
467.480	5937
467.559	7329
467.638	5640
467.717	6196
467.796	6831
467.875	7698
467.955	6760
468.034	8937
468.113	9708
468.192	13107
468.271	13962
468.350	21430
468.429	29993
468.508	33265
468.588	19509
468.667	11999
468.746	8544
468.825	8383
468.904	7464
468.983	7836
469.062	6870
469.141	7420
469.220	6118
469.299	6388
469.378	5885
469.456	6849
469.535	6401
469.614	5818
469.693	5863
469.772	7996
469.851	7487
469.930	7907
470.009	8004
470.088	10378
470.166	14799
470.245	27371
470.324	35152
470.403	20878
470.482	11762
470.560	8690
470.639	7294
470.718	7722
470.797	5986
470.875	6464
470.954	6277
471.033	7240
471.111	7490
471.190	6105
471.269	5758
471.347	6945
471.426	5841
471.505	6809
471.583	6880
471.662	5648
471.740	6293
471.819	6725
471.898	5357
471.976	6349
472.055	5635
472.133	6203
472.212	6890
472.290	6696
472.369	5695
472.447	6572
472.526	5599
472.604	7494
472.683	6756
472.761	6242
472.839	6329
472.918	7300
472.996	6179
473.075	7743
473.153	6457
473.231	6971
473.310	6716
473.388	6505
473.466	7279
473.545	7203
473.623	7274
473.701	7880
473.780	6897
473.858	6094
473.936	7608
474.014	7381
474.093	6939
474.171	7338
474.249	7148
474.327	6771
474.405	5779
474.484	6337
474.562	6604
474.640	6384
474.718	6188
474.796	6864
474.874	6472
474.952	6162
475.030	6440
475.108	6134
475.187	6737
475.265	7673
475.343	8678
475.421	8661
475.499	5571
475.577	6436
475.655	7015
475.733	6962
475.811	6418
475.889	7166
475.966	6786
476.044	6142
476.122	6868
476.200	8613
476.278	6506
476.356	5923
476.434	6522
476.512	6774
476.590	8185
476.667	7576
476.745	6505
476.823	7314
476.901	6336
476.979	6543
477.056	7173
477.134	6004
477.212	5677
477.290	6472
477.367	5469
477.445	6443
477.523	5409
477.601	5413
477.678	5785
477.756	6702
477.834	5809
477.911	6381
477.989	6633
478.066	6695
478.144	6430
478.222	6408
478.299	8361
478.377	8336
478.454	6344
478.532	6969
478.609	5899
478.687	7266
478.764	5328
478.842	5780
478.919	5563
478.997	6773
479.074	5846
479.152	6136
479.229	5932
479.307	5772
479.384	5183
479.461	6839
479.539	5703
479.616	5936
479.694	5628
479.771	6456
479.848	6006
479.926	6291
480.003	6819
480.080	5868
480.157	6133
480.235	5942
480.312	6270
480.389	6186
480.467	5758
480.544	6823
480.621	7090
480.698	7355
480.775	6981
480.853	6533
480.930	6516
481.007	6724
481.084	5968
481.161	7979
481.238	6648
481.315	6523
481.392	6150
481.470	6987
481.547	6213
481.624	5961
481.701	6284
481.778	6948
481.855	7053
481.932	8079
482.009	7989
482.086	8103
482.163	9419
482.240	11727
482.317	14123
482.393	11929
482.470	8825
482.547	9865
482.624	8104
482.701	8001
482.778	7428
482.855	7337
482.932	7147
483.009	7945
483.085	9324
483.162	10295
483.239	10947
483.316	11147
483.393	12098
483.469	9699
483.546	8693
483.623	8363
483.699	5988
483.776	6364
483.853	7019
483.930	6074
484.006	7073
484.083	9054
484.160	7119
484.236	9294
484.313	8298
484.389	7742
484.466	10274
484.543	11771
484.619	15425
484.696	18835
484.772	12398
484.849	8966
484.925	7915
485.002	8847
485.078	7266
485.155	6944
485.231	6447
485.308	6611
485.384	6110
485.461	7545
485.537	5757
485.614	8150
485.690	6090
485.766	7025
485.843	5680
485.919	7819
485.995	6527
486.072	7901
486.148	6097
486.224	6627
486.301	6160
486.377	6161
486.453	5682
486.530	7619
486.606	7359
486.682	7301
486.758	6257
486.835	7871
486.911	6703
486.987	9923
487.063	10937
487.139	13498
487.215	12167
487.292	13166
487.368	15362
487.444	20466
487.520	29243
487.596	40667
487.672	99311
487.748	327893
487.824	495411
487.900	150598
487.976	37582
488.052	19968
488.128	14878
488.204	10889
488.280	10313
488.356	9947
488.432	9557
488.508	9472
488.584	8305
488.660	8094
488.736	8073
488.812	7007
488.888	7093
488.964	7481
489.039	10963
489.115	13253
489.191	9944
489.267	7795
489.343	7172
489.418	6640
489.494	6205
489.570	5209
489.646	8070
489.722	6927
489.797	6541
489.873	7339
489.949	7774
490.024	8089
490.100	6113
490.176	6745
490.251	7011
490.327	7995
490.403	6400
490.478	7564
490.554	6754
490.629	7364
490.705	6701
490.781	6782
490.856	6532
490.932	8276
491.007	6046
491.083	7036
491.158	6007
491.234	7401
491.309	7699
491.385	6484
491.460	5821
491.536	7325
491.611	6324
491.686	7102
491.762	6821
491.837	8451
491.913	9969
491.988	12946
492.063	13612
492.139	8041
492.214	5622
492.289	7340
492.365	6468
492.440	6690
492.515	6135
492.590	6951
492.666	5689
492.741	6970
492.816	6116
492.891	5967
492.967	6948
493.042	7361
493.117	5423
493.192	7440
493.267	7413
493.342	9141
493.418	9793
493.493	7255
493.568	6938
493.643	6929
493.718	6562
493.793	7150
493.868	7403
493.943	7080
494.018	7428
494.093	6870
494.168	7696
494.243	7089
494.318	7092
494.393	7011
494.468	7338
494.543	6872
494.618	7047
494.693	6931
494.768	8221
494.842	7710
494.917	8323
494.992	7544
495.067	7386
495.142	7430
495.217	6922
495.292	7432
495.366	7514
495.441	7524
495.516	8955
495.591	9772
495.665	14417
495.740	24593
495.815	12257
495.890	7657
495.964	6799
496.039	10233
496.114	8654
496.188	10590
496.263	8883
496.338	9231
496.412	6936
496.487	7347
496.561	7279
496.636	8751
496.710	8031
496.785	7735
496.860	6927
496.934	7718
497.009	8099
497.083	8032
497.158	8452
497.232	9886
497.307	9448
497.381	11634
497.455	10568
497.530	9046
497.604	7213
497.679	7654
497.753	8142
497.827	7889
497.902	6711
497.976	8441
498.050	10629
498.125	18772
498.199	16801
498.273	10183
498.348	10747
498.422	11810
498.496	12255
498.570	13619
498.645	7775
498.719	4825
498.793	6837
498.867	6799
498.941	7563
499.016	10622
499.090	16061
499.164	10178
499.238	8840
499.312	9058
499.386	9739
499.460	10798
499.534	11624
499.609	14773
499.683	10105
499.757	5827
499.831	6355
499.905	10892
499.979	9876
500.053	6749
500.127	7729
500.201	7426
500.275	8436
500.349	8500
500.422	9215
500.496	11336
500.570	15351
500.644	20299
500.718	20587
500.792	8361
500.866	5829
500.940	5343
501.013	5854
501.087	5240
501.161	5585
501.235	4742
501.309	7952
501.382	9089
501.456	9583
501.530	5987
501.603	5432
501.677	5504
501.751	3018
501.825	5742
501.898	5080
501.972	6527
502.046	4878
502.119	3648
502.193	4962
502.266	6508
502.340	5516
502.413	5990
502.487	6003
502.561	4358
502.634	5026
502.708	4967
502.781	3729
502.855	6094
502.928	4517
503.002	5046
503.075	3966
503.149	4793
503.222	4834
503.295	5669
503.369	6130
503.442	6224
503.516	7639
503.589	10523
503.662	10605
503.736	11292
503.809	16314
503.882	19920
503.956	29241
504.029	58804
504.102	183414
504.175	271658
504.249	93259
504.322	30846
504.395	16102
504.468	11356
504.542	7891
504.615	6963
504.688	6705
504.761	4976
504.834	6749
504.907	5359
504.980	5506
505.053	5626
505.127	2587
505.200	7949
505.273	4388
505.346	4001
505.419	3226
505.492	5387
505.565	3354
505.638	3938
505.711	2537
505.784	2605
505.857	3000
505.930	5276
506.003	2259
506.076	6233
506.149	2206
506.221	2917
506.294	5778
506.367	3287
506.440	5839
506.513	6540
506.586	3635
506.659	3409
506.731	3991
506.804	3499
506.877	2865
506.950	3680
507.022	4086
507.095	3311
507.168	4102
507.241	4786
507.313	3383
507.386	3515
507.459	4653
507.531	3395
507.604	3161
507.677	4259
507.749	2203
507.822	4630
507.894	3922
507.967	3971
508.040	2501
508.112	4428
508.185	3855
508.257	2464
508.330	5740
508.402	3746
508.475	2817
508.547	3719
508.620	3736
508.692	4094
508.765	3199
508.837	2904
508.909	3547
508.982	3093
509.054	3990
509.127	3398
509.199	3467
509.271	2542
509.344	3073
509.416	3749
509.488	2926
509.560	4654
509.633	3414
509.705	3776
509.777	3469
509.849	4619
509.922	2271
509.994	2989
510.066	3552
510.138	2327
510.210	6027
510.283	3233
510.355	3781
510.427	4144
510.499	3262
510.571	3656
510.643	1881
510.715	5487
510.787	2123
510.859	5050
510.931	3426
511.003	5214
511.076	4677
511.148	2795
511.219	2720
511.291	4338
511.363	3656
511.435	4349
511.507	2844
511.579	5084
511.651	3270
511.723	3754
511.795	2545
511.867	3453
511.939	3193
512.010	3333
512.082	3512
512.154	2447
512.226	3610
512.298	4881
512.369	3700
512.441	4815
512.513	4880
512.585	2809
512.656	4328
512.728	3311
512.800	3733
512.871	4839
512.943	3908
513.015	2183
513.086	4255
513.158	4588
513.230	2332
513.301	3984
513.373	4658
513.444	4137
513.516	3652
513.588	3086
513.659	3806
513.731	3546
513.802	2724
513.874	6695
513.945	6508
514.016	2969
514.088	4310
514.159	2735
514.231	4364
514.302	4133
514.374	5165
514.445	2107
514.516	6572
514.588	3682
514.659	3967
514.730	3836
514.802	5300
514.873	2689
514.944	6415
515.016	4791
515.087	3943
515.158	3936
515.229	5684
515.301	3616
515.372	5147
515.443	4113
515.514	4307
515.585	2647
515.656	5056
515.728	5817
515.799	3244
515.870	6641
515.941	4739
516.012	5629
516.083	7460
516.154	7947
516.225	9289
516.296	12540
516.367	13239
516.438	18954
516.509	23388
516.580	35947
516.651	136549
516.722	465361
516.793	168346
516.864	33565
516.935	30144
517.006	37347
517.077	47636
517.148	106406
517.219	493544
517.289	706082
517.360	112032
517.431	30661
517.502	17485
517.573	15745
517.643	13126
517.714	12888
517.785	15819
517.856	16848
517.926	23815
517.997	30399
518.068	41293
518.138	56574
518.209	88526
518.280	319421
518.350	986874
518.421	409378
518.492	74740
518.562	43819
518.633	45256
518.703	55222
518.774	121158
518.845	333522
518.915	306479
518.986	79643
519.056	31474
519.127	22709
519.197	16618
519.268	15099
519.338	11129
519.408	7854
519.479	7338
519.549	6428
519.620	7984
519.690	6447
519.760	5318
519.831	6218
519.901	5479
519.971	5386
520.042	3794
520.112	4331
520.182	5045
520.253	5692
520.323	3774
520.393	3364
520.463	5972
520.534	1709
520.604	5625
520.674	5148
520.744	4182
520.814	3475
520.885	5313
520.955	4604
521.025	6034
521.095	4469
521.165	5799
521.235	3547
521.305	3257
521.375	4678
521.445	5579
521.515	4810
521.585	4843
521.655	2284
521.725	4996
521.795	5396
521.865	1242
521.935	6269
522.005	2963
522.075	3867
522.145	5388
522.215	2754
522.285	4194
522.355	4280
522.424	4202
522.494	3686
522.564	5114
522.634	5976
522.704	12662
522.774	5049
522.843	5073
522.913	4877
522.983	4201
523.053	4435
523.122	5740
523.192	4603
523.262	7045
523.331	6313
523.401	5553
523.471	5079
523.540	4260
523.610	3949
523.680	4416
523.749	4505
523.819	5694
523.888	4554
523.958	4219
524.027	5306
524.097	4879
524.166	5698
524.236	4279
524.305	6309
524.375	3730
524.444	3249
524.514	6047
524.583	3754
524.653	4044
524.722	5790
524.791	3575
524.861	7505
524.930	4283
524.999	5196
525.069	6450
525.138	5712
525.207	4532
525.277	7071
525.346	6302
525.415	8554
525.484	8227
525.554	8866
525.623	12664
525.692	15753
525.761	18732
525.830	25596
525.900	34325
525.969	54808
526.038	98597
526.107	203544
526.176	585128
526.245	445755
526.314	129250
526.383	289469
526.452	375290
526.522	526289
526.591	466186
526.660	81123
526.729	48617
526.797	53277
526.867	73021
526.935	215790
527.004	753729
527.073	467618
527.142	64433
527.211	27234
527.280	16845
527.349	13454
527.418	9617
527.487	10116
527.555	6686
527.624	7325
527.693	6279
527.762	8032
527.831	5479
527.899	6963
527.968	5678
528.037	4203
528.106	6604
528.174	7169
528.243	4521
528.312	6417
528.380	5381
528.449	3981
528.518	7433
528.586	3533
528.655	6220
528.723	5033
528.792	4354
528.861	3925
528.929	3490
528.998	5603
529.066	4543
529.135	5308
529.203	4488
529.272	4174
529.340	6367
529.409	7808
529.477	5303
529.545	4484
529.614	7692
529.682	4923
529.751	4685
529.819	8861
529.887	5103
529.956	5260
530.024	6453
530.092	4748
530.161	6310
530.229	6458
530.297	5142
530.365	6339
530.434	6552
530.502	5699
530.570	6153
530.638	5068
530.707	6268
530.775	6973
530.843	5150
530.911	6832
530.979	5498
531.047	5949
531.115	6135
531.183	5212
531.252	6618
531.320	6167
531.388	5081
531.456	6143
531.524	4875
531.592	7261
531.660	8765
531.728	5859
531.796	5867
531.864	6551
531.932	5751
532.000	6019
532.067	6367
532.135	7462
532.203	7998
532.271	8376
532.339	9285
532.407	10670
532.475	9830
532.542	8911
532.610	8730
532.678	7630
532.746	16912
532.814	26820
532.881	10908
532.949	9461
533.017	7951
533.084	7980
533.152	7203
533.220	7454
533.287	6847
533.355	8990
533.423	8263
533.490	8094
533.558	7585
533.625	8457
533.693	7432
533.761	8841
533.828	9346
533.896	7480
533.963	9899
534.031	10914
534.098	14661
534.166	14426
534.233	12920
534.300	15302
534.368	14829
534.435	15071
534.503	16058
534.570	18604
534.637	20995
534.705	24089
534.772	27776
534.840	53003
534.907	250222
534.974	298531
535.041	39840
535.109	19244
535.176	14855
535.243	14412
535.310	13218
535.378	11948
535.445	12777
535.512	14370
535.579	13304
535.646	13215
535.714	13573
535.781	15557
535.848	14538
535.915	14815
535.982	13013
536.049	13213
536.116	14157
536.183	13769
536.250	12225
536.317	13138
536.384	13656
536.451	15081
536.518	14954
536.585	14638
536.652	15327
536.719	15560
536.786	12699
536.853	13627
536.920	15720
536.987	15322
537.053	14427
537.120	23572
537.187	20712
537.254	16593
537.321	14984
537.388	16418
537.454	14153
537.521	15109
537.588	14741
537.654	15760
537.721	16103
537.788	17643
537.855	15534
537.921	16224
537.988	14937
538.055	14870
538.121	12345
538.188	13306
538.254	13316
538.321	13700
538.388	15237
538.454	18237
538.521	17107
538.587	16284
538.654	16331
538.720	17034
538.787	16055
538.853	16654
538.920	15441
538.986	13423
539.053	13840
539.119	14731
539.185	15019
539.252	16674
539.318	16405
539.385	18589
539.451	15731
539.517	16638
539.583	16390
539.650	17367
539.716	19597
539.782	15353
539.849	13492
539.915	15929
539.981	14364
540.047	14299
540.114	14467
540.180	16479
540.246	16012
540.312	17987
540.378	16612
540.444	18568
540.510	19165
540.576	23164
540.643	16649
540.709	15088
540.775	15891
540.841	14928
540.907	15664
540.973	15531
541.039	14980
541.105	16008
541.171	15922
541.237	17287
541.303	17136
541.369	18878
541.435	17442
541.500	16485
541.566	13853
541.632	14993
541.698	14988
541.764	17698
541.830	15364
541.896	14224
541.961	15679
542.027	15268
542.093	16778
542.159	17897
542.224	14538
542.290	17995
542.356	15997
542.421	16760
542.487	15605
542.553	14688
542.618	14836
542.684	14609
542.750	15967
542.815	17126
542.881	16752
542.947	23303
543.012	19530
543.078	15691
543.143	15138
543.209	16297
543.274	14914
543.340	15624
543.405	16524
543.471	17738
543.536	15799
543.602	16810
543.667	15371
543.732	17499
543.798	15425
543.863	16044
543.928	16033
543.994	15883
544.059	16917
544.124	17806
544.190	17546
544.255	18506
544.320	18050
544.386	17868
544.451	19191
544.516	18761
544.581	18004
544.646	20735
544.712	24168
544.777	19262
544.842	17476
544.907	18196
544.972	18122
545.037	19714
545.102	19456
545.168	21348
545.233	20460
545.298	21767
545.363	20409
545.428	22764
545.493	23278
545.558	24811
545.623	23074
545.688	23165
545.753	23573
545.818	24606
545.883	26168
545.947	25313
546.012	27561
546.077	27874
546.142	29834
546.207	30068
546.272	32162
546.337	32606
546.401	34735
546.466	36324
546.531	36769
546.596	40282
546.661	41565
546.725	45123
546.790	45784
546.855	51540
546.919	54870
546.984	62802
547.049	66855
547.113	77345
547.178	86681
547.243	97066
547.307	112234
547.372	125054
547.436	124788
547.501	132548
547.565	140216
547.630	130469
547.695	124571
547.759	125182
547.823	128186
547.888	128534
547.952	132240
548.017	138887
548.081	140684
548.146	139234
548.210	142663
548.274	154777
548.339	152166
548.403	139444
548.468	130322
548.532	130573
548.596	132024
548.660	132385
548.725	145660
548.789	157343
548.853	150261
548.917	146176
548.982	141819
549.046	126889
549.110	115854
549.174	118762
549.238	139776
549.303	152333
549.367	155791
549.431	148931
549.495	138633
549.559	140472
549.623	163705
549.687	176007
549.751	172985
549.815	209239
549.879	207690
549.943	200441
550.007	210777
550.071	206497
550.135	184092
550.199	177747
550.263	175261
550.327	162714
550.391	167129
550.455	187908
550.519	199121
550.582	209381
550.646	236542
550.710	239407
550.774	236772
550.838	238341
550.901	243339
550.965	256945
551.029	265061
551.093	281448
551.156	299280
551.220	327622
551.284	358056
551.347	288262
551.411	251765
551.475	242891
551.538	253466
551.602	240240
551.666	223569
551.729	213400
551.793	210157
551.856	206337
551.920	200874
551.983	201404
552.047	198959
552.110	200224
552.174	202602
552.237	207297
552.301	192915
552.364	185189
552.428	179883
552.491	186161
552.554	189510
552.618	189523
552.681	195375
552.745	188770
552.808	214254
552.871	237285
552.934	205907
552.998	191093
553.061	184375
553.124	176370
553.187	174308
553.251	182740
553.314	182297
553.377	182209
553.440	194415
553.503	200390
553.567	199927
553.630	196508
553.693	198112
553.756	198043
553.819	195443
553.882	187850
553.945	187040
554.008	187986
554.071	190019
554.134	190720
554.197	181230
554.260	177086
554.323	179808
554.386	181271
554.449	188575
554.512	187983
554.575	179290
554.638	180741
554.701	177732
554.764	177267
554.827	169020
554.889	164407
554.952	155595
555.015	152431
555.078	152383
555.141	156308
555.203	152330
555.266	152534
555.329	152296
555.391	144807
555.454	144634
555.517	138270
555.580	132123
555.642	126703
555.705	125671
555.768	123963
555.830	120454
555.893	115481
555.955	111488
556.018	110470
556.080	110244
556.143	113693
556.206	111034
556.268	107797
556.330	105373
556.393	102621
556.455	99349
556.518	98187
556.580	93598
556.643	91485
556.705	88847
556.767	86965
556.830	86207
556.892	85118
556.955	84035
557.017	82055
557.079	80072
557.142	78526
557.204	76302
557.266	76578
557.328	71202
557.391	65474
557.453	65312
557.515	66901
557.577	66073
557.639	65553
557.701	65451
557.764	66013
557.826	66781
557.888	68654
557.950	71746
558.012	75518
558.074	89901
558.136	183359
558.198	397005
558.260	147237
558.322	71623
558.384	71658
558.446	73895
558.508	79957
558.570	90278
558.632	99220
558.694	118753
558.756	180218
558.818	472959
558.880	931295
558.942	402856
559.003	424491
559.065	202753
559.127	90328
559.189	84617
559.251	91165
559.312	118756
559.374	265297
559.436	722236
559.498	364053
559.559	101140
559.621	85150
559.683	91953
559.744	139857
559.806	411367
559.868	559482
559.929	137429
559.991	90983
560.052	141837
560.114	384402
560.176	230590
560.237	227374
560.299	340201
560.360	79758
560.422	38743
560.483	33996
560.545	30853
560.606	29930
560.667	27577
560.729	26624
560.790	25368
560.852	25717
560.913	25210
560.974	24918
561.036	23345
561.097	23675
561.158	24464
561.220	23705
561.281	22117
561.342	22360
561.403	22320
561.465	21671
561.526	23018
561.587	24039
561.648	19802
561.709	20198
561.771	20952
561.832	19475
561.893	19216
561.954	18643
562.015	18224
562.076	19191
562.137	18823
562.198	18098
562.259	19085
562.320	18788
562.381	18777
562.442	18973
562.503	18581
562.564	17644
562.625	17255
562.686	17254
562.747	16926
562.808	17052
562.869	16197
562.930	17041
562.991	14670
563.051	16332
563.112	15544
563.173	15909
563.234	15723
563.294	15933
563.355	14274
563.416	16395
563.477	15469
563.537	14880
563.598	14617
563.659	15473
563.720	14188
563.780	15154
563.841	15096
563.901	15513
563.962	14385
564.023	15769
564.083	15231
564.144	13759
564.204	13418
564.265	14355
564.325	12847
564.386	14497
564.446	14556
564.507	13809
564.567	13460
564.628	13601
564.688	13038
564.749	12712
564.809	14471
564.869	13270
564.930	12899
564.990	14126
565.050	12941
565.111	13861
565.171	12688
565.231	12601
565.292	14328
565.352	12179
565.412	13605
565.472	13688
565.532	13152
565.593	13576
565.653	12417
565.713	12833
565.773	13736
565.833	14578
565.893	14144
565.953	12953
566.013	12636
566.074	12600
566.134	12273
566.194	12354
566.254	13344
566.314	12687
566.374	11806
566.434	12036
566.494	12501
566.554	12184
566.614	12522
566.673	13695
566.733	14041
566.793	14082
566.853	13012
566.913	13597
566.973	12680
567.033	13973
567.092	12577
567.152	13023
567.212	12748
567.272	13811
567.331	13973
567.391	12990
567.451	14841
567.511	13786
567.570	13765
567.630	13772
567.690	13837
567.749	13458
567.809	12743
567.868	13102
567.928	12985
567.988	12544
568.047	12108
568.107	13006
568.166	13852
568.226	13596
568.285	13831
568.345	13773
568.404	13913
568.464	13141
568.523	13058
568.582	13644
568.642	12873
568.701	13504
568.761	12629
568.820	12405
568.879	12642
568.939	13829
568.998	12212
569.057	12897
569.116	12848
569.176	13499
569.235	12916
569.294	12677
569.353	11795
569.413	12587
569.472	11127
569.531	12176
569.590	11528
569.649	11889
569.708	11570
569.767	11646
569.827	11232
569.886	12695
569.945	11823
570.004	13336
570.063	12606
570.122	13454
570.181	13021
570.240	12218
570.299	13866
570.358	13635
570.417	12412
570.475	12789
570.534	13388
570.593	13065
570.652	13203
570.711	13843
570.770	12897
570.829	12807
570.887	13168
570.946	14320
571.005	13391
571.064	15616
571.122	16002
571.181	13609
571.240	12844
571.299	12490
571.357	12404
571.416	11835
571.475	11836
571.533	13372
571.592	13717
571.650	13998
571.709	13805
571.768	16543
571.826	15092
571.885	15847
571.943	14069
572.002	13737
572.060	12073
572.119	12778
572.177	12174
572.236	12809
572.294	12421
572.352	14786
572.411	13237
572.469	13068
572.528	11987
572.586	11644
572.644	12424
572.703	12699
572.761	11381
572.819	11934
572.877	11399
572.936	11356
572.994	11742
573.052	11858
573.110	10447
573.169	13010
573.227	12121
573.285	11901
573.343	11767
573.401	12291
573.459	12698
573.517	12564
573.576	12458
573.634	11180
573.692	11727
573.750	12883
573.808	11166
573.866	11603
573.924	10951
573.982	11918
574.040	10876
574.098	11360
574.155	11413
574.213	11525
574.271	11033
574.329	12951
574.387	10680
574.445	10582
574.503	10114
574.560	10324
574.618	9546
574.676	10756
574.734	10506
574.792	10347
574.849	9326
574.907	9154
574.965	7912
575.022	8495
575.080	7839
575.138	9088
575.195	7971
575.253	8830
575.311	7988
575.368	9161
575.426	7428
575.483	9241
575.541	9132
575.598	8710
575.656	8758
575.713	9909
575.771	9178
575.828	8782
575.886	8335
575.943	8974
576.001	7329
576.058	8471
576.115	7255
576.173	9026
576.230	8560
576.287	9361
576.345	8356
576.402	8518
576.459	8119
576.517	7989
576.574	7981
576.631	8342
576.688	6493
576.746	7557
576.803	7648
576.860	7290
576.917	7774
576.974	8917
577.031	8153
577.089	8312
577.146	7913
577.203	7614
577.260	7886
577.317	8112
577.374	7360
577.431	7333
577.488	7188
577.545	7330
577.602	7421
577.659	8402
577.716	7511
577.773	8461
577.830	7276
577.886	7345
577.943	6819
578.000	7146
578.057	6711
578.114	7911
578.171	6698
578.227	7479
578.284	7066
578.341	7392
578.398	7331
578.454	8137
578.511	7787
578.568	7831
578.625	6881
578.681	6911
578.738	7281
578.794	7940
578.851	7231
578.908	8268
578.964	7154
579.021	8138
579.077	7307
579.134	7268
579.190	7877
579.247	7956
579.303	6347
579.360	7412
579.416	7259
579.473	8646
579.529	7532
579.586	7692
579.642	7747
579.698	7609
579.755	8020
579.811	7358
579.867	7149
579.924	7548
579.980	6547
580.036	7335
580.093	7957
580.149	8179
580.205	8087
580.261	8733
580.317	7618
580.374	7724
580.430	7778
580.486	8749
580.542	7724
580.598	8621
580.619	8796
580.654	9109
580.692	9093
580.710	9105
580.765	8844
580.767	8843
580.823	8807
580.838	8886
580.879	9124
580.911	9049
580.935	9009
580.984	8072
580.991	7954
581.047	8584
581.057	8519
581.103	8280
581.130	8312
581.159	8337
581.203	8588
581.215	8661
581.270	8381
581.276	8307
581.326	7716
581.349	7814
581.382	7956
581.422	7872
581.438	7823
581.494	8320
581.494	8312
581.550	8289
581.567	8189
581.606	7955
581.640	7911
581.661	7877
581.713	8686
581.717	8763
581.773	8252
581.786	8291
581.829	8302
581.859	8467
581.885	8677
581.932	8959
581.940	9000
581.996	8233
582.004	8300
582.052	8720
582.077	8350
582.107	7924
582.150	8378
582.163	8531
582.219	7691
582.223	7695
582.274	7656
582.296	7468
582.330	7180
582.368	7928
582.386	8348
582.441	8261
582.441	8261
582.497	8383
582.514	8127
582.552	7912
582.587	7895
582.608	7821
582.659	7305
582.663	7261
582.719	8175
582.732	8272
582.774	8622
582.805	8232
582.830	7917
582.877	8567
582.885	8665
582.941	8423
582.950	8298
582.996	7739
583.023	8179
583.052	8681
583.095	8365
583.107	8268
583.162	9133
583.168	9044
583.218	8181
583.240	7891
583.273	7451
583.313	7707
583.328	7851
583.384	7283
583.385	7303
583.439	7713
583.458	7766
583.494	7990
583.531	7809
583.549	7746
583.603	7883
583.605	7880
583.660	8079
583.676	7911
583.715	7617
583.748	7967
583.770	8204
583.820	8708
583.825	8725
583.881	8335
583.893	8348
583.936	8802
583.965	8569
583.991	8136
584.038	8330
584.046	8416
584.101	8122
584.110	8229
584.156	8665
584.183	8321
584.211	7940
584.255	8889
584.266	9179
584.321	8478
584.328	8530
584.376	8660
584.400	8630
584.431	8646
584.472	9071
584.486	9237
584.541	9066
584.545	9092
584.596	9403
584.617	9504
584.651	10052
584.689	10704
584.706	10722
584.761	10855
584.762	10857
584.816	11338
584.834	11543
584.871	11997
584.906	12242
584.926	12347
584.978	12725
584.980	12755
585.035	15243
585.051	15547
585.090	16153
585.123	17684
585.145	18772
585.195	20216
585.200	20432
585.254	24457
585.267	25751
585.309	29854
585.340	32786
585.364	35527
585.412	41661
585.419	42660
585.473	52695
585.484	55034
585.528	69034
585.556	85669
585.583	118861
585.628	199878
585.637	228428
585.692	479848
585.700	519290
585.747	635474
585.772	533664
585.801	332324
585.845	114815
585.856	88107
585.910	45205
585.917	41284
585.965	30905
585.989	27297
586.019	24266
586.061	21139
586.074	20419
586.128	19622
586.133	19505
586.183	18510
586.205	18293
586.237	18102
586.277	17595
586.292	17404
586.346	16825
586.349	16845
586.401	17593
586.421	17572
586.455	17229
586.493	17135
586.509	17374
586.564	17613
586.565	17640
586.618	19567
586.637	20337
586.672	22865
586.709	26539
586.727	27759
586.781	29810
586.781	29805
586.835	22356
586.853	20603
586.889	18752
586.925	17723
586.944	17613
586.996	17924
586.998	17935
587.052	17563
587.068	17569
587.106	17715
587.140	17925
587.161	17961
587.212	17968
587.215	17993
587.269	18166
587.284	18384
587.323	19089
587.356	19339
587.377	19346
587.427	19806
587.431	19883
587.485	20526
587.499	20658
587.539	21054
587.571	21610
587.593	21886
587.643	23130
587.648	23250
587.702	22870
587.715	23041
587.755	23339
587.786	23130
587.810	23214
587.858	23722
587.864	23761
587.917	23912
587.930	23947
587.971	24068
588.001	24273
588.025	24445
588.073	24139
588.079	24191
588.133	24772
588.145	25079
588.187	24945
588.217	24472
588.241	25057
588.288	26643
588.295	26780
588.348	27130
588.360	27309
588.402	28055
588.431	28403
588.456	28687
588.503	30041
588.510	30374
588.564	32202
588.575	32754
588.617	34245
588.646	35304
588.671	37008
588.718	39804
588.725	40522
588.778	48247
588.789	50299
588.832	75452
588.861	96355
588.886	139787
588.932	236425
588.939	244602
588.993	296980
589.004	293610
589.047	156001
589.075	77605
589.100	59868
589.147	39984
589.154	39300
589.207	35548
589.218	35001
589.261	36797
589.290	37984
589.314	38671
589.361	41082
589.368	42660
589.421	56910
589.433	60771
589.475	103655
589.504	138066
589.528	181766
589.576	273847
589.582	264963
589.635	130252
589.647	103782
589.689	58888
589.718	34772
589.742	32976
589.790	29519
589.795	29338
589.849	28204
589.861	27920
589.902	26994
589.932	26364
589.955	26520
590.004	26844
590.009	26839
590.062	26627
590.075	26520
590.115	26205
590.146	26090
590.168	26404
590.218	26858
590.222	26853
590.275	26640
590.289	26541
590.328	27634
590.360	28550
590.381	28794
590.431	29247
590.435	29246
590.488	28701
590.503	28546
590.541	29359
590.574	29870
590.594	29859
590.645	30281
590.647	30370
590.700	31679
590.716	32176
590.753	33095
590.787	33809
590.806	33965
590.859	33993
590.859	34032
590.912	34744
590.930	34943
590.965	35257
591.001	35640
591.018	35602
591.071	35004
591.072	34967
591.124	34881
591.143	34832
591.177	34760
591.214	34669
591.230	35097
591.283	36342
591.285	36352
591.336	35424
591.356	35068
591.389	35512
591.427	35825
591.442	35586
591.495	34704
591.498	34602
591.547	34994
591.569	35251
591.600	35322
591.640	35125
591.653	35406
591.706	36576
591.711	36670
591.759	38006
591.782	38645
591.811	39499
591.853	40682
591.864	40793
591.917	40984
591.924	40981
591.969	40098
591.995	39529
592.022	39784
592.066	40108
592.075	40479
592.127	42646
592.137	42983
592.180	43162
592.208	43259
592.233	43499
592.279	43860
592.285	44161
592.338	46387
592.350	46841
592.390	46513
592.421	46198
592.443	46400
592.491	46723
592.495	46822
592.548	47666
592.562	47863
592.600	47683
592.633	47456
592.653	47556
592.704	47463
592.705	47748
592.775	48476
592.846	49763
592.916	50924
592.987	50784
593.058	51279
593.128	52532
593.199	52706
593.270	53077
593.341	54621
593.411	57772
593.482	58598
593.553	61296
593.623	60924
593.694	62664
593.764	62117
593.835	62806
593.906	62470
593.976	64457
594.047	65677
594.117	68246
594.188	70761
594.258	70444
594.329	70587
594.399	72267
594.470	75895
594.540	78161
594.611	78997
594.681	78689
594.751	79021
594.822	81277
594.892	84296
594.963	87353
595.033	89076
595.103	92070
595.174	92913
595.244	95007
595.314	99480
595.384	99731
595.455	104949
595.525	107345
595.595	112386
595.665	111481
595.736	107419
595.806	111618
595.876	111642
595.946	113423
596.016	117944
596.087	120985
596.157	121093
596.227	121617
596.297	130039
596.367	138433
596.437	146572
596.507	143025
596.577	143742
596.647	150745
596.717	156627
596.787	159778
596.857	158215
596.927	160405
596.997	159221
597.067	164342
597.137	164034
597.207	164409
597.277	166165
597.347	160061
597.417	154848
597.487	156335
597.557	159219
597.626	162562
597.696	166443
597.766	163398
597.836	153799
597.906	145693
597.975	145436
598.045	146983
598.115	155166
598.185	166532
598.254	185515
598.324	201353
598.394	203397
598.464	197461
598.533	193082
598.603	181408
598.672	175988
598.742	178411
598.812	176990
598.881	185382
598.951	183404
599.020	188075
599.090	194661
599.159	197695
599.229	184767
599.299	186102
599.368	189922
599.437	184923
599.507	169457
599.576	166103
599.646	161054
599.715	158053
599.785	158663
599.854	153878
599.924	150506
599.993	151085
600.062	153446
600.132	157164
600.201	169614
600.270	196440
600.340	204483
600.409	202023
600.478	201414
600.547	205900
600.617	180764
600.686	143326
600.755	131785
600.824	124130
600.894	121002
600.963	120625
601.032	119532
601.101	116390
601.170	109160
601.239	103609
601.308	105825
601.378	106289
601.447	106176
601.516	105873
601.585	107163
601.654	108593
601.723	109990
601.792	111907
601.861	118378
601.930	121912
601.999	120209
602.068	120544
602.137	123576
602.206	125321
602.275	125536
602.343	128123
602.412	129241
602.481	129455
602.550	130901
602.619	135445
602.688	135676
602.756	138140
602.825	140196
602.894	142412
602.963	146198
603.032	147777
603.100	149897
603.169	150584
603.238	149358
603.307	151385
603.375	152638
603.444	156647
603.513	158975
603.581	161507
603.650	162579
603.719	161701
603.787	166919
603.856	171062
603.924	176039
603.993	182708
604.061	188951
604.130	198541
604.198	200804
604.267	205330
604.335	207102
604.404	212261
604.472	214911
604.541	218428
604.609	219034
604.678	217471
604.746	220130
604.815	228077
604.883	229501
604.951	229590
605.020	234465
605.088	239186
605.156	245101
605.225	249173
605.293	248605
605.361	249408
605.429	253439
605.498	258884
605.566	264872
605.634	277961
605.702	288197
605.771	296144
605.839	295742
605.907	290888
605.975	279306
606.043	276759
606.111	273938
606.180	274925
606.248	271333
606.316	268742
606.384	269903
606.452	273557
606.520	279459
606.588	291288
606.656	292598
606.724	286389
606.792	269840
606.860	241162
606.928	219679
606.996	213662
607.064	210231
607.132	216189
607.200	225818
607.267	236543
607.335	241854
607.403	244364
607.471	236157
607.539	229760
607.607	229519
607.674	201796
607.742	202569
607.810	200729
607.878	202921
607.946	206485
608.013	216328
608.081	221364
608.149	221456
608.216	232751
608.284	237997
608.352	238201
608.419	232397
608.487	230363
608.555	226262
608.622	232943
608.690	250467
608.757	275249
608.825	279102
608.893	270981
608.960	255051
609.028	245341
609.095	244004
609.163	241488
609.230	215624
609.298	198461
609.365	213174
609.432	230583
609.500	250014
609.567	286764
609.635	327782
609.702	338442
609.769	320714
609.837	245266
609.904	215699
609.971	224021
610.039	243498
610.106	299973
610.173	506653
610.241	992882
610.308	537300
610.375	261937
610.442	232997
610.509	223944
610.577	223984
610.644	229840
610.711	238096
610.778	243432
610.845	252959
610.912	269698
610.980	278116
611.047	279935
611.114	273924
611.181	264135
611.248	266213
611.315	282105
611.382	288258
611.449	299140
611.516	299937
611.583	296515
611.650	297437
611.717	300049
611.784	306536
611.851	319341
611.918	332590
611.984	374339
612.051	477186
612.118	792834
612.185	1497671
612.252	956059
612.319	429736
612.386	382663
612.452	352959
612.519	335523
612.586	331141
612.653	338966
612.719	349571
612.786	337294
612.853	311724
612.919	307276
612.986	312051
613.053	292960
613.120	276018
613.186	265357
613.253	269258
613.319	270369
613.386	272502
613.453	275742
613.519	277310
613.586	270053
613.652	276461
613.719	271666
613.785	277099
613.852	280591
613.918	276621
613.985	281966
614.051	292457
614.118	288888
614.184	276993
614.250	279146
614.317	283585
614.383	281046
614.449	285890
614.516	285407
614.582	284655
614.648	279855
614.715	278919
614.781	272032
614.847	270834
614.914	271291
614.980	262766
615.046	264372
615.112	272414
615.179	272063
615.245	276613
615.311	272741
615.377	276306
615.443	278838
615.509	281009
615.575	290412
615.642	288432
615.708	294838
615.774	305410
615.840	319468
615.906	334769
615.972	385295
616.038	521064
616.104	921516
616.170	1637457
616.236	1295818
616.302	554352
616.368	467573
616.434	356481
616.500	335551
616.565	373944
616.631	455076
616.697	374370
616.763	390052
616.829	567704
616.895	927794
616.961	802557
617.026	382747
617.092	301339
617.158	290172
617.224	280955
617.289	261627
617.355	252138
617.421	248390
617.487	250385
617.552	236940
617.618	235287
617.684	237183
617.749	239919
617.815	228255
617.880	224240
617.946	224146
618.012	229468
618.077	234698
618.143	221876
618.208	225727
618.274	242761
618.339	239093
618.405	198848
618.470	200034
618.536	199178
618.601	196120
618.667	183133
618.732	175405
618.798	170519
618.863	173344
618.928	171051
618.994	173469
619.059	170450
619.124	171903
619.190	170046
619.255	171277
619.320	169934
619.386	172014
619.451	169640
619.516	164995
619.581	167305
619.647	171496
619.712	170548
619.777	163928
619.842	164636
619.907	170178
619.972	171550
620.038	169861
620.103	165530
620.168	166118
620.233	169682
620.298	167706
620.363	171487
620.428	177409
620.493	181377
620.558	182595
620.623	186208
620.688	184474
620.753	183492
620.818	188155
620.883	186744
620.948	186244
621.013	183768
621.078	180165
621.143	182124
621.207	186430
621.272	179827
621.337	174111
621.402	173929
621.467	171400
621.532	170855
621.596	173991
621.661	167910
621.726	166711
621.791	167402
621.855	169116
621.920	166666
621.985	169245
622.049	173324
622.114	172186
622.179	177354
622.243	180690
622.308	184899
622.373	192131
622.437	187520
622.502	175752
622.566	176767
622.631	175441
622.695	179263
622.760	177328
622.824	178242
622.889	178616
622.953	178725
623.018	188925
623.082	190025
623.147	188789
623.211	183122
623.276	184357
623.340	175170
623.404	172272
623.469	173815
623.533	176093
623.597	169726
623.662	170399
623.726	155418
623.790	148694
623.854	144023
623.919	147840
623.983	148533
624.047	151478
624.111	154466
624.176	156428
624.240	155466
624.304	161964
624.368	157070
624.432	156454
624.496	159548
624.560	167709
624.625	169190
624.689	168949
624.753	177240
624.817	166735
624.881	162017
624.945	146722
625.009	142321
625.073	147197
625.137	150296
625.201	158623
625.265	158669
625.329	151435
625.393	153120
625.456	154508
625.520	158803
625.584	160628
625.648	164991
625.712	168359
625.776	166135
625.839	157879
625.903	135005
625.967	125244
626.031	135825
626.095	158632
626.158	145908
626.222	115436
626.286	109937
626.349	103935
626.413	96631
626.477	97055
626.540	99071
626.604	96405
626.668	97107
626.731	95032
626.795	93702
626.858	95450
626.922	91375
626.986	91967
627.049	92576
627.113	96821
627.176	92862
627.240	90957
627.303	90303
627.366	89788
627.430	90747
627.493	88528
627.557	86483
627.620	89540
627.684	93326
627.747	94186
627.810	84084
627.874	77587
627.937	74025
628.000	77849
628.064	74909
628.127	65712
628.190	66782
628.253	65806
628.317	61266
628.380	57966
628.443	57479
628.506	56811
628.569	55176
628.632	53382
628.696	52855
628.759	52109
628.822	48039
628.885	47932
628.948	48504
629.011	47618
629.074	45401
629.137	44734
629.200	42299
629.263	43774
629.326	41774
629.389	42324
629.452	41529
629.515	41384
629.578	39520
629.641	41110
629.704	40623
629.767	40481
629.830	39554
629.892	38700
629.955	38375
630.018	41058
630.081	37637
630.144	39052
630.207	36064
630.269	39936
630.332	36824
630.395	36884
630.458	35068
630.520	33441
630.583	36230
630.646	36316
630.708	36173
630.771	35160
630.834	39028
630.896	38133
630.959	37749
631.021	37624
631.084	35874
631.146	37560
631.209	38205
631.272	37088
631.334	37093
631.397	38427
631.459	37634
631.522	40982
631.584	41749
631.646	44212
631.709	45059
631.771	45223
631.834	44359
631.896	40996
631.958	38291
632.021	37277
632.083	35175
632.145	36141
632.208	34791
632.270	35897
632.332	34960
632.395	34499
632.457	34978
632.519	33344
632.581	34888
632.643	31935
632.706	33528
632.768	32699
632.830	34553
632.892	35602
632.954	33387
633.016	36027
633.078	35082
633.141	34957
633.203	33650
633.265	34876
633.327	34675
633.389	34279
633.451	35086
633.513	33677
633.575	34757
633.637	34971
633.698	36082
633.760	38467
633.822	39460
633.884	40413
633.946	40222
634.008	42322
634.070	43431
634.132	45734
634.193	48847
634.255	54779
634.317	54807
634.379	54463
634.441	47903
634.502	43457
634.564	40046
634.626	37305
634.687	34967
634.749	34330
634.811	34247
634.873	34089
634.934	33907
634.996	34680
635.057	32732
635.119	33337
635.181	34930
635.242	35982
635.304	32792
635.365	37351
635.427	34225
635.488	34855
635.550	33410
635.611	35057
635.673	33664
635.734	38271
635.796	37413
635.857	44221
635.918	44578
635.980	51833
636.041	52937
636.102	58577
636.164	58659
636.225	56777
636.286	45698
636.348	42900
636.409	38184
636.470	35565
636.531	35037
636.593	32799
636.654	31916
636.715	30506
636.776	30684
636.838	29898
636.899	30326
636.960	28845
637.021	29024
637.082	27564
637.143	28679
637.204	26452
637.265	27334
637.326	29033
637.387	29517
637.448	28178
637.509	28591
637.570	28167
637.631	28462
637.692	26708
637.753	25460
637.814	27888
637.875	25720
637.936	26390
637.997	25762
638.058	25582
638.119	26468
638.179	26497
638.240	25565
638.301	26550
638.362	24649
638.423	24777
638.483	25293
638.544	22781
638.605	24701
638.666	23979
638.726	24450
638.787	23891
638.848	24149
638.908	23789
638.969	24199
639.030	23120
639.090	21460
639.151	22491
639.211	23997
639.272	24205
639.332	24093
639.393	25187
639.453	25665
639.514	26738
639.574	24254
639.635	22685
639.695	22493
639.756	20555
639.816	21656
639.877	22607
639.937	23291
639.997	22587
640.058	20266
640.118	21225
640.178	22129
640.239	21132
640.299	21631
640.359	21366
640.420	23294
640.480	26641
640.540	31092
640.600	29308
640.661	25991
640.721	23763
640.781	25409
640.841	20576
640.901	22378
640.961	22867
641.021	24108
641.082	25594
641.142	22236
641.202	22231
641.262	18845
641.322	21594
641.382	19250
641.442	20865
641.502	19701
641.562	21569
641.622	20401
641.682	23440
641.742	26341
641.802	23637
641.861	20821
641.921	19295
641.981	20345
642.041	19604
642.101	18624
642.161	18414
642.221	18160
642.280	18793
642.340	18251
642.400	18905
642.460	20520
642.519	19258
642.579	20198
642.639	21097
642.698	17936
642.758	22423
642.818	20160
642.877	19514
642.937	19865
642.997	20544
643.056	20753
643.116	18815
643.175	22534
643.235	20717
643.294	20697
643.354	24048
643.414	24524
643.473	28606
643.532	35079
643.592	44276
643.651	67756
643.711	113410
643.770	210752
643.830	499734
643.889	845428
643.948	223156
644.008	57179
644.067	37066
644.126	28138
644.186	25713
644.245	23541
644.304	20877
644.363	24220
644.423	19805
644.482	21327
644.541	22183
644.600	22425
644.659	29861
644.719	35926
644.778	53184
644.837	91786
644.896	190685
644.955	391417
645.014	112896
645.073	32565
645.132	24277
645.191	23025
645.250	22129
645.309	24092
645.368	25693
645.427	36455
645.486	63013
645.545	101632
645.604	29216
645.663	21144
645.722	20421
645.781	22601
645.840	24780
645.898	31147
645.957	43645
646.016	62766
646.075	108758
646.134	204066
646.192	533808
646.251	642312
646.310	116203
646.369	43011
646.427	36495
646.486	26612
646.545	22251
646.603	20910
646.662	19043
646.721	20029
646.779	18996
646.838	19558
646.896	26612
646.955	35496
647.014	55382
647.072	108826
647.131	281233
647.189	113023
647.248	22811
647.306	17971
647.365	17352
647.423	13282
647.481	16489
647.540	14481
647.598	14878
647.657	13692
647.715	15262
647.773	12370
647.832	14567
647.890	11616
647.948	11768
648.007	13029
648.065	11643
648.123	11100
648.181	13702
648.240	11955
648.298	10603
648.356	11181
648.414	12708
648.472	11702
648.531	11214
648.589	10655
648.647	10702
648.705	10930
648.763	11475
648.821	11642
648.879	12287
648.937	14286
648.995	17406
649.053	21895
649.111	33486
649.169	53017
649.227	93591
649.285	199789
649.343	514272
649.401	209339
649.459	33446
649.516	20231
649.574	16066
649.632	18180
649.690	20370
649.748	26150
649.806	38622
649.863	75098
649.921	208495
649.979	115109
650.037	18235
650.094	11079
650.152	11718
650.210	9376
650.268	10383
650.325	9553
650.383	7629
650.440	7968
650.498	8649
650.556	9044
650.613	7822
650.671	7905
650.728	8792
650.786	9614
650.843	12844
650.901	8691
650.958	8336
651.016	7211
651.073	7867
651.131	6931
651.188	6790
651.246	6584
651.303	6126
651.360	6765
651.418	6130
651.475	6726
651.532	5913
651.590	7018
651.647	5852
651.704	6230
651.762	6131
651.819	5718
651.876	5819
651.933	5485
651.990	6987
652.048	4037
652.105	5308
652.162	5508
652.219	5219
652.276	6252
652.333	6745
652.390	5180
652.448	6380
652.505	5598
652.562	5220
652.619	5268
652.676	4905
652.733	5635
652.790	5157
652.847	4651
652.904	5749
652.961	3542
653.017	4488
653.074	5147
653.131	5202
653.188	4747
653.245	5522
653.302	4865
653.359	5058
653.415	4618
653.472	4871
653.529	5629
653.586	4042
653.642	4186
653.699	5547
653.756	4612
653.813	5247
653.869	5363
653.926	5198
653.983	4266
654.039	4584
654.096	4411
654.152	5755
654.209	3768
654.266	4146
654.322	3677
654.379	4841
654.435	4548
654.492	4662
654.548	3900
654.605	3538
654.661	4497
654.717	4803
654.774	4274
654.830	4164
654.887	4084
654.943	4765
655.000	4217
655.056	5382
655.112	4005
655.168	3153
655.225	4780
655.281	5222
655.337	4516
655.394	3738
655.450	4221
655.506	3992
655.562	4059
655.618	4574
655.675	3601
655.731	4222
655.787	3302
655.843	4607
655.899	2756
655.955	4298
656.011	4577
656.067	3911
656.123	3546
656.179	4448
656.235	4607
656.291	3491
656.347	5981
656.403	4467
656.459	3385
656.515	4436
656.571	4064
656.627	4293
656.683	4344
656.739	4863
656.795	3518
656.850	4336
656.906	5242
656.962	5450
657.018	4245
657.074	6175
657.129	8119
657.185	14101
657.241	32545
657.297	16176
657.352	4857
657.408	3450
657.464	4743
657.519	4160
657.575	2910
657.630	4035
657.686	3801
657.742	2896
657.797	2882
657.853	3769
657.908	3615
657.964	2614
658.019	3294
658.075	4123
658.130	3612
658.186	2987
658.241	3568
658.297	2122
658.352	3158
658.407	3771
658.463	2723
658.518	3248
658.573	2795
658.629	2474
658.684	3218
658.739	4270
658.795	2885
658.850	3609
658.905	2424
658.960	2927
659.016	2530
659.071	3345
659.126	3100
659.181	3165
659.236	4086
659.291	4341
659.346	3315
659.401	3182
659.457	2540
659.512	2327
659.567	3114
659.622	2938
659.677	3004
659.732	2331
659.787	3143
659.842	2306
659.897	3051
659.952	3024
660.007	2936
660.061	3168
660.116	1627
660.171	2079
660.226	2952
660.281	4134
660.336	2278
660.391	3658
660.445	1608
660.500	2810
660.555	1739
660.610	3369
660.664	2956
660.719	2423
660.774	3149
660.828	2375
660.883	2368
660.938	2924
660.992	1900
661.047	2833
661.101	2217
661.156	2502
661.211	2509
661.265	1996
661.320	2160
661.374	2260
661.429	2469
661.483	3412
661.538	2330
661.592	1465
661.647	2785
661.701	2537
661.755	2936
661.810	3232
661.864	2347
661.919	1925
661.973	2917
662.027	2322
662.081	2768
662.136	2974
662.190	3172
662.244	3026
662.299	1858
662.353	3123
662.407	2787
662.461	2164
662.515	2065
662.569	2136
662.624	2446
662.678	2665
662.732	2443
662.786	2467
662.840	2536
662.894	2932
662.948	2458
663.002	2656
663.056	2275
663.110	2352
663.164	2330
663.218	2090
663.272	2420
663.326	2604
663.380	2803
663.434	3255
663.488	2151
663.542	2468
663.595	2714
663.649	2345
663.703	2569
663.757	2748
663.811	2161
663.864	2539
663.918	3170
663.972	2330
664.026	2462
664.079	2532
664.133	3646
664.187	1969
664.240	2958
664.294	2657
664.348	2879
664.401	2800
664.455	2301
664.508	2571
664.562	2140
664.615	2618
664.669	1814
664.722	2246
664.776	2318
664.829	3527
664.883	2554
664.936	2517
664.990	2625
665.043	3189
665.097	2571
665.150	2788
665.203	1668
665.257	2975
665.310	3237
665.363	2946
665.417	3209
665.470	3452
665.523	2165
665.576	3791
665.630	2285
665.683	3875
665.736	2853
665.789	2336
665.842	2826
665.895	2381
665.949	2771
666.002	3364
666.055	2507
666.108	3606
666.161	3287
666.214	3982
666.267	2811
666.320	4164
666.373	3078
666.426	3747
666.479	2966
666.532	3179
666.585	3005
666.638	4256
666.691	2904
666.744	2969
666.796	2948
666.849	2703
666.902	3307
666.955	3056
667.008	2994
667.060	2461
667.113	2688
667.166	3239
667.219	3015
667.271	3558
667.324	2950
667.377	3596
667.430	3366
667.482	3540
667.535	2977
667.587	3951
667.640	3521
667.693	3230
667.745	3547
667.798	3969
667.850	2824
667.903	3461
667.955	3429
668.008	3514
668.060	2997
668.113	3531
668.165	2474
668.218	3111
668.270	2359
668.322	2730
668.375	2519
668.427	3673
668.479	2234
668.532	4058
668.584	2579
668.636	2679
668.689	2880
668.741	2680
668.793	3142
668.845	3170
668.898	2757
668.950	2503
669.002	2733
669.054	2609
669.106	2217
669.158	2797
669.211	2213
669.263	2543
669.315	2579
669.367	3163
669.419	1975
669.471	3105
669.523	2139
669.575	3353
669.627	1671
669.679	2624
669.731	2467
669.783	2248
669.835	1869
669.886	2606
669.938	2218
669.990	3461
670.042	1960
670.094	3472
670.146	2120
670.197	2483
670.249	2509
670.301	2503
670.353	2411
670.404	3405
670.456	3375
670.508	4693
670.560	7483
670.611	8853
670.663	14595
670.715	37487
670.766	51395
670.818	12812
670.869	4067
670.921	3522
670.972	3472
671.024	2860
671.075	2183
671.127	3647
671.178	3001
671.230	3783
671.281	4394
671.333	4190
671.384	5232
671.436	7170
671.487	12137
671.538	17065
671.590	27357
671.641	46253
671.692	88827
671.744	164295
671.795	93621
671.846	28311
671.897	13235
671.949	8616
672.000	5575
672.051	5270
672.102	4823
672.153	4078
672.204	2974
672.256	3672
672.307	3222
672.358	2337
672.409	2654
672.460	2640
672.511	1274
672.562	2465
672.613	1842
672.664	2390
672.715	2398
672.766	1713
672.817	1953
672.868	1931
672.919	2433
672.970	1991
673.021	1227
673.071	852
673.122	1313
673.173	1716
673.224	1872
673.275	1476
673.326	1701
673.376	1332
673.427	1101
673.478	1990
673.528	1863
673.579	1775
673.630	946
673.680	2858
673.731	859
673.782	1435
673.832	1266
673.883	1564
673.934	1456
673.984	1444
674.035	1509
674.085	2157
674.136	2221
674.186	1686
674.237	1787
674.287	2644
674.338	1689
674.388	1466
674.438	1424
674.489	2131
674.539	2124
674.589	2458
674.640	2482
674.690	2259
674.740	1801
674.791	1976
674.841	1859
674.891	2040
674.942	1417
674.992	1632
675.042	1230
675.092	1211
675.142	98
675.193	1028
675.243	670
675.293	2014
675.343	1787
675.393	1950
675.443	1984
675.493	2178
675.543	1111
675.593	1527
675.643	1705
675.693	1805
675.743	1632
675.793	1642
675.843	574
675.893	1337
675.943	1241
675.993	1354
676.043	874
676.093	1150
676.142	545
676.192	937
676.242	1223
676.292	1279
676.341	750
676.391	973
676.441	716
676.491	1255
676.540	181
676.590	1014
676.640	968
676.689	374
676.739	94
676.789	327
676.838	1106
676.888	236
676.937	614
676.987	1134
677.037	1056
677.086	271
677.136	218
677.185	628
677.235	396
677.284	886
677.333	986
677.383	1113
677.432	-60
677.482	945
677.531	1294
677.580	1730
677.630	663
677.679	471
677.728	1244
677.778	872
677.827	95
677.876	834
677.925	-195
677.975	1599
678.024	442
678.073	93
678.122	747
678.171	1116
678.220	805
678.269	2173
678.319	1940
678.368	2689
678.417	1165
678.466	1926
678.515	1681
678.564	644
678.613	626
678.662	-143
678.711	675
678.760	1310
678.809	129
678.857	434
678.906	981
678.955	841
679.004	894
679.053	233
679.102	1145
679.151	123
679.199	359
679.248	563
679.297	303
679.346	1305
679.394	615
679.443	273
679.492	507
679.540	1053
679.589	1093
679.638	652
679.686	681
679.735	1563
679.784	780
679.832	1773
679.881	759
679.929	830
679.978	1034
680.026	981
680.075	543
680.123	629
680.172	-131
680.220	802
680.268	1267
680.317	159
680.365	877
680.414	-309
680.462	77
680.510	385
680.559	327
680.607	831
680.655	665
680.703	660
680.752	391
680.800	1071
680.848	833
680.896	-219
680.945	769
680.993	901
681.041	134
681.089	811
681.137	756
681.185	242
681.233	665
681.258	612
681.281	543
681.329	-328
681.377	-243
681.380	-184
681.425	600
681.473	1073
681.502	1081
681.521	1046
681.569	644
681.617	78
681.624	151
681.665	490
681.713	477
681.745	923
681.761	1095
681.809	923
681.857	934
681.867	993
681.904	1129
681.952	1984
681.989	1295
682.000	1063
682.048	1294
682.096	503
682.111	832
682.143	1473
682.191	1102
682.233	1794
682.239	1879
682.286	1164
682.334	999
682.354	1059
682.382	1095
682.430	1621
682.476	1266
682.477	1242
682.525	862
682.572	1709
682.598	1456
682.620	1209
682.667	865
682.715	1592
682.720	1568
682.763	1159
682.810	2404
682.841	2020
682.857	1798
682.905	1342
682.952	2171
682.963	2082
683.000	1701
683.047	1661
683.085	2391
683.095	2569
683.142	2096
683.190	2615
683.206	2257
683.237	1544
683.284	2446
683.328	2020
683.332	1978
683.379	1984
683.426	2052
683.449	2057
683.473	1982
683.521	2016
683.568	2675
683.571	2635
683.615	1909
683.662	1969
683.693	1957
683.709	1926
683.757	2146
683.804	2588
683.814	2497
683.851	2172
683.898	2519
683.936	2398
683.945	2354
683.992	2512
684.039	3072
684.057	2780
684.086	2245
684.133	1984
684.179	1863
684.180	1849
684.227	2825
684.274	2622
684.300	2799
684.321	2960
684.368	1918
684.415	2885
684.422	2945
684.462	3099
684.509	2469
684.543	1962
684.556	1808
684.603	2854
684.649	3309
684.665	3495
684.696	3742
684.743	2789
684.786	3067
684.790	3088
684.837	2551
684.883	2708
684.908	2716
684.930	2719
684.977	3350
685.023	3047
685.029	3121
685.070	3580
685.117	3477
685.150	3230
685.164	3106
685.210	3029
685.257	3710
685.272	3573
685.303	3307
685.350	3475
685.393	3425
685.396	3401
685.443	2954
685.490	3621
685.514	3336
685.536	3218
685.583	3149
685.629	3773
685.636	3788
685.675	3604
685.722	3418
685.757	3274
685.768	3243
685.815	2666
685.861	3344
685.878	3416
685.908	3607
685.954	3438
686.000	3830
686.000	3831
686.047	3284
686.093	4462
686.121	4567
686.139	4620
686.185	4241
686.232	3835
686.242	3908
686.278	4120
686.324	3890
686.363	3765
686.370	3734
686.416	4170
686.463	4611
686.484	4287
686.509	4029
686.555	4289
686.601	4640
686.606	4663
686.647	4533
686.693	4554
686.727	4447
686.739	4486
686.785	3814
686.831	4563
686.848	4493
686.877	4254
686.923	4080
686.969	4170
686.969	4171
687.015	4401
687.061	5325
687.090	5377
687.107	5239
687.153	4921
687.199	5064
687.211	4984
687.245	4972
687.291	5157
687.332	4947
687.336	4923
687.382	4864
687.428	4839
687.453	5173
687.474	5423
687.520	4769
687.565	5162
687.574	5071
687.611	4824
687.657	5142
687.695	5179
687.702	5210
687.748	5550
687.794	5722
687.816	5933
687.839	5913
687.885	5310
687.931	5577
687.937	5512
687.976	5421
688.022	5498
688.058	5937
688.067	5989
688.113	5354
688.158	4901
688.179	5045
688.204	5507
688.249	5400
688.295	5800
688.300	5815
688.340	5538
688.386	5764
688.421	5304
688.431	5236
688.477	5628
688.522	5292
688.542	5439
688.567	5656
688.613	6512
688.658	6506
688.663	6515
688.703	6527
688.749	6479
688.784	6379
688.794	6317
688.839	6394
688.884	5925
688.905	5855
688.930	5993
688.975	6309
689.020	6901
689.026	6855
689.065	6184
689.110	6040
689.146	5878
689.155	5904
689.201	6317
689.246	6100
689.267	6131
689.291	6239
689.336	6361
689.381	6662
689.388	6619
689.426	6244
689.471	6656
689.509	6074
689.516	5997
689.561	6342
689.606	6477
689.630	6397
689.651	6376
689.696	6293
689.741	7062
689.750	7049
689.785	6908
689.830	6643
689.871	6471
689.875	6461
689.920	6870
689.965	6164
689.992	6196
690.010	6235
690.054	6377
690.099	6353
690.112	6226
690.144	6132
690.189	6564
690.233	6425
690.233	6433
690.278	6309
690.323	6671
690.354	6499
690.367	6520
690.412	6618
690.457	6878
690.474	6854
690.501	6741
690.546	6711
690.590	7010
690.595	6992
690.635	6859
690.680	6367
690.716	6305
690.724	6348
690.769	6363
690.813	7119
690.836	6895
690.857	7000
690.902	8051
690.946	8431
690.957	8598
690.991	8718
691.035	9036
691.077	9329
691.080	9345
691.124	9023
691.168	8584
691.198	8147
691.213	7886
691.257	7894
691.301	7183
691.318	7121
691.346	7400
691.390	7488
691.434	7614
691.439	7615
691.478	7489
691.522	7419
691.559	6954
691.567	6999
691.611	8019
691.655	8152
691.680	8656
691.699	8649
691.743	8107
691.787	7961
691.800	7695
691.831	7385
691.875	7431
691.919	7416
691.921	7403
691.964	7536
692.008	7637
692.041	7643
692.052	7710
692.096	7669
692.139	8074
692.162	8189
692.183	8059
692.227	7726
692.271	7437
692.282	7387
692.315	7730
692.359	7951
692.402	8231
692.403	8247
692.447	8105
692.490	7997
692.523	7714
692.534	7688
692.578	8168
692.622	8161
692.643	8145
692.666	8061
692.709	8178
692.753	8340
692.763	8215
692.797	7889
692.840	7892
692.884	7921
692.884	7940
692.928	7931
692.971	7915
693.004	7717
693.015	7693
693.059	7999
693.102	8403
693.124	8228
693.146	8066
693.189	8384
693.233	8260
693.245	8280
693.276	8460
693.320	8691
693.363	8493
693.365	8477
693.407	8368
693.450	8016
693.485	7893
693.493	7996
693.537	8534
693.580	8852
693.605	9080
693.624	9209
693.667	9496
693.710	9818
693.725	9979
693.753	10947
693.797	11789
693.840	13243
693.845	13368
693.883	12574
693.926	11077
693.966	10369
693.970	10352
694.013	9547
694.056	9235
694.086	8498
694.099	8361
694.142	8260
694.185	8109
694.206	8048
694.229	8388
694.272	9116
694.315	9335
694.326	9499
694.358	9404
694.401	9122
694.444	8737
694.446	8693
694.487	8641
694.530	8750
694.566	8726
694.573	8753
694.616	8771
694.659	9111
694.686	9049
694.702	9123
694.745	9294
694.787	9753
694.806	9871
694.830	9710
694.873	9245
694.916	8758
694.926	8671
694.959	9165
695.002	9841
695.044	10271
695.046	10271
695.087	10142
695.130	9620
695.166	9678
695.172	9817
695.215	9983
695.258	10504
695.286	10635
695.301	10636
695.343	10919
695.386	10993
695.406	11030
695.428	11661
695.471	12908
695.514	13920
695.526	14282
695.556	15106
695.599	16041
695.641	16604
695.646	16671
695.684	15799
695.726	14418
695.766	13541
695.769	13569
695.811	13226
695.854	12873
695.886	12731
695.896	12939
695.938	13442
695.981	14050
696.005	14362
696.023	14610
696.065	15000
696.108	15468
696.125	15666
696.150	16147
696.192	16879
696.235	17608
696.245	17727
696.277	17483
696.319	16954
696.361	16767
696.365	16692
696.404	16719
696.446	16719
696.485	16783
696.488	16831
696.530	16798
696.572	16741
696.604	16665
696.614	16716
696.656	16847
696.698	17006
696.724	17012
696.740	17120
696.783	17343
696.825	17609
696.844	17554
696.867	17414
696.909	17306
696.951	17098
696.964	17042
696.992	17488
697.034	17954
697.076	18375
697.083	18419
697.118	19069
697.160	19674
697.202	20399
697.203	20365
697.244	19705
697.286	19060
697.323	18294
697.327	18340
697.369	18440
697.411	18479
697.442	18510
697.453	18550
697.494	18427
697.536	18458
697.562	18336
697.578	18437
697.620	18601
697.661	18808
697.682	18852
697.703	19292
697.744	20121
697.786	20933
697.801	21147
697.828	20892
697.869	20439
697.911	19963
697.921	19811
697.952	19582
697.994	19109
698.035	18747
698.040	18650
698.077	19434
698.118	20265
698.160	21011
698.160	20958
698.201	21469
698.243	21853
698.279	22209
698.284	22312
698.325	22677
698.367	23039
698.399	23276
698.408	23380
698.449	23599
698.491	23784
698.518	23834
698.532	23973
698.573	24234
698.614	24508
698.638	24592
698.656	24615
698.697	24529
698.738	24418
698.757	24314
698.779	24452
698.820	24584
698.862	24721
698.877	24709
698.903	24629
698.944	24399
698.985	24163
698.996	24039
699.026	24105
699.067	24107
699.116	24050
699.235	23691
699.354	22936
699.474	22337
699.593	21029
699.713	22714
699.832	22337
699.951	23555
700.070	22445
700.190	21138
700.309	20955
700.428	20854
700.547	20156
700.667	19387
700.786	20892
700.905	18570
701.024	19848
701.143	18689
701.262	21847
701.381	20299
701.500	21218
701.619	20299
701.738	20581
701.857	19933
701.976	18593
702.095	20263
702.214	20587
702.333	19108
702.452	20733
702.571	20790
702.690	20018
702.809	19783
702.928	19205
703.047	17553
703.165	19147
703.284	18666
703.403	19037
703.522	17624
703.640	18048
703.759	18199
703.878	16910
703.997	17281
704.115	18044
704.234	17604
704.353	18637
704.471	15503
704.590	16781
704.708	15584
704.827	15843
704.946	15495
705.064	16815
705.183	15783
705.301	15873
705.420	14828
705.538	15758
705.656	13289
705.775	14645
705.893	14819
706.012	15393
706.130	14679
706.249	15051
706.367	13870
706.485	13413
706.604	13565
706.722	14618
706.840	14526
706.958	15641
707.077	13419
707.195	14480
707.313	12689
707.431	12745
707.549	12200
707.668	12066
707.786	14100
707.904	13447
708.022	13215
708.140	12678
708.258	11596
708.376	13542
708.494	11005
708.612	14373
708.730	12528
708.848	12933
708.966	12327
709.084	12735
709.202	12166
709.320	11509
709.438	11201
709.556	11927
709.674	10221
709.791	11163
709.909	11426
710.027	10995
710.145	10058
710.263	11252
710.380	10755
710.498	10702
710.616	10967
710.733	10973
710.851	10097
710.969	11058
711.086	9759
711.204	10012
711.322	10678
711.439	10651
711.557	9478
711.674	9736
711.792	9809
711.909	10719
712.027	9924
712.144	9540
712.262	9506
712.379	9979
712.497	9297
712.614	9525
712.732	9829
712.849	9773
712.966	10338
713.084	10539
713.201	8089
713.318	10331
713.436	10421
713.553	8998
713.670	10978
713.787	10590
713.905	9396
714.022	9927
714.139	10664
714.256	15279
714.373	23012
714.490	47340
714.608	144972
714.725	586164
714.842	375101
714.959	33918
715.076	15863
715.193	13232
715.310	12096
715.427	9849
715.544	9943
715.661	9843
715.778	8654
715.895	10082
716.011	8226
716.128	9418
716.245	8553
716.362	9126
716.479	6994
716.596	9088
716.713	8930
716.829	7786
716.946	6933
717.063	7637
717.180	6945
717.296	7885
717.413	8023
717.530	7219
717.646	6883
717.763	7106
717.880	5894
717.996	6923
718.113	6549
718.229	7474
718.346	6013
718.462	7188
718.579	7941
718.695	7039
718.812	5717
718.928	7003
719.045	5488
719.161	6738
719.277	7140
719.394	7925
719.510	7415
719.626	8912
719.743	11365
719.859	21999
719.975	50384
720.092	227871
720.208	352712
720.324	31172
720.440	10253
720.557	8917
720.673	8419
720.789	7527
720.905	6296
721.021	6614
721.137	5613
721.253	6533
721.369	6085
721.486	6915
721.602	5535
721.718	5966
721.834	5763
721.950	6642
722.066	5043
722.181	5775
722.297	6082
722.413	5917
722.529	4770
722.645	5399
722.761	4625
722.877	4683
722.993	6408
723.108	8764
723.224	6273
723.340	6039
723.456	5105
723.571	5512
723.687	4842
723.803	6190
723.918	5287
724.034	5427
724.150	4496
724.265	5972
724.381	3568
724.497	5682
724.612	4601
724.728	5151
724.843	4108
724.959	5293
725.074	4837
725.190	5414
725.305	4958
725.421	4668
725.536	4955
725.651	5274
725.767	5392
725.882	5748
725.997	4425
726.113	5480
726.228	4923
726.343	5224
726.459	3805
726.574	4592
726.689	4990
726.804	5588
726.920	4719
727.035	5177
727.150	4951
727.265	5124
727.380	5042
727.495	5655
727.610	4530
727.725	4637
727.841	4059
727.956	4650
728.071	4341
728.186	4367
728.301	3546
728.416	5688
728.531	4857
728.645	4683
728.760	4687
728.875	5020
728.990	3567
729.105	4136
729.220	3644
729.335	4610
729.449	4581
729.564	5098
729.679	3905
729.794	5812
729.908	4675
730.023	5631
730.138	4976
730.253	4858
730.367	4728
730.482	4757
730.596	3966
730.711	6555
730.826	7452
730.940	7104
731.055	6706
731.169	6606
731.284	6231
731.398	6382
731.513	6928
731.627	8286
731.742	9798
731.856	12994
731.970	11597
732.085	14969
732.199	21371
732.313	42752
732.428	123027
732.542	361877
732.656	142338
732.771	27722
732.885	17797
732.999	17526
733.113	17930
733.227	18104
733.342	17359
733.456	17101
733.570	15723
733.684	15025
733.798	14497
733.912	15143
734.026	15042
734.140	15068
734.254	13074
734.368	13609
734.482	13143
734.596	13216
734.710	13129
734.824	14022
734.938	13798
735.052	13439
735.166	13584
735.280	13796
735.393	12906
735.507	13693
735.621	12028
735.735	12358
735.849	12237
735.962	12208
736.076	11583
736.190	12581
736.303	13034
736.417	12385
736.531	11657
736.644	12264
736.758	10247
736.872	12452
736.985	11163
737.099	11291
737.212	11158
737.326	10774
737.439	10962
737.553	10759
737.666	11766
737.780	10695
737.893	10725
738.007	10366
738.120	11144
738.233	10657
738.347	9662
738.460	9921
738.573	10843
738.687	9837
738.800	9944
738.913	10769
739.026	9060
739.140	9949
739.253	9442
739.366	9340
739.479	10117
739.592	9915
739.705	7862
739.818	10442
739.932	8447
740.045	10966
740.158	9036
740.271	9304
740.384	8010
740.497	8899
740.610	9207
740.723	8805
740.836	8782
740.949	8966
741.062	9346
741.174	8594
741.287	8697
741.400	8409
741.513	7391
741.626	9064
741.739	8129
741.851	8945
741.964	8484
742.077	8504
742.189	6902
742.302	9804
742.415	7596
742.527	8403
742.640	7558
742.753	7244
742.865	8522
742.978	7542
743.090	7677
743.203	8710
743.316	7181
743.428	7388
743.541	7103
743.653	7235
743.766	7913
743.878	7274
743.990	6153
744.103	7872
744.215	7092
744.327	6979
744.440	8964
744.552	6848
744.664	6155
744.777	8305
744.889	6266
745.001	7566
745.113	7652
745.226	6681
745.338	6119
745.450	7601
745.562	6017
745.674	6573
745.786	7265
745.898	7376
746.010	5885
746.122	8273
746.234	5715
746.347	6370
746.459	6572
746.570	4872
746.682	7890
746.794	7601
746.906	5884
747.018	6321
747.130	6492
747.242	6636
747.354	5838
747.466	6580
747.577	4609
747.689	7238
747.801	6555
747.913	5630
748.024	4610
748.136	5489
748.248	5280
748.359	5574
748.471	6264
748.583	4703
748.694	4801
748.806	6052
748.918	4513
749.029	5534
749.141	5968
749.252	6390
749.364	5426
749.475	5500
749.587	4927
749.698	5219
749.809	5951
749.921	6541
750.032	4849
750.144	5055
750.255	4145
750.366	4908
750.478	4608
750.589	4849
750.700	3924
750.811	6299
750.923	4715
751.034	5028
751.145	5025
751.256	4453
751.367	5598
751.479	3840
751.590	4546
751.701	4394
751.812	3762
751.923	4719
752.034	6211
752.145	5014
752.256	5169
752.367	4487
752.478	4486
752.589	5015
752.700	3950
752.811	4036
752.922	4551
753.032	5497
753.143	4742
753.254	4862
753.365	5466
753.476	5667
753.586	4708
753.697	4249
753.808	3666
753.919	3876
754.029	4341
754.140	4907
754.251	3976
754.361	4136
754.472	5359
754.582	4703
754.693	4270
754.804	5963
754.914	4052
755.025	3807
755.135	4611
755.246	5217
755.356	2672
755.466	3914
755.577	3862
755.687	5754
755.798	3997
755.908	4492
756.018	4062
756.129	4258
756.239	4119
756.349	4411
756.460	4670
756.570	4882
756.680	3552
756.790	4860
756.900	4634
757.011	4508
757.121	3538
757.231	3239
757.341	3819
757.451	4054
757.561	2774
757.671	4768
757.781	3577
757.891	4810
758.001	3149
758.111	4723
758.221	4739
758.331	5075
758.441	3984
758.551	3792
758.661	4559
758.771	3794
758.880	3984
758.990	4334
759.100	3841
759.210	4003
759.320	3748
759.429	3979
759.539	4208
759.649	4930
759.758	5431
759.868	6757
759.978	5493
760.087	7166
760.197	6629
760.307	5133
760.416	5207
760.526	4601
760.635	6395
760.745	6469
760.854	6799
760.964	7900
761.073	6736
761.182	6663
761.292	4882
761.401	5122
761.511	4567
761.620	4640
761.729	3452
761.839	3993
761.948	4251
762.057	2781
762.166	3692
762.276	2692
762.385	4259
762.494	3804
762.603	3326
762.712	4441
762.822	3055
762.931	3639
763.040	2748
763.149	3359
763.258	2472
763.367	4504
763.476	3599
763.585	3639
763.694	2808
763.803	3549
763.912	3720
764.021	4533
764.130	2872
764.238	3919
764.347	3539
764.456	4434
764.565	3611
764.674	4226
764.783	3288
764.891	4235
765.000	4954
765.109	4695
765.217	4023
765.326	6098
765.435	5615
765.543	6821
765.652	6377
765.761	9615
765.869	11480
765.978	17710
766.086	31230
766.195	63133
766.303	163161
766.412	347216
766.520	241791
766.629	78578
766.737	32262
766.846	20177
766.954	12552
767.062	11730
767.171	8362
767.279	7657
767.387	5594
767.496	5768
767.604	3946
767.712	4747
767.820	4042
767.928	4385
768.037	2839
768.145	4979
768.253	3679
768.361	4042
768.469	4045
768.577	3960
768.685	4687
768.793	5409
768.901	3896
769.009	5208
769.117	5886
769.225	6663
769.333	8976
769.441	14665
769.549	24969
769.657	60944
769.765	183522
769.873	263257
769.981	91727
770.088	27296
770.196	13492
770.304	11308
770.412	8848
770.519	7136
770.627	6256
770.735	5352
770.842	6420
770.950	5868
771.058	5609
771.165	6889
771.273	7136
771.380	7716
771.488	10063
771.595	11468
771.703	9326
771.810	8962
771.918	9148
772.025	11505
772.133	11867
772.240	11817
772.348	14525
772.455	13921
772.562	11489
772.670	11568
772.777	11636
772.884	12477
772.991	10686
773.099	11573
773.206	10518
773.313	11341
773.420	11013
773.528	11682
773.635	11018
773.742	12054
773.849	9888
773.956	11675
774.063	10348
774.170	10860
774.277	11190
774.384	10216
774.491	9591
774.598	10544
774.705	8984
774.812	10449
774.919	9576
775.026	9482
775.133	9737
775.239	9499
775.346	8596
775.453	9584
775.560	8791
775.667	8678
775.773	7480
775.880	9627
775.987	7263
776.093	10684
776.200	9256
776.307	7316
776.413	8524
776.520	10807
776.627	7567
776.733	7777
776.840	5945
776.946	11263
777.053	8354
777.159	8061
777.266	5880
777.372	8825
777.478	8570
777.585	8256
777.691	6392
777.798	9274
777.904	6674
778.010	8025
778.117	6940
778.223	7759
778.329	7263
778.435	6353
778.542	7677
778.648	7718
778.754	6924
778.860	7550
778.966	7001
779.072	7376
779.178	6522
779.284	6271
779.391	6267
779.497	8001
779.603	8231
779.708	6024
779.815	6237
779.920	9199
780.026	8983
780.132	7163
780.238	5114
780.344	6644
780.450	8470
780.556	5294
780.661	6486
780.767	7158
780.873	3400
780.979	6580
781.085	6733
781.190	5838
781.296	5255
781.402	6271
781.507	5454
781.613	4875
781.719	6551
781.824	6820
781.930	5346
782.035	6518
782.141	5298
782.246	4769
782.352	4413
782.457	6113
782.563	5537
782.668	5616
782.773	3931
782.879	4833
782.984	4618
783.090	5003
783.195	5396
783.300	5819
783.405	4389
783.511	3789
783.616	5537
783.721	5441
783.826	3790
783.932	4551
784.037	4676
784.142	5081
784.247	4109
784.352	6114
784.457	3626
784.562	5402
784.667	4937
784.772	3744
784.877	3236
784.982	5838
785.087	4732
785.192	4281
785.297	4028
785.402	4495
785.507	3877
785.611	4972
785.716	3272
785.821	5136
785.926	4042
786.031	4463
786.135	4173
786.240	4999
786.345	2363
786.450	3522
786.554	3908
786.659	3909
786.763	3443
786.868	4002
786.973	3737
787.077	3007
787.182	3620
787.286	5114
787.391	4528
787.495	2704
787.600	2742
787.704	4084
787.809	4180
787.913	2947
788.017	3801
788.122	5524
788.226	2896
788.330	3134
788.435	3647
788.539	4332
788.643	2440
788.747	2474
788.852	3247
788.956	3283
789.060	4553
789.164	3609
789.268	2030
789.372	4407
789.476	3180
789.580	2106
789.684	2087
789.788	4747
789.892	2784
789.996	2913
790.100	1542
790.204	3874
790.308	4167
790.412	1905
790.516	1481
790.620	3062
790.724	3633
790.828	3331
790.931	1654
791.035	4140
791.139	1635
791.242	3846
791.346	2791
791.450	3713
791.554	1831
791.657	2191
791.761	3255
791.864	4075
791.968	3410
792.072	3340
792.175	1892
792.279	2551
792.382	1987
792.486	2415
792.589	2618
792.693	2604
792.796	1221
792.899	3780
793.003	3268
793.106	1813
793.209	1900
793.313	3884
793.416	24
793.519	3357
793.623	3779
793.726	3711
793.829	1275
793.932	2035
794.035	834
794.138	3965
794.242	3815
794.345	1604
794.448	847
794.551	2084
794.654	4015
794.757	4892
794.860	1335
794.963	3024
795.066	1118
795.169	3501
795.272	2054
795.375	2813
795.477	1912
795.580	2581
795.683	971
795.786	2886
795.889	1037
795.991	2402
796.094	2412
796.197	1635
796.300	2709
796.402	2475
796.505	1072
796.608	2223
796.710	2642
796.813	2894
796.915	2307
797.018	2484
797.120	3343
797.223	672
797.326	2800
797.428	1591
797.530	1078
797.633	1908
797.735	3163
797.838	2418
797.940	2896
798.042	1701
798.145	856
798.247	2194
798.349	-428
798.452	2965
798.554	1803
798.656	2058
798.758	2969
798.860	2025
798.962	1575
799.065	1913
799.167	816
799.269	2485
799.371	3497
799.473	3656
799.575	2072
799.677	2301
799.779	2812
799.881	817
799.983	2388
800.085	1993
800.187	2086
800.289	1971
800.390	1364
800.492	3393
800.594	2787
800.696	1570
800.798	1743
800.899	1421
801.001	1754
801.103	2203
801.205	1529
801.306	1485
801.408	1759
801.509	2931
801.611	2258
801.713	3385
801.814	863
801.916	2005
802.017	602
802.119	1154
802.220	1711
802.322	382
802.423	2983
802.525	352
802.626	1589
802.727	2022
802.829	1846
802.930	-619
803.031	2920
803.133	2229
803.234	1058
803.335	2499
803.436	1062
803.538	1484
803.639	1028
803.740	2719
803.841	1001
803.942	2101
804.043	1188
804.144	1530
804.245	709
804.346	1942
804.447	260
804.548	745
804.649	2507
804.750	1186
804.851	1115
804.952	1222
805.053	702
805.154	659
805.255	2132
805.355	1022
805.456	709
805.557	1708
805.658	-327
805.758	2551
805.859	1801
805.960	1760
806.061	337
806.161	1556
806.262	667
806.362	1242
806.463	774
806.564	2971
806.664	1554
806.765	537
806.865	949
806.966	621
807.066	510
807.166	1746
807.267	1184
807.367	795
807.468	1420
807.568	-163
807.668	1494
807.769	2319
807.869	739
807.969	837
808.069	79
808.170	1194
808.270	202
808.370	2178
808.470	1499
808.570	578
808.670	484
808.770	881
808.870	1014
808.970	1490
809.070	1176
809.170	1364
809.271	1489
809.370	838
809.470	1721
809.570	686
809.670	390
809.770	1178
809.870	1631
809.970	1782
810.070	1116
810.169	1504
810.269	-274
810.369	2128
810.469	437
810.568	934
810.668	407
810.768	771
810.867	958
810.967	797
811.066	486
811.166	989
811.265	901
811.365	819
811.464	1183
811.564	1739
811.663	973
811.763	-420
811.862	1874
811.962	2516
812.061	1159
812.160	229
812.260	548
812.359	1422
812.458	-14
812.557	2383
812.657	271
812.756	1131
812.855	1037
812.954	587
813.053	2196
813.153	1197
813.252	279
813.351	1394
813.450	1670
813.549	1770
813.648	1734
813.747	753
813.846	1380
813.945	1030
814.044	1279
814.143	1250
814.242	1475
814.341	1052
814.439	1678
814.538	2682
814.637	969
814.736	1572
814.835	2289
814.933	2056
815.032	2444
815.131	4425
815.229	8331
815.328	10711
815.427	7186
815.525	7555
815.624	6637
815.722	6384
815.821	6954
815.919	7076
816.018	6052
816.116	7877
816.215	5590
816.313	7981
816.412	9577
816.510	8388
816.609	9794
816.707	10240
816.805	8747
816.904	9393
817.002	8893
817.100	9922
817.198	10748
817.296	8293
817.395	8483
817.493	8746
817.591	7033
817.689	8227
817.787	7618
817.885	7473
817.983	7839
818.081	8100
818.179	7658
818.277	13142
818.375	9398
818.473	8144
818.571	6716
818.669	8633
818.767	9121
818.865	7158
818.963	5997
819.061	8102
819.158	6367
819.256	10184
819.354	8777
819.452	16131
819.549	8617
819.647	8415
819.745	6042
819.842	7435
819.940	7072
820.038	6879
820.135	5702
820.233	9039
820.330	5669
820.428	5738
820.525	6918
820.623	5649
820.720	5524
820.818	5722
820.915	6725
821.012	7053
821.110	4616
821.207	7138
821.304	5453
821.402	7096
821.499	6643
821.596	5825
821.693	6017
821.791	6501
821.888	5539
821.985	7175
822.082	3359
822.179	6952
822.276	5457
822.373	5134
822.470	4484
822.567	5691
822.664	3521
822.761	6887
822.858	6068
822.955	5775
823.052	3936
823.149	5218
823.246	5170
823.343	4052
823.440	5290
823.536	5607
823.633	4187
823.730	4467
823.827	4719
823.923	4523
824.020	5086
824.117	5855
824.213	4642
824.310	4592
824.407	4060
824.503	5958
824.600	3924
824.696	4431
824.793	5783
824.889	5086
824.986	3603
825.082	3703
825.179	3813
825.275	6363
825.371	4743
825.468	4285
825.564	2324
825.660	6330
825.757	5269
825.853	4786
825.949	3014
826.045	4141
826.142	3839
826.238	5265
826.334	4093
826.430	3815
826.526	2619
826.622	2721
826.718	4954
826.814	5188
826.910	3981
827.006	1913
827.102	2382
827.198	5289
827.294	5681
827.390	4717
827.486	3562
827.582	2191
827.678	2983
827.774	6558
827.869	2468
827.965	4539
828.061	2334
828.157	5517
828.252	4611
828.348	2578
828.444	3094
828.539	3707
828.635	3210
828.731	4939
828.826	2163
828.922	4540
829.017	3376
829.113	4842
829.208	2696
829.304	3421
829.399	5742
829.495	3584
829.590	3603
829.685	3033
829.781	3804
829.876	3629
829.971	1313
830.066	1567
830.162	3644
830.257	6044
830.352	2830
830.447	3177
830.543	2237
830.638	3129
830.733	4306
830.828	3024
830.923	3504
831.018	3477
831.113	4301
831.208	1712
831.303	1248
831.398	2248
831.493	3400
831.588	5297
831.683	1632
831.778	2280
831.873	1760
831.967	4739
832.062	3320
832.157	2230
832.252	3247
832.346	2682
832.441	3819
832.536	2962
832.631	3163
832.725	2828
832.820	1911
832.914	2888
833.009	1625
833.104	2334
833.198	2131
833.293	2157
833.387	3429
833.482	3824
833.576	2324
833.670	2838
833.765	2756
833.859	2877
833.954	2699
834.048	2540
834.142	2478
834.237	1359
834.331	2542
834.425	3659
834.519	1733
834.613	2938
834.708	1567
834.802	2306
834.896	2211
834.990	2658
835.084	2123
835.178	2344
835.272	2635
835.366	3075
835.460	3879
835.554	2562
835.648	1287
835.742	1414
835.836	1574
835.930	1618
836.024	2525
836.117	2713
836.211	1417
836.305	1545
836.399	2100
836.493	1660
836.586	2738
836.680	1905
836.774	1412
836.867	2788
836.961	43
837.055	1378
837.148	1653
837.242	1660
837.335	2157
837.429	2801
837.522	959
837.616	1754
837.709	1450
837.803	2088
837.896	2470
837.989	2306
838.083	1047
838.176	1734
838.269	585
838.363	2135
838.456	1357
838.549	3102
838.642	2081
838.735	2042
838.829	2884
838.922	2273
839.015	984
839.108	761
839.201	1787
839.294	1578
839.387	1751
839.480	865
839.573	927
839.666	1188
839.759	1591
839.852	654
839.945	1496
840.038	423
840.131	1253
840.223	1733
840.316	1623
840.409	2283
840.502	1705
840.594	2614
840.687	-296
840.780	906
840.873	100
840.965	941
841.058	1320
841.150	2322
841.243	240
841.336	1489
841.428	602
841.521	1313
841.613	933
841.706	542
841.798	1352
841.890	1722
841.983	92
842.075	883
842.167	205
842.260	2102
842.352	2610
842.444	1951
842.537	160
842.629	1008
842.721	655
842.813	880
842.905	-412
842.997	1770
843.090	844
843.182	1609
843.274	-107
843.366	1932
843.458	844
843.550	1916
843.642	698
843.734	1407
843.826	133
843.918	500
844.009	1452
844.101	1096
844.193	357
844.285	1649
844.377	1493
844.469	1573
844.560	-922
844.652	1403
844.744	548
844.835	865
844.927	1500
845.019	1450
845.110	1344
845.202	1894
845.293	5
845.385	377
845.476	863
845.568	1446
845.659	-200
845.751	1650
845.842	193
845.934	975
846.025	67
846.116	1012
846.208	-105
846.299	710
846.390	57
846.482	1273
846.573	855
846.664	971
846.755	459
846.846	1702
846.937	-923
847.029	797
847.120	151
847.211	715
847.302	1681
847.393	180
847.484	1399
847.575	82
847.666	-105
847.757	146
847.847	117
847.938	1474
848.029	817
848.120	872
848.211	400
848.302	744
848.392	489
848.483	759
848.574	771
848.664	709
848.755	902
848.846	918
848.936	-46
849.027	2223
849.118	1071
849.208	1271
849.299	3090
849.389	5568
849.480	10918
849.570	21550
849.661	43885
849.751	60530
849.841	15755
849.932	2816
850.022	613
850.112	1986
850.203	642
850.293	378
850.383	-363
850.474	726
850.564	73
850.654	499
850.744	409
850.834	704
850.924	1167
851.014	2176
851.104	1025
851.194	196
851.284	1
851.374	848
851.464	405
851.554	967
851.644	-115
851.734	1315
851.824	1191
851.914	-10
852.004	621
852.094	-22
852.183	214
852.273	1304
852.363	65
852.452	1765
852.542	515
852.632	439
852.721	717
852.811	818
852.901	1356
852.990	1456
853.080	1495
853.169	2476
853.259	1595
853.348	1620
853.438	2819
853.527	3715
853.617	5105
853.706	12155
853.795	21368
853.885	46766
853.974	81692
854.063	153362
854.152	179632
854.242	60690
854.331	14435
854.420	7910
854.509	4803
854.598	3899
854.687	2376
854.777	2482
854.866	1673
854.955	1776
855.044	257
855.133	1393
855.222	885
855.311	1062
855.400	1359
855.488	1429
855.577	753
855.666	1197
855.755	657
855.844	802
855.933	9
856.021	1249
856.110	654
856.199	185
856.288	-769
856.376	973
856.465	225
856.554	775
856.642	822
856.731	1792
856.819	1046
856.908	791
856.996	-111
857.085	201
857.173	303
857.262	-434
857.350	288
857.438	1347
857.527	509
857.615	39
857.703	478
857.792	438
857.880	288
857.968	1067
858.056	694
858.145	677
858.233	140
858.321	1056
858.409	-40
858.497	615
858.585	-41
858.673	378
858.761	-541
858.849	2
858.937	-335
859.025	556
859.113	-12
859.201	462
859.289	705
859.377	263
859.465	-305
859.552	1108
859.640	-209
859.728	784
859.816	251
859.903	1870
859.991	-794
860.079	894
860.166	811
860.254	931
860.342	1015
860.429	814
860.517	-139
860.604	797
860.692	192
860.779	394
860.867	-349
860.954	430
861.042	722
861.129	1450
861.216	713
861.304	1006
861.391	283
861.478	854
861.565	772
861.653	1270
861.740	-305
861.827	538
861.914	-308
862.001	-296
862.089	797
862.176	690
862.263	141
862.350	882
862.437	218
862.524	505
862.611	448
862.698	1348
862.785	1136
862.871	2275
862.958	438
863.045	1184
863.132	1109
863.219	1635
863.306	-165
863.392	1412
863.479	328
863.566	972
863.652	1513
863.739	599
863.826	1306
863.912	1360
863.999	913
864.086	1189
864.172	485
864.259	1622
864.345	846
864.432	2509
864.518	1230
864.604	1873
864.691	1337
864.777	2834
864.863	2654
864.950	4615
865.036	6294
865.122	12650
865.209	12125
865.295	10402
865.381	8841
865.467	10156
865.553	10055
865.639	12392
865.726	18654
865.812	31502
865.898	50782
865.984	73050
866.070	129177
866.156	108054
866.242	31725
866.328	14863
866.414	10240
866.499	9976
866.585	9358
866.671	8961
866.757	8691
866.843	8149
866.928	7356
867.014	8063
867.100	7540
867.186	7957
867.271	6703
867.357	7834
867.442	6675
867.528	7842
867.614	7270
867.699	7246
867.785	7224
867.870	6393
867.956	6563
868.041	6541
868.127	6943
868.212	7187
868.297	6406
868.383	7172
868.468	6447
868.553	7206
868.639	5819
868.724	7472
868.809	6875
868.894	6731
868.979	6681
869.065	7290
869.150	5680
869.235	6985
869.320	6568
869.405	5642
869.490	5884
869.575	6110
869.660	4006
869.745	8068
869.830	6053
869.915	5592
870.000	4806
870.085	6193
870.169	7463
870.254	7550
870.339	4892
870.424	5063
870.509	5231
870.593	8070
870.678	6197
870.763	5083
870.847	3903
870.932	6566
871.016	5559
871.101	4321
871.186	6306
871.270	6447
871.355	3795
871.439	5733
871.523	6048
871.608	4219
871.692	4707
871.777	6573
871.861	5298
871.945	5641
872.030	5011
872.114	5381
872.198	3277
872.282	5553
872.367	4653
872.451	5267
872.535	4966
872.619	4915
872.703	3803
872.787	5498
872.871	4334
872.955	4083
873.039	3120
873.123	6241
873.207	5008
873.291	3552
873.375	4559
873.459	5575
873.543	4710
873.627	5098
873.711	3717
873.794	5329
873.878	3650
873.962	3272
874.045	3760
874.129	4213
874.137	4172
874.213	3758
874.245	3747
874.296	3732
874.352	3930
874.380	4028
874.460	4101
874.464	4103
874.547	3714
874.568	3993
874.631	4870
874.676	4424
874.714	4013
874.784	4753
874.798	4910
874.881	4198
874.892	4046
874.965	2990
874.999	3592
875.048	4409
875.107	4209
875.131	4109
875.215	2305
875.215	2306
875.298	3619
875.323	3677
875.381	3782
875.430	5001
875.465	5812
875.538	3643
875.548	3344
875.631	3470
875.646	3225
875.714	2154
875.753	2798
875.798	3537
875.861	3843
875.881	3921
875.964	3932
875.968	3888
876.047	3167
876.076	3514
876.130	4173
876.183	4026
876.213	3909
876.291	4566
876.296	4617
876.379	3370
876.398	3189
876.462	2462
876.506	1816
876.545	1337
876.613	3142
876.628	3537
876.711	3330
876.721	3531
876.794	5096
876.828	4883
876.877	4278
876.935	3153
876.960	2826
877.043	2872
877.043	2876
877.125	3937
877.150	4116
877.208	4377
877.258	3548
877.291	2930
877.365	2387
877.374	2365
877.456	2689
877.472	2765
877.539	2987
877.579	3483
877.622	4009
877.687	3830
877.704	3774
877.787	3680
877.794	3681
877.869	3707
877.901	3703
877.952	3510
878.008	2397
878.034	2026
878.115	2614
878.117	2626
878.199	2370
878.222	2769
878.282	3918
878.329	4462
878.364	4692
878.437	3724
878.447	3564
878.529	2167
878.544	2190
878.611	2496
878.651	2536
878.694	2923
878.758	3539
878.776	3559
878.858	3378
878.865	3379
878.941	3254
878.972	2807
879.023	2243
879.078	2706
879.105	3138
879.185	3670
879.187	3671
879.269	4362
879.292	4049
879.351	3033
879.399	2818
879.433	2814
879.506	3023
879.516	3049
879.598	2757
879.613	2708
879.680	2477
879.720	3134
879.762	3993
879.827	3432
879.844	3194
879.926	3631
879.933	3603
880.007	3507
880.040	3618
880.089	3875
880.147	4480
880.171	4805
880.253	6804
880.254	6809
880.335	7353
880.360	8362
880.417	12125
880.467	16621
880.499	18933
880.574	18174
880.580	17784
880.662	8026
880.680	6835
880.744	3405
880.787	2568
880.825	2982
880.893	3098
880.907	3027
880.989	3256
881.000	3272
881.070	4057
881.106	3933
881.152	2934
881.213	2722
881.233	2951
881.315	3087
881.319	3125
881.396	3771
881.426	3654
881.478	3558
881.532	4419
881.559	4545
881.639	3558
881.641	3540
881.722	3343
881.745	3216
881.803	3563
881.852	3541
881.885	3296
881.958	3034
881.966	3006
882.047	3251
882.064	3207
882.129	3154
882.171	2977
882.210	2250
882.277	1228
882.291	1404
882.372	3195
882.383	3349
882.454	4282
882.489	4593
882.535	4302
882.596	4290
882.616	4286
882.697	3543
882.702	3493
882.778	2773
882.808	2751
882.859	2773
882.914	2221
882.940	2178
883.020	3552
883.021	3564
883.102	3038
883.127	3270
883.183	4543
883.233	4804
883.264	4014
883.339	2652
883.345	2602
883.426	1823
883.445	1787
883.507	2644
883.551	3083
883.587	3552
883.657	4322
883.668	4334
883.749	4085
883.763	4084
883.830	2992
883.869	2218
883.910	2195
883.975	2554
883.991	2742
884.072	3302
884.081	3409
884.152	4200
884.187	4296
884.233	4398
884.292	4606
884.314	4140
884.394	1956
884.398	1863
884.475	1488
884.504	1452
884.555	1702
884.610	1878
884.636	2202
884.716	3160
884.716	3170
884.797	4015
884.821	4077
884.877	3952
884.927	3920
884.958	3552
885.033	2493
885.038	2462
885.118	2440
885.139	2256
885.199	1863
885.244	2003
885.279	2702
885.350	3812
885.359	3943
885.439	5218
885.456	5255
885.520	4005
885.561	3669
885.600	3027
885.667	1807
885.680	2030
885.760	3626
885.773	3752
885.840	2316
885.878	1837
885.920	2244
885.984	2500
886.000	2601
886.080	3214
886.089	3308
886.160	3683
886.195	3670
886.240	3515
886.300	3247
886.320	3414
886.400	4425
886.406	4458
886.480	2971
886.511	2480
886.560	2825
886.616	2912
886.640	2748
886.720	2757
886.722	2739
886.800	2998
886.827	3306
886.879	3371
886.932	3052
886.959	3596
887.038	5377
887.039	5376
887.119	4046
887.143	3729
887.198	3864
887.248	3873
887.278	3615
887.354	2756
887.358	2796
887.437	3592
887.459	3907
887.517	4403
887.564	4408
887.596	3930
887.669	3038
887.676	2919
887.755	1308
887.774	996
887.835	2302
887.880	3101
887.914	3273
887.985	3614
887.994	3780
888.073	5377
888.090	5621
888.153	5613
888.195	5672
888.232	4952
888.300	3615
888.311	3469
888.391	2386
888.405	2188
888.470	2540
888.510	2665
888.549	2457
888.615	2299
888.628	2571
888.708	4064
888.720	4281
888.787	3968
888.825	3765
888.866	2786
888.930	1313
888.945	1684
889.024	3633
889.035	3883
889.103	4022
889.140	4066
889.182	3512
889.245	2736
889.261	2979
889.340	4083
889.349	4200
889.419	3466
889.454	3099
889.498	2705
889.559	2159
889.577	2457
889.656	3735
889.664	3858
889.735	3838
889.768	3811
889.814	3725
889.873	3592
889.978	3575
890.083	2913
890.187	3868
890.292	3806
890.397	2982
890.501	3182
890.606	3080
890.710	3281
890.815	5370
890.919	3046
891.024	2700
891.128	2256
891.233	2638
891.337	4692
891.442	3904
891.546	3874
891.650	2125
891.755	2288
891.859	4661
891.963	4569
892.068	3625
892.172	2454
892.276	1524
892.380	3671
892.484	4799
892.589	3244
892.693	3484
892.797	1505
892.901	1839
893.005	2802
893.109	5823
893.213	4473
893.317	2768
893.421	1733
893.525	2017
893.629	2591
893.733	4691
893.837	3217
893.941	3998
894.045	2301
894.148	2536
894.252	2233
894.356	4948
894.460	4554
894.564	3498
894.667	2481
894.771	2150
894.875	1321
894.978	2642
895.082	2751
895.186	4052
895.289	3509
895.393	2645
895.496	2961
895.600	2495
895.703	1327
895.807	3383
895.910	2398
896.014	3421
896.117	2705
896.221	2892
896.324	3551
896.427	2084
896.531	1740
896.634	2424
896.737	2375
896.840	3578
896.944	3274
897.047	4093
897.150	2518
897.253	2304
897.356	1472
897.460	1312
897.563	1724
897.666	4523
897.769	3448
897.872	1809
897.975	1747
898.078	2877
898.181	2432
898.284	2253
898.387	3645
898.490	4295
898.593	2177
898.695	2050
898.798	2515
898.901	1982
899.004	2186
899.107	3005
899.209	2925
899.312	4433
899.415	2383
899.518	1647
899.620	1304
899.723	2115
899.826	2225
899.928	1070
900.031	2391
900.133	3930
900.236	1797
900.338	1410
900.441	1694
900.543	2493
900.646	2061
900.748	2062
900.851	2993
900.953	2472
901.055	1061
901.158	2046
901.260	1245
901.362	1013
901.465	1390
901.567	2634
901.669	3119
901.771	2287
901.873	2828
901.976	2817
902.078	2343
902.180	1899
902.282	1635
902.384	3122
902.486	3910
902.588	2222
902.690	983
902.792	1817
902.894	2130
902.996	3063
903.098	3111
903.200	932
903.302	1420
903.404	2094
903.505	2326
903.607	2731
903.709	4217
903.811	4014
903.913	1987
904.014	512
904.116	1345
904.218	1891
904.319	2569
904.421	4602
904.523	2455
904.624	2264
904.726	1624
904.827	2122
904.929	1282
905.030	2478
905.132	3237
905.233	2515
905.335	1525
905.436	1831
905.537	1036
905.639	2072
905.740	2255
905.841	3076
905.943	1976
906.044	2255
906.145	1285
906.247	1030
906.348	2128
906.449	2301
906.550	2474
906.651	1904
906.752	1701
906.854	1790
906.955	1391
907.056	2834
907.157	3555
907.258	3163
907.359	262
907.460	1624
907.561	900
907.662	1473
907.762	1936
907.863	2672
907.964	2767
908.065	2105
908.166	1187
908.267	1525
908.367	812
908.468	1433
908.569	2428
908.670	3375
908.770	2167
908.871	2583
908.971	2273
909.072	2033
909.173	1156
909.273	1544
909.374	2508
909.474	2649
909.575	843
909.675	2122
909.776	2904
909.876	2262
909.977	1943
910.077	2173
910.177	2085
910.278	2254
910.378	1214
910.478	1941
910.579	2480
910.679	2541
910.779	2568
910.879	2672
910.980	1633
911.080	2924
911.180	1589
911.280	1241
911.380	1278
911.480	1822
911.580	1416
911.680	2068
911.780	2510
911.880	2881
911.980	1454
912.080	2184
912.180	2222
912.280	2346
912.380	1750
912.480	1672
912.580	938
912.679	2089
912.779	2785
912.879	2716
912.979	1664
913.078	1171
913.178	1171
913.278	1041
913.377	1424
913.477	2113
913.577	1353
913.676	2450
913.776	3022
913.875	2509
913.975	1155
914.074	2392
914.174	2665
914.273	2037
914.373	2128
914.472	1835
914.572	1641
914.671	797
914.770	1273
914.870	2248
914.969	1226
915.068	2373
915.167	2438
915.267	2521
915.366	1738
915.465	2074
915.564	2210
915.663	2375
915.763	2173
915.862	2709
915.961	2548
916.060	1531
916.159	1888
916.258	1573
916.357	1557
916.456	2509
916.555	1489
916.654	2289
916.752	2259
916.851	2228
916.950	1549
917.049	2832
917.148	1590
917.247	2201
917.345	875
917.444	1380
917.543	2666
917.642	1605
917.740	2506
917.839	4310
917.937	3638
918.036	3152
918.135	1772
918.233	2245
918.332	1590
918.430	2002
918.529	2165
918.627	2778
918.726	2615
918.824	2523
918.923	1179
919.021	2084
919.119	1581
919.218	2566
919.316	2253
919.414	2401
919.512	3254
919.611	3687
919.709	2912
919.807	4155
919.905	4297
920.003	4261
920.102	3060
920.200	4361
920.298	3655
920.396	3782
920.494	2721
920.592	2629
920.690	3917
920.788	4041
920.886	3152
920.984	4725
921.082	4492
921.180	4712
921.277	4677
921.375	5940
921.473	7632
921.571	7007
921.669	6167
921.766	6499
921.864	6836
921.962	6586
922.060	5977
922.157	6652
922.255	7140
922.352	6965
922.450	6633
922.548	8293
922.645	9625
922.743	11833
922.840	18356
922.938	20043
923.035	17830
923.133	17279
923.230	20874
923.327	25503
923.425	22391
923.522	22527
923.619	20001
923.717	18457
923.814	17614
923.911	17012
924.008	18772
924.106	17454
924.203	16975
924.300	18895
924.397	17401
924.494	17683
924.591	17104
924.688	17188
924.786	16661
924.883	18271
924.979	17214
925.077	17621
925.173	16414
925.270	17084
925.367	16012
925.464	17644
925.561	18051
925.658	17832
925.755	14465
925.852	18257
925.948	16086
926.045	15928
926.142	16560
926.239	16553
926.335	13184
926.432	16810
926.529	18144
926.625	17789
926.722	14214
926.818	14214
926.915	16103
927.011	15714
927.108	15643
927.204	14787
927.301	13812
927.397	16473
927.494	18232
927.590	12519
927.687	13380
927.783	17939
927.879	15896
927.976	14789
928.072	12053
928.168	15562
928.264	14910
928.361	14340
928.457	16855
928.553	13717
928.649	13372
928.745	15670
928.841	11879
928.937	14269
929.033	14457
929.129	14677
929.225	15754
929.321	13851
929.417	11847
929.513	15309
929.609	12980
929.705	13018
929.801	14060
929.897	12500
929.993	13178
930.089	13662
930.184	11315
930.280	14517
930.376	16438
930.471	12066
930.567	10054
930.663	12830
930.758	10687
930.854	12552
930.950	12635
931.045	10318
931.141	11486
931.236	15655
931.332	12442
931.427	10461
931.523	14057
931.618	13124
931.714	8532
931.809	11296
931.905	14194
932.000	9301
932.095	8017
932.191	13881
932.286	14182
932.381	11540
932.476	8541
932.572	11594
932.667	9268
932.762	9781
932.857	11862
932.952	14919
933.047	10702
933.142	8978
933.237	10449
933.332	12041
933.427	12277
933.522	11022
933.617	9433
933.712	9203
933.807	12350
933.902	13290
933.997	13047
934.092	9188
934.187	9710
934.282	11386
934.376	11426
934.471	12396
934.566	8929
934.661	9331
934.755	11927
934.850	12077
934.945	10579
935.039	9158
935.134	6806
935.228	11187
935.323	14891
935.417	8450
935.512	7082
935.606	6848
935.701	10443
935.795	10987
935.890	9957
935.984	8052
936.079	6745
936.173	9637
936.267	8029
936.362	7350
936.456	9981
936.550	13001
936.644	9572
936.738	6748
936.833	7998
936.927	6123
937.021	8527
937.115	9592
937.209	9728
937.303	9201
937.397	7066
937.491	7959
937.585	10094
937.679	9776
937.773	6708
937.867	6326
937.961	6874
938.055	11902
938.149	9051
938.243	6383
938.337	4756
938.430	7658
938.524	10201
938.618	7809
938.712	7195
938.805	8088
938.899	9808
938.993	11316
939.086	5976
939.180	4401
939.274	6040
939.367	9511
939.461	9053
939.554	7440
939.648	6376
939.741	7059
939.835	8508
939.928	11519
940.022	8775
940.115	7547
940.208	8450
940.302	10260
940.395	10521
940.488	6356
940.582	6377
940.675	5530
940.768	5760
940.861	9348
940.954	9704
941.048	6060
941.141	3681
941.234	6762
941.327	6341
941.420	8158
941.513	8253
941.606	6977
941.699	6104
941.792	9075
941.885	7149
941.978	6898
942.071	7327
942.164	4722
942.257	5226
942.349	7130
942.442	6565
942.535	4639
942.628	5260
942.721	5792
942.813	6309
942.906	7420
942.999	5433
943.091	5499
943.184	6486
943.277	6007
943.369	4658
943.462	4482
943.554	5734
943.647	7183
943.739	7985
943.832	8189
943.924	2609
944.017	3841
944.109	4689
944.201	6582
944.294	4363
944.386	6138
944.478	5460
944.571	4736
944.663	4471
944.755	5602
944.847	6631
944.940	5449
945.032	3156
945.124	4215
945.216	5895
945.308	6385
945.400	6264
945.492	5363
945.584	6844
945.676	7794
945.768	6162
945.860	6614
945.952	7431
946.044	6053
946.136	4747
946.228	5656
946.320	4479
946.412	5332
946.503	6987
946.595	7604
946.687	4050
946.779	3749
946.870	4100
946.962	5351
947.054	3779
947.145	5703
947.237	5285
947.329	4910
947.420	5648
947.512	4599
947.603	2720
947.695	4329
947.786	4418
947.878	4139
947.969	4956
948.061	6050
948.152	5148
948.243	3346
948.335	2265
948.426	3692
948.517	5046
948.609	6466
948.700	5057
948.791	3927
948.882	2613
948.973	3310
949.065	4889
949.156	5476
949.247	2613
949.338	3886
949.429	2446
949.520	3247
949.611	4599
949.702	6012
949.793	3070
949.884	4634
949.975	3610
950.066	2523
950.157	2842
950.247	3949
950.338	2484
950.429	3243
950.520	4295
950.611	2206
950.701	3962
950.792	5970
950.883	4846
950.973	4126
951.064	5079
951.155	5424
951.245	4716
951.336	5078
951.427	5887
951.517	6433
951.608	5034
951.698	4805
951.788	3086
951.879	2162
951.969	2445
952.060	3556
952.150	3979
952.240	6566
952.331	3350
952.421	5558
952.511	2161
952.602	2767
952.692	1660
952.782	2090
952.872	3109
952.962	4567
953.052	2782
953.143	3199
953.233	4077
953.323	4298
953.413	4218
953.503	4590
953.593	4397
953.683	3719
953.773	1276
953.863	2559
953.953	2355
954.042	3541
954.132	3810
954.222	4200
954.312	2807
954.402	3040
954.492	2912
954.581	3726
954.671	2993
954.761	3450
954.850	3963
954.940	2148
955.030	2429
955.119	3497
955.209	2433
955.298	4129
955.388	3378
955.477	4614
955.567	1822
955.656	3224
955.746	2371
955.835	2601
955.925	2679
956.014	3916
956.103	3808
956.193	5550
956.282	4281
956.371	3601
956.461	2983
956.550	3658
956.639	2778
956.728	3431
956.817	2840
956.906	3444
956.995	4054
957.085	2655
957.174	3114
957.263	2959
957.352	2906
957.441	3242
957.530	2970
957.619	3775
957.708	2496
957.796	3536
957.885	2898
957.974	2658
958.063	3368
958.152	1222
958.241	1586
958.329	2360
958.418	2826
958.507	3116
958.596	4728
958.684	2685
958.773	2485
958.861	1943
958.950	1312
959.039	1816
959.127	2747
959.216	3718
959.304	1904
959.393	2527
959.481	2728
959.570	2532
959.658	1629
959.746	1437
959.835	2432
959.923	2247
960.011	1191
960.100	3789
960.188	3525
960.276	2847
960.365	1841
960.453	2327
960.541	1203
960.629	2226
960.717	656
960.805	1660
960.893	2098
960.981	3214
961.069	4761
961.158	4257
961.245	5317
961.333	4319
961.421	1999
961.509	2907
961.597	3371
961.685	2462
961.773	2919
961.861	3773
961.949	4599
962.036	1714
962.124	2403
962.212	1947
962.299	2229
962.387	1883
962.475	2077
962.562	1770
962.650	3336
962.738	2458
962.825	1021
962.913	1359
963.000	1720
963.088	2972
963.175	2982
963.263	3399
963.350	2033
963.438	2213
963.525	963
963.612	2970
963.700	1769
963.787	3499
963.874	2660
963.962	2142
964.049	1327
964.136	2777
964.223	1670
964.310	2285
964.398	853
964.485	2244
964.572	2532
964.659	2754
964.746	1402
964.833	1228
964.920	1847
965.007	2390
965.094	1962
965.181	2598
965.268	2308
965.355	3114
965.441	2627
965.528	2102
965.615	3419
965.702	2835
965.789	2193
965.875	2956
965.962	2795
966.049	2540
966.136	3005
966.222	3117
966.309	2831
966.395	3139
966.482	3096
966.569	3454
966.655	3219
966.742	3101
966.828	1936
966.915	2107
967.001	1475
967.087	1336
967.174	1119
967.260	2515
967.347	2158
967.433	2541
967.519	2364
967.605	2189
967.692	2628
967.778	2648
967.864	1905
967.950	2330
968.036	1724
968.123	2497
968.209	2102
968.295	839
968.381	2958
968.467	2122
968.553	455
968.639	2388
968.725	1161
968.811	3265
968.897	3221
968.983	2455
969.069	855
969.154	2873
969.240	2479
969.326	1407
969.412	1300
969.497	2546
969.583	1526
969.669	3633
969.755	3441
969.840	2685
969.926	5063
970.012	5983
970.097	6143
970.183	4690
970.268	3342
970.354	3127
970.439	1871
970.525	2813
970.610	2120
970.696	3585
970.781	1914
970.866	1523
970.952	1969
971.037	1989
971.122	1949
971.208	2871
971.293	2568
971.378	2196
971.463	1506
971.549	2468
971.634	1786
971.719	2228
971.804	1251
971.889	2465
971.974	2397
972.059	2500
972.144	2514
972.229	2581
972.314	1284
972.399	2152
972.484	1368
972.569	2069
972.654	1306
972.739	3164
972.824	1521
972.908	2022
972.993	1507
973.078	1791
973.163	2322
973.247	2996
973.332	336
973.417	3067
973.501	1493
973.586	3149
973.671	2004
973.755	2628
973.840	2134
973.924	3912
974.009	4222
974.093	3823
974.178	3943
974.262	2873
974.346	2224
974.431	2318
974.515	2825
974.600	3361
974.684	2025
974.768	2421
974.852	3018
974.937	2131
975.021	2947
975.105	2600
975.189	858
975.273	2694
975.358	1702
975.442	1544
975.526	2574
975.610	1300
975.694	1540
975.778	2733
975.862	2121
975.946	800
976.030	3114
976.114	1638
976.198	2548
976.281	2770
976.365	2721
976.449	1446
976.533	2100
976.617	1559
976.700	1784
976.784	2357
976.868	995
976.951	2581
977.035	1020
977.119	2682
977.202	1185
977.286	3169
977.369	4173
977.453	6115
977.536	4617
977.620	3734
977.703	3944
977.787	2737
977.870	3792
977.953	3238
978.037	931
978.120	2825
978.203	2316
978.287	2847
978.370	1931
978.453	2063
978.536	1487
978.620	2552
978.703	3019
978.786	2584
978.869	1210
978.952	1926
979.035	3137
979.118	3692
979.201	1914
979.284	2713
979.367	1701
979.450	2934
979.533	2072
979.616	2007
979.699	705
979.782	3067
979.865	1935
979.948	2394
980.030	1643
980.113	2649
980.196	963
980.279	2938
980.361	1691
980.444	2878
980.526	4023
980.609	5464
980.692	6435
980.774	5210
980.857	2796
980.939	4321
981.022	3393
981.104	3327
981.187	2346
981.269	4337
981.352	2396
981.434	2641
981.516	2992
981.599	3898
981.681	2797
981.763	3616
981.846	2903
981.928	2899
982.010	1968
982.092	2350
982.174	3151
982.256	2870
982.339	2252
982.421	3626
982.503	2880
982.585	1586
982.667	2285
982.749	2643
982.831	2996
982.913	1960
982.995	3666
983.077	1991
983.158	4290
983.240	2506
983.322	5334
983.404	7159
983.486	5557
983.568	6519
983.649	3922
983.731	4377
983.813	3735
983.894	3976
983.976	3891
984.058	4207
984.139	4441
984.221	2618
984.302	4375
984.384	4363
984.465	3606
984.547	4188
984.628	3915
984.710	4376
984.791	2998
984.872	3500
984.954	3279
985.035	4163
985.116	4058
985.198	3572
985.279	3952
985.360	3652
985.441	2588
985.522	3891
985.604	3557
985.685	2121
985.766	4429
985.847	6337
985.928	3670
986.009	4192
986.090	4007
986.171	4199
986.252	3229
986.333	3660
986.414	3367
986.495	4493
986.576	3747
986.656	5112
986.737	5512
986.818	4860
986.899	4111
986.980	3642
987.060	4232
987.141	4263
987.222	5837
987.302	6176
987.383	5972
987.464	6360
987.544	6215
987.625	5407
987.705	6096
987.786	6722
987.866	5711
987.947	5512
988.027	6178
988.108	5480
988.188	4687
988.268	4851
988.349	5100
988.429	6316
988.509	4668
988.589	4514
988.670	2810
988.750	5359
988.830	3179
988.910	6173
988.990	4606
989.070	4055
989.151	4028
989.231	3370
989.311	5134
989.391	4254
989.471	3583
989.551	4566
989.631	3197
989.711	5687
989.791	3699
989.870	3884
989.950	4366
990.030	3984
990.110	3979
990.190	2550
990.269	3594
990.349	4941
990.429	4745
990.509	4006
990.588	2648
990.668	4142
990.747	4020
990.827	3921
990.907	4148
990.986	4519
991.066	4022
991.145	3079
991.225	4450
991.304	4349
991.383	3448
991.463	3823
991.542	4192
991.622	2934
991.701	2912
991.780	2990
991.859	2606
991.939	3081
992.018	3205
992.097	2591
992.176	2318
992.256	2557
992.335	2484
992.414	4450
992.493	1273
992.572	2602
992.651	4059
992.730	2758
992.809	2372
992.888	2278
992.967	2982
993.046	3074
993.125	956
993.203	2698
993.282	3136
993.361	2851
993.440	1432
993.519	2231
993.597	2785
993.676	3480
993.755	3162
993.834	2500
993.912	218
993.991	3975
994.069	2046
994.148	2529
994.226	2105
994.305	1823
994.384	2306
994.462	3506
994.540	1401
994.619	1194
994.697	2983
994.776	1177
994.854	3053
994.932	2145
995.011	1669
995.089	1070
995.167	1083
995.245	2660
995.324	1223
995.402	2805
995.480	1270
995.558	1658
995.636	1219
995.714	1878
995.792	3055
995.870	1068
995.948	497
996.026	1750
996.104	1028
996.182	1772
996.260	935
996.338	1077
996.416	1144
996.494	1885
996.572	2292
996.649	731
996.727	101
996.805	2132
996.883	975
996.960	1132
997.038	2472
997.116	2283
997.193	755
997.271	700
997.348	299
997.426	1657
997.504	1802
997.581	2690
997.658	726
997.736	-416
997.813	-351
997.891	1796
997.968	302
998.046	938
998.123	-105
998.200	1525
998.277	-122
998.355	1708
998.432	-575
998.509	463
998.586	839
998.663	1324
998.741	201
998.818	357
998.895	1108
998.972	1957
999.049	1637
999.126	393
999.203	359
999.280	738
999.357	370
999.434	-53
999.511	-182
999.587	239
999.664	-1065
999.741	392
999.818	1092
999.895	804
999.971	207
1000.048	476
1000.125	179
1000.202	-236
1000.278	708
1000.355	1702
1000.431	-53
1000.508	-227
1000.584	103
1000.661	251
1000.738	-687
1000.814	634
1000.890	87
1000.967	280
1001.043	182
1001.120	-943
1001.196	-175
1001.272	-140
1001.349	249
1001.425	955
1001.501	100
1001.577	54
1001.654	346
1001.730	-287
1001.806	-22
1001.882	6
1001.958	1039
1002.034	540
1002.110	-270
1002.186	-692
1002.262	-960
1002.338	-587
1002.414	707
1002.490	558
1002.566	-997
1002.642	-332
1002.718	1143
1002.794	423
1002.870	-604
1002.945	-485
1003.021	-739
1003.097	-173
1003.173	487
1003.248	-150
1003.324	-450
1003.400	528
1003.475	-909
1003.551	-589
1003.626	-539
1003.702	-325
1003.777	-709
1003.853	-518
1003.928	-1235
1004.004	-754
1004.079	-484
1004.155	-463
1004.230	-1113
1004.305	-216
1004.381	-1108
1004.456	-767
1004.531	-1103
1004.607	-755
1004.682	-577
1004.757	-124
1004.832	-783
1004.907	-984
1004.982	-864
1005.057	-220
1005.133	-814
1005.208	-816
1005.283	-960
1005.358	547
1005.433	-1097
1005.508	500
1005.583	-1629
1005.657	-352
1005.732	337
1005.807	-1359
1005.882	-1138
1005.957	-973
1006.032	-582
1006.106	-577
1006.181	-582
1006.256	-298
1006.331	-1495
1006.405	-1512
1006.480	-1025
1006.554	-1172
1006.629	-1027
1006.704	-1012
1006.778	-949
1006.853	-259
1006.927	-991
1007.002	-1628
1007.076	-1462
1007.150	-551
1007.225	-1993
1007.299	-618
1007.373	-2036
1007.448	-1459
1007.522	27
1007.596	-1009
1007.671	-1528
1007.745	-242
1007.819	-1392
1007.893	-641
1007.967	-139
1008.041	-1803
1008.115	-742
1008.190	-736
1008.264	-1318
1008.338	-2042
1008.412	-1274
1008.486	-1057
1008.560	-1224
1008.633	-422
1008.707	-940
1008.781	-11
1008.855	-1138
1008.929	-1359
1009.003	-1062
1009.076	-747
1009.150	-810
1009.224	-1432
1009.298	-864
1009.371	-1932
1009.445	-1130
1009.519	-818
1009.592	-2446
1009.666	-1216
1009.739	-1242
1009.813	-2172
1009.886	-2280
1009.960	-1895
1010.033	-1233
1010.107	-338
1010.180	-1573
1010.253	-1685
1010.327	-2456
1010.400	-1694
1010.473	-1311
1010.547	302
1010.620	-1604
1010.693	-586
1010.766	-758
1010.840	-697
1010.913	-1678
1010.986	-1733
1011.059	-2035
1011.132	-1863
1011.205	-71
1011.278	-1619
1011.351	-1917
1011.424	-915
1011.497	-2579
1011.570	-1138
1011.643	-1530
1011.716	-953
1011.789	-1277
1011.862	-1197
1011.934	-1465
1012.007	-2642
1012.080	-2075
1012.153	-1255
1012.225	-1289
1012.298	-872
1012.371	-1645
1012.443	-970
1012.516	-1431
1012.588	-1496
1012.661	-1329
1012.733	-1876
1012.806	-1561
1012.879	-1337
1012.951	-1625
1013.023	-1839
1013.096	-633
1013.168	-1492
1013.241	-820
1013.313	-1507
1013.385	-2150
1013.458	-2144
1013.530	-695
1013.602	-1672
1013.674	-973
1013.746	-2283
1013.819	-1782
1013.891	-1184
1013.963	-1783
1014.035	-1020
1014.107	-1958
1014.179	-1022
1014.251	-2294
1014.323	-1068
1014.395	-1726
1014.467	-1279
1014.539	-1252
1014.611	-1569
1014.683	-1403
1014.754	-598
1014.826	-1526
1014.898	-1041
1014.970	-1931
1015.042	-1491
1015.113	-1489
1015.185	-737
1015.257	-2230
1015.328	-1697
1015.400	-2433
1015.471	-1024
1015.543	-2491
1015.615	-733
1015.686	-2515
1015.757	-1828
1015.829	-1507
1015.901	-1421
1015.972	-1689
1016.043	-1896
1016.115	-2099
1016.186	-546
1016.257	-2085
1016.328	-1581
1016.400	-1224
1016.471	-2257
1016.542	-2084
1016.613	-1008
1016.685	-1955
1016.756	-51
1016.827	-1304
1016.898	-1437
1016.969	-1947
1017.040	-1725
1017.111	-2367
1017.182	-1953
1017.253	-1420
1017.324	-1196
1017.395	-1261
1017.466	-1075
1017.537	-1638
1017.608	-1748
1017.678	-1207
1017.749	-1054
1017.820	-1286
1017.891	-1697
1017.961	-1043
1018.032	-609
1018.103	-1334
1018.173	-997
1018.244	-2421
1018.315	-1608
1018.385	-2061
1018.456	-1291
1018.526	-1917
1018.597	-1040
1018.667	-1911
1018.738	-1953
1018.808	-1934
1018.878	-1410
1018.949	-1591
1019.019	-2414
1019.089	-1553
1019.160	-878
1019.230	-2023
1019.300	-741
1019.371	-2569
1019.441	-1223
1019.511	-1730
1019.581	-1062
1019.651	-1448
1019.721	-1239
1019.791	-1869
1019.861	-1101
1019.931	-1481
1020.001	-1287
1020.071	-1724
1020.141	-1488
1020.211	-1405
1020.281	-1653
1020.351	-1537
1020.421	-842
1020.491	-2637
1020.560	-1777
1020.630	-1862
1020.700	-1470
1020.770	-1620
1020.839	-1599
1020.909	-1526
1020.979	-1133
1021.048	-2026
1021.118	-1600
1021.187	-2570
1021.257	-1024
1021.326	-2010
1021.396	-1376
1021.465	-2327
1021.535	-1735
1021.604	-2340
1021.674	-810
1021.743	-1923
1021.812	-654
1021.882	-2062
1021.951	-582
1022.020	-1165
1022.089	-1171
1022.159	-1863
1022.228	-1986
1022.297	-1386
1022.366	-2090
1022.435	-1789
1022.504	-1888
1022.573	-2250
1022.642	-2049
1022.711	-1334
1022.781	-1411
1022.849	-1747
1022.918	-1693
1022.987	-1716
1023.056	-1226
1023.125	-1899
1023.194	-2274
1023.263	-2081
1023.331	-1101
1023.400	-2207
1023.469	-2818
1023.538	-1010
1023.606	-1970
1023.675	-2162
1023.744	-2028
1023.812	-2188
1023.881	-1648
1023.949	-2308
1024.018	-1863
1024.086	-2113
1024.155	-1219
1024.223	-2193
1024.292	-1810
1024.360	-1515
1024.429	-1036
1024.497	-3608
1024.565	-1762
1024.634	-2609
1024.702	-535
1024.770	-1674
1024.838	-1389
1024.907	-1876
1024.975	-2020
1025.043	-2362
1025.111	-1792
1025.179	-1359
1025.247	-1813
1025.315	-1655
1025.383	-1303
1025.451	-1417
1025.519	-1596
1025.587	-1686
1025.655	-1456
1025.723	-1981
1025.791	-1906
1025.859	-1839
1025.927	-950
1025.995	-2359
1026.062	-1494
1026.130	-2046
1026.198	-1358
1026.266	-2421
1026.333	-529
1026.401	-2020
1026.469	-1777
1026.536	-2310
1026.604	-2123
1026.671	-2206
1026.739	-1788
1026.806	-1776
1026.874	-1977
1026.941	-1811
1027.009	-1514
1027.076	-2452
1027.144	-1598
1027.211	-2480
1027.278	-1887
1027.345	-868
1027.413	-1524
1027.480	-2272
1027.547	-1450
1027.614	-1579
1027.682	-1530
1027.749	-1910
1027.816	-2056
1027.883	-1879
1027.950	-1715
1028.017	-1914
1028.084	-1426
1028.151	-2856
1028.218	-1225
1028.285	-2710
1028.352	-2254
1028.419	-2350
1028.486	-2233
1028.553	-1804
1028.619	-1420
1028.686	-1869
1028.753	-1616
1028.820	-1357
1028.886	-2517
1028.953	-1526
1029.020	-1625
1029.086	-2456
1029.153	-1523
1029.220	-2065
1029.286	-1398
1029.353	-2970
1029.419	-2890
1029.486	-2681
1029.552	-2846
1029.619	-1898
1029.685	-1748
1029.751	-2223
1029.818	-1395
1029.884	-2032
1029.951	-664
1030.017	-2109
1030.083	-2213
1030.149	-2031
1030.216	-1829
1030.282	-2498
1030.348	-1467
1030.414	-2321
1030.480	-1879
1030.546	-2084
1030.612	-1510
1030.678	-2271
1030.744	-1189
1030.810	-2968
1030.876	-2112
1030.942	-2322
1031.008	-1743
1031.074	-1833
1031.140	-2228
1031.206	-1792
1031.272	-2174
1031.337	-1965
1031.403	-1260
1031.469	-1987
1031.534	-1574
1031.600	-2266
1031.666	-2307
1031.731	-1892
1031.797	-1501
1031.863	-2747
1031.928	-1776
1031.994	-2428
1032.059	-2114
1032.125	-2349
1032.190	-3010
1032.256	-2237
1032.321	-2580
1032.386	-2210
1032.452	-1430
1032.517	-2050
1032.582	-1459
1032.647	-2448
1032.713	-2372
1032.778	-2544
1032.843	-2121
1032.908	-2398
1032.974	-1676
1033.039	-3261
1033.104	-1473
1033.169	-2763
1033.234	-2532
1033.299	-1495
1033.364	-1475
1033.429	-2404
1033.494	-2072
1033.559	-2932
1033.624	-1351
1033.688	-2008
1033.753	-2050
1033.818	-2017
1033.883	-2230
1033.948	-1927
1034.013	-404
1034.077	-1281
1034.142	-217
1034.207	-784
1034.271	942
1034.336	901
1034.400	635
1034.465	-1539
1034.530	-1938
1034.594	-1670
1034.658	-2384
1034.723	-1973
1034.787	-1575
1034.852	-2007
1034.916	-2614
1034.981	-2692
1035.045	-1724
1035.109	-2431
1035.173	-1229
1035.238	-3171
1035.302	-1521
1035.366	-1934
1035.430	-2278
1035.495	-2740
1035.559	-2403
1035.623	-2313
1035.687	-1954
1035.751	-2047
1035.815	-1826
1035.879	-2436
1035.943	-2000
1036.007	-2522
1036.071	-1656
1036.135	-2988
1036.198	-2372
1036.262	-2488
1036.326	-2222
1036.390	-1830
1036.454	-1712
1036.517	-1534
1036.581	-1482
1036.645	-1958
1036.709	-967
1036.772	-2574
1036.836	-2294
1036.900	-2458
1036.963	-2404
1037.026	-2510
1037.090	-2413
1037.154	-2825
1037.217	-2056
1037.280	-2899
1037.344	-1926
1037.407	-2489
1037.471	-1555
1037.534	-2261
1037.597	-1863
1037.661	-2665
1037.724	-1429
1037.787	-2355
1037.850	-1957
1037.913	-2141
1037.977	-1155
1038.040	-2871
1038.103	-2580
1038.166	-2999
1038.229	-2051
1038.292	-2422
1038.355	-2507
1038.418	-3075
1038.481	-2248
1038.544	-2440
1038.607	-1929
1038.670	-2221
1038.732	-1962
1038.795	-2104
1038.858	-2167
1038.921	-2284
1038.984	-1691
1039.046	-2371
1039.109	-2607
1039.172	-1675
1039.234	-2301
1039.297	-2653
1039.360	-2319
1039.422	-2031
1039.485	-2274
1039.547	-2507
1039.610	-2505
1039.672	-3287
1039.734	-2523
1039.797	-2657
1039.859	-2215
1039.922	-2800
1039.984	-1963
1040.046	-2474
1040.109	-2417
1040.171	-3136
1040.233	-2363
1040.295	-2625
1040.358	-2528
1040.420	-3315
1040.482	-2996
1040.544	-3005
1040.606	-2153
1040.668	-2245
1040.730	-2385
1040.792	-3367
1040.854	-2804
1040.916	-3063
1040.978	-2249
1041.040	-2318
1041.102	-1453
1041.164	-2617
1041.225	-3115
1041.287	-3504
1041.349	-2231
1041.411	-3116
1041.472	-3118
1041.534	-2114
1041.596	-3258
1041.657	-2533
1041.719	-2605
1041.781	-2799
1041.842	-3582
1041.904	-2508
1041.965	-2107
1042.027	-2480
1042.088	-2237
1042.150	-2667
1042.211	-3064
1042.272	-2019
1042.334	-2553
1042.395	-2791
1042.456	-2175
1042.518	-2751
1042.579	-1312
1042.640	-2594
1042.701	-2259
1042.763	-2466
1042.824	-2377
1042.885	-3246
1042.946	-2663
1043.007	-3116
1043.068	-2402
1043.129	-3108
1043.190	-2308
1043.251	-2874
1043.312	-2441
1043.373	-2417
1043.434	-3330
1043.495	-2803
1043.556	-1843
1043.616	-2997
1043.677	-2823
1043.738	-2480
1043.799	-2723
1043.859	-2233
1043.920	-2530
1043.981	-2500
1044.041	-1879
1044.102	-2477
1044.162	-2472
1044.223	-2980
1044.284	-2450
1044.344	-2604
1044.405	-2051
1044.465	-2204
1044.525	-1999
1044.586	-1593
1044.646	-2318
1044.707	-2812
1044.767	-2483
1044.827	-2925
1044.887	-1863
1044.948	-1984
1045.008	-2459
1045.068	-2228
1045.128	-2305
1045.188	-2519
1045.249	-1997
1045.309	-2474
1045.369	-2525
1045.429	-2088
1045.489	-2265
1045.549	-2442
1045.609	-2132
1045.669	-2111
1045.729	-2368
1045.789	-2795
1045.848	-2790
1045.908	-1949
1045.968	-2111
1046.028	-1728
1046.088	-961
1046.147	-2262
1046.207	-2650
1046.267	-1966
1046.326	-2329
1046.386	-2160
1046.446	-1716
1046.505	-3133
1046.565	-1750
1046.624	-2760
1046.684	-1443
1046.743	-964
1046.803	-1216
1046.862	-1250
1046.922	0
