'Start Wavelength	183.907
'End Wavelength	1046.922
'Gate Delay	5.000
'Gate Width (ms)	1.050
'Laser Output Level	0.000
'X Position	0.000
'Y Position	0.000
'Z Position	0.000
'Grid Point Number	1.000
'Shot Number	100.000
183.907	-83.000
183.977	143.000
184.047	-119
184.116	419
184.186	569
184.256	9
184.325	-374
184.395	104
184.465	906
184.534	188
184.604	-106
184.674	255
184.743	30
184.813	100
184.883	-32
184.952	-70
185.022	440
185.092	23
185.161	-155
185.231	149
185.301	61
185.370	-59
185.440	-254
185.509	54
185.579	591
185.649	-11
185.718	38
185.788	935
185.857	-1041
185.927	-546
185.996	-183
186.066	47
186.136	368
186.205	-236
186.275	1122
186.344	331
186.414	215
186.483	-343
186.553	424
186.622	322
186.692	713
186.761	-80
186.831	434
186.900	-857
186.970	275
187.039	-16
187.109	182
187.178	364
187.248	398
187.317	227
187.387	-498
187.456	253
187.526	374
187.595	373
187.664	-66
187.734	456
187.803	-73
187.873	78
187.942	677
188.012	588
188.081	27
188.150	206
188.220	434
188.289	845
188.358	1038
188.428	961
188.497	725
188.567	897
188.636	-141
188.705	88
188.775	-712
188.844	-304
188.913	834
188.983	170
189.052	639
189.121	-278
189.191	211
189.260	1181
189.329	378
189.399	-171
189.468	79
189.537	-460
189.606	789
189.676	776
189.745	-590
189.814	499
189.883	-8
189.953	184
190.022	-304
190.091	1012
190.161	590
190.230	4
190.299	-731
190.368	-10
190.437	-10
190.507	97
190.576	-121
190.645	661
190.714	-523
190.783	173
190.853	706
190.922	503
190.991	-150
191.060	-153
191.129	-454
191.198	956
191.268	-246
191.337	-265
191.406	2
191.475	97
191.544	13
191.613	549
191.682	300
191.752	163
191.821	-701
191.890	427
191.959	32
192.028	467
192.097	847
192.166	634
192.235	-800
192.304	581
192.373	-167
192.442	-225
192.511	327
192.580	-136
192.650	223
192.719	-429
192.788	397
192.857	0
192.926	536
192.995	806
193.064	728
193.133	794
193.202	115
193.271	689
193.340	1090
193.409	684
193.478	551
193.547	755
193.615	12
193.684	653
193.753	-397
193.822	-27
193.891	-331
193.960	1464
194.029	260
194.098	388
194.167	70
194.236	-87
194.305	825
194.374	238
194.443	-265
194.512	434
194.580	644
194.649	119
194.718	515
194.787	486
194.856	102
194.925	774
194.994	302
195.062	128
195.131	358
195.200	467
195.269	478
195.338	758
195.407	742
195.475	-58
195.544	149
195.613	-134
195.682	772
195.751	114
195.819	-557
195.888	1017
195.957	1326
196.026	-306
196.094	910
196.163	697
196.232	215
196.301	-1
196.369	299
196.438	184
196.507	-604
196.576	13
196.644	350
196.713	644
196.782	498
196.850	605
196.919	271
196.988	771
197.056	-155
197.125	-155
197.194	16
197.262	548
197.331	271
197.400	628
197.468	220
197.537	786
197.606	575
197.674	818
197.743	387
197.812	220
197.880	154
197.949	486
198.017	515
198.086	635
198.155	208
198.223	983
198.292	1151
198.360	316
198.429	131
198.497	440
198.566	680
198.635	733
198.703	481
198.772	334
198.840	1710
198.909	819
198.977	12
199.046	496
199.114	197
199.183	69
199.251	371
199.320	-346
199.388	-108
199.457	-92
199.525	-11
199.594	-302
199.662	-60
199.731	103
199.799	328
199.867	-213
199.936	-304
200.004	-566
200.073	626
200.141	-277
200.210	585
200.278	-173
200.346	263
200.415	1361
200.483	108
200.552	857
200.620	146
200.688	442
200.757	-243
200.825	-98
200.893	361
200.962	98
201.030	-475
201.098	-345
201.167	408
201.235	663
201.303	386
201.372	1082
201.440	1051
201.508	937
201.577	303
201.645	338
201.713	-445
201.781	60
201.850	836
201.918	473
201.986	-315
202.055	445
202.123	-347
202.191	827
202.259	134
202.327	451
202.396	79
202.464	332
202.532	505
202.600	2335
202.669	1872
202.737	1035
202.805	323
202.873	903
202.941	154
203.009	586
203.078	-337
203.146	270
203.214	-254
203.282	-248
203.350	1100
203.418	15
203.487	581
203.555	-198
203.623	228
203.691	503
203.759	95
203.827	317
203.895	70
203.963	-399
204.031	10
204.099	1071
204.168	450
204.236	863
204.304	224
204.372	376
204.440	199
204.508	184
204.576	138
204.644	397
204.712	-80
204.780	774
204.848	600
204.916	-174
204.984	-113
205.052	127
205.120	-307
205.188	-249
205.256	85
205.324	-100
205.392	-397
205.460	579
205.528	35
205.596	592
205.664	175
205.732	-476
205.799	751
205.867	1135
205.935	-364
206.003	373
206.071	-76
206.139	415
206.207	240
206.275	167
206.343	-147
206.411	-115
206.478	-55
206.546	630
206.614	119
206.682	655
206.750	-2
206.818	810
206.885	1498
206.953	-353
207.021	1473
207.089	560
207.157	-418
207.225	318
207.292	-171
207.360	103
207.428	100
207.496	-417
207.563	463
207.631	-22
207.699	-965
207.767	390
207.834	324
207.902	486
207.970	238
208.038	398
208.105	182
208.173	141
208.241	-222
208.309	644
208.376	769
208.444	316
208.512	367
208.579	-347
208.647	387
208.715	1624
208.782	-39
208.850	506
208.918	-796
208.985	365
209.053	-170
209.120	487
209.188	-480
209.256	-234
209.323	0
209.391	-250
209.459	744
209.526	-331
209.594	512
209.661	450
209.729	880
209.796	767
209.864	560
209.932	-137
209.999	1079
210.067	963
210.134	-95
210.202	52
210.269	702
210.337	2438
210.404	212
210.472	-25
210.539	-90
210.607	-246
210.674	353
210.742	353
210.809	345
210.877	399
210.944	1010
211.012	-104
211.079	1252
211.146	-17
211.214	845
211.281	770
211.349	1754
211.416	1576
211.484	894
211.551	-662
211.618	1370
211.686	410
211.753	409
211.821	452
211.888	180
211.955	634
212.023	708
212.090	847
212.157	-48
212.225	520
212.292	277
212.359	785
212.427	3541
212.494	1930
212.561	565
212.629	1000
212.696	525
212.763	241
212.831	-455
212.898	404
212.965	-492
213.032	413
213.100	-324
213.167	9
213.234	225
213.301	137
213.369	196
213.436	514
213.503	312
213.570	356
213.638	110
213.705	-43
213.772	-534
213.839	984
213.906	535
213.973	232
214.041	-370
214.108	286
214.175	147
214.242	-527
214.309	861
214.376	442
214.444	-83
214.511	655
214.578	276
214.645	838
214.712	1082
214.779	300
214.846	649
214.913	866
214.980	1223
215.048	1035
215.115	2022
215.182	1402
215.249	874
215.316	639
215.383	1332
215.450	303
215.517	-348
215.584	648
215.651	657
215.718	584
215.785	-111
215.852	-186
215.919	976
215.986	331
216.053	108
216.120	252
216.187	851
216.254	593
216.321	-55
216.388	-165
216.455	-63
216.522	129
216.589	134
216.656	422
216.722	1077
216.789	876
216.856	-150
216.923	280
216.990	295
217.057	441
217.124	358
217.191	129
217.258	781
217.324	-304
217.391	1014
217.458	873
217.525	436
217.592	509
217.659	-184
217.725	468
217.792	-181
217.859	699
217.926	-332
217.993	159
218.059	737
218.126	560
218.193	90
218.260	623
218.327	-82
218.393	436
218.460	-955
218.527	298
218.594	22
218.660	349
218.727	942
218.794	-401
218.860	337
218.927	-523
218.994	-284
219.061	32
219.127	-61
219.194	843
219.261	10
219.327	188
219.394	810
219.461	-173
219.527	564
219.594	469
219.661	73
219.727	-125
219.794	650
219.860	51
219.927	-12
219.994	1141
220.060	2950
220.127	3799
220.193	1858
220.260	606
220.326	1564
220.393	1362
220.460	1175
220.526	946
220.593	-170
220.659	1618
220.726	138
220.792	2360
220.859	1879
220.925	2002
220.992	2480
221.058	3994
221.125	3388
221.191	2514
221.258	443
221.324	761
221.391	-387
221.457	618
221.524	-31
221.590	690
221.657	2163
221.723	1451
221.789	1151
221.856	2211
221.922	183
221.989	1009
222.055	778
222.121	-850
222.188	2468
222.254	-121
222.321	417
222.387	-293
222.453	960
222.520	380
222.586	-352
222.652	-3
222.719	-555
222.785	628
222.851	-693
222.918	192
222.984	-174
223.050	128
223.116	-775
223.183	475
223.249	-5
223.315	-467
223.382	610
223.448	197
223.514	89
223.580	138
223.647	-511
223.713	-584
223.779	-511
223.845	-254
223.911	171
223.978	-406
224.044	99
224.110	-132
224.176	509
224.242	307
224.309	-464
224.375	292
224.441	284
224.507	498
224.573	-1171
224.639	452
224.705	-311
224.772	75
224.838	-273
224.904	781
224.970	-396
225.036	105
225.102	-1150
225.168	652
225.234	641
225.300	586
225.366	515
225.432	604
225.499	457
225.565	294
225.631	-129
225.697	-37
225.763	452
225.829	386
225.895	45
225.961	1261
226.027	113
226.093	-159
226.159	987
226.225	1689
226.291	3245
226.357	5825
226.423	2323
226.489	699
226.554	397
226.620	483
226.686	782
226.752	1675
226.818	2363
226.884	7798
226.950	7489
227.016	2822
227.082	1623
227.148	677
227.214	1226
227.279	682
227.345	610
227.411	1206
227.477	3571
227.543	6143
227.609	7252
227.674	4689
227.740	1510
227.806	1593
227.872	756
227.938	389
228.003	1520
228.069	565
228.135	495
228.201	1041
228.267	-30
228.332	-145
228.398	-1106
228.464	782
228.530	-171
228.595	947
228.661	-1046
228.727	-146
228.792	1227
228.858	-285
228.924	-1155
228.990	2168
229.055	-1118
229.121	577
229.187	185
229.252	148
229.318	23
229.384	954
229.449	321
229.515	-1478
229.581	-470
229.646	1272
229.712	9
229.777	1311
229.843	97
229.909	389
229.974	398
230.040	522
230.105	-78
230.171	-440
230.236	200
230.302	580
230.368	559
230.433	-484
230.499	227
230.564	1289
230.630	-769
230.695	1071
230.761	1114
230.826	-1190
230.892	1635
230.957	-210
231.023	236
231.088	-544
231.154	-241
231.219	992
231.284	433
231.350	115
231.415	-199
231.481	456
231.546	717
231.612	535
231.677	-496
231.742	-1047
231.808	1113
231.873	-523
231.939	-1309
232.004	1317
232.069	1245
232.135	-559
232.200	7
232.265	1198
232.331	288
232.396	499
232.461	666
232.527	-104
232.592	-507
232.657	363
232.723	253
232.788	-143
232.853	917
232.918	-68
232.984	-880
233.049	379
233.114	-1000
233.179	1189
233.245	1482
233.310	1256
233.375	-1004
233.440	441
233.506	-610
233.571	77
233.636	246
233.701	-440
233.766	331
233.832	583
233.897	-6
233.962	-397
234.027	974
234.092	558
234.157	85
234.222	451
234.288	1404
234.353	2654
234.418	2087
234.483	1083
234.548	1032
234.613	86
234.678	627
234.743	-11
234.808	2295
234.873	258
234.938	736
235.004	598
235.069	-275
235.134	-215
235.199	868
235.264	1162
235.329	-1534
235.394	677
235.459	1369
235.524	-891
235.589	744
235.654	786
235.719	-1546
235.784	626
235.849	-382
235.913	1506
235.978	414
236.043	1098
236.108	1442
236.173	-246
236.238	415
236.303	194
236.368	-185
236.433	1948
236.498	109
236.563	1958
236.627	1824
236.692	11282
236.757	9229
236.822	2910
236.887	1407
236.952	1410
237.017	665
237.081	1780
237.146	1271
237.211	3541
237.276	10326
237.341	20743
237.405	7386
237.470	3331
237.535	1504
237.600	1481
237.664	975
237.729	67
237.794	-27
237.859	2988
237.923	1795
237.988	82
238.053	1488
238.118	870
238.182	3145
238.247	4843
238.312	511
238.376	432
238.441	-1333
238.506	1318
238.570	-275
238.635	1445
238.700	256
238.764	-307
238.829	1165
238.893	1312
238.958	1715
239.023	1106
239.087	200
239.152	1252
239.216	-216
239.281	1406
239.346	672
239.410	910
239.475	622
239.539	4222
239.604	2623
239.668	2282
239.733	2435
239.797	6352
239.862	14180
239.926	11378
239.991	4467
240.055	2595
240.120	1130
240.184	2353
240.249	-22
240.313	1039
240.378	166
240.442	2026
240.507	3300
240.571	862
240.635	1446
240.700	1479
240.764	1088
240.829	-43
240.893	-386
240.957	1447
241.022	1993
241.086	3401
241.151	731
241.215	-1232
241.279	878
241.344	726
241.408	563
241.472	-278
241.537	1226
241.601	2063
241.665	-215
241.730	106
241.794	1731
241.858	-709
241.922	437
241.987	1095
242.051	180
242.115	-308
242.179	538
242.244	482
242.308	1075
242.372	264
242.436	372
242.501	1200
242.565	-1102
242.629	-620
242.693	1247
242.757	102
242.822	553
242.886	981
242.950	880
243.014	51
243.078	965
243.142	375
243.206	556
243.271	1235
243.335	-145
243.399	1743
243.463	3823
243.527	15014
243.591	4171
243.655	953
243.719	-11
243.783	1541
243.847	1270
243.911	1872
243.975	870
244.040	-45
244.104	2009
244.168	221
244.232	709
244.296	1335
244.360	1698
244.424	477
244.488	780
244.552	514
244.615	-1377
244.679	839
244.743	402
244.807	228
244.871	42
244.935	1088
244.999	-556
245.063	1051
245.127	1557
245.191	1323
245.255	457
245.319	1382
245.383	-345
245.446	1936
245.510	-163
245.574	732
245.638	870
245.702	-91
245.766	2137
245.829	3059
245.893	251
245.957	-111
246.021	786
246.085	1114
246.149	664
246.212	2790
246.276	3431
246.340	1243
246.404	844
246.467	2758
246.531	33
246.595	2416
246.659	2442
246.722	-38
246.786	1174
246.850	1260
246.913	1407
246.977	30
247.041	748
247.104	801
247.168	1105
247.232	2150
247.295	5712
247.359	2723
247.423	845
247.486	1978
247.550	3043
247.614	607
247.677	1425
247.741	752
247.804	1912
247.868	3952
247.932	1962
247.995	6527
248.059	1436
248.122	106
248.186	1666
248.249	2377
248.313	8607
248.376	10273
248.440	5576
248.503	705
248.567	2251
248.630	883
248.694	2517
248.757	4687
248.821	10283
248.884	6105
248.948	4482
249.011	7583
249.075	10805
249.138	9726
249.202	3209
249.265	1464
249.328	3002
249.392	1188
249.455	2452
249.519	1173
249.582	1855
249.645	3022
249.709	2481
249.772	1624
249.835	881
249.899	1459
249.962	1832
250.025	1376
250.089	2858
250.152	5669
250.215	1878
250.279	1605
250.342	1935
250.405	2133
250.468	1172
250.532	2013
250.595	3592
250.658	12474
250.721	26210
250.785	6980
250.848	4432
250.911	2266
250.974	1963
251.038	2479
251.101	5442
251.164	2598
251.227	3455
251.290	2635
251.354	4150
251.417	20112
251.480	21687
251.543	11866
251.606	40736
251.669	30082
251.732	8704
251.795	8426
251.859	9961
251.922	24909
251.985	14423
252.048	5175
252.111	3387
252.174	2159
252.237	5368
252.300	12853
252.363	11583
252.426	32778
252.489	11794
252.552	4902
252.615	2938
252.678	4138
252.741	8922
252.804	11928
252.867	34010
252.930	17049
252.993	8240
253.056	5036
253.119	2106
253.182	1711
253.245	3503
253.308	3578
253.371	2397
253.434	2393
253.497	2724
253.559	5369
253.622	3043
253.685	2999
253.748	3572
253.811	1291
253.874	2835
253.937	2550
254.000	1616
254.062	2649
254.125	5498
254.188	4771
254.251	4344
254.314	2176
254.376	2612
254.439	4009
254.502	2551
254.565	3708
254.628	7259
254.690	3139
254.753	1892
254.816	1705
254.878	2152
254.941	4301
255.004	4110
255.067	2024
255.129	725
255.192	1439
255.255	222
255.317	2157
255.380	1177
255.443	1113
255.505	1032
255.568	636
255.631	187
255.693	1645
255.756	963
255.819	1852
255.881	987
255.944	1101
256.006	696
256.069	707
256.132	1030
256.194	1235
256.257	2273
256.319	2700
256.382	2291
256.444	3477
256.507	2422
256.569	468
256.632	1444
256.694	1931
256.757	5004
256.819	18810
256.882	5869
256.944	1866
257.007	3116
257.069	1826
257.132	1739
257.194	2066
257.257	1760
257.319	165
257.381	900
257.444	4769
257.506	21259
257.569	22642
257.631	7264
257.693	4463
257.756	2002
257.818	1901
257.880	850
257.943	2522
258.005	1027
258.067	1330
258.130	842
258.192	627
258.254	936
258.317	1483
258.379	1954
258.441	2938
258.503	3855
258.566	2757
258.628	4436
258.690	1207
258.753	2306
258.815	2502
258.877	938
258.939	1637
259.001	1723
259.064	1365
259.126	1204
259.188	2508
259.250	1963
259.312	1793
259.375	2216
259.437	1961
259.499	2030
259.561	1077
259.623	1718
259.685	964
259.747	2301
259.809	3463
259.872	6716
259.934	11502
259.996	9072
260.058	3431
260.120	1655
260.182	2179
260.244	1367
260.306	1456
260.368	1701
260.430	1256
260.492	1759
260.554	3404
260.616	1868
260.678	4446
260.740	6348
260.802	1593
260.864	2903
260.926	800
260.988	2359
261.050	1993
261.112	2178
261.174	6686
261.236	5890
261.298	2326
261.359	2263
261.421	4202
261.483	1719
261.545	2338
261.607	318
261.669	2386
261.731	1768
261.793	4162
261.854	1431
261.916	1802
261.978	1640
262.040	1520
262.102	1734
262.164	1116
262.225	1635
262.287	1977
262.349	2052
262.411	1825
262.472	2036
262.534	1082
262.596	3255
262.658	2631
262.719	1373
262.781	2621
262.843	3219
262.904	2450
262.966	2224
263.028	2540
263.090	7274
263.151	17339
263.213	7021
263.275	3491
263.336	2104
263.398	3016
263.459	970
263.521	1569
263.583	3411
263.644	3076
263.706	1832
263.767	1099
263.829	2117
263.891	1231
263.952	826
264.014	998
264.075	1655
264.137	3135
264.198	1970
264.260	-230
264.321	1555
264.383	2204
264.444	5292
264.506	2174
264.567	1113
264.629	2182
264.690	1749
264.752	1866
264.813	1599
264.875	472
264.936	1991
264.998	1103
265.059	1793
265.120	1839
265.182	1657
265.243	7828
265.305	8551
265.366	2698
265.427	2030
265.489	2780
265.550	856
265.611	1480
265.673	1358
265.734	2565
265.795	2004
265.857	370
265.918	783
265.979	3209
266.040	13235
266.102	12832
266.163	3555
266.224	2458
266.286	1847
266.347	1611
266.408	1653
266.469	1577
266.530	1568
266.592	1834
266.653	2908
266.714	3072
266.775	1208
266.836	1378
266.898	1334
266.959	2401
267.020	2192
267.081	3274
267.142	2182
267.203	3091
267.264	1784
267.326	2558
267.387	2497
267.448	1998
267.509	2252
267.570	2334
267.631	1327
267.692	1575
267.753	2097
267.814	1405
267.875	2779
267.936	3834
267.997	1685
268.058	1945
268.119	1420
268.180	1285
268.241	678
268.302	776
268.363	1170
268.424	1103
268.485	753
268.546	1234
268.607	974
268.668	657
268.729	308
268.790	817
268.851	1798
268.912	1978
268.972	1803
269.033	1416
269.094	555
269.155	849
269.216	184
269.277	1590
269.338	994
269.398	1559
269.459	548
269.520	1901
269.581	1873
269.642	1809
269.702	691
269.763	1456
269.824	943
269.885	1215
269.945	1803
270.006	1799
270.067	474
270.128	1044
270.188	1283
270.249	411
270.310	102
270.370	1971
270.431	903
270.492	787
270.553	436
270.613	2202
270.674	3089
270.734	548
270.795	850
270.856	1078
270.916	1028
270.977	1166
271.038	1666
271.098	1252
271.159	1408
271.219	2099
271.280	1091
271.340	975
271.401	1005
271.462	1342
271.522	1608
271.583	1560
271.643	1846
271.704	1373
271.764	1660
271.825	3088
271.885	8143
271.946	12052
272.006	5134
272.066	5915
272.127	11072
272.187	9600
272.248	5064
272.308	2749
272.369	7466
272.429	5011
272.489	3564
272.550	3152
272.610	3909
272.671	2730
272.731	2212
272.791	3492
272.852	3251
272.912	3894
272.972	2656
273.033	3316
273.093	2528
273.153	3697
273.214	3510
273.274	4701
273.334	7480
273.394	12429
273.455	7016
273.515	8411
273.575	10085
273.635	7290
273.696	9198
273.756	12896
273.816	9391
273.876	7045
273.936	6214
273.997	9363
274.057	5196
274.117	4220
274.177	5395
274.237	10475
274.297	9836
274.358	5792
274.418	7766
274.478	6478
274.538	2872
274.598	2200
274.658	5489
274.718	6254
274.778	3579
274.838	2836
274.898	3626
274.958	7897
275.018	9385
275.078	6130
275.138	2813
275.198	1018
275.258	1756
275.318	1847
275.378	3013
275.438	3195
275.498	2684
275.558	4920
275.618	9310
275.678	6216
275.738	4907
275.798	4111
275.858	2926
275.918	1839
275.978	1993
276.038	2447
276.098	2855
276.157	2722
276.217	6096
276.277	3765
276.337	2461
276.397	2063
276.457	2268
276.517	3488
276.576	3078
276.636	1791
276.696	2727
276.756	4470
276.815	4187
276.875	3210
276.935	3405
276.995	3621
277.055	3437
277.114	3888
277.174	3322
277.234	6219
277.293	4560
277.353	2294
277.413	2404
277.472	3094
277.532	3083
277.592	6171
277.651	18319
277.711	35278
277.771	14845
277.830	34836
277.890	32795
277.950	24938
278.009	62953
278.069	29493
278.128	27666
278.188	39458
278.248	20269
278.307	41963
278.367	27299
278.426	9556
278.486	5609
278.545	5075
278.605	5280
278.664	5117
278.724	4865
278.783	7357
278.843	13743
278.902	7788
278.962	6727
279.021	7586
279.081	16268
279.140	16226
279.199	10155
279.259	10378
279.318	11839
279.378	18149
279.437	29244
279.496	72694
279.556	232062
279.615	203724
279.675	68333
279.734	36984
279.793	38830
279.853	42801
279.912	20698
279.971	14943
280.031	13522
280.090	16470
280.149	25890
280.208	43800
280.268	157940
280.327	170690
280.386	50854
280.445	25976
280.505	18677
280.564	14259
280.623	9937
280.682	10479
280.742	10430
280.801	7140
280.860	5509
280.919	5691
280.978	5751
281.037	5351
281.097	5144
281.156	6539
281.215	5426
281.274	5808
281.333	8987
281.392	7649
281.451	4243
281.510	3889
281.569	3936
281.628	4411
281.688	3590
281.747	4203
281.806	3995
281.865	3472
281.924	2929
281.983	4277
282.042	2277
282.101	3460
282.160	2996
282.219	3750
282.278	3803
282.337	4551
282.396	4579
282.454	3597
282.513	3229
282.572	5985
282.631	4942
282.690	3840
282.749	3219
282.808	3117
282.867	3797
282.926	3917
282.985	3403
283.043	4742
283.102	3186
283.161	4545
283.220	5874
283.279	9539
283.338	4931
283.396	4810
283.455	5459
283.514	5398
283.573	5525
283.631	5186
283.690	5735
283.749	5061
283.808	6184
283.866	7321
283.925	5725
283.984	6590
284.043	7790
284.101	7600
284.160	6799
284.219	8811
284.277	9000
284.336	10096
284.395	15267
284.453	15507
284.512	14116
284.570	16020
284.629	17994
284.688	21751
284.746	26402
284.805	30966
284.863	39627
284.922	49672
284.981	59815
285.039	73823
285.098	94014
285.156	107225
285.215	105996
285.273	100113
285.332	110541
285.390	102282
285.449	80893
285.507	64468
285.566	49830
285.624	40660
285.683	33244
285.741	27222
285.799	22834
285.858	20422
285.916	17653
285.975	14526
286.033	11960
286.091	13215
286.150	10182
286.208	9993
286.267	9663
286.325	7841
286.383	7924
286.442	7835
286.500	7739
286.558	6300
286.616	6392
286.675	6165
286.733	6266
286.791	5486
286.850	4880
286.908	5516
286.966	6168
287.024	5475
287.083	4244
287.141	4007
287.199	4883
287.257	3991
287.315	5130
287.374	3789
287.432	5424
287.490	5158
287.548	4084
287.606	3350
287.664	4671
287.723	4205
287.781	4394
287.839	3551
287.897	5257
287.955	4093
288.013	5534
288.071	10727
288.129	28573
288.187	86667
288.245	39314
288.303	12986
288.361	8120
288.419	6458
288.477	4558
288.535	4246
288.593	4221
288.651	2685
288.709	2409
288.767	3215
288.825	2273
288.883	2473
288.941	2653
288.999	2022
289.057	2926
289.115	2427
289.173	1952
289.231	2936
289.289	1739
289.346	1959
289.404	2928
289.462	4110
289.520	3037
289.578	2680
289.636	1741
289.694	2839
289.751	1538
289.809	2483
289.867	2099
289.925	2580
289.983	2463
290.040	3299
290.098	2478
290.156	2145
290.214	2474
290.271	2544
290.329	3761
290.387	2213
290.444	1804
290.502	2417
290.560	2350
290.617	2204
290.675	1594
290.733	1524
290.790	2542
290.848	2633
290.906	1529
290.963	2589
291.021	1880
291.078	2409
291.136	2072
291.194	3757
291.251	6160
291.309	2763
291.366	2768
291.424	2555
291.481	1763
291.539	3367
291.596	5162
291.654	2818
291.711	2328
291.769	2719
291.826	2313
291.884	2377
291.941	2033
291.999	2495
292.056	1748
292.114	1662
292.171	1803
292.228	3412
292.286	2697
292.343	3275
292.401	3111
292.458	2506
292.515	2307
292.573	3380
292.630	2299
292.687	2594
292.745	2772
292.802	2742
292.859	5435
292.917	9650
292.974	5421
293.031	2658
293.089	3021
293.146	2520
293.203	2586
293.260	2079
293.318	2613
293.375	2508
293.432	2132
293.489	3071
293.546	2641
293.604	4763
293.661	9369
293.718	16994
293.775	8980
293.832	8160
293.889	8905
293.947	7132
294.004	3536
294.061	3924
294.118	5087
294.175	8101
294.232	13167
294.289	7696
294.346	5037
294.403	4510
294.460	2760
294.517	3091
294.574	2609
294.631	2021
294.688	2073
294.745	3925
294.802	10547
294.859	11012
294.916	5032
294.973	3354
295.030	2759
295.087	3060
295.144	2459
295.201	2431
295.258	1780
295.315	2838
295.372	5077
295.429	9226
295.486	5083
295.542	3496
295.599	4662
295.656	7494
295.713	5936
295.770	7931
295.827	4221
295.883	2372
295.940	1934
295.997	2173
296.054	2894
296.111	2500
296.167	1585
296.224	1604
296.281	1669
296.338	2009
296.394	1683
296.451	1883
296.508	3960
296.564	6504
296.621	5564
296.678	9497
296.734	14605
296.791	6242
296.848	4282
296.904	2548
296.961	5922
297.018	9076
297.074	7593
297.131	2805
297.187	3035
297.244	4399
297.301	9664
297.357	18487
297.414	7886
297.470	4939
297.527	2365
297.583	2531
297.640	2709
297.696	1965
297.753	2101
297.809	2124
297.866	2575
297.922	2420
297.979	1391
298.035	2415
298.092	3859
298.148	5572
298.204	5948
298.261	3513
298.317	5553
298.374	11342
298.430	8755
298.486	3593
298.543	2735
298.599	2513
298.656	3053
298.712	3876
298.768	6890
298.824	5418
298.881	3090
298.937	1683
298.993	2680
299.050	2260
299.106	2478
299.162	2136
299.218	2019
299.275	2613
299.331	3095
299.387	5348
299.443	13299
299.500	24217
299.556	18353
299.612	7701
299.668	7472
299.724	16217
299.780	20635
299.837	9503
299.893	7568
299.949	17180
300.005	25441
300.061	18652
300.117	29180
300.173	15284
300.229	6830
300.285	6267
300.341	6609
300.397	4509
300.453	3185
300.510	4480
300.566	4069
300.622	7840
300.678	24770
300.734	34715
300.790	19531
300.845	16661
300.901	17369
300.957	25569
301.013	14542
301.069	6322
301.125	5177
301.181	3810
301.237	3926
301.293	3089
301.349	3684
301.405	2882
301.461	2314
301.516	2980
301.572	2677
301.628	3274
301.684	2430
301.740	4004
301.796	6120
301.851	4866
301.907	5522
301.963	7485
302.019	11237
302.074	28036
302.130	30164
302.186	14105
302.242	7239
302.297	4620
302.353	4556
302.409	6871
302.464	6122
302.520	4847
302.576	9280
302.631	12375
302.687	6679
302.743	2683
302.798	2797
302.854	2849
302.910	2768
302.965	3322
303.021	3398
303.076	3481
303.132	4314
303.187	3912
303.243	2687
303.299	3107
303.354	2273
303.410	2211
303.465	1481
303.521	1367
303.576	2851
303.632	2537
303.687	3980
303.743	9324
303.798	9339
303.853	4010
303.909	2828
303.964	2386
304.020	2722
304.075	4125
304.130	2835
304.186	5034
304.241	5971
304.297	4704
304.352	2786
304.358	2698
304.407	1986
304.449	2342
304.463	2467
304.518	2388
304.539	2375
304.573	2348
304.629	2445
304.630	2465
304.684	3447
304.720	6067
304.739	7314
304.794	11222
304.811	10103
304.850	7511
304.902	3808
304.905	3567
304.960	3604
304.992	2789
305.015	2176
305.071	2875
305.083	2739
305.126	2277
305.173	2031
305.181	1997
305.236	1708
305.264	2077
305.292	2426
305.347	2373
305.354	2364
305.402	2379
305.445	2766
305.457	2852
305.512	2223
305.535	2568
305.567	3167
305.622	3159
305.626	3208
305.678	4596
305.716	8173
305.733	9296
305.788	11264
305.807	10055
305.843	8417
305.897	10296
305.898	10305
305.953	10394
305.988	7347
306.008	5783
306.063	3468
306.078	3225
306.118	2871
306.168	2449
306.173	2399
306.228	2288
306.259	2074
306.283	1967
306.338	1941
306.349	2111
306.393	2689
306.440	2766
306.448	2783
306.503	2686
306.530	2798
306.558	3280
306.613	4463
306.620	4673
306.668	5914
306.711	8275
306.723	8527
306.778	7008
306.801	5540
306.833	4254
306.888	3412
306.892	3372
306.943	2941
306.982	3025
306.997	3073
307.052	2542
307.072	2614
307.107	2785
307.162	2906
307.163	2908
307.217	3312
307.253	3797
307.272	3991
307.327	3458
307.343	3486
307.381	3700
307.434	4130
307.436	4193
307.491	5857
307.524	7121
307.546	7218
307.600	7646
307.614	6937
307.655	5028
307.704	3961
307.710	3969
307.765	4658
307.795	5005
307.819	5047
307.874	6197
307.885	6293
307.929	6736
307.975	6890
307.984	7312
308.038	10961
308.065	13202
308.093	23353
308.148	47909
308.156	52971
308.202	63762
308.246	70185
308.257	69312
308.312	36877
308.336	25238
308.366	18487
308.421	11884
308.426	11461
308.475	9461
308.517	8418
308.530	8220
308.585	8575
308.607	8382
308.639	8326
308.694	9153
308.697	9205
308.748	10926
308.787	12442
308.803	12508
308.857	11786
308.877	11608
308.912	13541
308.967	17240
308.967	17300
309.021	28530
309.058	37449
309.076	43496
309.130	64167
309.148	70942
309.185	104259
309.238	156213
309.239	156385
309.293	160414
309.328	147528
309.348	133299
309.402	79278
309.418	65039
309.457	52255
309.508	41561
309.511	42073
309.566	57516
309.598	68478
309.620	81020
309.674	118237
309.688	128280
309.729	116992
309.778	88383
309.783	86122
309.837	56051
309.868	40056
309.892	35525
309.946	29411
309.959	28489
310.001	25337
310.049	21956
310.055	21288
310.109	14991
310.139	11526
310.163	10080
310.218	7906
310.229	7545
310.272	7010
310.319	6626
310.326	6508
310.381	5780
310.409	5431
310.435	5168
310.489	4648
310.499	4584
310.543	4580
310.589	4565
310.598	4584
310.652	4856
310.679	4913
310.706	4614
310.760	3874
310.769	3800
310.814	4088
310.859	4283
310.868	4188
310.923	3605
310.948	3343
310.977	3503
311.031	3915
311.038	3979
311.085	3414
311.128	2603
311.139	2677
311.193	3353
311.218	3595
311.247	3659
311.301	3861
311.308	3873
311.356	3678
311.398	3473
311.410	3509
311.464	3761
311.488	3895
311.518	3701
311.572	3157
311.578	3102
311.626	3376
311.668	3640
311.680	3645
311.734	3567
311.758	3567
311.788	3407
311.842	3104
311.847	3068
311.896	3845
311.937	4560
311.950	4421
312.004	3758
312.027	3482
312.058	3331
312.112	3043
312.117	3014
312.165	3120
312.207	3215
312.297	3721
312.386	2751
312.476	4187
312.566	3969
312.656	3901
312.745	2802
312.835	3799
312.925	3227
313.015	4051
313.104	3984
313.194	4016
313.284	4094
313.374	4633
313.463	4380
313.553	4231
313.643	4685
313.732	4937
313.822	5307
313.912	5554
314.001	6137
314.091	6810
314.180	6536
314.270	6231
314.360	5600
314.449	5390
314.539	4790
314.628	5338
314.718	5641
314.808	6522
314.897	6776
314.987	7123
315.076	8153
315.166	7515
315.255	7533
315.345	6525
315.434	6578
315.524	7195
315.613	8708
315.703	15315
315.792	55370
315.881	117937
315.971	26686
316.060	10253
316.150	8380
316.239	6930
316.328	5468
316.418	6680
316.507	7039
316.597	8904
316.686	8053
316.775	7902
316.865	8228
316.954	6964
317.043	5513
317.133	5323
317.222	5030
317.311	6150
317.400	4771
317.490	8136
317.579	7957
317.668	11999
317.757	23931
317.847	93129
317.936	171241
318.025	45857
318.114	43095
318.203	14432
318.293	9455
318.382	12092
318.471	10807
318.560	12542
318.649	13775
318.738	5519
318.828	5340
318.917	4559
319.006	5619
319.095	8599
319.184	14836
319.273	8785
319.362	6118
319.451	4928
319.540	4385
319.629	6178
319.718	6469
319.807	6312
319.896	10950
319.985	18234
320.074	6904
320.163	4927
320.252	5180
320.341	5027
320.430	4919
320.519	6791
320.608	5731
320.697	7000
320.786	7506
320.875	9434
320.964	10604
321.053	10215
321.142	14373
321.230	13944
321.319	15555
321.408	18574
321.497	14666
321.586	13868
321.675	12389
321.764	11589
321.852	10444
321.941	12507
322.030	10618
322.119	13737
322.207	17978
322.296	16671
322.385	17688
322.474	22097
322.562	25934
322.651	16519
322.740	13765
322.829	12945
322.917	10156
323.006	9343
323.095	8387
323.183	7704
323.272	8710
323.361	12541
323.449	16866
323.538	9311
323.626	13473
323.715	8063
323.804	7284
323.892	11906
323.981	6561
324.069	5771
324.158	9217
324.246	7329
324.335	6153
324.424	5807
324.512	5077
324.601	5329
324.689	5098
324.778	6673
324.866	5755
324.954	4176
325.043	4192
325.131	4894
325.220	6967
325.308	5574
325.397	5854
325.485	3839
325.574	3880
325.662	3789
325.750	3285
325.839	3669
325.927	3754
326.015	4025
326.104	4631
326.192	4398
326.280	3792
326.369	3940
326.457	4090
326.545	5278
326.634	3627
326.722	4088
326.810	3514
326.898	4778
326.987	5877
327.075	4635
327.163	5825
327.251	4370
327.340	5516
327.428	7260
327.516	7152
327.604	5577
327.692	4632
327.781	4179
327.869	4421
327.957	3514
328.045	3136
328.133	3836
328.221	3675
328.309	3177
328.397	4170
328.485	5458
328.574	9401
328.662	13360
328.750	7080
328.838	4187
328.926	3703
329.014	4365
329.102	4905
329.190	5709
329.278	3845
329.366	3109
329.454	3624
329.542	4339
329.630	2932
329.718	3783
329.806	3458
329.893	3794
329.981	2905
330.069	4235
330.157	5723
330.245	6587
330.333	4600
330.421	4039
330.509	5870
330.597	9362
330.684	5024
330.772	4548
330.860	4451
330.948	5041
331.036	3884
331.123	3140
331.211	3622
331.299	4088
331.387	6169
331.475	5674
331.562	3853
331.650	3545
331.738	3533
331.825	4498
331.913	3302
332.001	4307
332.089	4215
332.176	5378
332.264	7463
332.352	5364
332.439	4661
332.527	4566
332.614	4389
332.702	4840
332.790	5491
332.877	9677
332.965	20992
333.052	13631
333.140	28537
333.228	40548
333.315	9469
333.403	7274
333.490	12081
333.578	32440
333.665	65097
333.753	18735
333.840	7591
333.928	8174
334.015	10865
334.103	17406
334.190	23908
334.278	18039
334.365	23715
334.452	20237
334.540	14245
334.627	14213
334.715	19061
334.802	31762
334.889	60304
334.977	60656
335.064	31040
335.151	15668
335.239	11966
335.326	11635
335.413	21197
335.501	16133
335.588	11459
335.675	12840
335.762	17303
335.850	22789
335.937	33326
336.024	59721
336.111	91580
336.199	64844
336.286	27703
336.373	16385
336.460	11232
336.547	9220
336.635	7836
336.722	7787
336.809	6943
336.896	7265
336.983	11376
337.070	19854
337.157	20994
337.245	16939
337.332	9975
337.419	5851
337.506	5866
337.593	6441
337.680	9720
337.767	12434
337.854	6782
337.941	7032
338.028	6475
338.115	5020
338.202	6780
338.289	9441
338.376	12408
338.463	6991
338.550	10713
338.637	8047
338.724	6627
338.811	6243
338.898	4697
338.984	3443
339.071	4169
339.158	5345
339.245	6309
339.332	4979
339.419	6735
339.506	5346
339.593	3735
339.679	5346
339.766	3187
339.853	5358
339.940	5087
340.027	4012
340.113	4168
340.200	4556
340.287	3646
340.374	4815
340.460	5374
340.547	3091
340.634	6968
340.720	11010
340.807	4784
340.894	4650
340.980	4882
341.067	4586
341.154	4356
341.240	5438
341.327	5572
341.414	5083
341.500	3406
341.587	4333
341.674	5025
341.760	5769
341.847	5021
341.933	4079
342.020	3028
342.106	4193
342.193	3972
342.279	4951
342.366	5026
342.452	5457
342.539	5401
342.625	7754
342.712	8461
342.798	5400
342.885	3974
342.971	3808
343.058	3842
343.144	3632
343.230	3990
343.317	3851
343.403	3426
343.490	4491
343.576	3564
343.662	4139
343.749	4196
343.835	4624
343.921	9533
344.008	39560
344.094	44553
344.180	9855
344.267	7625
344.353	16461
344.439	10674
344.525	5640
344.612	6304
344.698	4773
344.784	3700
344.870	4179
344.957	3614
345.043	4252
345.129	3862
345.215	6321
345.301	3844
345.387	4105
345.474	3999
345.560	3603
345.646	4067
345.732	4042
345.818	3476
345.904	3980
345.990	3907
346.076	3504
346.162	3877
346.249	5058
346.335	3491
346.421	4775
346.507	12241
346.593	17993
346.679	4748
346.765	7107
346.851	8337
346.937	5890
347.023	5577
347.108	5021
347.194	3456
347.280	5075
347.366	9766
347.452	26551
347.538	33160
347.624	19539
347.710	10453
347.796	5517
347.882	4865
347.967	5012
348.053	4115
348.139	4017
348.225	3917
348.311	4330
348.397	4493
348.482	5482
348.568	6375
348.654	9796
348.740	25628
348.825	17694
348.911	10960
348.997	20600
349.083	18856
349.168	6004
349.254	4987
349.340	4447
349.425	4609
349.511	5113
349.597	4940
349.682	8505
349.768	14048
349.854	6375
349.939	4852
350.025	4754
350.110	4479
350.196	4197
350.282	4114
350.367	4259
350.453	5129
350.538	4545
350.624	4578
350.709	5157
350.795	4580
350.880	3520
350.966	4810
351.051	5012
351.137	4365
351.222	4935
351.308	8807
351.393	9980
351.479	4939
351.564	4204
351.649	4709
351.735	4325
351.820	4465
351.906	4156
351.991	4798
352.076	10413
352.162	8866
352.247	5038
352.332	4822
352.418	4831
352.503	7557
352.588	15826
352.673	9501
352.759	5106
352.844	3603
352.929	4868
353.014	4135
353.100	5073
353.185	6109
353.270	6065
353.355	5572
353.441	5041
353.526	4527
353.611	6308
353.696	5827
353.781	5623
353.866	3869
353.952	5156
354.037	6268
354.122	8914
354.207	6969
354.292	4649
354.377	4883
354.462	4696
354.547	4290
354.632	5955
354.717	5397
354.802	5495
354.887	5115
354.972	4802
355.057	5057
355.142	3874
355.227	5617
355.312	5806
355.397	8814
355.482	11044
355.567	5532
355.652	7952
355.737	8893
355.822	18783
355.907	9159
355.991	5929
356.076	4725
356.161	4897
356.246	5095
356.331	6819
356.416	12189
356.501	37916
356.585	20685
356.670	6151
356.755	7948
356.840	9675
356.924	35078
357.009	62841
357.094	16943
357.179	7003
357.263	6194
357.348	7031
357.433	6450
357.517	7100
357.602	5745
357.687	5803
357.771	8741
357.856	10934
357.941	10964
358.025	34000
358.110	73062
358.195	23610
358.279	8428
358.364	9385
358.448	18194
358.533	28202
358.617	18926
358.702	17860
358.787	8421
358.871	7417
358.956	6688
359.040	5889
359.125	5199
359.209	5946
359.294	9109
359.378	12386
359.462	8102
359.547	5495
359.631	5867
359.716	4261
359.800	5039
359.885	6411
359.969	4638
360.053	5920
360.138	5542
360.222	6175
360.306	6742
360.391	6118
360.475	9983
360.559	12032
360.644	12409
360.728	9179
360.812	29914
360.896	39606
360.981	14042
361.065	7774
361.149	6958
361.233	6153
361.318	5406
361.402	6226
361.486	7077
361.570	6423
361.654	7932
361.739	13722
361.823	41535
361.907	37889
361.991	11703
362.075	13603
362.159	18360
362.243	35802
362.327	73890
362.411	78978
362.495	29189
362.580	17074
362.664	16480
362.748	19769
362.832	34439
362.916	77094
363.000	190062
363.084	216093
363.168	91972
363.252	27784
363.336	17632
363.420	17209
363.503	26334
363.587	19447
363.671	12176
363.755	11157
363.839	14447
363.923	14048
364.007	19737
364.091	27233
364.175	48169
364.258	111448
364.342	229091
364.426	304270
364.510	130524
364.594	44106
364.677	33731
364.761	51672
364.845	25939
364.929	13534
365.013	11002
365.096	10996
365.180	9793
365.264	17045
365.347	28866
365.431	10683
365.515	7019
365.598	6487
365.682	7580
365.766	6800
365.849	7322
365.933	6686
366.017	7307
366.100	5963
366.184	5780
366.267	7617
366.351	6566
366.435	5799
366.518	6265
366.602	6258
366.685	6671
366.769	6207
366.852	7818
366.936	9015
367.019	7187
367.103	6355
367.186	8764
367.270	6462
367.353	6730
367.436	8191
367.520	6929
367.603	8503
367.687	8397
367.770	8932
367.853	9475
367.937	18777
368.020	16886
368.104	6998
368.187	9031
368.270	8879
368.353	7516
368.437	9296
368.520	11322
368.603	9148
368.687	17382
368.770	17266
368.853	7012
368.936	8581
369.020	7279
369.103	5495
369.186	5425
369.269	4979
369.352	7945
369.436	7479
369.519	6588
369.602	4563
369.685	7906
369.768	5552
369.851	6124
369.934	5249
370.018	6100
370.101	7509
370.184	8638
370.267	7213
370.350	8525
370.433	15942
370.516	51086
370.599	77554
370.682	24392
370.765	18031
370.848	22831
370.931	26069
371.014	12420
371.097	6768
371.180	8246
371.263	8242
371.346	6613
371.429	8638
371.511	7621
371.594	9466
371.677	11419
371.760	12367
371.843	16784
371.926	46477
372.009	58199
372.091	26905
372.174	25040
372.257	32838
372.340	17623
372.423	16167
372.505	15378
372.588	11515
372.671	20787
372.754	28341
372.836	15163
372.919	17339
373.002	18679
373.085	10984
373.167	15373
373.250	21386
373.332	32285
373.415	60911
373.498	78973
373.580	56600
373.663	143324
373.746	90260
373.828	18304
373.911	12555
373.993	12391
374.076	19995
374.159	14158
374.241	15855
374.324	25370
374.406	18448
374.489	40950
374.571	60323
374.654	20916
374.736	24232
374.819	49258
374.901	69993
374.983	48636
375.066	15033
375.148	12015
375.231	22618
375.313	24005
375.395	12987
375.478	10383
375.560	11313
375.643	12164
375.725	28351
375.807	58729
375.890	29611
375.972	12507
376.054	12686
376.136	12643
376.219	10648
376.301	28241
376.383	40353
376.465	14304
376.548	12054
376.630	21037
376.712	35209
376.794	13040
376.877	6949
376.959	5534
377.041	6704
377.123	7862
377.205	8008
377.287	6745
377.369	7116
377.452	6375
377.534	7846
377.616	7378
377.698	6673
377.780	6752
377.862	6503
377.944	7884
378.026	6331
378.108	6985
378.190	6654
378.272	7872
378.354	6689
378.436	6698
378.518	6911
378.600	9448
378.682	11826
378.764	19271
378.846	12652
378.928	8241
379.010	8332
379.091	8075
379.173	7662
379.255	5963
379.337	7571
379.419	15592
379.501	22448
379.583	9776
379.664	8575
379.746	10403
379.828	20927
379.910	21762
379.991	17902
380.073	7181
380.155	7708
380.237	7408
380.318	7909
380.400	7815
380.482	11684
380.564	11416
380.645	10846
380.727	9597
380.809	10263
380.890	9229
380.972	8467
381.053	9985
381.135	11422
381.217	15284
381.298	20387
381.380	12769
381.461	20557
381.543	49053
381.624	36157
381.706	15253
381.787	14217
381.869	17856
381.951	39862
382.032	75188
382.113	37920
382.195	17589
382.276	21586
382.358	32529
382.439	48505
382.521	67381
382.602	79011
382.684	67729
382.765	137686
382.846	323432
382.928	476879
383.009	247157
383.090	314196
383.172	676623
383.253	621991
383.334	212632
383.416	126610
383.497	96460
383.578	130928
383.659	280835
383.741	648553
383.822	861359
383.903	407276
383.984	147301
384.066	102838
384.147	57583
384.228	37906
384.309	32911
384.390	29698
384.471	25886
384.553	24595
384.634	24895
384.715	24488
384.796	21987
384.877	25340
384.958	35542
385.039	28542
385.120	20004
385.201	19773
385.282	19995
385.363	25972
385.444	28181
385.525	31095
385.606	42647
385.687	29767
385.768	20478
385.849	24051
385.930	51773
386.011	54563
386.092	23085
386.173	17079
386.254	15064
386.335	14722
386.416	15023
386.496	21824
386.577	20990
386.658	16053
386.739	14386
386.820	16011
386.901	15660
386.981	19739
387.062	21343
387.143	24568
387.224	30458
387.304	26742
387.385	23295
387.466	19076
387.547	22317
387.627	22294
387.708	30112
387.789	46925
387.869	39320
387.950	21172
388.031	17499
388.111	16185
388.192	23012
388.273	26132
388.353	17862
388.434	12610
388.514	19162
388.595	42283
388.676	34015
388.756	19199
388.837	19208
388.917	11806
388.998	8127
389.078	10739
389.159	10677
389.239	8302
389.320	12481
389.400	8633
389.480	17034
389.561	21326
389.641	12594
389.722	10810
389.802	10320
389.883	17285
389.963	26110
390.043	13403
390.124	10245
390.204	15374
390.284	20596
390.365	13205
390.445	21769
390.525	35599
390.605	24115
390.686	12985
390.766	11042
390.846	10777
390.927	9933
391.007	9855
391.087	10756
391.167	10066
391.247	9872
391.328	13583
391.408	13067
391.488	12422
391.568	10822
391.648	13047
391.728	14440
391.808	15589
391.888	15896
391.969	23834
392.049	23405
392.129	20698
392.209	26873
392.289	34715
392.369	26550
392.449	27762
392.529	28095
392.609	33102
392.689	41210
392.769	57093
392.849	59115
392.929	80351
393.009	117699
393.089	169135
393.169	328707
393.248	698648
393.328	1161613
393.408	1026282
393.488	457916
393.568	199397
393.648	111181
393.728	72254
393.807	52146
393.887	42834
393.967	34957
394.047	30928
394.127	27464
394.206	31877
394.286	85270
394.366	226200
394.446	150220
394.525	35754
394.605	20893
394.685	21085
394.764	28518
394.844	43760
394.924	36076
395.003	18925
395.083	15506
395.163	14967
395.242	14992
395.322	14334
395.402	13181
395.481	18084
395.561	28981
395.640	68617
395.720	87529
395.799	46294
395.879	27644
395.958	32562
396.038	109500
396.117	287452
396.197	203139
396.276	59064
396.356	42263
396.435	50613
396.515	69462
396.594	115685
396.673	263469
396.753	649811
396.832	1021612
396.912	649747
396.991	215161
397.070	97358
397.150	58582
397.229	56010
397.308	102385
397.388	124252
397.467	48865
397.546	25689
397.625	17851
397.705	19551
397.784	15828
397.863	14504
397.942	12493
398.022	13376
398.101	17567
398.180	22542
398.259	13180
398.338	11784
398.417	10200
398.497	9141
398.576	11305
398.655	8684
398.734	9580
398.813	9498
398.892	15091
398.971	21877
399.050	9305
399.129	7104
399.208	7787
399.287	8048
399.366	6645
399.445	6652
399.524	7061
399.603	4947
399.682	8212
399.761	13744
399.840	24031
399.919	13961
399.998	6388
400.077	5639
400.156	5160
400.235	8127
400.313	5151
400.392	6930
400.471	13809
400.550	12643
400.629	5881
400.708	6407
400.786	5817
400.865	7107
400.944	5802
401.023	6549
401.102	4361
401.180	5779
401.259	4979
401.338	4724
401.416	6038
401.495	4409
401.574	5788
401.652	5475
401.731	6148
401.810	4578
401.888	3887
401.967	4001
402.046	4962
402.124	6164
402.203	3570
402.281	5952
402.360	5225
402.438	7248
402.517	4028
402.596	4666
402.674	3865
402.753	3920
402.831	5336
402.910	6101
402.988	10004
403.066	17195
403.145	10347
403.223	11810
403.302	14336
403.380	13089
403.459	11333
403.537	6546
403.615	6264
403.694	5009
403.772	6114
403.850	6361
403.929	5311
404.007	4598
404.085	7201
404.164	5326
404.242	5868
404.320	13909
404.398	24769
404.477	28928
404.555	57388
404.633	32540
404.711	17856
404.789	9869
404.868	4638
404.946	3226
405.024	4795
405.102	4138
405.180	3893
405.258	3258
405.336	4569
405.415	3512
405.493	5836
405.571	5413
405.649	4074
405.727	4750
405.805	7004
405.883	7431
405.961	7074
406.039	5210
406.117	3095
406.195	6734
406.273	19593
406.351	37959
406.429	13918
406.507	5631
406.585	3198
406.663	5316
406.740	4324
406.818	3294
406.896	3263
406.974	5579
407.052	8163
407.130	27399
407.208	22362
407.285	6436
407.363	3608
407.441	4438
407.519	3971
407.596	5013
407.674	9908
407.752	20770
407.830	11710
407.907	6342
407.985	3023
408.063	5222
408.141	3258
408.218	4746
408.296	4319
408.373	4978
408.451	5811
408.529	5068
408.606	4673
408.684	5757
408.762	5597
408.839	5672
408.917	6027
408.994	7435
409.072	8031
409.149	11714
409.227	19523
409.304	26525
409.382	28014
409.459	32841
409.537	39481
409.614	32460
409.692	25785
409.769	30430
409.846	43070
409.924	46719
410.001	29873
410.079	21414
410.156	16059
410.233	12947
410.311	10607
410.388	9826
410.465	9609
410.543	8037
410.620	7878
410.697	8698
410.775	9145
410.852	7977
410.929	11110
411.006	10030
411.083	8422
411.161	8288
411.238	8318
411.315	7190
411.392	6598
411.469	6445
411.547	5768
411.624	4262
411.701	5649
411.778	5782
411.855	6382
411.932	4762
412.009	4373
412.086	4719
412.163	4764
412.240	4640
412.317	5730
412.394	5023
412.471	4176
412.548	4649
412.625	4470
412.702	4697
412.779	5625
412.856	4518
412.933	3584
413.010	4840
413.087	6040
413.164	10345
413.241	8530
413.318	4196
413.395	5704
413.471	4322
413.548	4046
413.625	5057
413.702	3645
413.779	3675
413.855	3686
413.932	2647
414.009	2913
414.086	4111
414.162	3998
414.239	6135
414.316	10957
414.393	15329
414.469	4940
414.546	4350
414.623	3461
414.699	4189
414.776	3728
414.853	3289
414.929	4130
415.006	3570
415.082	3601
415.159	3200
415.236	3870
415.312	3939
415.389	4313
415.465	3967
415.542	3749
415.618	2666
415.695	4840
415.771	3533
415.848	3393
415.924	3902
416.000	3574
416.077	3839
416.153	2243
416.230	2577
416.306	3566
416.383	3843
416.459	3774
416.535	3900
416.612	3625
416.688	4786
416.764	4900
416.841	4536
416.917	4696
416.993	4528
417.069	3907
417.146	3409
417.222	4478
417.298	3789
417.374	3549
417.451	4082
417.527	2773
417.603	3228
417.679	4143
417.755	3844
417.831	3269
417.908	3673
417.984	3145
418.060	3364
418.136	5021
418.212	4440
418.288	3070
418.364	4084
418.440	2832
418.516	4905
418.592	4630
418.668	5476
418.744	5871
418.820	4881
418.896	2776
418.972	2156
419.048	4088
419.124	5834
419.200	3018
419.276	4369
419.352	2921
419.428	3651
419.504	4093
419.579	4278
419.655	3829
419.731	4485
419.807	7094
419.883	7587
419.959	6344
420.034	6173
420.110	8406
420.186	13117
420.262	7810
420.337	5482
420.413	5718
420.489	6483
420.565	6788
420.640	6691
420.716	7473
420.792	6042
420.867	8194
420.943	7113
421.019	9037
421.094	8285
421.170	9940
421.245	9415
421.321	11058
421.397	12310
421.472	17318
421.548	20630
421.623	17877
421.699	17867
421.774	19705
421.850	22145
421.925	26953
422.001	30870
422.076	37503
422.152	47355
422.227	63156
422.302	92431
422.378	141120
422.453	239684
422.529	372395
422.604	403208
422.679	386685
422.755	443013
422.830	317047
422.905	187884
422.981	120079
423.056	85180
423.131	64537
423.207	48956
423.282	39467
423.357	34773
423.432	27639
423.508	26218
423.583	23276
423.658	20625
423.733	17650
423.808	16408
423.883	16932
423.959	19498
424.034	22457
424.109	19014
424.184	13168
424.259	10682
424.334	10413
424.409	8778
424.484	8283
424.559	8327
424.634	7664
424.709	7207
424.784	7453
424.859	7389
424.934	7291
425.009	12214
425.084	13223
425.159	5509
425.234	5635
425.309	4732
425.384	7578
425.459	5742
425.534	5025
425.609	5188
425.683	4443
425.758	4272
425.833	4580
425.908	5599
425.983	9025
426.058	12082
426.132	6255
426.207	4468
426.282	5662
426.357	3488
426.431	3700
426.506	4003
426.581	4134
426.655	3923
426.730	3992
426.805	3152
426.879	3963
426.954	4361
427.029	7585
427.103	20485
427.178	28273
427.253	9416
427.327	4539
427.402	3809
427.476	5510
427.551	3544
427.625	3883
427.700	3578
427.774	3528
427.849	4365
427.923	4286
427.998	5179
428.072	6764
428.147	19895
428.221	91950
428.296	182527
428.370	64723
428.444	11470
428.519	7192
428.593	7271
428.667	7621
428.742	11898
428.816	38432
428.890	140395
428.965	134128
429.039	27436
429.113	9006
429.188	5477
429.262	4062
429.336	5724
429.410	8470
429.485	5400
429.559	7112
429.633	6657
429.707	9325
429.781	35295
429.855	134369
429.930	121011
430.004	34660
430.078	36334
430.152	107327
430.226	268094
430.300	173067
430.374	34882
430.448	14153
430.522	15770
430.596	23312
430.670	58874
430.744	175179
430.818	118763
430.892	19350
430.966	6202
431.040	4059
431.114	3756
431.188	3462
431.262	2967
431.336	3169
431.410	5701
431.484	5820
431.557	5064
431.631	5683
431.705	15621
431.779	76320
431.853	181656
431.927	76029
432.000	11903
432.074	5295
432.148	3575
432.222	2250
432.295	2477
432.369	2223
432.443	4427
432.516	19096
432.590	26329
432.664	6770
432.737	1834
432.811	1020
432.885	1736
432.958	1927
433.032	1559
433.106	1113
433.179	2937
433.253	1740
433.326	515
433.400	1094
433.473	2079
433.547	1240
433.620	1973
433.694	2045
433.767	2546
433.841	1349
433.914	2320
433.988	2564
434.061	2169
434.134	2125
434.208	1908
434.281	1251
434.355	2074
434.428	2473
434.501	1296
434.575	1365
434.648	1959
434.721	1509
434.795	2612
434.868	2341
434.941	2584
435.014	4201
435.088	4331
435.161	7495
435.234	11073
435.307	10184
435.381	10296
435.454	15894
435.527	22631
435.600	22676
435.673	16036
435.746	12687
435.819	9124
435.892	7178
435.966	5389
436.039	3587
436.112	4067
436.185	2561
436.258	2866
436.331	2243
436.404	2371
436.477	1856
436.550	2553
436.623	2191
436.696	1616
436.769	2585
436.842	1832
436.915	1417
436.987	2239
437.060	1373
437.133	2449
437.206	852
437.279	2390
437.352	1292
437.425	1506
437.498	2158
437.570	1658
437.643	1817
437.716	1345
437.789	1356
437.861	1095
437.934	2384
438.007	1690
438.080	1514
438.152	1838
438.225	5912
438.298	29674
438.370	42154
438.443	10155
438.516	3311
438.588	1860
438.661	1567
438.734	2084
438.806	1771
438.879	1559
438.951	1585
439.024	1480
439.096	1164
439.169	2402
439.241	1279
439.314	1279
439.386	1580
439.459	1560
439.531	1233
439.604	1044
439.676	2577
439.749	1188
439.821	476
439.893	1834
439.966	1350
440.038	579
440.110	2155
440.183	1196
440.255	1948
440.327	3001
440.400	11777
440.472	25716
440.544	8685
440.617	2249
440.689	2853
440.761	2907
440.833	2555
440.905	2605
440.978	1714
441.050	1701
441.122	2870
441.194	1448
441.266	1443
441.338	1909
441.411	3610
441.483	10195
441.555	7326
441.627	3107
441.699	2799
441.771	2698
441.843	2115
441.915	2836
441.987	1575
442.059	3030
442.131	4464
442.203	4784
442.275	6933
442.347	14586
442.419	44500
442.491	184190
442.563	245353
442.635	72508
442.706	18375
442.778	10068
442.850	6488
442.922	5665
442.994	6556
443.066	6264
443.137	9429
443.209	13337
443.281	22936
443.353	60070
443.425	209322
443.496	451803
443.568	369053
443.640	120035
443.711	30078
443.783	14615
443.855	9253
443.926	7090
443.998	5396
444.070	6037
444.141	4627
444.213	4506
444.285	5461
444.356	4535
444.428	4288
444.499	3822
444.571	3516
444.642	4352
444.714	3788
444.785	4725
444.857	6290
444.928	7473
445.000	8317
445.071	10421
445.143	12877
445.214	21543
445.285	41729
445.357	118136
445.428	342704
445.500	472328
445.571	356361
445.642	195290
445.714	60473
445.785	22372
445.856	11378
445.928	8494
445.999	6882
446.070	5159
446.141	4571
446.213	4150
446.284	3122
446.355	3535
446.426	2318
446.497	1757
446.569	2190
446.640	2245
446.711	2204
446.782	2036
446.853	2326
446.924	2435
446.995	1213
447.066	2343
447.138	1345
447.209	1214
447.280	725
447.351	1121
447.422	-274
447.493	1161
447.564	440
447.635	1297
447.706	769
447.777	180
447.847	757
447.918	640
447.989	628
448.060	1273
448.131	1701
448.202	1657
448.273	1095
448.344	1464
448.414	1123
448.485	1169
448.556	793
448.627	1275
448.698	1696
448.768	-51
448.839	724
448.910	1252
448.981	530
449.051	1872
449.122	601
449.193	813
449.263	520
449.334	894
449.405	1180
449.475	2297
449.546	2018
449.616	1558
449.687	1857
449.758	1005
449.828	766
449.899	-313
449.969	128
450.040	1030
450.110	713
450.181	632
450.251	1201
450.322	214
450.392	651
450.463	968
450.533	1281
450.604	918
450.674	711
450.744	2727
450.815	1382
450.885	1957
450.955	2099
451.026	747
451.096	1042
451.166	1750
451.237	3560
451.307	5151
451.377	2422
451.447	1526
451.518	1413
451.588	1368
451.658	748
451.728	1278
451.799	3367
451.869	2017
451.939	501
452.009	781
452.079	693
452.149	1549
452.219	1391
452.289	3762
452.360	1774
452.430	1964
452.500	3524
452.570	7307
452.640	20567
452.710	43161
452.780	35167
452.850	16891
452.920	7784
452.990	4250
453.060	2422
453.129	2230
453.199	2316
453.269	7165
453.339	7246
453.409	7357
453.479	11755
453.549	12658
453.619	10686
453.688	2982
453.758	876
453.828	655
453.898	623
453.968	647
454.037	1058
454.087	1216
454.107	1260
454.168	578
454.177	452
454.247	442
454.249	473
454.316	720
454.330	713
454.386	555
454.411	1090
454.456	1811
454.492	1967
454.525	2084
454.574	1642
454.595	1437
454.655	871
454.665	763
454.734	822
454.736	897
454.804	2057
454.817	2523
454.873	4002
454.898	3728
454.943	3039
454.979	1821
455.013	749
455.060	1224
455.082	1535
455.141	1711
455.152	1694
455.221	4760
455.222	4819
455.291	5166
455.303	5640
455.360	7064
455.384	8366
455.430	9542
455.465	7021
455.499	4749
455.546	3877
455.569	3446
455.627	3069
455.638	3009
455.707	1740
455.708	1764
455.777	774
455.789	877
455.846	1427
455.869	1592
455.916	1723
455.950	1683
455.985	1669
456.031	1510
456.054	1358
456.112	2043
456.124	2175
456.193	2265
456.193	2240
456.262	2055
456.274	2259
456.332	3178
456.355	2886
456.401	1988
456.436	2345
456.470	2791
456.516	2828
456.540	2682
456.597	1974
456.609	1886
456.678	2914
456.678	2887
456.747	2757
456.759	2824
456.817	3165
456.840	3114
456.886	2830
456.920	2975
456.955	3439
457.001	3998
457.024	4213
457.082	5417
457.093	5527
457.162	6573
457.163	6611
457.232	4567
457.243	4470
457.301	4504
457.324	4460
457.370	4651
457.405	5307
457.439	5971
457.485	6541
457.508	6802
457.566	8350
457.577	9148
457.646	15052
457.647	15191
457.715	41159
457.727	47009
457.784	88207
457.808	114332
457.853	142276
457.889	151147
457.922	128506
457.969	80609
457.991	88443
458.050	131143
458.060	140057
458.129	241787
458.130	244237
458.198	192556
458.211	173050
458.267	82758
458.292	51762
458.336	41199
458.372	39819
458.405	63046
458.453	102782
458.474	135634
458.533	250285
458.543	258882
458.611	360616
458.614	362127
458.680	169399
458.694	127626
458.749	57777
458.775	36599
458.818	25300
458.855	18751
458.887	15870
458.936	13141
458.955	12221
459.016	10364
459.024	10299
459.093	9845
459.097	9823
459.162	8127
459.177	8029
459.230	8313
459.257	8275
459.299	7759
459.338	7411
459.368	7317
459.418	7248
459.437	7158
459.499	6440
459.505	6358
459.574	6297
459.579	6322
459.643	6519
459.659	6394
459.711	6283
459.740	6671
459.780	7068
459.820	7210
459.849	7186
459.900	7145
459.917	7007
459.981	6557
459.986	6526
460.054	5764
460.061	5769
460.123	5941
460.141	6065
460.191	7195
460.222	7636
460.260	7568
460.302	7652
460.328	7611
460.382	7228
460.397	7018
460.462	6879
460.465	6991
460.534	9217
460.543	9523
460.602	19830
460.623	24165
460.671	36046
460.703	45738
460.739	41160
460.783	29755
460.808	23030
460.864	7603
460.876	6961
460.944	6540
460.945	6532
461.013	6400
461.024	6318
461.081	6248
461.104	6597
461.150	6994
461.184	6999
461.218	6907
461.264	7103
461.286	7153
461.345	6514
461.355	6359
461.423	6229
461.425	6214
461.491	6661
461.505	6886
461.559	8153
461.585	8506
461.628	10347
461.665	12424
461.696	13041
461.745	13757
461.764	12334
461.825	7028
461.832	7047
461.901	7886
461.905	7916
461.969	7086
461.985	7088
462.037	7917
462.065	8024
462.105	7342
462.145	6955
462.173	7959
462.225	9585
462.241	9823
462.305	11199
462.310	11106
462.378	9162
462.385	8931
462.446	8730
462.465	8785
462.514	8413
462.545	8087
462.582	7685
462.625	7088
462.650	6856
462.705	6671
462.718	6915
462.785	7807
462.786	7804
462.854	7440
462.865	7420
462.922	8463
462.945	8805
462.990	7885
463.025	7144
463.058	7080
463.104	7055
463.126	7032
463.184	6949
463.194	7034
463.262	7617
463.264	7628
463.330	7466
463.344	7439
463.398	8057
463.424	8329
463.466	7618
463.504	7051
463.533	7601
463.583	8380
463.601	8290
463.663	7699
463.669	7734
463.737	8523
463.743	8568
463.805	9923
463.823	10351
463.873	12405
463.903	13677
463.940	13792
463.982	13713
464.008	12306
464.062	9235
464.076	9011
464.142	7869
464.144	7872
464.211	7830
464.221	7785
464.279	7073
464.301	6798
464.347	8367
464.381	9665
464.414	9281
464.461	8556
464.482	8675
464.540	8991
464.550	8921
464.617	8304
464.620	8273
464.685	8777
464.699	8865
464.753	9165
464.779	9372
464.820	9997
464.859	10375
464.888	9779
464.938	8698
464.956	9238
465.018	11333
465.023	11198
465.091	9058
465.098	8835
465.158	8936
465.177	8942
465.226	9347
465.257	9580
465.293	9840
465.336	10140
465.361	10289
465.416	10551
465.428	10782
465.495	11804
465.496	11836
465.563	13722
465.575	14059
465.631	16002
465.654	16745
465.698	12983
465.734	9833
465.765	9550
465.813	8990
465.833	9043
465.893	9188
465.900	9214
465.968	9475
465.972	9461
466.035	9015
466.052	8922
466.102	9404
466.131	9604
466.170	9234
466.210	8805
466.237	9205
466.290	9980
466.304	9982
466.369	9796
466.372	9815
466.439	9933
466.449	9911
466.506	10261
466.528	10400
466.573	11848
466.607	12869
466.641	15653
466.687	19535
466.708	20851
466.766	24283
466.775	23060
466.842	13498
466.845	13017
466.909	11371
466.925	10956
466.977	11168
467.004	11250
467.044	11716
467.083	12158
467.111	12451
467.163	12911
467.178	13185
467.242	14184
467.245	14186
467.312	13629
467.321	13527
467.379	14009
467.400	14143
467.446	14844
467.480	15299
467.559	14131
467.638	13512
467.717	14721
467.796	16534
467.875	18278
467.955	17272
468.034	22056
468.113	32281
468.192	43298
468.271	38301
468.350	52802
468.429	73731
468.508	76940
468.588	49119
468.667	29446
468.746	22863
468.825	19878
468.904	16275
468.983	16957
469.062	17695
469.141	19189
469.220	14691
469.299	14624
469.378	12823
469.456	14538
469.535	14780
469.614	14612
469.693	15500
469.772	17666
469.851	20238
469.930	19462
470.009	21758
470.088	28787
470.166	48136
470.245	96373
470.324	133880
470.403	87811
470.482	43376
470.560	27375
470.639	22296
470.718	20684
470.797	16248
470.875	16808
470.954	16847
471.033	17603
471.111	13099
471.190	13449
471.269	12675
471.347	12333
471.426	13263
471.505	12336
471.583	12775
471.662	12636
471.740	12647
471.819	11691
471.898	11851
471.976	12787
472.055	11698
472.133	11921
472.212	13492
472.290	12757
472.369	11190
472.447	12108
472.526	11344
472.604	11486
472.683	12188
472.761	12197
472.839	12976
472.918	13500
472.996	13573
473.075	15176
473.153	13345
473.231	13797
473.310	14051
473.388	13981
473.466	13502
473.545	13818
473.623	16160
473.701	16418
473.780	13844
473.858	12664
473.936	15470
474.014	12803
474.093	14426
474.171	15794
474.249	17078
474.327	14622
474.405	12063
474.484	12823
474.562	13387
474.640	12034
474.718	12129
474.796	12276
474.874	12578
474.952	11566
475.030	11950
475.108	11384
475.187	11308
475.265	12321
475.343	13964
475.421	14842
475.499	11401
475.577	11864
475.655	12867
475.733	16491
475.811	21357
475.889	20284
475.966	16056
476.044	11698
476.122	12336
476.200	14087
476.278	12184
476.356	11001
476.434	11201
476.512	12805
476.590	13577
476.667	13241
476.745	11809
476.823	11522
476.901	12403
476.979	11627
477.056	11993
477.134	11810
477.212	11961
477.290	11064
477.367	10598
477.445	11344
477.523	10966
477.601	10399
477.678	11336
477.756	10807
477.834	12463
477.911	10781
477.989	11583
478.066	10691
478.144	10823
478.222	12173
478.299	14195
478.377	13266
478.454	12271
478.532	10669
478.609	11309
478.687	12290
478.764	10302
478.842	12239
478.919	11395
478.997	11401
479.074	10529
479.152	11357
479.229	12219
479.307	10721
479.384	11557
479.461	10719
479.539	10639
479.616	10941
479.694	10263
479.771	12166
479.848	11351
479.926	11552
480.003	14131
480.080	11811
480.157	12391
480.235	11588
480.312	12574
480.389	12251
480.467	14790
480.544	16940
480.621	16322
480.698	15913
480.775	16421
480.853	15140
480.930	12659
481.007	11612
481.084	12943
481.161	13904
481.238	12839
481.315	12724
481.392	12753
481.470	14205
481.547	14177
481.624	13527
481.701	14502
481.778	14754
481.855	15420
481.932	19133
482.009	22546
482.086	23192
482.163	23819
482.240	28684
482.317	31304
482.393	26099
482.470	21896
482.547	21096
482.624	18783
482.701	19229
482.778	17520
482.855	18335
482.932	18326
483.009	19601
483.085	22998
483.162	27174
483.239	29430
483.316	29262
483.393	30178
483.469	24451
483.546	21748
483.623	20155
483.699	16519
483.776	16226
483.853	16227
483.930	18076
484.006	22805
484.083	31652
484.160	22471
484.236	26920
484.313	23877
484.389	22863
484.466	26945
484.543	32060
484.619	41002
484.696	44459
484.772	31174
484.849	23298
484.925	20172
485.002	21308
485.078	19297
485.155	18103
485.231	17209
485.308	16273
485.384	16465
485.461	18116
485.537	21775
485.614	24467
485.690	15760
485.766	15333
485.843	15588
485.919	20031
485.995	21696
486.072	16712
486.148	14970
486.224	15303
486.301	15886
486.377	17362
486.453	16497
486.530	16874
486.606	18720
486.682	20006
486.758	23302
486.835	24707
486.911	21236
486.987	30554
487.063	36963
487.139	46535
487.215	40983
487.292	35372
487.368	42119
487.444	55780
487.520	80770
487.596	118553
487.672	265098
487.748	852798
487.824	1333910
487.900	473133
487.976	123265
488.052	64012
488.128	44361
488.204	33366
488.280	29153
488.356	26805
488.432	31115
488.508	36731
488.584	21639
488.660	20264
488.736	19203
488.812	18107
488.888	19464
488.964	21989
489.039	37361
489.115	53495
489.191	34785
489.267	17880
489.343	15349
489.418	15244
489.494	14974
489.570	14313
489.646	16830
489.722	16588
489.797	16033
489.873	19917
489.949	27054
490.024	23334
490.100	16800
490.176	16572
490.251	17653
490.327	19919
490.403	16007
490.478	15386
490.554	15419
490.629	15544
490.705	15723
490.781	16299
490.856	14227
490.932	16025
491.007	15949
491.083	15039
491.158	15277
491.234	15436
491.309	22529
491.385	20442
491.460	13231
491.536	15539
491.611	14155
491.686	15369
491.762	17154
491.837	26806
491.913	36754
491.988	50359
492.063	60880
492.139	22213
492.214	15549
492.289	13917
492.365	13816
492.440	14330
492.515	13134
492.590	14314
492.666	12647
492.741	14778
492.816	16491
492.891	13447
492.967	13809
493.042	13111
493.117	13328
493.192	13620
493.267	17594
493.342	37570
493.418	46014
493.493	16229
493.568	12784
493.643	12917
493.718	12435
493.793	15907
493.868	16775
493.943	14269
494.018	13018
494.093	13265
494.168	13524
494.243	11990
494.318	12116
494.393	12890
494.468	12964
494.543	13376
494.618	14446
494.693	12574
494.768	12886
494.842	13979
494.917	13446
494.992	13044
495.067	13227
495.142	12583
495.217	13597
495.292	13905
495.366	13817
495.441	14597
495.516	17529
495.591	20728
495.665	48364
495.740	106564
495.815	43828
495.890	15506
495.964	12576
496.039	16416
496.114	15575
496.188	17192
496.263	16153
496.338	14060
496.412	13923
496.487	16415
496.561	15923
496.636	15730
496.710	14707
496.785	13553
496.860	15264
496.934	14200
497.009	15103
497.083	15322
497.158	14887
497.232	15651
497.307	18830
497.381	18255
497.455	18739
497.530	17048
497.604	14553
497.679	13750
497.753	18314
497.827	18696
497.902	18590
497.976	21283
498.050	38730
498.125	138164
498.199	131922
498.273	26767
498.348	21389
498.422	21114
498.496	23359
498.570	24189
498.645	16275
498.719	13212
498.793	15916
498.867	19082
498.941	23861
499.016	56802
499.090	140917
499.164	53144
499.238	17453
499.312	18057
499.386	18931
499.460	19847
499.534	20991
499.609	25351
499.683	22093
499.757	18238
499.831	27380
499.905	90749
499.979	81018
500.053	20314
500.127	20445
500.201	19614
500.275	16810
500.349	17257
500.422	19238
500.496	25813
500.570	36882
500.644	67108
500.718	99406
500.792	27433
500.866	14212
500.940	14532
501.013	13960
501.087	14242
501.161	19103
501.235	19356
501.309	32587
501.382	72883
501.456	63590
501.530	21942
501.603	25495
501.677	15922
501.751	11267
501.825	14440
501.898	17115
501.972	33394
502.046	22593
502.119	12745
502.193	19768
502.266	34302
502.340	19442
502.413	19961
502.487	29291
502.561	20212
502.634	13880
502.708	15078
502.781	13308
502.855	13116
502.928	10518
503.002	11812
503.075	10897
503.149	11819
503.222	13609
503.295	13500
503.369	14960
503.442	17205
503.516	31310
503.589	61113
503.662	47058
503.736	35604
503.809	54173
503.882	65055
503.956	97578
504.029	172891
504.102	461398
504.175	688424
504.249	277790
504.322	97817
504.395	51285
504.468	33796
504.542	24079
504.615	19120
504.688	17532
504.761	14083
504.834	16792
504.907	15461
504.980	17602
505.053	13566
505.127	12045
505.200	15227
505.273	12282
505.346	9984
505.419	9359
505.492	11687
505.565	9617
505.638	10774
505.711	9130
505.784	8798
505.857	7150
505.930	11443
506.003	7400
506.076	9788
506.149	8475
506.221	7907
506.294	11395
506.367	14262
506.440	37893
506.513	22775
506.586	10924
506.659	8358
506.731	7111
506.804	9127
506.877	10085
506.950	9379
507.022	8895
507.095	7987
507.168	9848
507.241	9567
507.313	6736
507.386	7763
507.459	10565
507.531	8997
507.604	7593
507.677	8896
507.749	5811
507.822	9611
507.894	11592
507.967	12927
508.040	8961
508.112	9404
508.185	8441
508.257	7817
508.330	11435
508.402	8815
508.475	8156
508.547	10174
508.620	7477
508.692	10120
508.765	9616
508.837	7590
508.909	8186
508.982	7477
509.054	8337
509.127	8681
509.199	7487
509.271	7221
509.344	8021
509.416	8116
509.488	7527
509.560	9022
509.633	8175
509.705	8548
509.777	9515
509.849	10366
509.922	7764
509.994	8418
510.066	10138
510.138	8297
510.210	12821
510.283	9326
510.355	10311
510.427	9765
510.499	8941
510.571	7733
510.643	8298
510.715	12603
510.787	9677
510.859	10210
510.931	8993
511.003	11681
511.076	11487
511.148	8469
511.219	8870
511.291	11411
511.363	11888
511.435	9803
511.507	8391
511.579	10217
511.651	9275
511.723	7925
511.795	8846
511.867	8242
511.939	9849
512.010	12046
512.082	11550
512.154	8138
512.226	10160
512.298	11760
512.369	13377
512.441	11998
512.513	12301
512.585	9206
512.656	11186
512.728	9668
512.800	10082
512.871	9602
512.943	9026
513.015	9431
513.086	10097
513.158	10527
513.230	9723
513.301	11930
513.373	14728
513.444	10231
513.516	10273
513.588	8854
513.659	11047
513.731	11793
513.802	10179
513.874	18704
513.945	24258
514.016	11814
514.088	10260
514.159	9293
514.231	12857
514.302	12425
514.374	12223
514.445	10198
514.516	16111
514.588	12135
514.659	11074
514.730	13649
514.802	13733
514.873	9241
514.944	13252
515.016	11518
515.087	11276
515.158	13038
515.229	15489
515.301	9762
515.372	12252
515.443	10969
515.514	11592
515.585	10209
515.656	13393
515.728	12757
515.799	13264
515.870	15409
515.941	16431
516.012	17541
516.083	21805
516.154	25092
516.225	31955
516.296	40664
516.367	47441
516.438	63355
516.509	83166
516.580	125799
516.651	456500
516.722	1569596
516.793	584650
516.864	119332
516.935	104607
517.006	126762
517.077	167661
517.148	370831
517.219	1608219
517.289	2207288
517.360	422998
517.431	112970
517.502	61493
517.573	51333
517.643	44311
517.714	44769
517.785	51231
517.856	59007
517.926	78736
517.997	102050
518.068	137055
518.138	187492
518.209	312104
518.280	1063208
518.350	2891575
518.421	1344199
518.492	274584
518.562	154364
518.633	144404
518.703	180052
518.774	351672
518.845	883788
518.915	817508
518.986	249183
519.056	106115
519.127	74415
519.197	65948
519.268	70150
519.338	46485
519.408	26504
519.479	27204
519.549	21941
519.620	21689
519.690	17266
519.760	15593
519.831	16583
519.901	14455
519.971	14718
520.042	13421
520.112	13060
520.182	15017
520.253	15324
520.323	11421
520.393	12822
520.463	16771
520.534	10785
520.604	19070
520.674	13727
520.744	13332
520.814	19205
520.885	18395
520.955	18364
521.025	48301
521.095	22568
521.165	12084
521.235	10274
521.305	9805
521.375	11652
521.445	10676
521.515	12251
521.585	14029
521.655	11267
521.725	12556
521.795	12531
521.865	8342
521.935	14233
522.005	10006
522.075	10330
522.145	11831
522.215	9564
522.285	12182
522.355	14579
522.424	19113
522.494	16748
522.564	13627
522.634	20805
522.704	48979
522.774	20723
522.843	11738
522.913	11312
522.983	13681
523.053	11354
523.122	11826
523.192	13575
523.262	30010
523.331	26898
523.401	12484
523.471	11597
523.540	11944
523.610	9946
523.680	11643
523.749	11712
523.819	12781
523.888	11866
523.958	11470
524.027	11690
524.097	11207
524.166	11370
524.236	11274
524.305	13572
524.375	11168
524.444	10859
524.514	13023
524.583	11400
524.653	12069
524.722	13956
524.791	11045
524.861	13952
524.930	11272
524.999	12893
525.069	15481
525.138	14314
525.207	15199
525.277	16414
525.346	16956
525.415	20023
525.484	21941
525.554	25995
525.623	31150
525.692	39982
525.761	49729
525.830	67989
525.900	92931
525.969	143887
526.038	263318
526.107	545024
526.176	1559261
526.245	1199831
526.314	359364
526.383	770751
526.452	1018067
526.522	1408490
526.591	1260906
526.660	245464
526.729	143817
526.797	149631
526.867	208679
526.935	619080
527.004	2000433
527.073	1248427
527.142	195366
527.211	77245
527.280	49875
527.349	37991
527.418	26902
527.487	24616
527.555	18520
527.624	17861
527.693	15795
527.762	17281
527.831	14581
527.899	15728
527.968	13805
528.037	11780
528.106	13968
528.174	16825
528.243	13806
528.312	17257
528.380	18462
528.449	12223
528.518	12464
528.586	9730
528.655	12661
528.723	11425
528.792	10425
528.861	10677
528.929	8754
528.998	11413
529.066	11128
529.135	12261
529.203	10618
529.272	11985
529.340	15347
529.409	15113
529.477	13009
529.545	13311
529.614	15277
529.682	14580
529.751	16057
529.819	17969
529.887	16660
529.956	15989
530.024	16116
530.092	14168
530.161	16017
530.229	17517
530.297	15990
530.365	16404
530.434	17218
530.502	16092
530.570	16218
530.638	13071
530.707	14864
530.775	16039
530.843	14811
530.911	15147
530.979	15031
531.047	15884
531.115	15331
531.183	14103
531.252	15019
531.320	14102
531.388	12785
531.456	17038
531.524	14938
531.592	16814
531.660	19425
531.728	15765
531.796	15847
531.864	16305
531.932	15726
532.000	15210
532.067	16565
532.135	18283
532.203	19397
532.271	19927
532.339	23843
532.407	36025
532.475	26563
532.542	21379
532.610	20907
532.678	22124
532.746	48322
532.814	91439
532.881	33309
532.949	20091
533.017	18803
533.084	18233
533.152	17490
533.220	17791
533.287	17142
533.355	17004
533.423	18610
533.490	19057
533.558	18545
533.625	19315
533.693	18980
533.761	18644
533.828	19601
533.896	17852
533.963	24603
534.031	26390
534.098	31309
534.166	28447
534.233	25028
534.300	30002
534.368	29480
534.435	31001
534.503	34445
534.570	39802
534.637	47264
534.705	57078
534.772	67576
534.840	136204
534.907	655810
534.974	785971
535.041	102192
535.109	41017
535.176	29554
535.243	26529
535.310	26009
535.378	24186
535.445	23294
535.512	23353
535.579	23124
535.646	22298
535.714	23965
535.781	25389
535.848	25156
535.915	25045
535.982	23800
536.049	24984
536.116	24756
536.183	22547
536.250	21405
536.317	21288
536.384	24239
536.451	26891
536.518	26651
536.585	23799
536.652	25810
536.719	28247
536.786	23443
536.853	23956
536.920	27894
536.987	29626
537.053	27761
537.120	58494
537.187	49955
537.254	26335
537.321	24329
537.388	25622
537.454	22802
537.521	22922
537.588	23438
537.654	24755
537.721	24000
537.788	24710
537.855	23471
537.921	24230
537.988	22586
538.055	22846
538.121	20392
538.188	21562
538.254	22725
538.321	28708
538.388	25562
538.454	25887
538.521	25208
538.587	24934
538.654	24850
538.720	24642
538.787	23666
538.853	23697
538.920	23832
538.986	21843
539.053	21391
539.119	22071
539.185	21809
539.252	24432
539.318	26491
539.385	28392
539.451	24491
539.517	24991
539.583	25365
539.650	29832
539.716	44630
539.782	26222
539.849	23303
539.915	22892
539.981	23043
540.047	24554
540.114	22992
540.180	25688
540.246	24315
540.312	27503
540.378	31517
540.444	30989
540.510	32643
540.576	50883
540.643	27317
540.709	22813
540.775	23813
540.841	22833
540.907	23176
540.973	25808
541.039	25450
541.105	26405
541.171	25076
541.237	26011
541.303	26008
541.369	26756
541.435	26250
541.500	29295
541.566	23667
541.632	22453
541.698	22224
541.764	25109
541.830	22658
541.896	22218
541.961	23795
542.027	22774
542.093	24649
542.159	25548
542.224	23323
542.290	26684
542.356	28484
542.421	29603
542.487	24182
542.553	22601
542.618	22419
542.684	22825
542.750	24410
542.815	25660
542.881	26850
542.947	46919
543.012	38630
543.078	23243
543.143	22132
543.209	23242
543.274	22558
543.340	23718
543.405	29405
543.471	35108
543.536	24392
543.602	24211
543.667	21888
543.732	24977
543.798	23829
543.863	24158
543.928	23693
543.994	22841
544.059	24295
544.124	25283
544.190	24950
544.255	25117
544.320	26018
544.386	25899
544.451	28357
544.516	28039
544.581	27384
544.646	39128
544.712	47086
544.777	29826
544.842	27258
544.907	26330
544.972	26993
545.037	27136
545.102	28193
545.168	29643
545.233	30535
545.298	31868
545.363	30977
545.428	33282
545.493	37644
545.558	46682
545.623	34660
545.688	31214
545.753	33138
545.818	33791
545.883	35619
545.947	35513
546.012	37650
546.077	38083
546.142	41134
546.207	41768
546.272	46609
546.337	45314
546.401	46936
546.466	48570
546.531	49198
546.596	53696
546.661	56950
546.725	58213
546.790	62035
546.855	67131
546.919	72391
546.984	81625
547.049	87413
547.113	100470
547.178	109523
547.243	124101
547.307	144780
547.372	161793
547.436	160556
547.501	168680
547.565	182656
547.630	169394
547.695	161649
547.759	163148
547.823	163047
547.888	166521
547.952	170517
548.017	174146
548.081	180043
548.146	178033
548.210	183856
548.274	197247
548.339	194679
548.403	179218
548.468	167339
548.532	165331
548.596	168387
548.660	169126
548.725	182551
548.789	198994
548.853	193060
548.917	186198
548.982	180252
549.046	164926
549.110	145216
549.174	150572
549.238	173418
549.303	193760
549.367	198366
549.431	190387
549.495	176799
549.559	178630
549.623	203255
549.687	225560
549.751	218601
549.815	259032
549.879	262901
549.943	252458
550.007	262660
550.071	262241
550.135	237483
550.199	222897
550.263	218823
550.327	205883
550.391	211967
550.455	234914
550.519	251325
550.582	264908
550.646	302049
550.710	307110
550.774	300501
550.838	308089
550.901	320356
550.965	341846
551.029	358489
551.093	394359
551.156	445710
551.220	541693
551.284	600032
551.347	438741
551.411	352869
551.475	324608
551.538	325174
551.602	301125
551.666	283949
551.729	265326
551.793	255469
551.856	252489
551.920	248367
551.983	246487
552.047	243160
552.110	245063
552.174	245436
552.237	251540
552.301	235659
552.364	225771
552.428	219835
552.491	229487
552.554	235751
552.618	237382
552.681	245504
552.745	251877
552.808	325463
552.871	405234
552.934	300552
552.998	249136
553.061	230708
553.124	218038
553.187	211679
553.251	220180
553.314	221632
553.377	220326
553.440	237658
553.503	252642
553.567	256124
553.630	236964
553.693	231837
553.756	229689
553.819	223674
553.882	214776
553.945	214059
554.008	215613
554.071	217876
554.134	221566
554.197	204562
554.260	197424
554.323	203930
554.386	207005
554.449	219605
554.512	217146
554.575	205422
554.638	205576
554.701	202643
554.764	201239
554.827	192921
554.889	187378
554.952	175289
555.015	171888
555.078	175220
555.141	178499
555.203	175129
555.266	173467
555.329	171561
555.391	164677
555.454	164089
555.517	160301
555.580	156440
555.642	148856
555.705	144451
555.768	145459
555.830	141624
555.893	132496
555.955	129522
556.018	127201
556.080	129822
556.143	132815
556.206	130798
556.268	127017
556.330	126189
556.393	121605
556.455	120053
556.518	118618
556.580	113340
556.643	108829
556.705	106959
556.767	104580
556.830	105419
556.892	104056
556.955	103312
557.017	100053
557.079	98871
557.142	97053
557.204	96785
557.266	105507
557.328	94132
557.391	84685
557.453	83183
557.515	83933
557.577	86954
557.639	88437
557.701	87721
557.764	91157
557.826	94123
557.888	102595
557.950	107824
558.012	119954
558.074	159572
558.136	393774
558.198	920369
558.260	307115
558.322	121251
558.384	118504
558.446	124120
558.508	140673
558.570	163207
558.632	193120
558.694	246646
558.756	397320
558.818	1111999
558.880	2112111
558.942	950274
559.003	1008598
559.065	460693
559.127	182447
559.189	168143
559.251	180686
559.312	254342
559.374	610037
559.436	1692112
559.498	840794
559.559	220370
559.621	172343
559.683	186388
559.744	306029
559.806	965510
559.868	1301850
559.929	309300
559.991	193134
560.052	316698
560.114	896001
560.176	534854
560.237	525595
560.299	803887
560.360	171195
560.422	69105
560.483	55279
560.545	47674
560.606	45363
560.667	41656
560.729	38904
560.790	36905
560.852	36804
560.913	35116
560.974	34555
561.036	34063
561.097	34873
561.158	33320
561.220	32980
561.281	31506
561.342	31308
561.403	31529
561.465	32693
561.526	40987
561.587	42747
561.648	30585
561.709	28403
561.771	27843
561.832	28148
561.893	27352
561.954	26956
562.015	26622
562.076	26146
562.137	25405
562.198	26364
562.259	26075
562.320	26230
562.381	26904
562.442	27415
562.503	26504
562.564	24791
562.625	24576
562.686	23734
562.747	23318
562.808	24571
562.869	23090
562.930	23090
562.991	23355
563.051	22600
563.112	22129
563.173	22215
563.234	21834
563.294	21601
563.355	21497
563.416	21262
563.477	21384
563.537	20788
563.598	21712
563.659	21737
563.720	21401
563.780	21220
563.841	21129
563.901	20327
563.962	20978
564.023	20382
564.083	19370
564.144	19837
564.204	19611
564.265	19532
564.325	19451
564.386	22480
564.446	20874
564.507	20050
564.567	18387
564.628	18360
564.688	18207
564.749	18488
564.809	19054
564.869	19713
564.930	18619
564.990	18761
565.050	18330
565.111	19330
565.171	17709
565.231	18578
565.292	18475
565.352	17509
565.412	17914
565.472	17895
565.532	18788
565.593	18852
565.653	17423
565.713	17955
565.773	18097
565.833	19419
565.893	21616
565.953	17992
566.013	17838
566.074	17455
566.134	17261
566.194	19870
566.254	18802
566.314	18799
566.374	17138
566.434	17509
566.494	17463
566.554	16312
566.614	18090
566.673	16554
566.733	18625
566.793	18098
566.853	16690
566.913	18728
566.973	18397
567.033	18479
567.092	18344
567.152	18056
567.212	17810
567.272	17999
567.331	18232
567.391	18721
567.451	19574
567.511	20306
567.570	19022
567.630	18926
567.690	17815
567.749	18309
567.809	17717
567.868	18492
567.928	17584
567.988	18439
568.047	18084
568.107	18786
568.166	19105
568.226	18665
568.285	19924
568.345	19797
568.404	19541
568.464	19159
568.523	18256
568.582	19083
568.642	19237
568.701	18371
568.761	18806
568.820	19776
568.879	20118
568.939	19848
568.998	19802
569.057	18975
569.116	17934
569.176	18927
569.235	16916
569.294	18368
569.353	16621
569.413	17300
569.472	16359
569.531	16425
569.590	16513
569.649	16464
569.708	16927
569.767	17003
569.827	16460
569.886	17130
569.945	16105
570.004	16985
570.063	17024
570.122	18157
570.181	17868
570.240	18438
570.299	18071
570.358	17439
570.417	18121
570.475	18371
570.534	18978
570.593	18446
570.652	18753
570.711	18720
570.770	19294
570.829	18808
570.887	18316
570.946	19629
571.005	19565
571.064	22806
571.122	28447
571.181	23667
571.240	19537
571.299	18595
571.357	18165
571.416	17848
571.475	17738
571.533	17614
571.592	19933
571.650	19875
571.709	20314
571.768	25226
571.826	25550
571.885	22473
571.943	18211
572.002	17622
572.060	17641
572.119	17519
572.177	16851
572.236	17187
572.294	17334
572.352	20108
572.411	19085
572.469	18348
572.528	17232
572.586	16712
572.644	16045
572.703	17123
572.761	16266
572.819	15813
572.877	15578
572.936	15677
572.994	14967
573.052	15207
573.110	15794
573.169	18487
573.227	17954
573.285	16102
573.343	16361
573.401	16902
573.459	16666
573.517	17348
573.576	19406
573.634	18277
573.692	19105
573.750	19484
573.808	17033
573.866	16067
573.924	16740
573.982	16655
574.040	16763
574.098	15866
574.155	15706
574.213	16321
574.271	17865
574.329	19945
574.387	17178
574.445	16114
574.503	14202
574.560	14952
574.618	15199
574.676	16174
574.734	15627
574.792	14829
574.849	14171
574.907	12449
574.965	12964
575.022	12112
575.080	12611
575.138	13504
575.195	12127
575.253	13078
575.311	13193
575.368	12590
575.426	11404
575.483	12912
575.541	13152
575.598	12883
575.656	13542
575.713	14999
575.771	15094
575.828	14102
575.886	12354
575.943	12194
576.001	11228
576.058	10992
576.115	11418
576.173	12544
576.230	14256
576.287	14233
576.345	13131
576.402	14040
576.459	14294
576.517	11947
576.574	11582
576.631	11803
576.688	11343
576.746	11411
576.803	11461
576.860	10995
576.917	11569
576.974	11489
577.031	11016
577.089	11494
577.146	10274
577.203	10750
577.260	10351
577.317	11030
577.374	10253
577.431	11238
577.488	10817
577.545	10333
577.602	10696
577.659	10312
577.716	10776
577.773	10726
577.830	10893
577.886	11175
577.943	10313
578.000	10443
578.057	10769
578.114	11646
578.171	12251
578.227	13786
578.284	13240
578.341	12483
578.398	11240
578.454	11002
578.511	10878
578.568	11088
578.625	10944
578.681	10949
578.738	10098
578.794	10550
578.851	11169
578.908	10077
578.964	11180
579.021	10860
579.077	10822
579.134	11313
579.190	10830
579.247	11372
579.303	10239
579.360	10601
579.416	10641
579.473	10433
579.529	10575
579.586	11238
579.642	10941
579.698	11196
579.755	11830
579.811	11848
579.867	11615
579.924	11489
579.980	12095
580.036	13718
580.093	13857
580.149	17029
580.205	17659
580.261	14599
580.317	13904
580.374	14127
580.430	14103
580.486	13142
580.542	12519
580.598	13223
580.619	12872
580.654	12278
580.692	12292
580.710	12324
580.765	13107
580.767	13150
580.823	13519
580.838	13497
580.879	13478
580.911	13529
580.935	13616
580.984	13944
580.991	14001
581.047	15077
581.057	14499
581.103	12057
581.130	12877
581.159	13731
581.203	14627
581.215	14899
581.270	12730
581.276	12683
581.326	12326
581.349	11883
581.382	11252
581.422	11430
581.438	11532
581.494	11706
581.494	11691
581.550	11190
581.567	11486
581.606	12055
581.640	11904
581.661	11875
581.713	12273
581.717	12307
581.773	11660
581.786	11801
581.829	12393
581.859	12338
581.885	12276
581.932	11587
581.940	11488
581.996	12215
582.004	12174
582.052	11812
582.077	11786
582.107	11876
582.150	12531
582.163	12678
582.219	11261
582.223	11282
582.274	11871
582.296	11907
582.330	11885
582.368	11924
582.386	12031
582.441	12075
582.441	12079
582.497	11395
582.514	11353
582.552	11513
582.587	11949
582.608	12141
582.659	12244
582.663	12260
582.719	13151
582.732	13072
582.774	12812
582.805	12548
582.830	12378
582.877	13283
582.885	13432
582.941	13274
582.950	13142
582.996	12548
583.023	13744
583.052	15126
583.095	14134
583.107	13868
583.162	15135
583.168	15147
583.218	14733
583.240	13829
583.273	12724
583.313	12508
583.328	12437
583.384	12558
583.385	12526
583.439	11588
583.458	11515
583.494	11350
583.531	11224
583.549	11258
583.603	11215
583.605	11200
583.660	11703
583.676	11647
583.715	11774
583.748	12164
583.770	12300
583.820	12095
583.825	12093
583.881	11155
583.893	11107
583.936	10798
583.965	11052
583.991	11385
584.038	11777
584.046	11806
584.101	11662
584.110	11635
584.156	11693
584.183	11763
584.211	11635
584.255	12076
584.266	12236
584.321	12617
584.328	12681
584.376	13149
584.400	12985
584.431	12876
584.472	12952
584.486	12763
584.541	12627
584.545	12603
584.596	13032
584.617	13388
584.651	13699
584.689	14041
584.706	14168
584.761	14520
584.762	14530
584.816	14866
584.834	15417
584.871	16521
584.906	16954
584.926	17145
584.978	18815
584.980	18877
585.035	20679
585.051	21462
585.090	23325
585.123	25436
585.145	26952
585.195	30016
585.200	30286
585.254	35907
585.267	37718
585.309	43811
585.340	48552
585.364	52176
585.412	59595
585.419	60807
585.473	74731
585.484	79351
585.528	100273
585.556	125758
585.583	161342
585.628	270936
585.637	300962
585.692	634251
585.700	687806
585.747	906003
585.772	715815
585.801	442468
585.845	176241
585.856	127978
585.910	65174
585.917	61110
585.965	43710
585.989	38187
586.019	32445
586.061	28175
586.074	26967
586.128	24422
586.133	24219
586.183	22293
586.205	21919
586.237	21159
586.277	20754
586.292	20632
586.346	20215
586.349	20227
586.401	19848
586.421	19620
586.455	19340
586.493	19705
586.509	19969
586.564	20009
586.565	20082
586.618	23010
586.637	24044
586.672	25921
586.709	28873
586.727	30117
586.781	34053
586.781	34007
586.835	24796
586.853	23057
586.889	20714
586.925	19073
586.944	18236
586.996	17869
586.998	17855
587.052	18256
587.068	18210
587.106	17596
587.140	17600
587.161	17782
587.212	17690
587.215	17671
587.269	17422
587.284	17799
587.323	18530
587.356	18629
587.377	18683
587.427	19080
587.431	19106
587.485	19214
587.499	19397
587.539	19347
587.571	19103
587.593	19456
587.643	21406
587.648	21471
587.702	21670
587.715	21613
587.755	21853
587.786	22307
587.810	22021
587.858	21219
587.864	21270
587.917	22783
587.930	22997
587.971	22585
588.001	22348
588.025	22524
588.073	23001
588.079	22922
588.133	22015
588.145	22114
588.187	23621
588.217	24136
588.241	24270
588.288	25501
588.295	25661
588.348	26855
588.360	27260
588.402	28144
588.431	28543
588.456	29279
588.503	31417
588.510	31677
588.564	34430
588.575	35095
588.617	38061
588.646	40505
588.671	42247
588.718	46227
588.725	47386
588.778	59138
588.789	63077
588.832	96597
588.861	126294
588.886	182007
588.932	317014
588.939	329147
588.993	401265
589.004	392394
589.047	209377
589.075	108296
589.100	77494
589.147	47613
589.154	46145
589.207	40336
589.218	39547
589.261	39730
589.290	40783
589.314	42339
589.361	46620
589.368	48329
589.421	66586
589.433	72154
589.475	124785
589.504	171252
589.528	225988
589.576	341827
589.582	332871
589.635	163710
589.647	131350
589.689	67469
589.718	36898
589.742	33142
589.790	28294
589.795	27922
589.849	25626
589.861	25369
589.902	24941
589.932	24425
589.955	23740
590.004	22350
590.009	22305
590.062	22715
590.075	22866
590.115	21953
590.146	21258
590.168	21695
590.218	22787
590.222	22681
590.275	21854
590.289	21645
590.328	22535
590.360	23388
590.381	23029
590.431	22210
590.435	22177
590.488	22134
590.503	22219
590.541	23030
590.574	23915
590.594	23986
590.645	24085
590.647	24059
590.700	24533
590.716	24675
590.753	25050
590.787	25410
590.806	25567
590.859	26609
590.859	26577
590.912	26907
590.930	27120
590.965	27161
591.001	27191
591.018	26970
591.071	26373
591.072	26409
591.124	26317
591.143	26338
591.177	26689
591.214	27148
591.230	27074
591.283	27135
591.285	27169
591.336	26810
591.356	26889
591.389	26999
591.427	27001
591.442	26834
591.495	26387
591.498	26401
591.547	26622
591.569	26850
591.600	27059
591.640	27406
591.653	27199
591.706	26571
591.711	26544
591.759	27422
591.782	28031
591.811	28763
591.853	29876
591.864	29776
591.917	29549
591.924	29561
591.969	29013
591.995	28821
592.022	28967
592.066	29328
592.075	29405
592.127	30293
592.137	30524
592.180	31138
592.208	31607
592.233	31445
592.279	31365
592.285	31433
592.338	32580
592.350	32898
592.390	32528
592.421	32376
592.443	32656
592.491	33508
592.495	33417
592.548	33125
592.562	33115
592.600	33379
592.633	33770
592.653	33401
592.704	32470
592.705	32687
592.775	34496
592.846	35008
592.916	35709
592.987	35832
593.058	35813
593.128	35823
593.199	36618
593.270	35933
593.341	38299
593.411	38685
593.482	41029
593.553	40686
593.623	42751
593.694	42391
593.764	44344
593.835	41944
593.906	43502
593.976	43705
594.047	46341
594.117	47550
594.188	49240
594.258	47221
594.329	47610
594.399	49324
594.470	51096
594.540	52910
594.611	53524
594.681	52130
594.751	52731
594.822	56092
594.892	58011
594.963	58451
595.033	61015
595.103	62093
595.174	62191
595.244	65316
595.314	67735
595.384	68207
595.455	70096
595.525	72399
595.595	75758
595.665	74126
595.736	73104
595.806	74756
595.876	75589
595.946	76846
596.016	79326
596.087	82300
596.157	82323
596.227	82338
596.297	88766
596.367	93568
596.437	98446
596.507	97966
596.577	98080
596.647	99630
596.717	104597
596.787	106145
596.857	107529
596.927	107856
596.997	107305
597.067	108812
597.137	110642
597.207	110846
597.277	112650
597.347	106572
597.417	104550
597.487	103614
597.557	107903
597.626	108873
597.696	110666
597.766	110524
597.836	102911
597.906	99861
597.975	96699
598.045	98736
598.115	104011
598.185	111382
598.254	124970
598.324	133051
598.394	137446
598.464	132387
598.533	131497
598.603	120213
598.672	118009
598.742	120537
598.812	120527
598.881	123670
598.951	124711
599.020	126954
599.090	131652
599.159	130863
599.229	126987
599.299	124937
599.368	128931
599.437	124971
599.507	114372
599.576	112899
599.646	110347
599.715	108921
599.785	109443
599.854	104680
599.924	103151
599.993	102851
600.062	106517
600.132	108011
600.201	117117
600.270	135028
600.340	141673
600.409	137625
600.478	137781
600.547	139559
600.617	125121
600.686	100866
600.755	92398
600.824	87219
600.894	86009
600.963	87050
601.032	85642
601.101	81870
601.170	78921
601.239	75837
601.308	77293
601.378	75427
601.447	76429
601.516	77736
601.585	79872
601.654	80294
601.723	81601
601.792	83699
601.861	84679
601.930	88782
601.999	89154
602.068	88596
602.137	90389
602.206	91793
602.275	92194
602.343	94772
602.412	94934
602.481	96840
602.550	97992
602.619	99051
602.688	99626
602.756	101897
602.825	102740
602.894	104930
602.963	107811
603.032	109277
603.100	110322
603.169	108539
603.238	110724
603.307	110123
603.375	112800
603.444	113659
603.513	114580
603.581	116861
603.650	119774
603.719	114425
603.787	115335
603.856	119935
603.924	124642
603.993	126582
604.061	132281
604.130	138567
604.198	139887
604.267	142173
604.335	144196
604.404	146840
604.472	150779
604.541	152569
604.609	153847
604.678	154348
604.746	154314
604.815	159101
604.883	160200
604.951	160907
605.020	165062
605.088	164451
605.156	169336
605.225	170649
605.293	170825
605.361	171067
605.429	173562
605.498	177181
605.566	182829
605.634	190967
605.702	199286
605.771	202860
605.839	203898
605.907	197029
605.975	192757
606.043	187689
606.111	187668
606.180	189473
606.248	185766
606.316	180984
606.384	182697
606.452	183619
606.520	185896
606.588	193761
606.656	194788
606.724	189091
606.792	178247
606.860	160597
606.928	146904
606.996	140142
607.064	140739
607.132	141857
607.200	152884
607.267	157423
607.335	162192
607.403	161657
607.471	156580
607.539	153241
607.607	154582
607.674	133138
607.742	135608
607.810	132640
607.878	133655
607.946	136493
608.013	143977
608.081	146164
608.149	150152
608.216	153659
608.284	156889
608.352	158249
608.419	154462
608.487	152715
608.555	150785
608.622	155375
608.690	166263
608.757	182342
608.825	185690
608.893	179779
608.960	168782
609.028	161981
609.095	163180
609.163	160750
609.230	143084
609.298	131996
609.365	140588
609.432	153041
609.500	167080
609.567	190933
609.635	215386
609.702	224072
609.769	212698
609.837	163141
609.904	144918
609.971	150382
610.039	165333
610.106	206669
610.173	345797
610.241	675193
610.308	368330
610.375	176642
610.442	155331
610.509	148211
610.577	149454
610.644	151778
610.711	157404
610.778	159574
610.845	168503
610.912	178017
610.980	185041
611.047	184747
611.114	180756
611.181	177072
611.248	175220
611.315	186213
611.382	191663
611.449	198540
611.516	201827
611.583	197263
611.650	199832
611.717	202574
611.784	207294
611.851	214867
611.918	224353
611.984	258527
612.051	333645
612.118	562873
612.185	1118758
612.252	682166
612.319	288998
612.386	255307
612.452	235678
612.519	226664
612.586	220778
612.653	224927
612.719	232862
612.786	221471
612.853	208812
612.919	204626
612.986	207669
613.053	194254
613.120	182873
613.186	175083
613.253	178486
613.319	179411
613.386	180426
613.453	183175
613.519	185001
613.586	178768
613.652	183906
613.719	178941
613.785	184370
613.852	186889
613.918	184969
613.985	187054
614.051	195210
614.118	192697
614.184	184945
614.250	182835
614.317	186874
614.383	185408
614.449	190131
614.516	188478
614.582	189416
614.648	185442
614.715	186037
614.781	178758
614.847	180592
614.914	178735
614.980	175195
615.046	175904
615.112	181328
615.179	181334
615.245	182953
615.311	179881
615.377	185121
615.443	185486
615.509	188884
615.575	194320
615.642	192322
615.708	197493
615.774	206948
615.840	217807
615.906	231793
615.972	269442
616.038	368973
616.104	658771
616.170	1256378
616.236	965356
616.302	373599
616.368	309016
616.434	238984
616.500	226790
616.565	247614
616.631	297879
616.697	253680
616.763	263685
616.829	369630
616.895	591509
616.961	519908
617.026	254961
617.092	202325
617.158	193559
617.224	189263
617.289	175233
617.355	168837
617.421	167056
617.487	165885
617.552	158166
617.618	157767
617.684	157457
617.749	160719
617.815	153278
617.880	150401
617.946	150027
618.012	153823
618.077	155579
618.143	146335
618.208	150807
618.274	161538
618.339	159293
618.405	133288
618.470	134169
618.536	132925
618.601	131679
618.667	121855
618.732	115332
618.798	115133
618.863	114477
618.928	114089
618.994	114811
619.059	115072
619.124	117112
619.190	114402
619.255	113737
619.320	114907
619.386	114882
619.451	113766
619.516	110200
619.581	112157
619.647	114914
619.712	114620
619.777	109842
619.842	112424
619.907	112919
619.972	117001
620.038	112975
620.103	112061
620.168	111431
620.233	114497
620.298	114994
620.363	116910
620.428	119778
620.493	122074
620.558	122193
620.623	124628
620.688	122475
620.753	122532
620.818	124402
620.883	124736
620.948	124017
621.013	123140
621.078	119362
621.143	120211
621.207	122145
621.272	120711
621.337	116753
621.402	116472
621.467	112369
621.532	114649
621.596	115396
621.661	111973
621.726	110787
621.791	112234
621.855	111887
621.920	112379
621.985	114313
622.049	117215
622.114	115719
622.179	117872
622.243	120068
622.308	123100
622.373	127033
622.437	123879
622.502	117638
622.566	117709
622.631	115035
622.695	121010
622.760	117496
622.824	118302
622.889	118564
622.953	119963
623.018	126610
623.082	128181
623.147	124354
623.211	121439
623.276	121738
623.340	117999
623.404	116031
623.469	115105
623.533	115940
623.597	112232
623.662	111941
623.726	105168
623.790	97249
623.854	96026
623.919	97862
623.983	98999
624.047	100818
624.111	101669
624.176	103887
624.240	104878
624.304	108044
624.368	103102
624.432	104148
624.496	107990
624.560	111345
624.625	112096
624.689	111749
624.753	116626
624.817	109568
624.881	107902
624.945	97951
625.009	95190
625.073	97346
625.137	100071
625.201	105033
625.265	104170
625.329	100504
625.393	102023
625.456	102176
625.520	104714
625.584	107064
625.648	107901
625.712	111159
625.776	111204
625.839	104678
625.903	87869
625.967	82729
626.031	90881
626.095	106249
626.158	95470
626.222	74344
626.286	72306
626.349	68097
626.413	63701
626.477	63532
626.540	65823
626.604	63431
626.668	63667
626.731	62203
626.795	62727
626.858	62714
626.922	61321
626.986	61001
627.049	59882
627.113	63949
627.176	61609
627.240	59545
627.303	60341
627.366	58039
627.430	59622
627.493	57956
627.557	57442
627.620	59959
627.684	61322
627.747	61395
627.810	54398
627.874	50412
627.937	48631
628.000	51932
628.064	49448
628.127	42980
628.190	44999
628.253	41871
628.317	40959
628.380	38428
628.443	38817
628.506	36662
628.569	36957
628.632	33567
628.696	35119
628.759	32976
628.822	32768
628.885	32425
628.948	32334
629.011	31071
629.074	29957
629.137	29723
629.200	29004
629.263	29164
629.326	28259
629.389	27978
629.452	28531
629.515	26929
629.578	26650
629.641	27547
629.704	28722
629.767	27259
629.830	26067
629.892	25883
629.955	25426
630.018	27448
630.081	25618
630.144	25861
630.207	23450
630.269	26366
630.332	25221
630.395	23139
630.458	24435
630.520	22207
630.583	24716
630.646	23759
630.708	23995
630.771	23724
630.834	26264
630.896	24626
630.959	26291
631.021	23712
631.084	23482
631.146	24161
631.209	25107
631.272	24737
631.334	25720
631.397	25099
631.459	25426
631.522	26461
631.584	26967
631.646	29428
631.709	29817
631.771	30163
631.834	29408
631.896	27150
631.958	25624
632.021	25696
632.083	23585
632.145	24256
632.208	23758
632.270	24293
632.332	22992
632.395	22294
632.457	23097
632.519	21878
632.581	23586
632.643	22351
632.706	23342
632.768	22160
632.830	23556
632.892	23237
632.954	22679
633.016	24082
633.078	23343
633.141	23102
633.203	23033
633.265	23615
633.327	23742
633.389	22432
633.451	24250
633.513	22678
633.575	24093
633.637	23192
633.698	24123
633.760	24976
633.822	26613
633.884	26096
633.946	27671
634.008	27078
634.070	28377
634.132	29672
634.193	32076
634.255	35631
634.317	35260
634.379	34354
634.441	31203
634.502	26619
634.564	27516
634.626	24148
634.687	23713
634.749	22679
634.811	23184
634.873	21468
634.934	22712
634.996	22898
635.057	22062
635.119	21481
635.181	23230
635.242	23479
635.304	21326
635.365	24795
635.427	22944
635.488	22307
635.550	22241
635.611	23442
635.673	21477
635.734	24650
635.796	25657
635.857	28861
635.918	29367
635.980	33297
636.041	33765
636.102	35923
636.164	36733
636.225	35609
636.286	28774
636.348	27254
636.409	24737
636.470	22225
636.531	22651
636.593	21433
636.654	22802
636.715	20729
636.776	19964
636.838	19033
636.899	20567
636.960	19328
637.021	18683
637.082	18799
637.143	18718
637.204	17324
637.265	17514
637.326	18588
637.387	19895
637.448	18212
637.509	18747
637.570	18504
637.631	20056
637.692	16189
637.753	16891
637.814	17687
637.875	17450
637.936	18910
637.997	16940
638.058	15854
638.119	18016
638.179	16829
638.240	16257
638.301	17218
638.362	17033
638.423	16370
638.483	17709
638.544	14181
638.605	16864
638.666	14872
638.726	16830
638.787	16464
638.848	15614
638.908	16063
638.969	15507
639.030	15364
639.090	15454
639.151	14957
639.211	16544
639.272	15963
639.332	16274
639.393	16092
639.453	16095
639.514	17865
639.574	16150
639.635	14688
639.695	15855
639.756	13323
639.816	15236
639.877	14586
639.937	15877
639.997	15887
640.058	14392
640.118	13932
640.178	15591
640.239	13913
640.299	14562
640.359	14562
640.420	16626
640.480	17714
640.540	19677
640.600	19495
640.661	17708
640.721	15532
640.781	16753
640.841	12949
640.901	14933
640.961	14869
641.021	16425
641.082	16107
641.142	15327
641.202	15043
641.262	12767
641.322	14439
641.382	13439
641.442	14877
641.502	13781
641.562	14505
641.622	14579
641.682	14873
641.742	17754
641.802	15170
641.861	14584
641.921	13609
641.981	13781
642.041	13171
642.101	12997
642.161	11211
642.221	12144
642.280	12616
642.340	12347
642.400	12446
642.460	14363
642.519	12670
642.579	13695
642.639	13682
642.698	11993
642.758	15876
642.818	13233
642.877	12930
642.937	13661
642.997	13330
643.056	14244
643.116	12097
643.175	15784
643.235	14607
643.294	15490
643.354	15651
643.414	17671
643.473	20684
643.532	25626
643.592	34399
643.651	52675
643.711	85838
643.770	160026
643.830	371615
643.889	662226
643.948	168035
644.008	40090
644.067	24967
644.126	19478
644.186	17687
644.245	17402
644.304	13299
644.363	16563
644.423	13076
644.482	15131
644.541	15773
644.600	15364
644.659	20689
644.719	25365
644.778	37278
644.837	60566
644.896	122944
644.955	256782
645.014	81190
645.073	22704
645.132	16728
645.191	17265
645.250	15489
645.309	17250
645.368	18711
645.427	25180
645.486	39407
645.545	63948
645.604	20667
645.663	15283
645.722	15256
645.781	16861
645.840	19148
645.898	23847
645.957	32502
646.016	47989
646.075	82144
646.134	151470
646.192	392601
646.251	491511
646.310	87324
646.369	30171
646.427	25382
646.486	19056
646.545	15211
646.603	14287
646.662	13714
646.721	13380
646.779	13083
646.838	14260
646.896	19253
646.955	25047
647.014	37358
647.072	70587
647.131	179619
647.189	80726
647.248	14943
647.306	12782
647.365	11305
647.423	9343
647.481	11476
647.540	9942
647.598	9766
647.657	9237
647.715	10107
647.773	8421
647.832	9976
647.890	7908
647.948	8036
648.007	9244
648.065	7018
648.123	8747
648.181	9337
648.240	8751
648.298	7906
648.356	8169
648.414	7636
648.472	8751
648.531	8598
648.589	7830
648.647	6789
648.705	8121
648.763	8004
648.821	8874
648.879	8629
648.937	10588
648.995	12969
649.053	16984
649.111	24949
649.169	41148
649.227	68809
649.285	140311
649.343	364116
649.401	159032
649.459	25843
649.516	15864
649.574	11941
649.632	14631
649.690	15995
649.748	19832
649.806	25679
649.863	49329
649.921	129952
649.979	80598
650.037	13278
650.094	7536
650.152	7944
650.210	6833
650.268	6089
650.325	6180
650.383	5601
650.440	5280
650.498	5921
650.556	5983
650.613	5132
650.671	6240
650.728	5208
650.786	5919
650.843	8251
650.901	5699
650.958	5145
651.016	5814
651.073	4900
651.131	4859
651.188	4430
651.246	4672
651.303	2953
651.360	5279
651.418	4294
651.475	5068
651.532	3401
651.590	5159
651.647	3740
651.704	4530
651.762	3379
651.819	4253
651.876	3630
651.933	3968
651.990	4101
652.048	2712
652.105	3177
652.162	4184
652.219	3504
652.276	4712
652.333	4697
652.390	3365
652.448	3148
652.505	3697
652.562	3776
652.619	3384
652.676	3728
652.733	4826
652.790	3070
652.847	3468
652.904	3852
652.961	2646
653.017	2684
653.074	3652
653.131	3092
653.188	3052
653.245	3676
653.302	3697
653.359	3107
653.415	4060
653.472	2486
653.529	4592
653.586	1971
653.642	3560
653.699	3850
653.756	2987
653.813	2227
653.869	3641
653.926	2349
653.983	2555
654.039	3196
654.096	3541
654.152	3616
654.209	2059
654.266	4198
654.322	2821
654.379	4040
654.435	3857
654.492	2534
654.548	2488
654.605	3545
654.661	4573
654.717	2381
654.774	3814
654.830	3718
654.887	3657
654.943	2590
655.000	2981
655.056	2949
655.112	3166
655.168	2152
655.225	3775
655.281	3453
655.337	3345
655.394	2283
655.450	2958
655.506	3331
655.562	3468
655.618	3353
655.675	2396
655.731	2715
655.787	3335
655.843	3670
655.899	3532
655.955	3363
656.011	4172
656.067	3480
656.123	4595
656.179	4278
656.235	5545
656.291	2878
656.347	5121
656.403	3465
656.459	3933
656.515	3679
656.571	2762
656.627	3216
656.683	3000
656.739	3986
656.795	3744
656.850	2747
656.906	3354
656.962	3669
657.018	3113
657.074	4818
657.129	6064
657.185	10126
657.241	20701
657.297	11542
657.352	4281
657.408	2866
657.464	3614
657.519	1801
657.575	2358
657.630	2712
657.686	2852
657.742	1182
657.797	1922
657.853	2037
657.908	3044
657.964	1604
658.019	2819
658.075	2353
658.130	3423
658.186	1517
658.241	3285
658.297	1440
658.352	1976
658.407	2997
658.463	1536
658.518	2522
658.573	2406
658.629	1643
658.684	2707
658.739	2094
658.795	1779
658.850	2388
658.905	1992
658.960	2200
659.016	1685
659.071	1041
659.126	2121
659.181	1982
659.236	3437
659.291	3047
659.346	2136
659.401	1924
659.457	2693
659.512	1819
659.567	3654
659.622	1732
659.677	2355
659.732	946
659.787	2436
659.842	1413
659.897	1980
659.952	1386
660.007	2593
660.061	1893
660.116	2119
660.171	1883
660.226	2142
660.281	2669
660.336	1814
660.391	2145
660.445	2277
660.500	1714
660.555	2543
660.610	1759
660.664	2589
660.719	1763
660.774	2713
660.828	2157
660.883	1983
660.938	1878
660.992	879
661.047	1334
661.101	1089
661.156	1476
661.211	1531
661.265	2827
661.320	1550
661.374	1492
661.429	1870
661.483	2344
661.538	1776
661.592	1301
661.647	2037
661.701	1790
661.755	1625
661.810	2480
661.864	962
661.919	1908
661.973	2715
662.027	1852
662.081	2521
662.136	1353
662.190	2501
662.244	2109
662.299	1738
662.353	1601
662.407	1850
662.461	818
662.515	2589
662.569	1389
662.624	2004
662.678	1246
662.732	1751
662.786	1949
662.840	1678
662.894	1516
662.948	1319
663.002	2123
663.056	1611
663.110	1005
663.164	1876
663.218	1340
663.272	2010
663.326	2548
663.380	2054
663.434	1390
663.488	1912
663.542	1712
663.595	2544
663.649	1864
663.703	2843
663.757	2047
663.811	1215
663.864	1773
663.918	1585
663.972	1081
664.026	2391
664.079	1691
664.133	2045
664.187	1815
664.240	2064
664.294	1810
664.348	2192
664.401	1673
664.455	2826
664.508	1448
664.562	1873
664.615	1836
664.669	1497
664.722	1946
664.776	2259
664.829	1892
664.883	1716
664.936	1081
664.990	2400
665.043	1788
665.097	2717
665.150	2650
665.203	2151
665.257	1630
665.310	1873
665.363	1248
665.417	2628
665.470	1899
665.523	1922
665.576	2355
665.630	2543
665.683	2282
665.736	2173
665.789	1774
665.842	2230
665.895	1533
665.949	2106
666.002	1987
666.055	1963
666.108	2604
666.161	2449
666.214	2584
666.267	2005
666.320	3130
666.373	2932
666.426	1719
666.479	1736
666.532	2097
666.585	2187
666.638	2784
666.691	2891
666.744	1655
666.796	1845
666.849	2068
666.902	3237
666.955	1727
667.008	2249
667.060	2384
667.113	2175
667.166	2561
667.219	2905
667.271	2488
667.324	2383
667.377	2185
667.430	3116
667.482	2681
667.535	2057
667.587	2214
667.640	2103
667.693	1567
667.745	3393
667.798	2216
667.850	2493
667.903	2696
667.955	2224
668.008	2141
668.060	3339
668.113	1654
668.165	2092
668.218	2095
668.270	3081
668.322	1628
668.375	2308
668.427	1917
668.479	2531
668.532	1950
668.584	3015
668.636	1724
668.689	2665
668.741	2070
668.793	2043
668.845	2490
668.898	3060
668.950	1727
669.002	2611
669.054	1841
669.106	1979
669.158	2266
669.211	2068
669.263	1764
669.315	3172
669.367	2138
669.419	2412
669.471	3020
669.523	3138
669.575	2720
669.627	2606
669.679	1364
669.731	2437
669.783	2931
669.835	3168
669.886	2167
669.938	2630
669.990	2233
670.042	1213
670.094	2636
670.146	1974
670.197	2671
670.249	3417
670.301	2319
670.353	4000
670.404	5211
670.456	7135
670.508	9570
670.560	14319
670.611	22758
670.663	39339
670.715	98740
670.766	156865
670.818	48596
670.869	8944
670.921	6139
670.972	5619
671.024	3314
671.075	3454
671.127	3073
671.178	3623
671.230	3554
671.281	4510
671.333	3938
671.384	5658
671.436	7435
671.487	10570
671.538	14220
671.590	22579
671.641	35974
671.692	68407
671.744	132183
671.795	98430
671.846	33979
671.897	15372
671.949	8613
672.000	7169
672.051	5706
672.102	4756
672.153	2704
672.204	3984
672.256	2974
672.307	3312
672.358	2142
672.409	2722
672.460	2229
672.511	2629
672.562	1607
672.613	1603
672.664	2814
672.715	2165
672.766	2086
672.817	1668
672.868	992
672.919	3017
672.970	1438
673.021	1390
673.071	1115
673.122	2025
673.173	1572
673.224	2426
673.275	1113
673.326	1701
673.376	1072
673.427	911
673.478	1280
673.528	2217
673.579	923
673.630	1524
673.680	3201
673.731	1303
673.782	1193
673.832	337
673.883	2043
673.934	1583
673.984	1871
674.035	2224
674.085	2016
674.136	1875
674.186	1722
674.237	2586
674.287	1770
674.338	2504
674.388	1770
674.438	1520
674.489	2602
674.539	3669
674.589	2397
674.640	2112
674.690	1906
674.740	1747
674.791	1004
674.841	1775
674.891	1673
674.942	2137
674.992	1076
675.042	1369
675.092	1874
675.142	1420
675.193	1171
675.243	1729
675.293	1498
675.343	1535
675.393	1511
675.443	1311
675.493	1908
675.543	1591
675.593	1082
675.643	2016
675.693	2381
675.743	1545
675.793	1623
675.843	717
675.893	560
675.943	1504
675.993	910
676.043	1570
676.093	1419
676.142	1389
676.192	1605
676.242	1767
676.292	1812
676.341	1252
676.391	492
676.441	1551
676.491	1004
676.540	1166
676.590	643
676.640	2121
676.689	483
676.739	451
676.789	1402
676.838	38
676.888	791
676.937	1565
676.987	67
677.037	636
677.086	693
677.136	895
677.185	1025
677.235	1060
677.284	289
677.333	861
677.383	515
677.432	1052
677.482	1187
677.531	594
677.580	1134
677.630	977
677.679	1618
677.728	1326
677.778	1249
677.827	651
677.876	1111
677.925	864
677.975	850
678.024	1534
678.073	871
678.122	1464
678.171	972
678.220	1789
678.269	2311
678.319	2654
678.368	2732
678.417	2115
678.466	1639
678.515	1140
678.564	-38
678.613	1190
678.662	270
678.711	835
678.760	434
678.809	1707
678.857	1236
678.906	1364
678.955	741
679.004	1082
679.053	105
679.102	850
679.151	651
679.199	1121
679.248	678
679.297	599
679.346	887
679.394	843
679.443	-445
679.492	1469
679.540	779
679.589	1075
679.638	251
679.686	1132
679.735	1518
679.784	1448
679.832	2440
679.881	1396
679.929	793
679.978	519
680.026	788
680.075	723
680.123	49
680.172	908
680.220	605
680.268	457
680.317	74
680.365	391
680.414	430
680.462	1418
680.510	1188
680.559	891
680.607	696
680.655	833
680.703	1276
680.752	352
680.800	697
680.848	1526
680.896	362
680.945	1581
680.993	-237
681.041	870
681.089	898
681.137	1015
681.185	-240
681.233	1171
681.258	957
681.281	747
681.329	535
681.377	440
681.380	445
681.425	353
681.473	1124
681.502	1571
681.521	1858
681.569	1335
681.617	1090
681.624	1044
681.665	687
681.713	1007
681.745	457
681.761	183
681.809	817
681.857	1329
681.867	1400
681.904	1604
681.952	493
681.989	1335
682.000	1578
682.048	419
682.096	891
682.111	833
682.143	663
682.191	903
682.233	988
682.239	990
682.286	717
682.334	582
682.354	698
682.382	841
682.430	1402
682.476	1372
682.477	1364
682.525	708
682.572	1470
682.598	1302
682.620	1138
682.667	1255
682.715	879
682.720	979
682.763	1832
682.810	1430
682.841	1544
682.857	1589
682.905	776
682.952	1605
682.963	1567
683.000	1391
683.047	1186
683.085	2050
683.095	2283
683.142	1359
683.190	1034
683.206	1110
683.237	1222
683.284	1457
683.328	1655
683.332	1664
683.379	1577
683.426	1231
683.449	1172
683.473	1139
683.521	2118
683.568	1252
683.571	1317
683.615	1903
683.662	1138
683.693	1175
683.709	1203
683.757	671
683.804	1277
683.814	1190
683.851	911
683.898	1660
683.936	1517
683.945	1450
683.992	1959
684.039	1339
684.057	1530
684.086	1928
684.133	978
684.179	1709
684.180	1722
684.227	1168
684.274	2544
684.300	1921
684.321	1473
684.368	1251
684.415	1393
684.422	1530
684.462	2193
684.509	1129
684.543	1109
684.556	1123
684.603	1710
684.649	1846
684.665	1966
684.696	2126
684.743	2349
684.786	2145
684.790	2127
684.837	1635
684.883	1683
684.908	1776
684.930	1901
684.977	1037
685.023	1846
685.029	1898
685.070	2118
685.117	2111
685.150	2235
685.164	2285
685.210	2159
685.257	1509
685.272	1846
685.303	2632
685.350	1367
685.393	2378
685.396	2439
685.443	1804
685.490	2243
685.514	1754
685.536	1434
685.583	1539
685.629	1318
685.636	1371
685.675	1522
685.722	1451
685.757	1884
685.768	2027
685.815	1513
685.861	2090
685.878	2051
685.908	2056
685.954	1898
686.000	2601
686.000	2608
686.047	2191
686.093	2287
686.121	2378
686.139	2462
686.185	2071
686.232	2650
686.242	2487
686.278	1917
686.324	2298
686.363	2394
686.370	2409
686.416	2620
686.463	2464
686.484	2686
686.509	2887
686.555	2446
686.601	2753
686.606	2740
686.647	2632
686.693	2588
686.727	2311
686.739	2237
686.785	2180
686.831	2618
686.848	2695
686.877	2745
686.923	2015
686.969	2231
686.969	2233
687.015	2127
687.061	2514
687.090	2433
687.107	2334
687.153	2614
687.199	2197
687.211	2313
687.245	2726
687.291	1985
687.332	2377
687.336	2419
687.382	2312
687.428	2752
687.453	2630
687.474	2497
687.520	2996
687.565	2829
687.574	2835
687.611	2928
687.657	2583
687.695	2913
687.702	2971
687.748	2844
687.794	3114
687.816	3274
687.839	3399
687.885	3469
687.931	2777
687.937	2876
687.976	3321
688.022	2961
688.058	3110
688.067	3183
688.113	2724
688.158	3052
688.179	3060
688.204	3020
688.249	3213
688.295	2528
688.300	2558
688.340	2892
688.386	3044
688.421	3014
688.431	2994
688.477	3035
688.522	3449
688.542	3166
688.567	2984
688.613	3047
688.658	3708
688.663	3751
688.703	3822
688.749	3019
688.784	3704
688.794	3895
688.839	3202
688.884	4073
688.905	3711
688.930	3246
688.975	3462
689.020	3049
689.026	3044
689.065	3304
689.110	3155
689.146	3252
689.155	3217
689.201	2907
689.246	3125
689.267	3197
689.291	3407
689.336	3413
689.381	3003
689.388	3062
689.426	3368
689.471	3195
689.509	3995
689.516	4135
689.561	3413
689.606	3608
689.630	3429
689.651	3281
689.696	3230
689.741	3345
689.750	3380
689.785	3506
689.830	3118
689.871	3591
689.875	3663
689.920	3525
689.965	3730
689.992	3578
690.010	3344
690.054	3681
690.099	3063
690.112	3132
690.144	3392
690.189	2955
690.233	3459
690.233	3468
690.278	3200
690.323	3347
690.354	3744
690.367	3875
690.412	4030
690.457	3866
690.474	4066
690.501	4193
690.546	3712
690.590	3429
690.595	3354
690.635	3157
690.680	3839
690.716	3910
690.724	3913
690.769	4140
690.813	4337
690.836	4290
690.857	4594
690.902	5099
690.946	5992
690.957	6291
690.991	7847
691.035	9804
691.077	11556
691.080	11524
691.124	9640
691.168	7939
691.198	7135
691.213	6870
691.257	5717
691.301	4714
691.318	4297
691.346	4139
691.390	4301
691.434	4069
691.439	4044
691.478	3897
691.522	3876
691.559	3423
691.567	3414
691.611	4032
691.655	4423
691.680	4306
691.699	4164
691.743	4517
691.787	4223
691.800	4367
691.831	4556
691.875	3903
691.919	4406
691.921	4385
691.964	4096
692.008	4750
692.041	4263
692.052	4143
692.096	4271
692.139	4482
692.162	4674
692.183	4759
692.227	4156
692.271	4323
692.282	4188
692.315	3997
692.359	4264
692.402	3999
692.403	4006
692.447	4408
692.490	4206
692.523	4303
692.534	4346
692.578	4036
692.622	4156
692.643	4313
692.666	4519
692.709	4476
692.753	4297
692.763	4311
692.797	4338
692.840	4110
692.884	4658
692.884	4672
692.928	4300
692.971	4199
693.004	4141
693.015	4162
693.059	4331
693.102	4221
693.124	4367
693.146	4597
693.189	4459
693.233	4699
693.245	4775
693.276	4731
693.320	4584
693.363	3974
693.365	3974
693.407	4804
693.450	4809
693.485	5377
693.493	5517
693.537	5907
693.580	5797
693.605	6066
693.624	6746
693.667	8351
693.710	9450
693.725	10148
693.753	12804
693.797	16562
693.840	20699
693.845	21005
693.883	17612
693.926	13723
693.966	10475
693.970	10307
694.013	8723
694.056	6905
694.086	5635
694.099	5436
694.142	4784
694.185	4384
694.206	4122
694.229	4266
694.272	4604
694.315	4686
694.326	4795
694.358	5043
694.401	4878
694.444	5069
694.446	5058
694.487	5039
694.530	5233
694.566	5035
694.573	5002
694.616	4950
694.659	4992
694.686	4973
694.702	5000
694.745	5026
694.787	5184
694.806	5008
694.830	4804
694.873	5086
694.916	4775
694.926	4841
694.959	5299
695.002	5403
695.044	5697
695.046	5687
695.087	5400
695.130	5430
695.166	5084
695.172	5109
695.215	5529
695.258	5790
695.286	5930
695.301	5964
695.343	5875
695.386	6281
695.406	6205
695.428	6233
695.471	6748
695.514	6836
695.526	6933
695.556	7435
695.599	8125
695.641	8534
695.646	8555
695.684	7920
695.726	7692
695.766	6908
695.769	6902
695.811	6845
695.854	6661
695.886	6573
695.896	6667
695.938	6954
695.981	7206
696.005	7389
696.023	7561
696.065	7946
696.108	8183
696.125	8385
696.150	8555
696.192	8463
696.235	8536
696.245	8548
696.277	8601
696.319	8431
696.361	8416
696.365	8399
696.404	8753
696.446	8834
696.485	9220
696.488	9239
696.530	8870
696.572	8728
696.604	8536
696.614	8580
696.656	8666
696.698	8668
696.724	8736
696.740	8793
696.783	8723
696.825	8987
696.844	8941
696.867	8879
696.909	8744
696.951	8559
696.964	8561
696.992	8718
697.034	8696
697.076	8769
697.083	8763
697.118	9084
697.160	9391
697.202	9518
697.203	9502
697.244	9574
697.286	9570
697.323	9516
697.327	9535
697.369	9376
697.411	9436
697.442	9308
697.453	9335
697.494	9481
697.536	9564
697.562	9623
697.578	9646
697.620	9572
697.661	9545
697.682	9487
697.703	9659
697.744	10014
697.786	10316
697.801	10414
697.828	10491
697.869	10479
697.911	10546
697.921	10542
697.952	10504
697.994	10376
698.035	10223
698.040	10182
698.077	10360
698.118	10498
698.160	10715
698.160	10689
698.201	10778
698.243	10878
698.279	10903
698.284	10980
698.325	11524
698.367	11945
698.399	12299
698.408	12323
698.449	12280
698.491	12242
698.518	12172
698.532	12180
698.573	12121
698.614	12075
698.638	12005
698.656	12019
698.697	12000
698.738	11967
698.757	11924
698.779	11873
698.820	11700
698.862	11541
698.877	11456
698.903	11718
698.944	12078
698.985	12444
698.996	12513
699.026	12347
699.067	12079
699.116	11730
699.235	11921
699.354	11729
699.474	11512
699.593	11084
699.713	12011
699.832	11095
699.951	12457
700.070	12362
700.190	10487
700.309	10411
700.428	9839
700.547	9995
700.667	9972
700.786	10370
700.905	10090
701.024	9649
701.143	9600
701.262	10231
701.381	10693
701.500	10865
701.619	10032
701.738	11038
701.857	10770
701.976	9176
702.095	9588
702.214	10438
702.333	9184
702.452	10090
702.571	9923
702.690	9684
702.809	9600
702.928	9999
703.047	9193
703.165	9435
703.284	9733
703.403	9386
703.522	8339
703.640	8186
703.759	8542
703.878	8922
703.997	8640
704.115	8788
704.234	9669
704.353	8856
704.471	8503
704.590	7999
704.708	7838
704.827	8917
704.946	8798
705.064	7981
705.183	7441
705.301	8095
705.420	7500
705.538	8087
705.656	7439
705.775	7650
705.893	8478
706.012	8680
706.130	7462
706.249	8046
706.367	8112
706.485	7324
706.604	6672
706.722	6641
706.840	7947
706.958	7661
707.077	6797
707.195	6841
707.313	7484
707.431	6685
707.549	6921
707.668	6144
707.786	7474
707.904	6980
708.022	8187
708.140	6513
708.258	6490
708.376	6713
708.494	6825
708.612	6622
708.730	6918
708.848	6471
708.966	6948
709.084	7539
709.202	7826
709.320	6364
709.438	6209
709.556	5868
709.674	5374
709.791	6585
709.909	5969
710.027	7233
710.145	5974
710.263	6137
710.380	5997
710.498	4806
710.616	5903
710.733	5358
710.851	4700
710.969	6141
711.086	5388
711.204	6087
711.322	4819
711.439	5583
711.557	5188
711.674	5372
711.792	5019
711.909	5955
712.027	5348
712.144	5789
712.262	5646
712.379	5603
712.497	5141
712.614	4964
712.732	6185
712.849	5493
712.966	5180
713.084	5721
713.201	4866
713.318	5610
713.436	6604
713.553	6397
713.670	6164
713.787	6098
713.905	5570
714.022	6626
714.139	6763
714.256	9926
714.373	15482
714.490	31886
714.608	99388
714.725	401069
714.842	244663
714.959	20066
715.076	9566
715.193	7879
715.310	6952
715.427	5361
715.544	6322
715.661	5917
715.778	5279
715.895	5531
716.011	5701
716.128	6248
716.245	5532
716.362	4895
716.479	3581
716.596	4957
716.713	4041
716.829	4939
716.946	4934
717.063	5378
717.180	3884
717.296	4106
717.413	4485
717.530	4593
717.646	3815
717.763	4259
717.880	3610
717.996	4594
718.113	3953
718.229	3942
718.346	2840
718.462	4074
718.579	4074
718.695	4726
718.812	5025
718.928	4641
719.045	4069
719.161	4248
719.277	3906
719.394	4125
719.510	5717
719.626	4974
719.743	7067
719.859	12953
719.975	33707
720.092	151004
720.208	218893
720.324	19295
720.440	6541
720.557	6344
720.673	5662
720.789	5075
720.905	4854
721.021	4090
721.137	3946
721.253	3463
721.369	3609
721.486	3782
721.602	3659
721.718	3350
721.834	3317
721.950	4177
722.066	2477
722.181	2793
722.297	3940
722.413	3323
722.529	3967
722.645	3770
722.761	2314
722.877	3363
722.993	5169
723.108	4530
723.224	4221
723.340	2993
723.456	3280
723.571	3363
723.687	2465
723.803	3138
723.918	2807
724.034	3447
724.150	2250
724.265	3360
724.381	3011
724.497	3199
724.612	3045
724.728	2969
724.843	2853
724.959	2655
725.074	3846
725.190	3023
725.305	3381
725.421	2473
725.536	2845
725.651	2949
725.767	2792
725.882	3831
725.997	3136
726.113	2759
726.228	3152
726.343	2799
726.459	2994
726.574	3035
726.689	2414
726.804	3242
726.920	2702
727.035	2642
727.150	2849
727.265	3003
727.380	3714
727.495	3231
727.610	2167
727.725	2917
727.841	3074
727.956	3342
728.071	3158
728.186	2827
728.301	2239
728.416	2961
728.531	3019
728.645	2532
728.760	2989
728.875	2908
728.990	1717
729.105	2656
729.220	2219
729.335	2873
729.449	3039
729.564	2943
729.679	2827
729.794	2598
729.908	2850
730.023	3389
730.138	2850
730.253	2718
730.367	2053
730.482	2222
730.596	3043
730.711	3528
730.826	4011
730.940	4204
731.055	3900
731.169	3330
731.284	3864
731.398	3918
731.513	4183
731.627	4392
731.742	5447
731.856	7307
731.970	6705
732.085	8477
732.199	13790
732.313	27458
732.428	83183
732.542	220119
732.656	82664
732.771	15987
732.885	10658
732.999	9643
733.113	9387
733.227	9290
733.342	8947
733.456	8218
733.570	7850
733.684	6976
733.798	6652
733.912	8149
734.026	7515
734.140	8239
734.254	6497
734.368	6955
734.482	7909
734.596	6951
734.710	7101
734.824	7482
734.938	7528
735.052	6058
735.166	6194
735.280	8001
735.393	6725
735.507	6758
735.621	6874
735.735	7061
735.849	6268
735.962	6458
736.076	6750
736.190	5758
736.303	6278
736.417	6998
736.531	5341
736.644	5066
736.758	5908
736.872	6219
736.985	5738
737.099	5583
737.212	5318
737.326	5500
737.439	6141
737.553	6084
737.666	6188
737.780	6198
737.893	5759
738.007	5161
738.120	5355
738.233	5549
738.347	5478
738.460	5151
738.573	5691
738.687	5179
738.800	5502
738.913	5587
739.026	5111
739.140	5419
739.253	5518
739.366	5005
739.479	4730
739.592	5410
739.705	4575
739.818	4915
739.932	4550
740.045	5439
740.158	4020
740.271	6040
740.384	5721
740.497	4296
740.610	4831
740.723	3947
740.836	5141
740.949	5075
741.062	5022
741.174	4380
741.287	4797
741.400	4837
741.513	4652
741.626	4796
741.739	4115
741.851	4167
741.964	4943
742.077	4727
742.189	4396
742.302	6008
742.415	5566
742.527	4619
742.640	4065
742.753	3729
742.865	4716
742.978	3879
743.090	4251
743.203	4527
743.316	3991
743.428	3537
743.541	4047
743.653	3740
743.766	4622
743.878	3668
743.990	3678
744.103	6724
744.215	6516
744.327	3704
744.440	5065
744.552	4121
744.664	3839
744.777	4006
744.889	2837
745.001	4600
745.113	4067
745.226	3472
745.338	4097
745.450	4353
745.562	3970
745.674	4208
745.786	3634
745.898	3755
746.010	3860
746.122	3584
746.234	3511
746.347	3858
746.459	3414
746.570	4099
746.682	6622
746.794	8499
746.906	4173
747.018	3476
747.130	3665
747.242	3328
747.354	3258
747.466	4520
747.577	3467
747.689	3600
747.801	4055
747.913	3239
748.024	3006
748.136	3800
748.248	2857
748.359	2666
748.471	3438
748.583	3131
748.694	2158
748.806	3973
748.918	3038
749.029	3119
749.141	3404
749.252	3654
749.364	2600
749.475	3193
749.587	2542
749.698	2708
749.809	2902
749.921	3278
750.032	3019
750.144	2017
750.255	2821
750.366	2653
750.478	2704
750.589	3022
750.700	3306
750.811	4059
750.923	3116
751.034	2361
751.145	3530
751.256	2694
751.367	2387
751.479	3104
751.590	2737
751.701	1985
751.812	2765
751.923	3094
752.034	4078
752.145	2095
752.256	2191
752.367	3209
752.478	2467
752.589	3256
752.700	3019
752.811	1835
752.922	2901
753.032	3240
753.143	2915
753.254	2296
753.365	3594
753.476	3082
753.586	2487
753.697	3015
753.808	2730
753.919	2913
754.029	2887
754.140	3059
754.251	2211
754.361	2374
754.472	3127
754.582	2217
754.693	2217
754.804	3034
754.914	2878
755.025	2434
755.135	2940
755.246	2311
755.356	2147
755.466	2548
755.577	2644
755.687	2842
755.798	1842
755.908	2582
756.018	2943
756.129	2574
756.239	3190
756.349	3179
756.460	3990
756.570	3580
756.680	2362
756.790	2308
756.900	2302
757.011	2159
757.121	2537
757.231	2334
757.341	2413
757.451	2176
757.561	2038
757.671	2388
757.781	2023
757.891	3237
758.001	2833
758.111	2708
758.221	3044
758.331	2615
758.441	2177
758.551	2795
758.661	3084
758.771	3025
758.880	3164
758.990	2889
759.100	2273
759.210	2695
759.320	3440
759.429	2702
759.539	3821
759.649	3237
759.758	4072
759.868	4532
759.978	4042
760.087	4244
760.197	4649
760.307	4418
760.416	3455
760.526	2808
760.635	4035
760.745	4473
760.854	4771
760.964	5164
761.073	5095
761.182	5071
761.292	4079
761.401	3954
761.511	2836
761.620	2514
761.729	2873
761.839	2290
761.948	3288
762.057	2300
762.166	3026
762.276	2024
762.385	4063
762.494	2187
762.603	2381
762.712	2483
762.822	2547
762.931	2988
763.040	2285
763.149	2181
763.258	2381
763.367	3358
763.476	3374
763.585	3787
763.694	3045
763.803	3598
763.912	3729
764.021	3700
764.130	2783
764.238	4401
764.347	4380
764.456	4512
764.565	4964
764.674	4597
764.783	5101
764.891	3992
765.000	6339
765.109	5949
765.217	6766
765.326	8298
765.435	10136
765.543	12373
765.652	14393
765.761	18796
765.869	28213
765.978	41883
766.086	72731
766.195	136243
766.303	270164
766.412	371660
766.520	302669
766.629	167907
766.737	83522
766.846	49006
766.954	33175
767.062	24860
767.171	17853
767.279	15483
767.387	11104
767.496	10203
767.604	9872
767.712	8176
767.820	7387
767.928	7188
768.037	5133
768.145	6807
768.253	6156
768.361	5653
768.469	6217
768.577	5185
768.685	6451
768.793	7382
768.901	6998
769.009	8430
769.117	8532
769.225	12862
769.333	19034
769.441	28401
769.549	54909
769.657	117615
769.765	262902
769.873	298333
769.981	161117
770.088	62873
770.196	32234
770.304	21859
770.412	15599
770.519	12221
770.627	9928
770.735	8359
770.842	7674
770.950	6268
771.058	6226
771.165	7136
771.273	6155
771.380	6404
771.488	7454
771.595	7177
771.703	6720
771.810	6410
771.918	5765
772.025	7094
772.133	8379
772.240	6985
772.348	8824
772.455	7490
772.562	6513
772.670	6499
772.777	7650
772.884	6998
772.991	6413
773.099	7233
773.206	4405
773.313	6599
773.420	5975
773.528	5683
773.635	5663
773.742	6177
773.849	5984
773.956	5903
774.063	5656
774.170	5591
774.277	5916
774.384	5535
774.491	5055
774.598	6039
774.705	5218
774.812	5318
774.919	6224
775.026	5222
775.133	5334
775.239	5284
775.346	4354
775.453	5610
775.560	4429
775.667	5299
775.773	4560
775.880	5081
775.987	4740
776.093	5367
776.200	5223
776.307	4431
776.413	4969
776.520	5528
776.627	3959
776.733	4252
776.840	3818
776.946	7924
777.053	9263
777.159	13498
777.266	7893
777.372	12483
777.478	9720
777.585	6043
777.691	4306
777.798	5399
777.904	3599
778.010	4072
778.117	4160
778.223	3407
778.329	3363
778.435	4006
778.542	3558
778.648	3902
778.754	3184
778.860	3650
778.966	3898
779.072	3994
779.178	3560
779.284	2328
779.391	3743
779.497	2995
779.603	5425
779.708	2797
779.815	5016
779.920	11793
780.026	14003
780.132	4006
780.238	3274
780.344	3125
780.450	4873
780.556	1893
780.661	3631
780.767	3243
780.873	2429
780.979	3320
781.085	3186
781.190	4109
781.296	3162
781.402	2685
781.507	3182
781.613	3089
781.719	2991
781.824	3322
781.930	2699
782.035	3849
782.141	3579
782.246	2375
782.352	1904
782.457	3095
782.563	3009
782.668	2729
782.773	2135
782.879	2122
782.984	2980
783.090	2441
783.195	3472
783.300	3376
783.405	2445
783.511	1133
783.616	2934
783.721	2258
783.826	2193
783.932	2898
784.037	2818
784.142	2235
784.247	2022
784.352	3043
784.457	1795
784.562	2211
784.667	2581
784.772	2133
784.877	1906
784.982	3642
785.087	2318
785.192	2380
785.297	1655
785.402	2391
785.507	1802
785.611	2805
785.716	2616
785.821	2390
785.926	1286
786.031	2546
786.135	2608
786.240	1487
786.345	812
786.450	1985
786.554	1684
786.659	1612
786.763	1420
786.868	2482
786.973	2934
787.077	1349
787.182	1233
787.286	2162
787.391	2715
787.495	1659
787.600	1177
787.704	1326
787.809	2726
787.913	891
788.017	2477
788.122	2071
788.226	2063
788.330	963
788.435	2474
788.539	1880
788.643	1042
788.747	1348
788.852	1839
788.956	1801
789.060	2963
789.164	1827
789.268	780
789.372	3146
789.476	1213
789.580	1107
789.684	634
789.788	2431
789.892	1761
789.996	2086
790.100	1055
790.204	2235
790.308	1373
790.412	1134
790.516	1230
790.620	1279
790.724	1669
790.828	1302
790.931	435
791.035	1963
791.139	1341
791.242	1256
791.346	2683
791.450	1287
791.554	1207
791.657	682
791.761	1290
791.864	2202
791.968	1062
792.072	1499
792.175	888
792.279	1071
792.382	1600
792.486	1191
792.589	1293
792.693	1364
792.796	-5
792.899	1915
793.003	1963
793.106	-281
793.209	934
793.313	2209
793.416	-501
793.519	2150
793.623	2404
793.726	1583
793.829	1545
793.932	934
794.035	-773
794.138	2674
794.242	2108
794.345	334
794.448	1574
794.551	1318
794.654	5621
794.757	6892
794.860	1318
794.963	1255
795.066	1352
795.169	979
795.272	893
795.375	1837
795.477	453
795.580	1525
795.683	180
795.786	1189
795.889	95
795.991	1787
796.094	795
796.197	-249
796.300	1918
796.402	1108
796.505	644
796.608	230
796.710	1280
796.813	1059
796.915	887
797.018	1621
797.120	1764
797.223	-865
797.326	2190
797.428	-130
797.530	184
797.633	814
797.735	1494
797.838	371
797.940	1165
798.042	-159
798.145	22
798.247	1560
798.349	-872
798.452	1601
798.554	613
798.656	512
798.758	1915
798.860	487
798.962	430
799.065	212
799.167	-549
799.269	1794
799.371	1483
799.473	1445
799.575	229
799.677	549
799.779	2377
799.881	-533
799.983	2078
800.085	798
800.187	1323
800.289	-346
800.390	723
800.492	852
800.594	2053
800.696	-150
800.798	445
800.899	407
801.001	408
801.103	1169
801.205	56
801.306	734
801.408	406
801.509	1203
801.611	507
801.713	825
801.814	227
801.916	727
802.017	-160
802.119	-333
802.220	337
802.322	-430
802.423	2080
802.525	-493
802.626	289
802.727	364
802.829	637
802.930	-1290
803.031	1647
803.133	255
803.234	1146
803.335	907
803.436	-595
803.538	1291
803.639	-717
803.740	1098
803.841	-287
803.942	778
804.043	650
804.144	-227
804.245	869
804.346	-193
804.447	-602
804.548	-233
804.649	1819
804.750	-113
804.851	-411
804.952	789
805.053	306
805.154	-520
805.255	1169
805.355	687
805.456	-38
805.557	-591
805.658	-320
805.758	764
805.859	-50
805.960	446
806.061	398
806.161	-522
806.262	1100
806.362	313
806.463	829
806.564	204
806.664	199
806.765	-45
806.865	790
806.966	-542
807.066	-52
807.166	1053
807.267	1521
807.367	356
807.468	902
807.568	-1362
807.668	1528
807.769	959
807.869	193
807.969	343
808.069	719
808.170	869
808.270	122
808.370	765
808.470	804
808.570	-802
808.670	625
808.770	1049
808.870	-10
808.970	543
809.070	-318
809.170	-154
809.271	731
809.370	142
809.470	1597
809.570	39
809.670	-319
809.770	884
809.870	478
809.970	1278
810.070	759
810.169	188
810.269	-1112
810.369	1437
810.469	69
810.568	-23
810.668	683
810.768	-175
810.867	416
810.967	-716
811.066	684
811.166	-191
811.265	1311
811.365	117
811.464	-210
811.564	459
811.663	47
811.763	-823
811.862	739
811.962	1144
812.061	387
812.160	-414
812.260	565
812.359	677
812.458	-58
812.557	811
812.657	-163
812.756	1122
812.855	-78
812.954	-309
813.053	1147
813.153	1174
813.252	-471
813.351	806
813.450	731
813.549	-250
813.648	47
813.747	407
813.846	826
813.945	-390
814.044	-404
814.143	918
814.242	840
814.341	-206
814.439	621
814.538	921
814.637	486
814.736	457
814.835	266
814.933	831
815.032	2341
815.131	1573
815.229	3605
815.328	5627
815.427	2672
815.525	3004
815.624	3207
815.722	1708
815.821	3337
815.919	2735
816.018	2340
816.116	3996
816.215	3649
816.313	3733
816.412	3718
816.510	3563
816.609	5367
816.707	4718
816.805	4028
816.904	3663
817.002	4627
817.100	5044
817.198	5526
817.296	4306
817.395	3800
817.493	4437
817.591	3197
817.689	4252
817.787	3140
817.885	4295
817.983	3585
818.081	4353
818.179	5298
818.277	9660
818.375	5724
818.473	4568
818.571	4256
818.669	5259
818.767	5560
818.865	3507
818.963	3525
819.061	3915
819.158	3183
819.256	6383
819.354	7479
819.452	13004
819.549	5758
819.647	5616
819.745	2863
819.842	3929
819.940	3055
820.038	2765
820.135	3037
820.233	4400
820.330	2167
820.428	2192
820.525	3091
820.623	3293
820.720	1862
820.818	3878
820.915	3878
821.012	2526
821.110	2426
821.207	3328
821.304	3320
821.402	3807
821.499	4968
821.596	5688
821.693	4425
821.791	3236
821.888	2809
821.985	3904
822.082	2541
822.179	3851
822.276	4794
822.373	2722
822.470	2192
822.567	3684
822.664	2051
822.761	3901
822.858	2482
822.955	2818
823.052	2139
823.149	2961
823.246	2680
823.343	1893
823.440	3220
823.536	2760
823.633	2088
823.730	2633
823.827	3532
823.923	3137
824.020	3435
824.117	3352
824.213	3277
824.310	2775
824.407	2168
824.503	2078
824.600	1947
824.696	1989
824.793	3177
824.889	3218
824.986	1698
825.082	1744
825.179	2004
825.275	2366
825.371	2088
825.468	2439
825.564	1941
825.660	2853
825.757	2723
825.853	1678
825.949	1252
826.045	1414
826.142	2614
826.238	1809
826.334	2358
826.430	1001
826.526	736
826.622	1442
826.718	2666
826.814	2084
826.910	2415
827.006	1376
827.102	745
827.198	2968
827.294	2780
827.390	2439
827.486	1716
827.582	1188
827.678	1319
827.774	2986
827.869	326
827.965	2466
828.061	1735
828.157	3238
828.252	1864
828.348	654
828.444	2140
828.539	1224
828.635	1419
828.731	2817
828.826	635
828.922	2469
829.017	2093
829.113	2397
829.208	1445
829.304	1726
829.399	3700
829.495	1029
829.590	2332
829.685	1325
829.781	2654
829.876	745
829.971	842
830.066	798
830.162	2137
830.257	2249
830.352	892
830.447	2016
830.543	1400
830.638	1391
830.733	2183
830.828	1382
830.923	2091
831.018	2123
831.113	1240
831.208	1029
831.303	726
831.398	1068
831.493	2061
831.588	2801
831.683	1088
831.778	1292
831.873	1097
831.967	3188
832.062	1737
832.157	749
832.252	1628
832.346	1506
832.441	1872
832.536	1186
832.631	1433
832.725	1126
832.820	973
832.914	1537
833.009	920
833.104	63
833.198	1816
833.293	1157
833.387	1661
833.482	1521
833.576	654
833.670	1610
833.765	1480
833.859	1910
833.954	1036
834.048	1479
834.142	1033
834.237	901
834.331	1990
834.425	1028
834.519	627
834.613	1303
834.708	717
834.802	1637
834.896	875
834.990	671
835.084	868
835.178	477
835.272	813
835.366	2044
835.460	2004
835.554	1096
835.648	821
835.742	186
835.836	801
835.930	-385
836.024	1172
836.117	2020
836.211	497
836.305	766
836.399	1847
836.493	-90
836.586	1868
836.680	614
836.774	-41
836.867	1501
836.961	190
837.055	231
837.148	479
837.242	1421
837.335	1162
837.429	747
837.522	249
837.616	4
837.709	1087
837.803	521
837.896	979
837.989	667
838.083	518
838.176	614
838.269	-782
838.363	1021
838.456	795
838.549	1918
838.642	176
838.735	1038
838.829	1173
838.922	688
839.015	786
839.108	-543
839.201	948
839.294	1240
839.387	711
839.480	235
839.573	180
839.666	843
839.759	212
839.852	459
839.945	675
840.038	807
840.131	-373
840.223	46
840.316	1155
840.409	886
840.502	607
840.594	1321
840.687	-745
840.780	628
840.873	471
840.965	233
841.058	958
841.150	495
841.243	-324
841.336	883
841.428	504
841.521	266
841.613	372
841.706	1225
841.798	129
841.890	700
841.983	-498
842.075	1920
842.167	216
842.260	950
842.352	1710
842.444	1296
842.537	403
842.629	515
842.721	231
842.813	120
842.905	-236
842.997	405
843.090	216
843.182	-15
843.274	-211
843.366	570
843.458	1321
843.550	1347
843.642	421
843.734	1256
843.826	-47
843.918	1157
844.009	459
844.101	528
844.193	582
844.285	-209
844.377	1402
844.469	1295
844.560	1301
844.652	796
844.744	907
844.835	-50
844.927	553
845.019	275
845.110	-98
845.202	356
845.293	-262
845.385	429
845.476	796
845.568	877
845.659	-579
845.751	322
845.842	120
845.934	-43
846.025	41
846.116	1096
846.208	77
846.299	-239
846.390	-98
846.482	544
846.573	732
846.664	603
846.755	-224
846.846	768
846.937	-397
847.029	753
847.120	-592
847.211	698
847.302	1209
847.393	-864
847.484	-834
847.575	-460
847.666	-808
847.757	171
847.847	331
847.938	983
848.029	435
848.120	-345
848.211	50
848.302	-875
848.392	430
848.483	906
848.574	275
848.664	420
848.755	194
848.846	85
848.936	-54
849.027	1192
849.118	766
849.208	1206
849.299	2870
849.389	6887
849.480	13822
849.570	25378
849.661	55408
849.751	60846
849.841	13127
849.932	2344
850.022	642
850.112	1077
850.203	711
850.293	-183
850.383	679
850.474	-551
850.564	-564
850.654	1399
850.744	-172
850.834	175
850.924	-284
851.014	901
851.104	25
851.194	-129
851.284	260
851.374	974
851.464	-432
851.554	591
851.644	-297
851.734	151
851.824	537
851.914	393
852.004	10
852.094	5
852.183	641
852.273	562
852.363	372
852.452	591
852.542	-27
852.632	109
852.721	-153
852.811	514
852.901	1043
852.990	1198
853.080	1644
853.169	1304
853.259	1657
853.348	2344
853.438	3013
853.527	4892
853.617	7707
853.706	16528
853.795	29714
853.885	60393
853.974	103919
854.063	191445
854.152	199788
854.242	62277
854.331	15037
854.420	7671
854.509	4841
854.598	4370
854.687	2608
854.777	1992
854.866	1012
854.955	2466
855.044	872
855.133	654
855.222	377
855.311	913
855.400	1115
855.488	1210
855.577	-151
855.666	898
855.755	528
855.844	305
855.933	275
856.021	-566
856.110	939
856.199	-407
856.288	-348
856.376	-496
856.465	-752
856.554	1006
856.642	-129
856.731	888
856.819	1178
856.908	367
856.996	-28
857.085	-127
857.173	243
857.262	-78
857.350	-297
857.438	-336
857.527	-268
857.615	316
857.703	-90
857.792	-515
857.880	-191
857.968	-553
858.056	108
858.145	401
858.233	0
858.321	-402
858.409	-403
858.497	-495
858.585	-889
858.673	235
858.761	-888
858.849	-187
858.937	-312
859.025	394
859.113	750
859.201	385
859.289	982
859.377	12
859.465	-372
859.552	-278
859.640	-84
859.728	986
859.816	-277
859.903	-346
859.991	-441
860.079	21
860.166	169
860.254	397
860.342	260
860.429	130
860.517	-17
860.604	273
860.692	101
860.779	-27
860.867	239
860.954	619
861.042	87
861.129	690
861.216	410
861.304	341
861.391	503
861.478	-107
861.565	316
861.653	773
861.740	-371
861.827	443
861.914	-241
862.001	455
862.089	329
862.176	165
862.263	-29
862.350	102
862.437	-444
862.524	696
862.611	-465
862.698	1085
862.785	1830
862.871	1237
862.958	340
863.045	78
863.132	593
863.219	79
863.306	-23
863.392	1434
863.479	685
863.566	159
863.652	176
863.739	222
863.826	1380
863.912	365
863.999	482
864.086	1181
864.172	894
864.259	686
864.345	971
864.432	2102
864.518	377
864.604	1174
864.691	504
864.777	1653
864.863	2469
864.950	3907
865.036	4732
865.122	9556
865.209	7693
865.295	6920
865.381	6782
865.467	8315
865.553	10406
865.639	14322
865.726	21349
865.812	39278
865.898	63922
865.984	94118
866.070	168267
866.156	119113
866.242	32580
866.328	13249
866.414	8973
866.499	7744
866.585	7074
866.671	5963
866.757	6477
866.843	6520
866.928	5557
867.014	4966
867.100	6138
867.186	5213
867.271	5160
867.357	5779
867.442	5086
867.528	5099
867.614	5124
867.699	5409
867.785	6346
867.870	5160
867.956	6243
868.041	6384
868.127	5888
868.212	5317
868.297	4760
868.383	5359
868.468	5473
868.553	5765
868.639	4829
868.724	4701
868.809	4240
868.894	4680
868.979	5012
869.065	4993
869.150	2878
869.235	4594
869.320	4011
869.405	4284
869.490	5159
869.575	3814
869.660	3747
869.745	4761
869.830	4682
869.915	4063
870.000	3712
870.085	3635
870.169	5470
870.254	4904
870.339	1902
870.424	4222
870.509	4122
870.593	4975
870.678	4439
870.763	3740
870.847	3697
870.932	3768
871.016	3396
871.101	2949
871.186	4582
871.270	4073
871.355	2489
871.439	4668
871.523	3749
871.608	2475
871.692	2928
871.777	5351
871.861	3655
871.945	3080
872.030	2787
872.114	2753
872.198	2441
872.282	3011
872.367	3204
872.451	2628
872.535	3401
872.619	2413
872.703	2450
872.787	3366
872.871	3542
872.955	2241
873.039	1748
873.123	2682
873.207	3744
873.291	1405
873.375	2914
873.459	4173
873.543	2890
873.627	2279
873.711	3234
873.794	3383
873.878	2286
873.962	2293
874.045	2355
874.129	3183
874.137	3117
874.213	2458
874.245	2593
874.296	2804
874.352	2289
874.380	2038
874.460	2674
874.464	2699
874.547	1788
874.568	2141
874.631	3178
874.676	3148
874.714	3119
874.784	3171
874.798	3180
874.881	3195
874.892	2966
874.965	1438
874.999	1931
875.048	2511
875.107	2410
875.131	2387
875.215	2502
875.215	2501
875.298	1789
875.323	2096
875.381	2855
875.430	3602
875.465	4039
875.538	2900
875.548	2736
875.631	2800
875.646	2600
875.714	1819
875.753	2474
875.798	3222
875.861	3028
875.881	2925
875.964	2522
875.968	2504
876.047	2396
876.076	2525
876.130	2753
876.183	2989
876.213	3090
876.291	3562
876.296	3594
876.379	2754
876.398	2596
876.462	2017
876.506	2123
876.545	2289
876.613	2133
876.628	2125
876.711	2556
876.721	2674
876.794	3575
876.828	3437
876.877	2865
876.935	2103
876.960	1978
877.043	3204
877.043	3205
877.125	3930
877.150	4039
877.208	3910
877.258	3254
877.291	2805
877.365	2710
877.374	2730
877.456	2829
877.472	2827
877.539	3002
877.579	3554
877.622	4057
877.687	3620
877.704	3479
877.787	3707
877.794	3666
877.869	3489
877.901	3826
877.952	3854
878.008	2764
878.034	2481
878.115	3290
878.117	3312
878.199	2875
878.222	3077
878.282	3702
878.329	4094
878.364	4224
878.437	4808
878.447	4810
878.529	2597
878.544	2532
878.611	3063
878.651	3301
878.694	3656
878.758	4037
878.776	4054
878.858	4140
878.865	4085
878.941	2964
878.972	2655
879.023	2646
879.078	3034
879.105	3309
879.185	4125
879.187	4145
879.269	4408
879.292	4456
879.351	4275
879.399	3787
879.433	3448
879.506	3955
879.516	4035
879.598	3685
879.613	3665
879.680	4078
879.720	4564
879.762	4933
879.827	4401
879.844	4259
879.926	4725
879.933	4815
880.007	5681
880.040	5534
880.089	5754
880.147	7437
880.171	8271
880.253	11878
880.254	11882
880.335	15197
880.360	16861
880.417	26210
880.467	38061
880.499	44009
880.574	44709
880.580	42922
880.662	17152
880.680	12908
880.744	7765
880.787	5099
880.825	5074
880.893	4315
880.907	4158
880.989	4140
881.000	4197
881.070	5283
881.106	5301
881.152	4419
881.213	3600
881.233	3692
881.315	4226
881.319	4239
881.396	4684
881.426	4747
881.478	4988
881.532	5869
881.559	5971
881.639	4796
881.641	4770
881.722	4144
881.745	3831
881.803	4790
881.852	5564
881.885	5002
881.958	3911
881.966	3946
882.047	4814
882.064	4809
882.129	4338
882.171	3946
882.210	3782
882.277	3647
882.291	3750
882.372	4880
882.383	4945
882.454	5614
882.489	5959
882.535	5835
882.596	5831
882.616	5904
882.697	5732
882.702	5675
882.778	4030
882.808	3835
882.859	4007
882.914	3917
882.940	4130
883.020	4087
883.021	4105
883.102	5656
883.127	5950
883.183	6397
883.233	6500
883.264	5629
883.339	3993
883.345	3956
883.426	2874
883.445	2864
883.507	4202
883.551	4644
883.587	5027
883.657	5951
883.668	6088
883.749	6800
883.763	6916
883.830	5299
883.869	4268
883.910	4176
883.975	4146
883.991	4356
884.072	5486
884.081	5579
884.152	6744
884.187	7324
884.233	7450
884.292	7130
884.314	6447
884.394	4115
884.398	3993
884.475	3562
884.504	3307
884.555	3483
884.610	3774
884.636	4217
884.716	5625
884.716	5653
884.797	7261
884.821	7706
884.877	6975
884.927	6176
884.958	5671
885.033	4474
885.038	4450
885.118	3675
885.139	3641
885.199	4592
885.244	4871
885.279	5145
885.350	6122
885.359	6445
885.439	8727
885.456	9096
885.520	6150
885.561	4537
885.600	4695
885.667	5075
885.680	5218
885.760	5518
885.773	5575
885.840	4876
885.878	4581
885.920	4856
885.984	4870
886.000	4995
886.080	5832
886.089	5875
886.160	6394
886.195	6706
886.240	6368
886.300	5917
886.320	6052
886.400	6388
886.406	6399
886.480	5424
886.511	4926
886.560	5024
886.616	5160
886.640	5141
886.720	4971
886.722	4954
886.800	5205
886.827	5233
886.879	5513
886.932	5836
886.959	6303
887.038	7358
887.039	7366
887.119	6060
887.143	5716
887.198	5804
887.248	5731
887.278	5869
887.354	6260
887.358	6270
887.437	6031
887.459	5958
887.517	6606
887.564	6991
887.596	6260
887.669	4537
887.676	4541
887.755	4604
887.774	4552
887.835	4709
887.880	4877
887.914	5344
887.985	6237
887.994	6507
888.073	8841
888.090	9227
888.153	9374
888.195	9498
888.232	8241
888.300	5990
888.311	5966
888.391	5459
888.405	5353
888.470	5306
888.510	5253
888.549	5276
888.615	5426
888.628	5877
888.708	8338
888.720	8694
888.787	7591
888.825	6912
888.866	6212
888.930	5105
888.945	5326
889.024	6408
889.035	6529
889.103	6817
889.140	6969
889.182	6732
889.245	6312
889.261	6661
889.340	8202
889.349	8355
889.419	7137
889.454	6491
889.498	5812
889.559	4851
889.577	5511
889.656	8320
889.664	8576
889.735	7604
889.768	7100
889.814	7110
889.873	7074
889.978	6571
890.083	6326
890.187	6848
890.292	7802
890.397	6784
890.501	6376
890.606	5819
890.710	7211
890.815	9335
890.919	7281
891.024	7253
891.128	6425
891.233	5188
891.337	8601
891.442	6684
891.546	5751
891.650	5871
891.755	5652
891.859	7631
891.963	8371
892.068	6502
892.172	5538
892.276	5037
892.380	5731
892.484	9313
892.589	8831
892.693	7093
892.797	5252
892.901	4490
893.005	5847
893.109	9420
893.213	7700
893.317	5675
893.421	4116
893.525	4374
893.629	4848
893.733	7954
893.837	6139
893.941	5325
894.045	3800
894.148	3963
894.252	4834
894.356	9015
894.460	7669
894.564	5789
894.667	5607
894.771	4082
894.875	4092
894.978	5479
895.082	7601
895.186	6778
895.289	6350
895.393	5377
895.496	8276
895.600	5215
895.703	4408
895.807	5075
895.910	5681
896.014	5825
896.117	4427
896.221	7018
896.324	6242
896.427	4421
896.531	4873
896.634	4232
896.737	4802
896.840	5734
896.944	7180
897.047	7300
897.150	5597
897.253	4429
897.356	4167
897.460	4193
897.563	5243
897.666	7225
897.769	5754
897.872	5018
897.975	4987
898.078	5660
898.181	4184
898.284	5394
898.387	8094
898.490	5972
898.593	4149
898.695	4257
898.798	5065
898.901	4055
899.004	5753
899.107	4362
899.209	5966
899.312	8779
899.415	4761
899.518	3486
899.620	3143
899.723	3861
899.826	5272
899.928	4707
900.031	5841
900.133	7102
900.236	5044
900.338	3933
900.441	4930
900.543	4614
900.646	5400
900.748	5593
900.851	7261
900.953	3886
901.055	4275
901.158	5309
901.260	4172
901.362	3042
901.465	3659
901.567	5869
901.669	6167
901.771	4807
901.873	4808
901.976	5493
902.078	4634
902.180	4459
902.282	3290
902.384	5129
902.486	7213
902.588	6161
902.690	4622
902.792	4169
902.894	5509
902.996	6106
903.098	5013
903.200	4079
903.302	4234
903.404	4287
903.505	3988
903.607	4026
903.709	6802
903.811	5754
903.913	4827
904.014	3249
904.116	3361
904.218	3071
904.319	5501
904.421	8050
904.523	7251
904.624	5014
904.726	4768
904.827	4038
904.929	4535
905.030	5225
905.132	7168
905.233	5391
905.335	3752
905.436	3929
905.537	2788
905.639	3609
905.740	5657
905.841	5999
905.943	6007
906.044	5333
906.145	3979
906.247	3892
906.348	4631
906.449	5965
906.550	5090
906.651	3964
906.752	3498
906.854	3278
906.955	4182
907.056	4978
907.157	6389
907.258	5188
907.359	2452
907.460	3851
907.561	3629
907.662	3280
907.762	5409
907.863	5458
907.964	5050
908.065	4648
908.166	4062
908.267	4283
908.367	3102
908.468	3964
908.569	4794
908.670	5641
908.770	4482
908.871	5780
908.971	5599
909.072	3303
909.173	4192
909.273	4601
909.374	6443
909.474	4409
909.575	4410
909.675	4563
909.776	5791
909.876	4441
909.977	4884
910.077	4846
910.177	6214
910.278	4494
910.378	3974
910.478	3982
910.579	6548
910.679	5455
910.779	5967
910.879	6504
910.980	5462
911.080	5525
911.180	4632
911.280	3142
911.380	3736
911.480	2527
911.580	4848
911.680	4240
911.780	5667
911.880	4535
911.980	3176
912.080	4176
912.180	4521
912.280	3750
912.380	3563
912.480	3675
912.580	3834
912.679	3651
912.779	5478
912.879	4826
912.979	4545
913.078	3177
913.178	3491
913.278	4173
913.377	4202
913.477	3467
913.577	4509
913.676	5756
913.776	5338
913.875	4791
913.975	4244
914.074	4906
914.174	4888
914.273	2982
914.373	4850
914.472	3869
914.572	3399
914.671	3313
914.770	4750
914.870	4131
914.969	3893
915.068	5407
915.167	4928
915.267	4282
915.366	4701
915.465	4579
915.564	3993
915.663	4529
915.763	5990
915.862	5283
915.961	5675
916.060	4187
916.159	3798
916.258	3347
916.357	3271
916.456	4945
916.555	4768
916.654	4990
916.752	6413
916.851	4902
916.950	3849
917.049	3983
917.148	4552
917.247	4238
917.345	4399
917.444	3148
917.543	4666
917.642	4312
917.740	5607
917.839	7529
917.937	6661
918.036	5249
918.135	4252
918.233	3516
918.332	4547
918.430	4349
918.529	3820
918.627	5420
918.726	5921
918.824	5014
918.923	4432
919.021	4665
919.119	4193
919.218	3895
919.316	4620
919.414	4748
919.512	6168
919.611	5467
919.709	5522
919.807	6370
919.905	7023
920.003	6924
920.102	5353
920.200	5807
920.298	6977
920.396	6536
920.494	6894
920.592	6014
920.690	6638
920.788	5264
920.886	6870
920.984	7569
921.082	8150
921.180	8109
921.277	7721
921.375	10228
921.473	12699
921.571	10448
921.669	9809
921.766	10018
921.864	11692
921.962	10637
922.060	10120
922.157	10523
922.255	11223
922.352	10311
922.450	12357
922.548	11894
922.645	14003
922.743	18260
922.840	27460
922.938	28397
923.035	25024
923.133	25568
923.230	31700
923.327	33364
923.425	31128
923.522	30867
923.619	28724
923.717	26106
923.814	26291
923.911	25840
924.008	26740
924.106	23929
924.203	24718
924.300	25952
924.397	26158
924.494	24524
924.591	24206
924.688	24484
924.786	25128
924.883	25406
924.979	25096
925.077	23881
925.173	23256
925.270	25153
925.367	24851
925.464	26709
925.561	26690
925.658	26636
925.755	24888
925.852	28033
925.948	26070
926.045	24911
926.142	27928
926.239	27127
926.335	22234
926.432	24949
926.529	26951
926.625	27533
926.722	22188
926.818	22307
926.915	24488
927.011	23071
927.108	22506
927.204	21522
927.301	20698
927.397	25456
927.494	25020
927.590	17104
927.687	21113
927.783	25620
927.879	24053
927.976	19530
928.072	20484
928.168	22668
928.264	20681
928.361	21452
928.457	23721
928.553	18846
928.649	21552
928.745	20956
928.841	19819
928.937	20923
929.033	20339
929.129	21026
929.225	22437
929.321	19229
929.417	19413
929.513	20789
929.609	17740
929.705	19517
929.801	21239
929.897	17727
929.993	18923
930.089	19328
930.184	17620
930.280	21318
930.376	23247
930.471	16323
930.567	16547
930.663	17664
930.758	17906
930.854	17198
930.950	17663
931.045	16288
931.141	19151
931.236	21756
931.332	16692
931.427	16531
931.523	20199
931.618	18291
931.714	13771
931.809	17409
931.905	18776
932.000	13046
932.095	15148
932.191	20702
932.286	22639
932.381	15732
932.476	15291
932.572	16640
932.667	15461
932.762	15942
932.857	18199
932.952	20090
933.047	15553
933.142	13757
933.237	17779
933.332	17680
933.427	18884
933.522	14841
933.617	14071
933.712	15928
933.807	20042
933.902	20157
933.997	18499
934.092	13238
934.187	16523
934.282	16623
934.376	18903
934.471	16547
934.566	14409
934.661	14352
934.755	17595
934.850	17270
934.945	14479
935.039	13818
935.134	11377
935.228	17315
935.323	20611
935.417	12094
935.512	10701
935.606	12491
935.701	16763
935.795	17075
935.890	15017
935.984	12887
936.079	12787
936.173	14817
936.267	13248
936.362	11259
936.456	17123
936.550	17189
936.644	13844
936.738	11620
936.833	11204
936.927	10364
937.021	13435
937.115	15152
937.209	15041
937.303	13577
937.397	11979
937.491	13718
937.585	15394
937.679	13369
937.773	11113
937.867	10511
937.961	11960
938.055	16977
938.149	12706
938.243	9795
938.337	10099
938.430	12961
938.524	16180
938.618	14042
938.712	12801
938.805	12092
938.899	16289
938.993	16665
939.086	11855
939.180	12791
939.274	14777
939.367	15205
939.461	14469
939.554	10832
939.648	10809
939.741	10353
939.835	13851
939.928	16464
940.022	13625
940.115	12337
940.208	14551
940.302	15954
940.395	14606
940.488	10382
940.582	11789
940.675	9696
940.768	10864
940.861	14973
940.954	13193
941.048	8663
941.141	9637
941.234	9539
941.327	11468
941.420	13483
941.513	12642
941.606	9946
941.699	11408
941.792	12811
941.885	13327
941.978	12106
942.071	11712
942.164	8525
942.257	8863
942.349	11382
942.442	11183
942.535	8500
942.628	9547
942.721	10735
942.813	10518
942.906	12391
942.999	9803
943.091	8692
943.184	10802
943.277	9201
943.369	8037
943.462	8265
943.554	10641
943.647	9705
943.739	12655
943.832	11420
943.924	6913
944.017	8011
944.109	7813
944.201	8485
944.294	9801
944.386	10171
944.478	8808
944.571	8512
944.663	9783
944.755	10447
944.847	11024
944.940	9055
945.032	7070
945.124	7389
945.216	10715
945.308	9117
945.400	9189
945.492	9292
945.584	12236
945.676	11445
945.768	9930
945.860	11746
945.952	12154
946.044	9907
946.136	8239
946.228	8035
946.320	8534
946.412	9821
946.503	10911
946.595	11110
946.687	7740
946.779	6442
946.870	8340
946.962	7121
947.054	9063
947.145	9576
947.237	7364
947.329	9292
947.420	9530
947.512	7246
947.603	6581
947.695	7409
947.786	6970
947.878	8733
947.969	8315
948.061	10070
948.152	7937
948.243	6448
948.335	6635
948.426	7179
948.517	9260
948.609	9177
948.700	8855
948.791	7088
948.882	5876
948.973	6520
949.065	8491
949.156	7453
949.247	6307
949.338	7328
949.429	5174
949.520	6673
949.611	7823
949.702	8736
949.793	6594
949.884	7807
949.975	6360
950.066	5227
950.157	6626
950.247	6898
950.338	5707
950.429	7037
950.520	6428
950.611	4953
950.701	8980
950.792	9609
950.883	7983
950.973	6934
951.064	8609
951.155	7860
951.245	8765
951.336	8074
951.427	8971
951.517	10009
951.608	7905
951.698	6543
951.788	5485
951.879	5543
951.969	6994
952.060	6250
952.150	7727
952.240	8627
952.331	7802
952.421	8158
952.511	5210
952.602	5315
952.692	4919
952.782	5174
952.872	6658
952.962	5985
953.052	5718
953.143	5578
953.233	5965
953.323	7000
953.413	7225
953.503	7217
953.593	7083
953.683	5461
953.773	4566
953.863	4697
953.953	5481
954.042	7436
954.132	8400
954.222	7034
954.312	4898
954.402	5838
954.492	5755
954.581	6082
954.671	6755
954.761	5181
954.850	6303
954.940	3499
955.030	4490
955.119	5433
955.209	6204
955.298	6351
955.388	7049
955.477	6651
955.567	4051
955.656	4615
955.746	5365
955.835	5601
955.925	4098
956.014	6553
956.103	7949
956.193	8036
956.282	7132
956.371	5115
956.461	7009
956.550	5735
956.639	5901
956.728	5429
956.817	5613
956.906	5985
956.995	8021
957.085	5119
957.174	6061
957.263	4150
957.352	5622
957.441	5306
957.530	5004
957.619	5371
957.708	5284
957.796	5795
957.885	4925
957.974	5165
958.063	6154
958.152	3273
958.241	4383
958.329	4445
958.418	4963
958.507	5198
958.596	6654
958.684	4449
958.773	5708
958.861	3661
958.950	4878
959.039	4457
959.127	5390
959.216	5674
959.304	5073
959.393	5728
959.481	5988
959.570	4572
959.658	3682
959.746	3626
959.835	4954
959.923	4844
960.011	4637
960.100	5391
960.188	6650
960.276	4370
960.365	3734
960.453	4036
960.541	3095
960.629	3985
960.717	3622
960.805	3186
960.893	5115
960.981	5452
961.069	6859
961.158	7393
961.245	8450
961.333	6465
961.421	5072
961.509	4818
961.597	5730
961.685	4409
961.773	5738
961.861	5791
961.949	5879
962.036	3720
962.124	4202
962.212	3664
962.299	4173
962.387	3511
962.475	4027
962.562	4338
962.650	5564
962.738	4052
962.825	4006
962.913	4009
963.000	4141
963.088	5479
963.175	4920
963.263	3969
963.350	4903
963.438	3557
963.525	3237
963.612	4134
963.700	4950
963.787	7158
963.874	3892
963.962	2839
964.049	4245
964.136	3106
964.223	3197
964.310	3362
964.398	3489
964.485	3500
964.572	4697
964.659	4632
964.746	3376
964.833	2610
964.920	4177
965.007	2772
965.094	4089
965.181	4465
965.268	4418
965.355	3854
965.441	3710
965.528	3692
965.615	4739
965.702	4120
965.789	3888
965.875	4264
965.962	5031
966.049	4107
966.136	5824
966.222	5680
966.309	6257
966.395	5710
966.482	4537
966.569	4260
966.655	5314
966.742	3930
966.828	3685
966.915	2617
967.001	3717
967.087	2551
967.174	3500
967.260	3954
967.347	4269
967.433	4123
967.519	6157
967.605	4289
967.692	4770
967.778	3668
967.864	3139
967.950	3700
968.036	3576
968.123	2768
968.209	4056
968.295	2177
968.381	3659
968.467	3272
968.553	1702
968.639	4650
968.725	5579
968.811	6938
968.897	5931
968.983	4483
969.069	2225
969.154	4102
969.240	3238
969.326	2422
969.412	2833
969.497	3343
969.583	2793
969.669	4950
969.755	4814
969.840	4833
969.926	7936
970.012	9234
970.097	11966
970.183	8378
970.268	5117
970.354	4419
970.439	3099
970.525	4734
970.610	3373
970.696	4867
970.781	3079
970.866	1859
970.952	3551
971.037	3068
971.122	3475
971.208	3918
971.293	3195
971.378	2924
971.463	3929
971.549	3118
971.634	3023
971.719	3219
971.804	2646
971.889	3535
971.974	2611
972.059	3103
972.144	3331
972.229	3258
972.314	3337
972.399	4088
972.484	2422
972.569	3319
972.654	3371
972.739	3607
972.824	3378
972.908	2142
972.993	2412
973.078	2620
973.163	4109
973.247	3148
973.332	2801
973.417	4176
973.501	2807
973.586	3565
973.671	3192
973.755	2091
973.840	3660
973.924	5488
974.009	5326
974.093	5358
974.178	5974
974.262	4732
974.346	3618
974.431	3889
974.515	4397
974.600	4454
974.684	3821
974.768	3638
974.852	4727
974.937	2171
975.021	5343
975.105	3839
975.189	3521
975.273	3074
975.358	2765
975.442	3067
975.526	4386
975.610	2463
975.694	2643
975.778	4731
975.862	3303
975.946	1119
976.030	4714
976.114	2845
976.198	3160
976.281	3442
976.365	4463
976.449	2789
976.533	3934
976.617	2746
976.700	3215
976.784	3397
976.868	2815
976.951	2859
977.035	2604
977.119	3244
977.202	3798
977.286	3831
977.369	6330
977.453	8569
977.536	6750
977.620	4282
977.703	4728
977.787	3821
977.870	4611
977.953	4819
978.037	2873
978.120	3815
978.203	4148
978.287	4942
978.370	3608
978.453	3048
978.536	2708
978.620	4674
978.703	4267
978.786	2517
978.869	2825
978.952	3346
979.035	5153
979.118	3628
979.201	2754
979.284	3706
979.367	3813
979.450	4127
979.533	2171
979.616	3464
979.699	2901
979.782	3758
979.865	3850
979.948	3213
980.030	3167
980.113	3468
980.196	3301
980.279	3711
980.361	4018
980.444	3487
980.526	6091
980.609	7810
980.692	8123
980.774	6692
980.857	4248
980.939	5688
981.022	4454
981.104	4946
981.187	4011
981.269	4560
981.352	5511
981.434	3884
981.516	4550
981.599	4952
981.681	4312
981.763	4469
981.846	3929
981.928	4189
982.010	5050
982.092	4185
982.174	5114
982.256	3477
982.339	4158
982.421	4339
982.503	3332
982.585	3038
982.667	3154
982.749	3210
982.831	5136
982.913	3271
982.995	5369
983.077	3861
983.158	5857
983.240	4292
983.322	7990
983.404	10100
983.486	7286
983.568	6840
983.649	5901
983.731	6370
983.813	5861
983.894	5219
983.976	5167
984.058	4602
984.139	5997
984.221	3180
984.302	6147
984.384	4361
984.465	5143
984.547	5083
984.628	4846
984.710	6586
984.791	5249
984.872	5744
984.954	4840
985.035	5578
985.116	5931
985.198	4210
985.279	6594
985.360	5173
985.441	4813
985.522	6053
985.604	5295
985.685	3205
985.766	5731
985.847	6742
985.928	4958
986.009	4740
986.090	4907
986.171	6065
986.252	5863
986.333	5349
986.414	5169
986.495	5676
986.576	6520
986.656	6029
986.737	6532
986.818	6330
986.899	5953
986.980	4959
987.060	6722
987.141	6371
987.222	7283
987.302	8740
987.383	8916
987.464	7289
987.544	7642
987.625	6958
987.705	8623
987.786	7500
987.866	6317
987.947	7638
988.027	8399
988.108	6271
988.188	6546
988.268	6426
988.349	7507
988.429	6823
988.509	6810
988.589	6871
988.670	5178
988.750	7784
988.830	6582
988.910	7895
988.990	6176
989.070	6851
989.151	5833
989.231	5915
989.311	5618
989.391	5699
989.471	5732
989.551	6159
989.631	5107
989.711	6510
989.791	5199
989.870	3899
989.950	6926
990.030	5624
990.110	6148
990.190	3916
990.269	4908
990.349	5309
990.429	5411
990.509	5283
990.588	4081
990.668	4870
990.747	5270
990.827	4440
990.907	5766
990.986	5432
991.066	5607
991.145	4585
991.225	5903
991.304	4860
991.383	5334
991.463	5021
991.542	5482
991.622	3391
991.701	4162
991.780	3556
991.859	4097
991.939	4187
992.018	4224
992.097	5614
992.176	3753
992.256	4092
992.335	3590
992.414	4346
992.493	3321
992.572	2910
992.651	5204
992.730	3473
992.809	4315
992.888	3324
992.967	4369
993.046	3800
993.125	2291
993.203	3917
993.282	4440
993.361	3776
993.440	3467
993.519	2469
993.597	3864
993.676	3076
993.755	5042
993.834	4206
993.912	1984
993.991	3565
994.069	3034
994.148	3034
994.226	3433
994.305	3729
994.384	3570
994.462	4283
994.540	2025
994.619	2573
994.697	3616
994.776	2708
994.854	3529
994.932	2161
995.011	3346
995.089	2600
995.167	3016
995.245	2880
995.324	2064
995.402	3278
995.480	2899
995.558	3149
995.636	2156
995.714	2138
995.792	4308
995.870	1629
995.948	2332
996.026	2472
996.104	1816
996.182	2785
996.260	2016
996.338	1994
996.416	1591
996.494	2186
996.572	3288
996.649	1422
996.727	1712
996.805	2786
996.883	1865
996.960	1967
997.038	2482
997.116	2809
997.193	1049
997.271	1718
997.348	1110
997.426	1908
997.504	2673
997.581	2648
997.658	2160
997.736	227
997.813	905
997.891	3222
997.968	2088
998.046	2069
998.123	1890
998.200	2357
998.277	2150
998.355	1784
998.432	310
998.509	805
998.586	2569
998.663	1676
998.741	1538
998.818	1161
998.895	1714
998.972	2831
999.049	2745
999.126	558
999.203	861
999.280	2043
999.357	1814
999.434	2015
999.511	1881
999.587	1755
999.664	1443
999.741	1455
999.818	2320
999.895	1530
999.971	1343
1000.048	119
1000.125	2721
1000.202	698
1000.278	1977
1000.355	1309
1000.431	1245
1000.508	341
1000.584	1522
1000.661	1840
1000.738	1248
1000.814	831
1000.890	2100
1000.967	1367
1001.043	840
1001.120	-619
1001.196	1208
1001.272	-118
1001.349	384
1001.425	1039
1001.501	1795
1001.577	464
1001.654	366
1001.730	284
1001.806	887
1001.882	706
1001.958	2010
1002.034	1087
1002.110	201
1002.186	223
1002.262	861
1002.338	72
1002.414	1433
1002.490	842
1002.566	430
1002.642	318
1002.718	2021
1002.794	194
1002.870	917
1002.945	359
1003.021	835
1003.097	598
1003.173	1035
1003.248	-111
1003.324	-91
1003.400	96
1003.475	-663
1003.551	-857
1003.626	218
1003.702	-347
1003.777	751
1003.853	-634
1003.928	-118
1004.004	-88
1004.079	536
1004.155	876
1004.230	-252
1004.305	1104
1004.381	-755
1004.456	-11
1004.531	-41
1004.607	133
1004.682	635
1004.757	-398
1004.832	-550
1004.907	-279
1004.982	367
1005.057	680
1005.133	136
1005.208	273
1005.283	-388
1005.358	85
1005.433	-1100
1005.508	107
1005.583	-1431
1005.657	40
1005.732	364
1005.807	-931
1005.882	-462
1005.957	-379
1006.032	663
1006.106	-114
1006.181	259
1006.256	281
1006.331	-472
1006.405	200
1006.480	-63
1006.554	-315
1006.629	1259
1006.704	-275
1006.778	-7
1006.853	-39
1006.927	-188
1007.002	-1222
1007.076	-149
1007.150	-394
1007.225	-348
1007.299	-391
1007.373	-99
1007.448	421
1007.522	-352
1007.596	10
1007.671	-126
1007.745	357
1007.819	-708
1007.893	-329
1007.967	-76
1008.041	-642
1008.115	-68
1008.190	196
1008.264	159
1008.338	-1969
1008.412	-1002
1008.486	-905
1008.560	-631
1008.633	-202
1008.707	-246
1008.781	705
1008.855	376
1008.929	-451
1009.003	63
1009.076	-1222
1009.150	-241
1009.224	-690
1009.298	-231
1009.371	-1762
1009.445	-286
1009.519	-1470
1009.592	-859
1009.666	-481
1009.739	-59
1009.813	-1457
1009.886	673
1009.960	-2236
1010.033	-214
1010.107	-337
1010.180	-1100
1010.253	-473
1010.327	-1487
1010.400	-1135
1010.473	-502
1010.547	912
1010.620	-218
1010.693	-329
1010.766	-110
1010.840	-44
1010.913	-887
1010.986	-996
1011.059	-312
1011.132	-14
1011.205	363
1011.278	-802
1011.351	-441
1011.424	-11
1011.497	-642
1011.570	-620
1011.643	-405
1011.716	-1431
1011.789	-1460
1011.862	-892
1011.934	-182
1012.007	-1800
1012.080	-839
1012.153	-448
1012.225	-115
1012.298	-1216
1012.371	-1118
1012.443	103
1012.516	-458
1012.588	-229
1012.661	-708
1012.733	-1540
1012.806	-285
1012.879	-1751
1012.951	-641
1013.023	-1095
1013.096	-1102
1013.168	-1730
1013.241	-172
1013.313	-896
1013.385	-1474
1013.458	-1376
1013.530	-51
1013.602	-1555
1013.674	-517
1013.746	-1435
1013.819	-1483
1013.891	-528
1013.963	-1032
1014.035	-853
1014.107	-126
1014.179	-1242
1014.251	-1445
1014.323	-1115
1014.395	-762
1014.467	-556
1014.539	-431
1014.611	-1943
1014.683	-1009
1014.754	-1154
1014.826	-1863
1014.898	-783
1014.970	-1340
1015.042	-945
1015.113	-373
1015.185	-1014
1015.257	-1489
1015.328	-885
1015.400	-814
1015.471	-1360
1015.543	-1589
1015.615	-1235
1015.686	-330
1015.757	-1673
1015.829	-926
1015.901	-1118
1015.972	-466
1016.043	-1526
1016.115	-868
1016.186	-892
1016.257	-849
1016.328	-784
1016.400	150
1016.471	-1541
1016.542	-914
1016.613	-1379
1016.685	-1478
1016.756	-1045
1016.827	-874
1016.898	-2093
1016.969	-550
1017.040	-1330
1017.111	-956
1017.182	-1136
1017.253	-838
1017.324	-1243
1017.395	-1401
1017.466	-1357
1017.537	-311
1017.608	-1091
1017.678	-606
1017.749	-1581
1017.820	-1165
1017.891	-2449
1017.961	-1408
1018.032	-763
1018.103	-938
1018.173	-1536
1018.244	-1621
1018.315	-1856
1018.385	-371
1018.456	-1822
1018.526	-2039
1018.597	-865
1018.667	-747
1018.738	-1575
1018.808	-1216
1018.878	-2098
1018.949	-355
1019.019	-1150
1019.089	-1880
1019.160	-1083
1019.230	-1889
1019.300	-1651
1019.371	-1648
1019.441	-1214
1019.511	-963
1019.581	-829
1019.651	-1201
1019.721	-1259
1019.791	-1292
1019.861	-1019
1019.931	-1073
1020.001	-1826
1020.071	-1235
1020.141	-1515
1020.211	-1253
1020.281	-2157
1020.351	-1507
1020.421	-1470
1020.491	-456
1020.560	-1839
1020.630	-620
1020.700	-1437
1020.770	-1537
1020.839	-1320
1020.909	-273
1020.979	-1528
1021.048	-872
1021.118	-1830
1021.187	-1767
1021.257	-1303
1021.326	-1275
1021.396	-2015
1021.465	-530
1021.535	-1671
1021.604	-1824
1021.674	-793
1021.743	-1009
1021.812	-1241
1021.882	-906
1021.951	-934
1022.020	-659
1022.089	-903
1022.159	-1502
1022.228	-736
1022.297	-1402
1022.366	-1455
1022.435	-1888
1022.504	-1726
1022.573	-934
1022.642	-1530
1022.711	-1957
1022.781	-1912
1022.849	-1061
1022.918	-1807
1022.987	-1401
1023.056	-1381
1023.125	-1493
1023.194	-1574
1023.263	-1036
1023.331	-1212
1023.400	-2061
1023.469	-1612
1023.538	-374
1023.606	-1514
1023.675	-1068
1023.744	-1652
1023.812	-1221
1023.881	-1874
1023.949	-1476
1024.018	-2047
1024.086	-1589
1024.155	-1395
1024.223	-2315
1024.292	-1019
1024.360	-1767
1024.429	-1631
1024.497	-1573
1024.565	-1321
1024.634	-1400
1024.702	-2092
1024.770	-1293
1024.838	-2098
1024.907	-1519
1024.975	-1629
1025.043	-814
1025.111	-2476
1025.179	-1526
1025.247	-975
1025.315	-1445
1025.383	-1621
1025.451	-2346
1025.519	-1685
1025.587	-1779
1025.655	-582
1025.723	-1900
1025.791	-1901
1025.859	-846
1025.927	-1651
1025.995	-2098
1026.062	-927
1026.130	-883
1026.198	-1450
1026.266	-2494
1026.333	-1229
1026.401	-1055
1026.469	-2125
1026.536	-1784
1026.604	-1560
1026.671	-2063
1026.739	-1686
1026.806	-2127
1026.874	-1724
1026.941	-1851
1027.009	-1637
1027.076	-1768
1027.144	-1279
1027.211	-1749
1027.278	-1895
1027.345	-1580
1027.413	-1628
1027.480	-2133
1027.547	-1910
1027.614	-2016
1027.682	-1251
1027.749	-1793
1027.816	-1981
1027.883	-1319
1027.950	-996
1028.017	-2423
1028.084	-2202
1028.151	-2510
1028.218	-1843
1028.285	-909
1028.352	-1582
1028.419	-1829
1028.486	-1637
1028.553	-1990
1028.619	-1883
1028.686	-1690
1028.753	-2026
1028.820	-1623
1028.886	-1760
1028.953	-1354
1029.020	-1413
1029.086	-1952
1029.153	-2257
1029.220	-2029
1029.286	-1808
1029.353	-678
1029.419	-2272
1029.486	-1458
1029.552	-2364
1029.619	-1950
1029.685	-1821
1029.751	-1557
1029.818	-1403
1029.884	-1784
1029.951	-919
1030.017	-1508
1030.083	-2273
1030.149	-1007
1030.216	-1877
1030.282	-1922
1030.348	-1919
1030.414	-2368
1030.480	-1651
1030.546	-1686
1030.612	-1240
1030.678	-1828
1030.744	-2141
1030.810	-1529
1030.876	-2196
1030.942	-1798
1031.008	-1785
1031.074	-2988
1031.140	-2010
1031.206	-1247
1031.272	-2158
1031.337	-1771
1031.403	-347
1031.469	-2641
1031.534	-2718
1031.600	-1076
1031.666	-1694
1031.731	-2415
1031.797	-1583
1031.863	-2043
1031.928	-2108
1031.994	-1949
1032.059	-1507
1032.125	-2153
1032.190	-1914
1032.256	-3271
1032.321	-2287
1032.386	-1549
1032.452	-1137
1032.517	-1624
1032.582	-1653
1032.647	-1452
1032.713	-2031
1032.778	-1153
1032.843	-2239
1032.908	-1973
1032.974	-1798
1033.039	-2221
1033.104	-1514
1033.169	-1479
1033.234	-522
1033.299	9
1033.364	-810
1033.429	-528
1033.494	-1921
1033.559	-1803
1033.624	-1004
1033.688	-1344
1033.753	-2003
1033.818	-731
1033.883	-631
1033.948	-1
1034.013	191
1034.077	1809
1034.142	2554
1034.207	3206
1034.271	8854
1034.336	8112
1034.400	4648
1034.465	2754
1034.530	-36
1034.594	-661
1034.658	-1438
1034.723	-851
1034.787	-2246
1034.852	-1484
1034.916	-1265
1034.981	-2055
1035.045	-2031
1035.109	-1787
1035.173	-1637
1035.238	-2005
1035.302	-2334
1035.366	-1754
1035.430	-693
1035.495	-1178
1035.559	-1702
1035.623	-2063
1035.687	-2046
1035.751	-1738
1035.815	-1879
1035.879	-2124
1035.943	-1655
1036.007	-2107
1036.071	-1415
1036.135	-1921
1036.198	-1772
1036.262	-2310
1036.326	-1503
1036.390	-1491
1036.454	-856
1036.517	-542
1036.581	-477
1036.645	-326
1036.709	332
1036.772	-1393
1036.836	-975
1036.900	-1236
1036.963	-2361
1037.026	-1796
1037.090	-3221
1037.154	-1776
1037.217	-1981
1037.280	-2130
1037.344	-1730
1037.407	-1616
1037.471	-1706
1037.534	-1562
1037.597	-1548
1037.661	-1201
1037.724	-2133
1037.787	-2003
1037.850	-1495
1037.913	-1085
1037.977	-1789
1038.040	-978
1038.103	-2249
1038.166	-1566
1038.229	-2052
1038.292	-1768
1038.355	-1721
1038.418	-1787
1038.481	-1630
1038.544	-1097
1038.607	-2398
1038.670	-1761
1038.732	-1239
1038.795	-1761
1038.858	-2147
1038.921	-2338
1038.984	-2287
1039.046	-1825
1039.109	-2474
1039.172	-2593
1039.234	-2583
1039.297	-1802
1039.360	-2135
1039.422	-1709
1039.485	-2083
1039.547	-1825
1039.610	-1997
1039.672	-2291
1039.734	-2230
1039.797	-1905
1039.859	-2095
1039.922	-1168
1039.984	-1662
1040.046	-2621
1040.109	-1665
1040.171	-2193
1040.233	-2093
1040.295	-2169
1040.358	-2961
1040.420	-1660
1040.482	-1923
1040.544	-1300
1040.606	-2537
1040.668	-2272
1040.730	-2495
1040.792	-2060
1040.854	-2106
1040.916	-1840
1040.978	-1921
1041.040	-1644
1041.102	-1362
1041.164	-2276
1041.225	-2051
1041.287	-2696
1041.349	-2232
1041.411	-1750
1041.472	-2022
1041.534	-2605
1041.596	-2483
1041.657	-1242
1041.719	-2069
1041.781	-2073
1041.842	-2507
1041.904	-1849
1041.965	-1806
1042.027	-1721
1042.088	-2238
1042.150	-2125
1042.211	-1841
1042.272	-1963
1042.334	-2748
1042.395	-1574
1042.456	-2717
1042.518	-1583
1042.579	-2486
1042.640	-2418
1042.701	-1615
1042.763	-2547
1042.824	-2235
1042.885	-2169
1042.946	-2920
1043.007	-2304
1043.068	-1241
1043.129	-1602
1043.190	-2536
1043.251	-1114
1043.312	-1064
1043.373	-1312
1043.434	-1824
1043.495	-1689
1043.556	-1899
1043.616	-2507
1043.677	-2090
1043.738	-1283
1043.799	-2199
1043.859	-2627
1043.920	-2489
1043.981	-1983
1044.041	-1759
1044.102	-1951
1044.162	-1584
1044.223	-2212
1044.284	-1276
1044.344	-1581
1044.405	-1745
1044.465	-2198
1044.525	-1719
1044.586	-1223
1044.646	-2165
1044.707	-1222
1044.767	-1157
1044.827	-1673
1044.887	-1904
1044.948	-1367
1045.008	-1634
1045.068	-1112
1045.128	-1197
1045.188	-1693
1045.249	-1657
1045.309	-1140
1045.369	-2079
1045.429	-1008
1045.489	-2266
1045.549	-1877
1045.609	-1808
1045.669	-1529
1045.729	-1368
1045.789	-1444
1045.848	-1887
1045.908	-1712
1045.968	-1242
1046.028	-1477
1046.088	-2371
1046.147	-1390
1046.207	-1009
1046.267	-1618
1046.326	-1624
1046.386	-1966
1046.446	-1239
1046.505	-607
1046.565	-1060
1046.624	-1077
1046.684	-485
1046.743	-609
1046.803	-903
1046.862	-766
1046.922	0
