'Start Wavelength	183.907
'End Wavelength	1046.922
'Gate Delay	5.000
'Gate Width (ms)	1.050
'Laser Output Level	0.000
'X Position	0.000
'Y Position	0.000
'Z Position	0.000
'Grid Point Number	1.000
'Shot Number	100.000
183.907	1071.000
183.977	-312.000
184.047	-36
184.116	1036
184.186	468
184.256	-210
184.325	7
184.395	-586
184.465	1130
184.534	-56
184.604	-684
184.674	237
184.743	-650
184.813	532
184.883	-317
184.952	380
185.022	445
185.092	176
185.161	114
185.231	558
185.301	310
185.370	484
185.440	-145
185.509	495
185.579	-180
185.649	49
185.718	189
185.788	1516
185.857	-268
185.927	-12
185.996	-397
186.066	145
186.136	-423
186.205	-25
186.275	227
186.344	-852
186.414	39
186.483	-986
186.553	774
186.622	755
186.692	255
186.761	-121
186.831	237
186.900	8
186.970	522
187.039	501
187.109	525
187.178	690
187.248	247
187.317	-72
187.387	-610
187.456	-25
187.526	112
187.595	513
187.664	-448
187.734	208
187.803	-179
187.873	221
187.942	-47
188.012	231
188.081	431
188.150	114
188.220	756
188.289	595
188.358	-343
188.428	953
188.497	60
188.567	88
188.636	178
188.705	-106
188.775	7
188.844	-595
188.913	795
188.983	492
189.052	5
189.121	209
189.191	-138
189.260	-360
189.329	-273
189.399	-133
189.468	218
189.537	46
189.606	-41
189.676	787
189.745	352
189.814	164
189.883	210
189.953	539
190.022	56
190.091	537
190.161	-98
190.230	12
190.299	-642
190.368	-193
190.437	-534
190.507	-29
190.576	71
190.645	-40
190.714	899
190.783	163
190.853	1025
190.922	203
190.991	671
191.060	879
191.129	-817
191.198	21
191.268	-265
191.337	189
191.406	-138
191.475	-263
191.544	213
191.613	-429
191.682	732
191.752	166
191.821	0
191.890	-485
191.959	707
192.028	33
192.097	471
192.166	430
192.235	-309
192.304	662
192.373	784
192.442	260
192.511	243
192.580	178
192.650	-563
192.719	-66
192.788	1011
192.857	136
192.926	50
192.995	366
193.064	291
193.133	-145
193.202	324
193.271	233
193.340	548
193.409	165
193.478	272
193.547	-341
193.615	125
193.684	371
193.753	-59
193.822	257
193.891	-313
193.960	397
194.029	-24
194.098	404
194.167	-650
194.236	567
194.305	408
194.374	317
194.443	699
194.512	357
194.580	618
194.649	139
194.718	145
194.787	-398
194.856	-338
194.925	603
194.994	-398
195.062	441
195.131	-117
195.200	-275
195.269	-147
195.338	-88
195.407	433
195.475	-524
195.544	862
195.613	-53
195.682	422
195.751	-317
195.819	-909
195.888	217
195.957	1057
196.026	177
196.094	408
196.163	482
196.232	-353
196.301	-210
196.369	40
196.438	230
196.507	239
196.576	-47
196.644	101
196.713	415
196.782	-427
196.850	-549
196.919	-133
196.988	181
197.056	-89
197.125	-368
197.194	795
197.262	-131
197.331	211
197.400	-721
197.468	371
197.537	312
197.606	-38
197.674	-669
197.743	-151
197.812	36
197.880	-281
197.949	-637
198.017	-126
198.086	-263
198.155	-208
198.223	686
198.292	-321
198.360	68
198.429	-271
198.497	96
198.566	-227
198.635	-383
198.703	359
198.772	412
198.840	-478
198.909	-42
198.977	-227
199.046	631
199.114	166
199.183	110
199.251	208
199.320	-156
199.388	-249
199.457	-450
199.525	-457
199.594	-38
199.662	296
199.731	240
199.799	-33
199.867	524
199.936	-542
200.004	491
200.073	-24
200.141	-356
200.210	-608
200.278	-161
200.346	222
200.415	137
200.483	-444
200.552	-77
200.620	135
200.688	-141
200.757	180
200.825	348
200.893	-630
200.962	748
201.030	106
201.098	-201
201.167	-481
201.235	53
201.303	-316
201.372	96
201.440	221
201.508	458
201.577	-87
201.645	432
201.713	120
201.781	5
201.850	371
201.918	167
201.986	-300
202.055	5
202.123	199
202.191	-451
202.259	-390
202.327	565
202.396	-134
202.464	450
202.532	-21
202.600	999
202.669	946
202.737	427
202.805	384
202.873	289
202.941	-183
203.009	-322
203.078	132
203.146	25
203.214	-457
203.282	-656
203.350	808
203.418	-75
203.487	14
203.555	414
203.623	-19
203.691	-425
203.759	-270
203.827	114
203.895	-202
203.963	356
204.031	-645
204.099	355
204.168	-823
204.236	248
204.304	338
204.372	359
204.440	-159
204.508	-28
204.576	-296
204.644	334
204.712	-6
204.780	376
204.848	128
204.916	458
204.984	-533
205.052	-52
205.120	-839
205.188	171
205.256	-39
205.324	59
205.392	90
205.460	522
205.528	-676
205.596	351
205.664	-384
205.732	297
205.799	-104
205.867	864
205.935	-558
206.003	256
206.071	-90
206.139	-301
206.207	25
206.275	-24
206.343	-157
206.411	244
206.478	-158
206.546	-998
206.614	172
206.682	-222
206.750	346
206.818	-42
206.885	734
206.953	-1071
207.021	730
207.089	9
207.157	-281
207.225	-409
207.292	-276
207.360	-264
207.428	-720
207.496	-58
207.563	-143
207.631	-387
207.699	-494
207.767	384
207.834	-489
207.902	63
207.970	75
208.038	-245
208.105	19
208.173	-14
208.241	-581
208.309	-114
208.376	221
208.444	587
208.512	-213
208.579	-1425
208.647	155
208.715	1109
208.782	172
208.850	-249
208.918	126
208.985	476
209.053	-96
209.120	-257
209.188	-433
209.256	143
209.323	-367
209.391	-909
209.459	540
209.526	-202
209.594	-755
209.661	-47
209.729	-57
209.796	-281
209.864	-324
209.932	-1506
209.999	678
210.067	-80
210.134	383
210.202	-610
210.269	616
210.337	818
210.404	138
210.472	480
210.539	-908
210.607	-43
210.674	-254
210.742	157
210.809	-419
210.877	-274
210.944	-16
211.012	-1219
211.079	749
211.146	-347
211.214	78
211.281	820
211.349	-86
211.416	-291
211.484	704
211.551	-56
211.618	194
211.686	-172
211.753	-1095
211.821	-215
211.888	189
211.955	-256
212.023	-63
212.090	-863
212.157	83
212.225	-7
212.292	301
212.359	630
212.427	2142
212.494	404
212.561	-180
212.629	-251
212.696	-604
212.763	163
212.831	-418
212.898	-29
212.965	-547
213.032	390
213.100	34
213.167	-20
213.234	152
213.301	399
213.369	476
213.436	-645
213.503	391
213.570	-322
213.638	-356
213.705	-476
213.772	-493
213.839	-533
213.906	642
213.973	-563
214.041	-637
214.108	583
214.175	-273
214.242	-251
214.309	234
214.376	-301
214.444	-545
214.511	-776
214.578	-456
214.645	323
214.712	101
214.779	-209
214.846	-137
214.913	939
214.980	-469
215.048	696
215.115	708
215.182	245
215.249	-224
215.316	-323
215.383	821
215.450	242
215.517	-861
215.584	965
215.651	-143
215.718	-836
215.785	-230
215.852	-1074
215.919	-185
215.986	42
216.053	-650
216.120	-466
216.187	-154
216.254	-81
216.321	-65
216.388	224
216.455	-361
216.522	-579
216.589	90
216.656	-188
216.722	-695
216.789	685
216.856	591
216.923	-196
216.990	-75
217.057	-312
217.124	470
217.191	-245
217.258	824
217.324	-745
217.391	-132
217.458	308
217.525	-503
217.592	-451
217.659	-927
217.725	1045
217.792	-694
217.859	592
217.926	-189
217.993	174
218.059	-403
218.126	-399
218.193	-421
218.260	-317
218.327	168
218.393	-909
218.460	-141
218.527	-555
218.594	191
218.660	174
218.727	235
218.794	-627
218.860	152
218.927	-670
218.994	-737
219.061	-547
219.127	-90
219.194	-798
219.261	-246
219.327	-379
219.394	925
219.461	-890
219.527	-148
219.594	66
219.661	-232
219.727	-1002
219.794	420
219.860	-950
219.927	175
219.994	49
220.060	1513
220.127	1449
220.193	561
220.260	-82
220.326	211
220.393	551
220.460	-273
220.526	-571
220.593	-657
220.659	1497
220.726	-268
220.792	1061
220.859	856
220.925	1164
220.992	1278
221.058	1821
221.125	1859
221.191	460
221.258	153
221.324	550
221.391	-104
221.457	-335
221.524	-130
221.590	236
221.657	471
221.723	403
221.789	367
221.856	940
221.922	-730
221.989	262
222.055	105
222.121	-766
222.188	1010
222.254	318
222.321	-762
222.387	-596
222.453	-32
222.520	-349
222.586	-388
222.652	16
222.719	-555
222.785	469
222.851	-251
222.918	-82
222.984	53
223.050	-376
223.116	-2409
223.183	143
223.249	-1194
223.315	-729
223.382	370
223.448	-497
223.514	-656
223.580	-524
223.647	-759
223.713	-793
223.779	-335
223.845	-474
223.911	-173
223.978	-639
224.044	-201
224.110	-618
224.176	-269
224.242	-75
224.309	-1132
224.375	-1007
224.441	-469
224.507	117
224.573	-2074
224.639	40
224.705	-601
224.772	-462
224.838	-1504
224.904	-85
224.970	-240
225.036	-802
225.102	-1375
225.168	-375
225.234	836
225.300	9
225.366	-337
225.432	478
225.499	20
225.565	-239
225.631	-569
225.697	-780
225.763	-141
225.829	-364
225.895	-227
225.961	-425
226.027	-448
226.093	-935
226.159	1505
226.225	1228
226.291	1611
226.357	3420
226.423	1965
226.489	374
226.554	679
226.620	179
226.686	-345
226.752	770
226.818	851
226.884	4248
226.950	4188
227.016	1364
227.082	340
227.148	516
227.214	-157
227.279	-347
227.345	-16
227.411	1030
227.477	813
227.543	1926
227.609	3827
227.674	1904
227.740	-79
227.806	127
227.872	-360
227.938	597
228.003	-164
228.069	-1064
228.135	-1012
228.201	-657
228.267	-1033
228.332	57
228.398	-1551
228.464	-351
228.530	-835
228.595	-388
228.661	-2038
228.727	-253
228.792	457
228.858	-411
228.924	-2457
228.990	824
229.055	-1468
229.121	-183
229.187	234
229.252	-310
229.318	-353
229.384	150
229.449	-360
229.515	-2294
229.581	-1474
229.646	1393
229.712	-464
229.777	-617
229.843	-1005
229.909	-44
229.974	-65
230.040	-45
230.105	34
230.171	-1026
230.236	-386
230.302	-653
230.368	-649
230.433	-1601
230.499	-280
230.564	708
230.630	-1077
230.695	-736
230.761	371
230.826	-1348
230.892	889
230.957	-1231
231.023	-1213
231.088	5
231.154	-1017
231.219	-85
231.284	-663
231.350	454
231.415	-1185
231.481	908
231.546	-325
231.612	-1081
231.677	-1094
231.742	-1885
231.808	766
231.873	-651
231.939	-1506
232.004	-223
232.069	177
232.135	-312
232.200	-966
232.265	519
232.331	-854
232.396	-528
232.461	-664
232.527	-1116
232.592	-1045
232.657	-510
232.723	-421
232.788	-1085
232.853	75
232.918	-267
232.984	-1124
233.049	-620
233.114	-1185
233.179	-274
233.245	14
233.310	137
233.375	-1720
233.440	-319
233.506	-225
233.571	-752
233.636	-320
233.701	88
233.766	-725
233.832	92
233.897	184
233.962	-1572
234.027	470
234.092	482
234.157	-636
234.222	-288
234.288	-96
234.353	16
234.418	-184
234.483	261
234.548	-45
234.613	-350
234.678	-397
234.743	-796
234.808	331
234.873	-1759
234.938	617
235.004	-350
235.069	-726
235.134	-673
235.199	118
235.264	-248
235.329	-1293
235.394	-35
235.459	921
235.524	-1402
235.589	-1085
235.654	-392
235.719	-1361
235.784	-188
235.849	-919
235.913	59
235.978	-344
236.043	-224
236.108	-633
236.173	83
236.238	44
236.303	-494
236.368	-830
236.433	137
236.498	-840
236.563	682
236.627	409
236.692	7096
236.757	6263
236.822	1161
236.887	-84
236.952	789
237.017	-1797
237.081	1059
237.146	-884
237.211	2059
237.276	4948
237.341	10484
237.405	3847
237.470	1035
237.535	1299
237.600	-69
237.664	481
237.729	-1013
237.794	-696
237.859	1609
237.923	-477
237.988	324
238.053	63
238.118	-848
238.182	-324
238.247	1008
238.312	-903
238.376	-358
238.441	-1315
238.506	299
238.570	-1662
238.635	816
238.700	108
238.764	-722
238.829	135
238.893	-897
238.958	-28
239.023	-132
239.087	-1023
239.152	44
239.216	-1402
239.281	94
239.346	299
239.410	78
239.475	-837
239.539	1113
239.604	-1093
239.668	625
239.733	592
239.797	1894
239.862	6882
239.926	4400
239.991	861
240.055	707
240.120	-36
240.184	-90
240.249	-954
240.313	-93
240.378	-263
240.442	-129
240.507	819
240.571	-56
240.635	-733
240.700	-89
240.764	238
240.829	-582
240.893	-994
240.957	174
241.022	-40
241.086	570
241.151	-1310
241.215	-1449
241.279	386
241.344	-958
241.408	316
241.472	-1073
241.537	883
241.601	553
241.665	-1398
241.730	-1259
241.794	192
241.858	-1147
241.922	391
241.987	-255
242.051	-775
242.115	-1394
242.179	33
242.244	-369
242.308	552
242.372	-92
242.436	-223
242.501	22
242.565	-1695
242.629	-787
242.693	-549
242.757	-212
242.822	-572
242.886	237
242.950	912
243.014	-947
243.078	238
243.142	-502
243.206	-540
243.271	647
243.335	-1095
243.399	1369
243.463	723
243.527	6621
243.591	1441
243.655	90
243.719	-543
243.783	369
243.847	-309
243.911	570
243.975	-898
244.040	-1548
244.104	1514
244.168	-65
244.232	-732
244.296	272
244.360	9
244.424	-335
244.488	310
244.552	562
244.615	-1926
244.679	-457
244.743	-654
244.807	-1415
244.871	145
244.935	-54
244.999	-1965
245.063	-591
245.127	77
245.191	648
245.255	-48
245.319	237
245.383	-1362
245.446	1801
245.510	-137
245.574	-595
245.638	99
245.702	-2072
245.766	-59
245.829	911
245.893	-747
245.957	-949
246.021	552
246.085	-707
246.149	-549
246.212	1219
246.276	389
246.340	400
246.404	-803
246.467	926
246.531	-1740
246.595	709
246.659	1140
246.722	-854
246.786	615
246.850	45
246.913	265
246.977	-1751
247.041	-177
247.104	-343
247.168	605
247.232	290
247.295	1278
247.359	560
247.423	-994
247.486	-152
247.550	-311
247.614	-121
247.677	23
247.741	-435
247.804	-181
247.868	1609
247.932	-45
247.995	1706
248.059	-233
248.122	-776
248.186	1523
248.249	-123
248.313	1910
248.376	2106
248.440	-27
248.503	-988
248.567	1409
248.630	-499
248.694	-282
248.757	1479
248.821	2029
248.884	1676
248.948	-196
249.011	2347
249.075	3102
249.138	2788
249.202	-253
249.265	-904
249.328	541
249.392	-939
249.455	91
249.519	-383
249.582	-162
249.645	316
249.709	159
249.772	-485
249.835	-605
249.899	-312
249.962	300
250.025	-368
250.089	1135
250.152	1508
250.215	-39
250.279	-280
250.342	304
250.405	138
250.468	313
250.532	238
250.595	1411
250.658	4838
250.721	11100
250.785	2794
250.848	2376
250.911	-406
250.974	1352
251.038	-203
251.101	1457
251.164	83
251.227	1420
251.290	657
251.354	2128
251.417	9533
251.480	9186
251.543	5444
251.606	16860
251.669	13661
251.732	4655
251.795	3411
251.859	3560
251.922	9810
251.985	7082
252.048	2703
252.111	1065
252.174	-349
252.237	795
252.300	3122
252.363	4019
252.426	14083
252.489	4940
252.552	2183
252.615	218
252.678	1796
252.741	2358
252.804	4241
252.867	14830
252.930	7612
252.993	2496
253.056	2335
253.119	230
253.182	67
253.245	806
253.308	1121
253.371	-174
253.434	433
253.497	964
253.559	1739
253.622	7
253.685	-205
253.748	215
253.811	-250
253.874	863
253.937	-102
254.000	1008
254.062	776
254.125	820
254.188	1879
254.251	553
254.314	224
254.376	-86
254.439	337
254.502	-109
254.565	611
254.628	1582
254.690	583
254.753	-626
254.816	-83
254.878	-818
254.941	829
255.004	707
255.067	91
255.129	-599
255.192	109
255.255	-1157
255.317	-151
255.380	67
255.443	-853
255.505	129
255.568	-953
255.631	-308
255.693	-242
255.756	-942
255.819	910
255.881	280
255.944	-127
256.006	94
256.069	0
256.132	122
256.194	-39
256.257	-290
256.319	355
256.382	671
256.444	1233
256.507	481
256.569	-310
256.632	329
256.694	-198
256.757	3415
256.819	10760
256.882	3799
256.944	890
257.007	1092
257.069	717
257.132	116
257.194	1108
257.257	-47
257.319	-445
257.381	-85
257.444	2352
257.506	10140
257.569	13187
257.631	3357
257.693	1419
257.756	525
257.818	-411
257.880	531
257.943	1031
258.005	-679
258.067	69
258.130	412
258.192	-47
258.254	360
258.317	75
258.379	735
258.441	-132
258.503	793
258.566	418
258.628	1075
258.690	-667
258.753	936
258.815	9
258.877	-304
258.939	174
259.001	542
259.064	-209
259.126	-845
259.188	816
259.250	89
259.312	98
259.375	-165
259.437	346
259.499	-414
259.561	-568
259.623	208
259.685	-947
259.747	373
259.809	612
259.872	259
259.934	2343
259.996	2290
260.058	1244
260.120	-129
260.182	-276
260.244	490
260.306	144
260.368	-240
260.430	-1
260.492	210
260.554	1290
260.616	-425
260.678	875
260.740	994
260.802	259
260.864	151
260.926	-975
260.988	437
261.050	-391
261.112	-336
261.174	2688
261.236	513
261.298	-178
261.359	1409
261.421	1229
261.483	-963
261.545	612
261.607	-1495
261.669	291
261.731	-367
261.793	1451
261.854	-507
261.916	-32
261.978	-253
262.040	259
262.102	505
262.164	-352
262.225	301
262.287	335
262.349	-291
262.411	468
262.472	986
262.534	-333
262.596	11
262.658	426
262.719	-776
262.781	618
262.843	-926
262.904	-539
262.966	233
263.028	-60
263.090	1800
263.151	7652
263.213	2375
263.275	1341
263.336	-47
263.398	110
263.459	-250
263.521	-289
263.583	295
263.644	506
263.706	548
263.767	-341
263.829	82
263.891	176
263.952	316
264.014	24
264.075	136
264.137	1215
264.198	501
264.260	-787
264.321	72
264.383	494
264.444	2510
264.506	949
264.567	918
264.629	939
264.690	586
264.752	-375
264.813	166
264.875	-756
264.936	1782
264.998	-230
265.059	-86
265.120	372
265.182	521
265.243	3842
265.305	5420
265.366	1116
265.427	275
265.489	865
265.550	-740
265.611	279
265.673	-228
265.734	349
265.795	-24
265.857	-395
265.918	-779
265.979	1575
266.040	7092
266.102	8059
266.163	2154
266.224	618
266.286	730
266.347	-790
266.408	145
266.469	434
266.530	488
266.592	850
266.653	609
266.714	701
266.775	-362
266.836	553
266.898	-301
266.959	216
267.020	578
267.081	1015
267.142	576
267.203	-661
267.264	-329
267.326	1211
267.387	102
267.448	-2
267.509	330
267.570	400
267.631	-128
267.692	-480
267.753	782
267.814	-742
267.875	201
267.936	673
267.997	144
268.058	757
268.119	141
268.180	668
268.241	-855
268.302	-720
268.363	-256
268.424	-274
268.485	-199
268.546	-1241
268.607	-85
268.668	-679
268.729	-1082
268.790	-215
268.851	-146
268.912	268
268.972	305
269.033	-552
269.094	-533
269.155	-198
269.216	-208
269.277	-571
269.338	-901
269.398	-316
269.459	-111
269.520	-64
269.581	-113
269.642	-177
269.702	-527
269.763	-73
269.824	-492
269.885	-707
269.945	114
270.006	224
270.067	46
270.128	-296
270.188	-408
270.249	-804
270.310	-807
270.370	-166
270.431	-466
270.492	-605
270.553	-185
270.613	-200
270.674	920
270.734	586
270.795	-23
270.856	-229
270.916	-536
270.977	-670
271.038	164
271.098	304
271.159	-548
271.219	-534
271.280	-744
271.340	126
271.401	-866
271.462	-378
271.522	-99
271.583	-230
271.643	-1590
271.704	-496
271.764	-529
271.825	882
271.885	2012
271.946	3760
272.006	784
272.066	1343
272.127	3352
272.187	3435
272.248	1123
272.308	475
272.369	2300
272.429	2150
272.489	311
272.550	318
272.610	1143
272.671	274
272.731	1031
272.791	842
272.852	-396
272.912	1344
272.972	165
273.033	-27
273.093	242
273.153	1202
273.214	633
273.274	1415
273.334	1913
273.394	4431
273.455	2331
273.515	2557
273.575	3251
273.635	2917
273.696	3730
273.756	4899
273.816	2357
273.876	1936
273.936	1440
273.997	1933
274.057	1632
274.117	663
274.177	703
274.237	2655
274.297	2156
274.358	1217
274.418	2323
274.478	1183
274.538	11
274.598	-627
274.658	1204
274.718	966
274.778	-29
274.838	444
274.898	-99
274.958	1140
275.018	2616
275.078	1334
275.138	605
275.198	-34
275.258	214
275.318	546
275.378	39
275.438	151
275.498	-191
275.558	405
275.618	1516
275.678	1338
275.738	685
275.798	905
275.858	-317
275.918	-568
275.978	248
276.038	287
276.098	365
276.157	-196
276.217	1422
276.277	83
276.337	-149
276.397	-101
276.457	350
276.517	220
276.576	201
276.636	377
276.696	1072
276.756	1217
276.815	-216
276.875	438
276.935	-866
276.995	803
277.055	489
277.114	777
277.174	722
277.234	1589
277.293	-124
277.353	408
277.413	1062
277.472	2
277.532	1080
277.592	1378
277.651	7180
277.711	15591
277.771	5300
277.830	14347
277.890	13821
277.950	9653
278.009	27205
278.069	13534
278.128	10806
278.188	17438
278.248	8246
278.307	17031
278.367	12628
278.426	3251
278.486	1610
278.545	1752
278.605	1118
278.664	904
278.724	1698
278.783	1952
278.843	4427
278.902	1694
278.962	859
279.021	2699
279.081	5009
279.140	4351
279.199	2397
279.259	2445
279.318	4339
279.378	5377
279.437	9124
279.496	24895
279.556	91823
279.615	77837
279.675	23473
279.734	12337
279.793	11698
279.853	12822
279.912	6802
279.971	4688
280.031	4105
280.090	5554
280.149	9372
280.208	14986
280.268	62496
280.327	67632
280.386	16938
280.445	9540
280.505	6379
280.564	4598
280.623	3327
280.682	3222
280.742	2714
280.801	2072
280.860	2047
280.919	1451
280.978	1557
281.037	2256
281.097	132
281.156	2405
281.215	1458
281.274	1000
281.333	2276
281.392	1926
281.451	611
281.510	1613
281.569	331
281.628	384
281.688	627
281.747	1290
281.806	856
281.865	858
281.924	758
281.983	721
282.042	29
282.101	915
282.160	658
282.219	1469
282.278	194
282.337	1213
282.396	946
282.454	274
282.513	633
282.572	1524
282.631	1188
282.690	818
282.749	-6
282.808	1523
282.867	1174
282.926	1217
282.985	507
283.043	773
283.102	501
283.161	1231
283.220	1111
283.279	2863
283.338	1212
283.396	799
283.455	1590
283.514	1274
283.573	1724
283.631	1751
283.690	1486
283.749	1882
283.808	1619
283.866	2500
283.925	1287
283.984	2151
284.043	2229
284.101	2593
284.160	2483
284.219	3971
284.277	3667
284.336	4005
284.395	5515
284.453	5094
284.512	5025
284.570	7216
284.629	6852
284.688	9008
284.746	11356
284.805	14644
284.863	17412
284.922	22369
284.981	27805
285.039	35566
285.098	45389
285.156	51634
285.215	41654
285.273	37012
285.332	48812
285.390	48534
285.449	38067
285.507	30822
285.566	21903
285.624	17726
285.683	14797
285.741	11877
285.799	9267
285.858	8739
285.916	7131
285.975	5805
286.033	4231
286.091	4434
286.150	4477
286.208	3943
286.267	3512
286.325	2762
286.383	2537
286.442	3077
286.500	2717
286.558	2507
286.616	1395
286.675	2434
286.733	2362
286.791	1126
286.850	884
286.908	1921
286.966	1792
287.024	1248
287.083	1016
287.141	1286
287.199	1819
287.257	1194
287.315	979
287.374	1359
287.432	1369
287.490	1058
287.548	585
287.606	881
287.664	1587
287.723	1151
287.781	1032
287.839	1106
287.897	639
287.955	919
288.013	1612
288.071	4053
288.129	12905
288.187	40683
288.245	18725
288.303	6120
288.361	2960
288.419	2640
288.477	1260
288.535	1632
288.593	1176
288.651	1158
288.709	148
288.767	683
288.825	111
288.883	852
288.941	130
288.999	-48
289.057	372
289.115	343
289.173	827
289.231	503
289.289	-377
289.346	732
289.404	-655
289.462	97
289.520	297
289.578	491
289.636	-426
289.694	281
289.751	615
289.809	-326
289.867	-103
289.925	1440
289.983	-63
290.040	495
290.098	-54
290.156	-40
290.214	200
290.271	-741
290.329	295
290.387	429
290.444	-16
290.502	-49
290.560	151
290.617	315
290.675	223
290.733	232
290.790	834
290.848	-232
290.906	-220
290.963	-8
291.021	125
291.078	486
291.136	151
291.194	97
291.251	1632
291.309	90
291.366	135
291.424	653
291.481	-296
291.539	499
291.596	852
291.654	659
291.711	728
291.769	778
291.826	-145
291.884	-81
291.941	-259
291.999	809
292.056	278
292.114	-177
292.171	-183
292.228	232
292.286	518
292.343	552
292.401	-722
292.458	820
292.515	621
292.573	597
292.630	613
292.687	293
292.745	107
292.802	-112
292.859	1320
292.917	2551
292.974	1302
293.031	732
293.089	43
293.146	-355
293.203	310
293.260	144
293.318	352
293.375	552
293.432	371
293.489	616
293.546	124
293.604	1345
293.661	1491
293.718	5406
293.775	2582
293.832	1671
293.889	2180
293.947	2378
294.004	493
294.061	223
294.118	858
294.175	2146
294.232	5509
294.289	3490
294.346	1089
294.403	1167
294.460	351
294.517	-209
294.574	92
294.631	480
294.688	876
294.745	594
294.802	3611
294.859	5142
294.916	1576
294.973	508
295.030	84
295.087	474
295.144	7
295.201	428
295.258	-39
295.315	107
295.372	1215
295.429	2257
295.486	199
295.542	840
295.599	1818
295.656	3980
295.713	1518
295.770	1910
295.827	454
295.883	571
295.940	-48
295.997	276
296.054	212
296.111	30
296.167	1313
296.224	267
296.281	-23
296.338	-224
296.394	-530
296.451	-300
296.508	1046
296.564	1644
296.621	1290
296.678	2554
296.734	4117
296.791	1637
296.848	598
296.904	31
296.961	371
297.018	1616
297.074	1635
297.131	293
297.187	745
297.244	290
297.301	2316
297.357	5168
297.414	1150
297.470	849
297.527	2
297.583	159
297.640	-232
297.696	-145
297.753	-153
297.809	18
297.866	-379
297.922	234
297.979	-294
298.035	-701
298.092	-81
298.148	988
298.204	757
298.261	280
298.317	491
298.374	2902
298.430	2234
298.486	459
298.543	-472
298.599	-69
298.656	37
298.712	947
298.768	2185
298.824	2415
298.881	-22
298.937	-283
298.993	-1377
299.050	-354
299.106	609
299.162	-51
299.218	67
299.275	126
299.331	378
299.387	1438
299.443	4033
299.500	10077
299.556	8008
299.612	3015
299.668	2349
299.724	6462
299.780	10167
299.837	3467
299.893	2423
299.949	5663
300.005	10425
300.061	6658
300.117	12328
300.173	5056
300.229	1895
300.285	1694
300.341	1367
300.397	834
300.453	4
300.510	1031
300.566	968
300.622	2769
300.678	11828
300.734	15987
300.790	7001
300.845	5386
300.901	7397
300.957	11246
301.013	5075
301.069	1614
301.125	1098
301.181	272
301.237	327
301.293	595
301.349	290
301.405	37
301.461	-508
301.516	-202
301.572	518
301.628	-575
301.684	-363
301.740	-52
301.796	1325
301.851	395
301.907	512
301.963	1145
302.019	2373
302.074	8032
302.130	9363
302.186	4309
302.242	1400
302.297	1213
302.353	497
302.409	1527
302.464	1274
302.520	1015
302.576	2385
302.631	2482
302.687	242
302.743	914
302.798	-142
302.854	441
302.910	-90
302.965	-10
303.021	615
303.076	86
303.132	-447
303.187	-362
303.243	317
303.299	112
303.354	429
303.410	-458
303.465	725
303.521	284
303.576	-1111
303.632	-25
303.687	508
303.743	3300
303.798	3087
303.853	710
303.909	702
303.964	-61
304.020	141
304.075	-239
304.130	401
304.186	388
304.241	1799
304.297	958
304.352	-168
304.358	-140
304.407	86
304.449	-67
304.463	-119
304.518	268
304.539	81
304.573	-242
304.629	299
304.630	294
304.684	90
304.720	1205
304.739	1769
304.794	3108
304.811	2624
304.850	1404
304.902	179
304.905	100
304.960	806
304.992	251
305.015	-157
305.071	443
305.083	462
305.126	561
305.173	421
305.181	395
305.236	-27
305.264	243
305.292	536
305.347	625
305.354	585
305.402	311
305.445	516
305.457	568
305.512	789
305.535	723
305.567	683
305.622	699
305.626	698
305.678	949
305.716	1974
305.733	2250
305.788	3436
305.807	2990
305.843	2459
305.897	3261
305.898	3265
305.953	3567
305.988	2320
306.008	1681
306.063	884
306.078	828
306.118	776
306.168	384
306.173	348
306.228	881
306.259	923
306.283	1032
306.338	283
306.349	454
306.393	938
306.440	802
306.448	805
306.503	1129
306.530	930
306.558	845
306.613	1908
306.620	2014
306.668	2708
306.711	3141
306.723	3081
306.778	2282
306.801	1871
306.833	1538
306.888	589
306.892	580
306.943	735
306.982	772
306.997	780
307.052	988
307.072	1008
307.107	1199
307.162	691
307.163	698
307.217	1650
307.253	1659
307.272	1702
307.327	1792
307.343	1869
307.381	1860
307.434	1510
307.436	1526
307.491	2613
307.524	2967
307.546	2888
307.600	2372
307.614	2303
307.655	2257
307.704	1814
307.710	1830
307.765	1614
307.795	2033
307.819	2371
307.874	3593
307.885	3673
307.929	3664
307.975	3766
307.984	3935
308.038	4845
308.065	6088
308.093	12310
308.148	26723
308.156	29536
308.202	43269
308.246	54856
308.257	52905
308.312	26946
308.336	16471
308.366	11960
308.421	7361
308.426	6996
308.475	5522
308.517	5094
308.530	5089
308.585	5136
308.607	5164
308.639	5217
308.694	5201
308.697	5250
308.748	6877
308.787	7247
308.803	7096
308.857	7028
308.877	6892
308.912	7980
308.967	9810
308.967	9829
309.021	16477
309.058	21574
309.076	25323
309.130	37768
309.148	41803
309.185	61806
309.238	93127
309.239	93609
309.293	109685
309.328	112122
309.348	100157
309.402	58815
309.418	47556
309.457	37543
309.508	27198
309.511	27403
309.566	32877
309.598	36923
309.620	47791
309.674	77659
309.688	85576
309.729	80884
309.778	67631
309.783	65855
309.837	41991
309.868	29051
309.892	25211
309.946	17424
309.959	15918
310.001	14434
310.049	12200
310.055	11842
310.109	9189
310.139	7560
310.163	6540
310.218	4711
310.229	4304
310.272	4108
310.319	4152
310.326	4102
310.381	3465
310.409	3248
310.435	3247
310.489	3000
310.499	2990
310.543	3023
310.589	2995
310.598	2988
310.652	3076
310.679	2981
310.706	3043
310.760	3097
310.769	3121
310.814	3112
310.859	2979
310.868	2959
310.923	2766
310.948	2712
310.977	2716
311.031	2707
311.038	2689
311.085	2648
311.128	2594
311.139	2638
311.193	2798
311.218	2865
311.247	2991
311.301	3152
311.308	3168
311.356	2793
311.398	2342
311.410	2387
311.464	2639
311.488	2713
311.518	2561
311.572	2365
311.578	2321
311.626	2847
311.668	3332
311.680	3408
311.734	3672
311.758	3784
311.788	3742
311.842	3597
311.847	3570
311.896	3597
311.937	3606
311.950	3529
312.004	3123
312.027	2945
312.058	2840
312.112	2628
312.117	2601
312.165	2984
312.207	3297
312.297	2862
312.386	2717
312.476	2063
312.566	3280
312.656	2681
312.745	3368
312.835	3397
312.925	3648
313.015	3667
313.104	3567
313.194	3203
313.284	3603
313.374	3629
313.463	3759
313.553	3981
313.643	4164
313.732	3772
313.822	4189
313.912	4812
314.001	4881
314.091	5331
314.180	5453
314.270	5883
314.360	5502
314.449	4661
314.539	3770
314.628	4687
314.718	5463
314.808	5036
314.897	6337
314.987	6072
315.076	6610
315.166	6544
315.255	6282
315.345	5613
315.434	5806
315.524	4815
315.613	6681
315.703	8672
315.792	20048
315.881	71633
315.971	21809
316.060	8371
316.150	6519
316.239	5963
316.328	6155
316.418	5821
316.507	5173
316.597	6404
316.686	7376
316.775	6277
316.865	7016
316.954	4726
317.043	5382
317.133	5126
317.222	4148
317.311	4052
317.400	3574
317.490	5706
317.579	5496
317.668	7749
317.757	12337
317.847	31187
317.936	107431
318.025	30396
318.114	26380
318.203	12337
318.293	6718
318.382	9785
318.471	10538
318.560	10028
318.649	13929
318.738	5735
318.828	4902
318.917	3555
319.006	4193
319.095	4777
319.184	14754
319.273	7773
319.362	4624
319.451	3683
319.540	3438
319.629	3994
319.718	5027
319.807	4094
319.896	5930
319.985	16510
320.074	6707
320.163	4059
320.252	4284
320.341	5284
320.430	4403
320.519	5285
320.608	4756
320.697	6820
320.786	6634
320.875	7563
320.964	8956
321.053	8438
321.142	9829
321.230	11221
321.319	11209
321.408	14496
321.497	12941
321.586	11043
321.675	9184
321.764	9281
321.852	8510
321.941	9158
322.030	9403
322.119	10092
322.207	12854
322.296	14250
322.385	14932
322.474	17260
322.562	19222
322.651	13500
322.740	11315
322.829	10526
322.917	9336
323.006	6799
323.095	7176
323.183	5772
323.272	7009
323.361	6676
323.449	13310
323.538	6803
323.626	9342
323.715	7227
323.804	4345
323.892	8183
323.981	5904
324.069	4299
324.158	7504
324.246	6016
324.335	5012
324.424	4313
324.512	4108
324.601	4867
324.689	4973
324.778	7315
324.866	5238
324.954	3205
325.043	2414
325.131	3583
325.220	6580
325.308	4775
325.397	5066
325.485	4225
325.574	3668
325.662	3182
325.750	3426
325.839	3502
325.927	3325
326.015	3583
326.104	3299
326.192	3971
326.280	3517
326.369	2948
326.457	3848
326.545	4308
326.634	3446
326.722	3852
326.810	3645
326.898	4215
326.987	4193
327.075	3250
327.163	5259
327.251	3864
327.340	5067
327.428	8216
327.516	7241
327.604	5657
327.692	4211
327.781	3385
327.869	3279
327.957	3842
328.045	3213
328.133	2867
328.221	2530
328.309	3428
328.397	3159
328.485	3670
328.574	6808
328.662	9599
328.750	5833
328.838	4160
328.926	4809
329.014	3960
329.102	3500
329.190	3526
329.278	3083
329.366	3106
329.454	3203
329.542	3147
329.630	3219
329.718	2839
329.806	3458
329.893	3116
329.981	2766
330.069	3689
330.157	4438
330.245	5802
330.333	4434
330.421	3503
330.509	3340
330.597	4867
330.684	4583
330.772	3421
330.860	3620
330.948	4054
331.036	3768
331.123	2468
331.211	3561
331.299	3763
331.387	4457
331.475	4811
331.562	3899
331.650	3899
331.738	3069
331.825	4256
331.913	2469
332.001	3944
332.089	3286
332.176	3805
332.264	5373
332.352	3800
332.439	3022
332.527	4222
332.614	2990
332.702	4220
332.790	4399
332.877	5424
332.965	14547
333.052	12835
333.140	14361
333.228	35514
333.315	10299
333.403	5479
333.490	7716
333.578	14513
333.665	51252
333.753	21142
333.840	7104
333.928	7094
334.015	7670
334.103	10603
334.190	21175
334.278	14957
334.365	18893
334.452	19530
334.540	13072
334.627	12385
334.715	15801
334.802	22603
334.889	43259
334.977	54593
335.064	31427
335.151	15826
335.239	11026
335.326	9751
335.413	15208
335.501	17565
335.588	10285
335.675	10749
335.762	13211
335.850	17595
335.937	25978
336.024	43654
336.111	73701
336.199	62436
336.286	28964
336.373	15610
336.460	10679
336.547	8181
336.635	7349
336.722	6104
336.809	5250
336.896	5587
336.983	8148
337.070	13210
337.157	19395
337.245	12243
337.332	9320
337.419	5000
337.506	4896
337.593	4952
337.680	6456
337.767	12241
337.854	6129
337.941	5204
338.028	5232
338.115	3555
338.202	5560
338.289	5752
338.376	9251
338.463	5600
338.550	7513
338.637	8374
338.724	4313
338.811	5653
338.898	3522
338.984	3951
339.071	3962
339.158	3972
339.245	4502
339.332	4594
339.419	3889
339.506	4665
339.593	2742
339.679	4258
339.766	3375
339.853	3903
339.940	4243
340.027	3761
340.113	3478
340.200	3027
340.287	3224
340.374	2467
340.460	4139
340.547	2060
340.634	3795
340.720	5515
340.807	3996
340.894	2879
340.980	3517
341.067	2881
341.154	4429
341.240	3655
341.327	3809
341.414	4130
341.500	3466
341.587	3804
341.674	3638
341.760	4154
341.847	3589
341.933	3471
342.020	1771
342.106	3681
342.193	3533
342.279	3364
342.366	3502
342.452	3433
342.539	2658
342.625	3851
342.712	4264
342.798	3945
342.885	3442
342.971	2352
343.058	3022
343.144	3237
343.230	3604
343.317	3270
343.403	3145
343.490	3422
343.576	3308
343.662	3495
343.749	3183
343.835	3316
343.921	4767
344.008	11417
344.094	20900
344.180	7402
344.267	3571
344.353	6455
344.439	6766
344.525	3314
344.612	6119
344.698	5332
344.784	3827
344.870	3443
344.957	3403
345.043	4320
345.129	2130
345.215	3913
345.301	2826
345.387	2853
345.474	2932
345.560	2995
345.646	2949
345.732	3251
345.818	3366
345.904	2791
345.990	2664
346.076	3160
346.162	3266
346.249	3272
346.335	3390
346.421	4004
346.507	4668
346.593	7957
346.679	3729
346.765	4843
346.851	6853
346.937	5046
347.023	4761
347.108	4149
347.194	3318
347.280	3936
347.366	5401
347.452	13756
347.538	19536
347.624	12504
347.710	7379
347.796	3255
347.882	4597
347.967	4079
348.053	4299
348.139	3627
348.225	3162
348.311	3053
348.397	4354
348.482	4148
348.568	5087
348.654	6324
348.740	18988
348.825	18268
348.911	9412
348.997	8087
349.083	11298
349.168	4054
349.254	3362
349.340	4533
349.425	3916
349.511	3676
349.597	3655
349.682	4330
349.768	6967
349.854	4575
349.939	4834
350.025	4369
350.110	4273
350.196	3333
350.282	3003
350.367	4249
350.453	4346
350.538	2939
350.624	2722
350.709	4058
350.795	2920
350.880	3086
350.966	4356
351.051	3611
351.137	3139
351.222	3552
351.308	4068
351.393	5299
351.479	3518
351.564	2949
351.649	3973
351.735	3335
351.820	3380
351.906	2707
351.991	3300
352.076	4380
352.162	5342
352.247	3759
352.332	3935
352.418	2699
352.503	3561
352.588	6687
352.673	5149
352.759	3899
352.844	3626
352.929	3266
353.014	3211
353.100	4315
353.185	4373
353.270	2831
353.355	4200
353.441	3726
353.526	3532
353.611	3306
353.696	3263
353.781	3985
353.866	2255
353.952	3981
354.037	2677
354.122	5082
354.207	3593
354.292	3750
354.377	3668
354.462	3693
354.547	2864
354.632	3931
354.717	4245
354.802	3616
354.887	3992
354.972	4434
355.057	2999
355.142	3419
355.227	4475
355.312	3828
355.397	4627
355.482	4705
355.567	3815
355.652	4190
355.737	4377
355.822	7499
355.907	4902
355.991	5288
356.076	2966
356.161	3918
356.246	3382
356.331	3467
356.416	4582
356.501	13826
356.585	11520
356.670	3539
356.755	6335
356.840	4862
356.924	10321
357.009	23978
357.094	11221
357.179	4698
357.263	4198
357.348	5027
357.433	4865
357.517	4332
357.602	4272
357.687	4883
357.771	5304
357.856	8784
357.941	7159
358.025	9229
358.110	28884
358.195	12506
358.279	5380
358.364	5689
358.448	7367
358.533	11150
358.617	8687
358.702	9405
358.787	5858
358.871	4500
358.956	4643
359.040	4598
359.125	4112
359.209	4781
359.294	6573
359.378	10547
359.462	7799
359.547	4225
359.631	4106
359.716	2981
359.800	4280
359.885	5026
359.969	3506
360.053	4454
360.138	3345
360.222	3832
360.306	4931
360.391	4129
360.475	5424
360.559	6627
360.644	5870
360.728	3806
360.812	9308
360.896	16687
360.981	8874
361.065	5595
361.149	5573
361.233	4676
361.318	3750
361.402	4267
361.486	5653
361.570	5143
361.654	4535
361.739	6005
361.823	13163
361.907	19165
361.991	7865
362.075	8465
362.159	10937
362.243	20469
362.327	49944
362.411	73547
362.495	29491
362.580	14401
362.664	12745
362.748	13716
362.832	23350
362.916	44644
363.000	123346
363.084	170453
363.168	74379
363.252	23885
363.336	14381
363.420	12038
363.503	18904
363.587	18939
363.671	9924
363.755	8021
363.839	11226
363.923	10169
364.007	14158
364.091	17353
364.175	28393
364.258	70183
364.342	144770
364.426	243218
364.510	131576
364.594	43008
364.677	21425
364.761	21056
364.845	16788
364.929	8510
365.013	7061
365.096	7382
365.180	6368
365.264	9464
365.347	24195
365.431	11119
365.515	5150
365.598	3920
365.682	6985
365.766	5086
365.849	6389
365.933	6022
366.017	6846
366.100	4580
366.184	4203
366.267	6348
366.351	5487
366.435	4275
366.518	3463
366.602	5183
366.685	5386
366.769	4566
366.852	5581
366.936	5755
367.019	5842
367.103	4754
367.186	7645
367.270	5320
367.353	4554
367.436	6366
367.520	5576
367.603	7225
367.687	5685
367.770	5228
367.853	7156
367.937	8836
368.020	10387
368.104	3781
368.187	6043
368.270	6621
368.353	5095
368.437	5131
368.520	8047
368.603	6236
368.687	6320
368.770	9278
368.853	5588
368.936	5540
369.020	5840
369.103	4125
369.186	4164
369.269	4658
369.352	5746
369.436	4388
369.519	4987
369.602	3479
369.685	6071
369.768	3278
369.851	5045
369.934	4540
370.018	4983
370.101	4155
370.184	7526
370.267	6119
370.350	6122
370.433	6794
370.516	17583
370.599	41012
370.682	16908
370.765	9923
370.848	10860
370.931	12274
371.014	9362
371.097	4559
371.180	7165
371.263	7215
371.346	6307
371.429	6726
371.511	6735
371.594	7732
371.677	8778
371.760	10302
371.843	9815
371.926	17859
372.009	28978
372.091	20635
372.174	14421
372.257	18781
372.340	13842
372.423	13767
372.505	14606
372.588	9295
372.671	10644
372.754	12543
372.836	10581
372.919	12736
373.002	16113
373.085	9624
373.167	11000
373.250	10534
373.332	13904
373.415	20082
373.498	33352
373.580	21694
373.663	59225
373.746	56036
373.828	13302
373.911	9015
373.993	6972
374.076	14140
374.159	12573
374.241	8475
374.324	11295
374.406	10248
374.489	12003
374.571	25266
374.654	12032
374.736	9667
374.819	18162
374.901	25002
374.983	24270
375.066	10538
375.148	8398
375.231	14643
375.313	20508
375.395	9985
375.478	7891
375.560	8413
375.643	8836
375.725	10173
375.807	21728
375.890	17185
375.972	8138
376.054	8468
376.136	8435
376.219	6122
376.301	9764
376.383	16822
376.465	8522
376.548	5699
376.630	7360
376.712	14561
376.794	8089
376.877	6085
376.959	4588
377.041	5326
377.123	5794
377.205	6686
377.287	4760
377.369	6146
377.452	5277
377.534	5405
377.616	5771
377.698	5126
377.780	4373
377.862	5105
377.944	6858
378.026	4543
378.108	5418
378.190	5046
378.272	5008
378.354	5048
378.436	5056
378.518	4518
378.600	6156
378.682	5920
378.764	7535
378.846	7346
378.928	5225
379.010	5057
379.091	5826
379.173	5355
379.255	4211
379.337	4216
379.419	5233
379.501	10888
379.583	6996
379.664	5639
379.746	4616
379.828	9061
379.910	8667
379.991	9297
380.073	4765
380.155	5221
380.237	5128
380.318	5249
380.400	5382
380.482	6905
380.564	6145
380.645	6113
380.727	7095
380.809	7097
380.890	6012
380.972	5271
381.053	7328
381.135	7461
381.217	7964
381.298	10246
381.380	7670
381.461	8347
381.543	15710
381.624	18640
381.706	9738
381.787	10118
381.869	9398
381.951	13501
382.032	28719
382.113	22521
382.195	10367
382.276	13380
382.358	14202
382.439	21964
382.521	27768
382.602	36603
382.684	32057
382.765	53961
382.846	139219
382.928	293956
383.009	175207
383.090	141107
383.172	333357
383.253	398396
383.334	160490
383.416	75455
383.497	56765
383.578	66771
383.659	123658
383.741	305402
383.822	483883
383.903	288922
383.984	103162
384.066	59130
384.147	36385
384.228	26202
384.309	20800
384.390	20794
384.471	18191
384.553	16094
384.634	15672
384.715	15726
384.796	14802
384.877	15581
384.958	17653
385.039	16294
385.120	12975
385.201	12495
385.282	13137
385.363	15730
385.444	18771
385.525	17312
385.606	20458
385.687	17595
385.768	12602
385.849	12726
385.930	19935
386.011	26185
386.092	14324
386.173	12894
386.254	10797
386.335	10971
386.416	9586
386.496	11212
386.577	12156
386.658	10630
386.739	9679
386.820	11209
386.901	10776
386.981	12063
387.062	13997
387.143	14108
387.224	16482
387.304	17776
387.385	16324
387.466	13267
387.547	16688
387.627	15683
387.708	17814
387.789	21030
387.869	21078
387.950	15404
388.031	11324
388.111	10604
388.192	14178
388.273	17312
388.353	13029
388.434	8619
388.514	8521
388.595	14448
388.676	15388
388.756	9931
388.837	9988
388.917	7603
388.998	5113
389.078	7562
389.159	7476
389.239	5190
389.320	8444
389.400	4784
389.480	7851
389.561	10411
389.641	8545
389.722	6653
389.802	6444
389.883	8369
389.963	12456
390.043	9159
390.124	6351
390.204	7480
390.284	9697
390.365	7046
390.445	11601
390.525	19971
390.605	17380
390.686	7658
390.766	7802
390.846	7979
390.927	6219
391.007	6328
391.087	7210
391.167	6517
391.247	5895
391.328	8566
391.408	9335
391.488	8661
391.568	7503
391.648	8845
391.728	9699
391.808	10502
391.888	9234
391.969	12007
392.049	13200
392.129	13500
392.209	13281
392.289	17801
392.369	16386
392.449	17964
392.529	17233
392.609	19680
392.689	22829
392.769	27297
392.849	33467
392.929	40921
393.009	58663
393.089	82715
393.169	151154
393.248	340159
393.328	626843
393.408	613339
393.488	328306
393.568	143814
393.648	76291
393.728	49661
393.807	34604
393.887	29249
393.967	22774
394.047	19234
394.127	16974
394.206	19142
394.286	34212
394.366	124825
394.446	125243
394.525	30865
394.605	14249
394.685	13289
394.764	16682
394.844	27555
394.924	29911
395.003	13521
395.083	10286
395.163	9922
395.242	9617
395.322	9606
395.402	8220
395.481	11370
395.561	13346
395.640	39211
395.720	67441
395.799	39775
395.879	22091
395.958	18039
396.038	42372
396.117	155718
396.197	162281
396.276	48772
396.356	26700
396.435	28411
396.515	36501
396.594	54413
396.673	115362
396.753	303892
396.832	570871
396.912	431408
396.991	162738
397.070	68743
397.150	39462
397.229	34126
397.308	55674
397.388	96012
397.467	47159
397.546	18756
397.625	11636
397.705	13693
397.784	10281
397.863	8744
397.942	9890
398.022	9807
398.101	9944
398.180	16011
398.259	10951
398.338	7736
398.417	6701
398.497	5826
398.576	7656
398.655	5291
398.734	6090
398.813	6151
398.892	8656
398.971	15621
399.050	9241
399.129	3977
399.208	4309
399.287	5473
399.366	3744
399.445	4221
399.524	4687
399.603	3929
399.682	4429
399.761	5425
399.840	16262
399.919	13094
399.998	4606
400.077	2961
400.156	2206
400.235	6084
400.313	3668
400.392	2919
400.471	5620
400.550	6068
400.629	3577
400.708	4096
400.786	3286
400.865	4238
400.944	4302
401.023	5999
401.102	2713
401.180	3481
401.259	3162
401.338	3382
401.416	3558
401.495	1731
401.574	4199
401.652	2300
401.731	4025
401.810	2502
401.888	2990
401.967	2475
402.046	2875
402.124	2894
402.203	2694
402.281	4133
402.360	2724
402.438	4541
402.517	2382
402.596	2668
402.674	3798
402.753	2984
402.831	3925
402.910	3828
402.988	3749
403.066	8212
403.145	6451
403.223	5320
403.302	6885
403.380	6885
403.459	6606
403.537	3958
403.615	4112
403.694	2303
403.772	4767
403.850	3661
403.929	3205
404.007	2687
404.085	4490
404.164	3746
404.242	3543
404.320	8393
404.398	17381
404.477	13551
404.555	18691
404.633	16781
404.711	13663
404.789	10076
404.868	4165
404.946	2734
405.024	3737
405.102	2277
405.180	2012
405.258	1590
405.336	3611
405.415	1848
405.493	3439
405.571	3834
405.649	2070
405.727	2633
405.805	4915
405.883	4198
405.961	4584
406.039	2656
406.117	1733
406.195	3229
406.273	3400
406.351	11003
406.429	8270
406.507	2518
406.585	2092
406.663	3092
406.740	2023
406.818	1871
406.896	2548
406.974	3418
407.052	2680
407.130	6357
407.208	8989
407.285	4668
407.363	2198
407.441	2257
407.519	2153
407.596	2933
407.674	3863
407.752	8498
407.830	8049
407.907	4026
407.985	2664
408.063	2149
408.141	2267
408.218	3537
408.296	1463
408.373	2659
408.451	3727
408.529	2994
408.606	3002
408.684	3446
408.762	4379
408.839	3800
408.917	4267
408.994	4103
409.072	5193
409.149	7003
409.227	11989
409.304	17902
409.382	19386
409.459	20534
409.537	27874
409.614	24202
409.692	20056
409.769	18657
409.846	27753
409.924	35224
410.001	25080
410.079	17239
410.156	12950
410.233	9666
410.311	6841
410.388	6742
410.465	6433
410.543	6173
410.620	6779
410.697	6247
410.775	5529
410.852	5439
410.929	7010
411.006	7078
411.083	6529
411.161	5784
411.238	6602
411.315	5997
411.392	4552
411.469	5108
411.547	3977
411.624	3185
411.701	4257
411.778	3931
411.855	3396
411.932	2685
412.009	2960
412.086	3271
412.163	4183
412.240	2443
412.317	3921
412.394	3709
412.471	3814
412.548	2497
412.625	2885
412.702	3554
412.779	3258
412.856	2887
412.933	2754
413.010	2263
413.087	2878
413.164	3635
413.241	4722
413.318	2108
413.395	4067
413.471	2149
413.548	3261
413.625	2499
413.702	1923
413.779	2178
413.855	2162
413.932	2040
414.009	1678
414.086	2239
414.162	2529
414.239	2505
414.316	3566
414.393	6883
414.469	2629
414.546	2371
414.623	2174
414.699	2608
414.776	1889
414.853	1442
414.929	2507
415.006	2583
415.082	2476
415.159	2206
415.236	2399
415.312	3169
415.389	3096
415.465	2200
415.542	2387
415.618	1144
415.695	2328
415.771	1530
415.848	1503
415.924	1990
416.000	1923
416.077	2961
416.153	1688
416.230	556
416.306	2153
416.383	2262
416.459	1640
416.535	1741
416.612	2979
416.688	2695
416.764	3488
416.841	3442
416.917	2726
416.993	3190
417.069	2896
417.146	2250
417.222	2798
417.298	2739
417.374	1312
417.451	2206
417.527	1693
417.603	1963
417.679	1819
417.755	1723
417.831	1046
417.908	1912
417.984	2354
418.060	1225
418.136	2786
418.212	2061
418.288	1917
418.364	2118
418.440	1725
418.516	2564
418.592	2105
418.668	2591
418.744	2492
418.820	2593
418.896	2740
418.972	1790
419.048	1454
419.124	3607
419.200	2080
419.276	2678
419.352	2199
419.428	2403
419.504	2509
419.579	2938
419.655	2929
419.731	2858
419.807	3254
419.883	2934
419.959	2776
420.034	3575
420.110	3480
420.186	4424
420.262	5587
420.337	4335
420.413	3570
420.489	4223
420.565	5235
420.640	4723
420.716	5753
420.792	4274
420.867	6132
420.943	4777
421.019	6154
421.094	5672
421.170	7111
421.245	7534
421.321	7902
421.397	8734
421.472	10430
421.548	13444
421.623	13538
421.699	13728
421.774	14112
421.850	15767
421.925	19074
422.001	22784
422.076	27534
422.152	35755
422.227	46210
422.302	64552
422.378	92584
422.453	144830
422.529	216607
422.604	230181
422.679	167960
422.755	217973
422.830	216298
422.905	148699
422.981	100414
423.056	72008
423.131	54332
423.207	41153
423.282	32416
423.357	27431
423.432	22164
423.508	19702
423.583	16934
423.658	14819
423.733	14393
423.808	12826
423.883	12046
423.959	13183
424.034	15821
424.109	15547
424.184	9985
424.259	8534
424.334	7748
424.409	6165
424.484	6323
424.559	5704
424.634	5341
424.709	5293
424.784	5313
424.859	4480
424.934	4026
425.009	5288
425.084	6233
425.159	4267
425.234	4669
425.309	3570
425.384	4837
425.459	5205
425.534	4885
425.609	2779
425.683	2881
425.758	4060
425.833	4162
425.908	3446
425.983	3501
426.058	4985
426.132	4337
426.207	2861
426.282	4246
426.357	1887
426.431	3641
426.506	3542
426.581	2051
426.655	2552
426.730	2957
426.805	1772
426.879	3259
426.954	2758
427.029	3168
427.103	4887
427.178	9113
427.253	4705
427.327	2506
427.402	2200
427.476	4065
427.551	3150
427.625	3053
427.700	3010
427.774	2247
427.849	3155
427.923	2253
427.998	3481
428.072	3758
428.147	8493
428.221	37658
428.296	105532
428.370	55811
428.444	10258
428.519	4593
428.593	4502
428.667	4346
428.742	6375
428.816	15187
428.890	68072
428.965	95245
429.039	25486
429.113	6954
429.188	2727
429.262	2879
429.336	3238
429.410	3691
429.485	3987
429.559	4511
429.633	3583
429.707	4313
429.781	12723
429.855	64849
429.930	85149
430.004	25626
430.078	20697
430.152	47749
430.226	141894
430.300	129148
430.374	31191
430.448	10179
430.522	8607
430.596	14324
430.670	23278
430.744	84428
430.818	84207
430.892	16411
430.966	3775
431.040	3204
431.114	1779
431.188	1885
431.262	1577
431.336	1680
431.410	2455
431.484	2654
431.557	3029
431.631	2937
431.705	6353
431.779	29384
431.853	101765
431.927	63807
432.000	10645
432.074	4059
432.148	2402
432.222	1175
432.295	1816
432.369	997
432.443	1898
432.516	4497
432.590	7488
432.664	3309
432.737	261
432.811	428
432.885	208
432.958	1041
433.032	1147
433.106	547
433.179	1018
433.253	1000
433.326	936
433.400	1011
433.473	1313
433.547	174
433.620	1074
433.694	1018
433.767	1138
433.841	736
433.914	1002
433.988	455
434.061	1166
434.134	1067
434.208	1176
434.281	137
434.355	625
434.428	1028
434.501	500
434.575	618
434.648	792
434.721	721
434.795	1090
434.868	777
434.941	1392
435.014	969
435.088	2490
435.161	3880
435.234	5354
435.307	5697
435.381	5919
435.454	8728
435.527	13505
435.600	15241
435.673	12223
435.746	8813
435.819	5760
435.892	4521
435.966	3335
436.039	2890
436.112	2320
436.185	1443
436.258	1831
436.331	797
436.404	1211
436.477	1421
436.550	1374
436.623	1781
436.696	714
436.769	1224
436.842	1742
436.915	647
436.987	708
437.060	714
437.133	1081
437.206	268
437.279	1996
437.352	424
437.425	880
437.498	806
437.570	1227
437.643	884
437.716	810
437.789	1082
437.861	844
437.934	1931
438.007	-123
438.080	360
438.152	1346
438.225	718
438.298	4298
438.370	13238
438.443	4944
438.516	1217
438.588	817
438.661	134
438.734	1059
438.806	1674
438.879	911
438.951	1359
439.024	1133
439.096	170
439.169	788
439.241	652
439.314	695
439.386	897
439.459	1251
439.531	1073
439.604	1356
439.676	1290
439.749	-406
439.821	1207
439.893	1121
439.966	910
440.038	775
440.110	1007
440.183	1160
440.255	638
440.327	1429
440.400	2133
440.472	6816
440.544	3476
440.617	1238
440.689	2521
440.761	2108
440.833	1975
440.905	958
440.978	707
441.050	748
441.122	1686
441.194	420
441.266	1337
441.338	612
441.411	825
441.483	2714
441.555	2628
441.627	2373
441.699	1168
441.771	613
441.843	1513
441.915	1117
441.987	1741
442.059	997
442.131	2721
442.203	2824
442.275	4677
442.347	8581
442.419	20591
442.491	84960
442.563	159597
442.635	61510
442.706	14808
442.778	7016
442.850	5051
442.922	4017
442.994	4041
443.066	3936
443.137	6310
443.209	7843
443.281	13262
443.353	29152
443.425	96324
443.496	240792
443.568	242488
443.640	99139
443.711	24756
443.783	10784
443.855	6592
443.926	4593
443.998	4171
444.070	3772
444.141	3332
444.213	3280
444.285	2562
444.356	2086
444.428	2747
444.499	2318
444.571	2299
444.642	2176
444.714	2653
444.785	3205
444.857	2820
444.928	4439
445.000	5459
445.071	6939
445.143	8268
445.214	12196
445.285	21942
445.357	57225
445.428	171831
445.500	271486
445.571	225089
445.642	146911
445.714	50031
445.785	18192
445.856	8170
445.928	4993
445.999	4067
446.070	3559
446.141	2801
446.213	2804
446.284	2071
446.355	1721
446.426	1940
446.497	1625
446.569	1298
446.640	1620
446.711	1179
446.782	470
446.853	929
446.924	902
446.995	477
447.066	279
447.138	1020
447.209	807
447.280	-501
447.351	418
447.422	-87
447.493	673
447.564	603
447.635	348
447.706	-294
447.777	454
447.847	216
447.918	-75
447.989	1106
448.060	939
448.131	1079
448.202	467
448.273	842
448.344	895
448.414	329
448.485	476
448.556	305
448.627	-135
448.698	1138
448.768	-227
448.839	238
448.910	-75
448.981	180
449.051	111
449.122	57
449.193	666
449.263	289
449.334	-312
449.405	522
449.475	1182
449.546	694
449.616	1254
449.687	1668
449.758	910
449.828	75
449.899	-237
449.969	-352
450.040	221
450.110	326
450.181	693
450.251	112
450.322	379
450.392	-41
450.463	48
450.533	1221
450.604	350
450.674	28
450.744	703
450.815	1126
450.885	2092
450.955	1282
451.026	1014
451.096	850
451.166	-287
451.237	1544
451.307	3313
451.377	1947
451.447	518
451.518	248
451.588	551
451.658	581
451.728	704
451.799	1947
451.869	1406
451.939	-150
452.009	177
452.079	812
452.149	554
452.219	832
452.289	1665
452.360	1240
452.430	1229
452.500	1741
452.570	4269
452.640	11800
452.710	26824
452.780	27414
452.850	12370
452.920	4882
452.990	2853
453.060	2103
453.129	845
453.199	1123
453.269	3179
453.339	4581
453.409	5998
453.479	7236
453.549	8955
453.619	9242
453.688	2667
453.758	567
453.828	106
453.898	-74
453.968	696
454.037	1488
454.087	805
454.107	521
454.168	-82
454.177	-179
454.247	-432
454.249	-419
454.316	-542
454.330	-447
454.386	-98
454.411	263
454.456	786
454.492	1053
454.525	1277
454.574	792
454.595	583
454.655	-388
454.665	-555
454.734	469
454.736	483
454.804	236
454.817	485
454.873	1404
454.898	1462
454.943	1516
454.979	705
455.013	-58
455.060	-87
455.082	-66
455.141	546
455.152	635
455.221	1537
455.222	1576
455.291	3025
455.303	2998
455.360	2720
455.384	3823
455.430	5313
455.465	4001
455.499	2780
455.546	1939
455.569	1554
455.627	926
455.638	832
455.707	759
455.708	770
455.777	256
455.789	309
455.846	552
455.869	447
455.916	157
455.950	383
455.985	660
456.031	387
456.054	211
456.112	529
456.124	574
456.193	467
456.193	454
456.262	679
456.274	791
456.332	1305
456.355	1116
456.401	580
456.436	311
456.470	113
456.516	645
456.540	830
456.597	786
456.609	806
456.678	1460
456.678	1448
456.747	1339
456.759	1182
456.817	500
456.840	742
456.886	1061
456.920	979
456.955	1025
457.001	1583
457.024	1738
457.082	1611
457.093	1643
457.162	2135
457.163	2150
457.232	1652
457.243	1719
457.301	2253
457.324	1956
457.370	1194
457.405	2001
457.439	2968
457.485	2677
457.508	2550
457.566	3140
457.577	3323
457.646	4892
457.647	4921
457.715	10725
457.727	12453
457.784	23663
457.808	33178
457.853	46169
457.889	52430
457.922	51267
457.969	30655
457.991	28384
458.050	36887
458.060	38481
458.129	71067
458.130	71910
458.198	77918
458.211	69623
458.267	33019
458.292	22284
458.336	13559
458.372	12697
458.405	17622
458.453	27359
458.474	35083
458.533	66425
458.543	69196
458.611	117981
458.614	118179
458.680	70712
458.694	56178
458.749	22794
458.775	15670
458.818	8736
458.855	6494
458.887	5366
458.936	4499
458.955	4026
459.016	3149
459.024	3146
459.093	3255
459.097	3270
459.162	2952
459.177	2860
459.230	2785
459.257	2829
459.299	2734
459.338	2722
459.368	2730
459.418	2651
459.437	2543
459.499	2318
459.505	2359
459.574	2772
459.579	2807
459.643	2541
459.659	2384
459.711	2326
459.740	2493
459.780	2188
459.820	2060
459.849	2339
459.900	2202
459.917	1984
459.981	2130
459.986	2170
460.054	1950
460.061	2008
460.123	2611
460.141	2676
460.191	2778
460.222	2908
460.260	2885
460.302	2581
460.328	2422
460.382	2592
460.397	2655
460.462	3086
460.465	3102
460.534	3018
460.543	3012
460.602	6015
460.623	7342
460.671	10316
460.703	13358
460.739	13245
460.783	10864
460.808	9071
460.864	3477
460.876	3059
460.944	2492
460.945	2479
461.013	2668
461.024	2555
461.081	2341
461.104	2509
461.150	2742
461.184	2571
461.218	2331
461.264	2544
461.286	2718
461.345	2583
461.355	2491
461.423	2366
461.425	2360
461.491	3042
461.505	3176
461.559	3302
461.585	3287
461.628	3745
461.665	4294
461.696	4326
461.745	4957
461.764	4799
461.825	3183
461.832	3173
461.901	3194
461.905	3192
461.969	2010
461.985	1875
462.037	2983
462.065	3422
462.105	3197
462.145	3029
462.173	3219
462.225	3295
462.241	3292
462.305	3931
462.310	3933
462.378	3441
462.385	3437
462.446	3478
462.465	3311
462.514	3400
462.545	3529
462.582	3088
462.625	2695
462.650	2894
462.705	3161
462.718	3075
462.785	3011
462.786	3017
462.854	2778
462.865	2792
462.922	3149
462.945	3250
462.990	3111
463.025	3000
463.058	3067
463.104	3301
463.126	3287
463.184	2941
463.194	2951
463.262	3023
463.264	3031
463.330	3065
463.344	2985
463.398	3226
463.424	3473
463.466	3018
463.504	2556
463.533	2822
463.583	3275
463.601	3278
463.663	3316
463.669	3310
463.737	2994
463.743	2990
463.805	3938
463.823	4152
463.873	5046
463.903	5694
463.940	5958
463.982	5957
464.008	5181
464.062	3952
464.076	3840
464.142	2972
464.144	2994
464.211	3693
464.221	3808
464.279	3368
464.301	3150
464.347	3369
464.381	3462
464.414	3362
464.461	3487
464.482	3712
464.540	4156
464.550	4045
464.617	3183
464.620	3154
464.685	3976
464.699	4087
464.753	3751
464.779	3655
464.820	4151
464.859	4630
464.888	4443
464.938	4023
464.956	4299
465.018	5238
465.023	5202
465.091	4755
465.098	4676
465.158	4161
465.177	4051
465.226	4103
465.257	4125
465.293	4316
465.336	4476
465.361	4355
465.416	4095
465.428	4275
465.495	5132
465.496	5146
465.563	5963
465.575	6095
465.631	6472
465.654	6686
465.698	6023
465.734	5262
465.765	4987
465.813	4539
465.833	4442
465.893	4313
465.900	4346
465.968	4469
465.972	4468
466.035	3487
466.052	3245
466.102	3779
466.131	3991
466.170	3612
466.210	3265
466.237	3845
466.290	5018
466.304	4952
466.369	4443
466.372	4460
466.439	4827
466.449	4859
466.506	4718
466.528	4674
466.573	5168
466.607	5460
466.641	6138
466.687	7131
466.708	7745
466.766	9394
466.775	8932
466.842	5301
466.845	5119
466.909	4837
466.925	4771
466.977	4985
467.004	5098
467.044	5265
467.083	5394
467.111	5410
467.163	5428
467.178	5557
467.242	6042
467.245	6080
467.312	6648
467.321	6711
467.379	6427
467.400	6306
467.446	6070
467.480	5881
467.559	6601
467.638	5688
467.717	5702
467.796	6395
467.875	6306
467.955	6141
468.034	7558
468.113	11607
468.192	14786
468.271	11649
468.350	15682
468.429	21325
468.508	21665
468.588	14045
468.667	9144
468.746	8135
468.825	5848
468.904	5755
468.983	6404
469.062	6526
469.141	6900
469.220	5625
469.299	6763
469.378	5143
469.456	7014
469.535	6476
469.614	6277
469.693	5991
469.772	7016
469.851	6829
469.930	7382
470.009	6987
470.088	7056
470.166	10685
470.245	18213
470.324	22627
470.403	15866
470.482	9194
470.560	7596
470.639	6621
470.718	6974
470.797	6214
470.875	6286
470.954	5813
471.033	6544
471.111	4799
471.190	5966
471.269	5285
471.347	4987
471.426	4829
471.505	6211
471.583	5164
471.662	5658
471.740	6397
471.819	4846
471.898	5217
471.976	6715
472.055	4801
472.133	5496
472.212	6309
472.290	6034
472.369	5423
472.447	5335
472.526	4558
472.604	6024
472.683	5017
472.761	3969
472.839	5345
472.918	5812
472.996	5769
473.075	6481
473.153	5175
473.231	5825
473.310	5179
473.388	6362
473.466	4756
473.545	5717
473.623	5701
473.701	6303
473.780	6583
473.858	4322
473.936	7052
474.014	5282
474.093	5569
474.171	6763
474.249	7298
474.327	6488
474.405	4978
474.484	5806
474.562	5147
474.640	5550
474.718	5744
474.796	5273
474.874	5373
474.952	4871
475.030	4524
475.108	4708
475.187	4945
475.265	5571
475.343	6725
475.421	6322
475.499	4886
475.577	6270
475.655	5563
475.733	6714
475.811	8627
475.889	7852
475.966	7432
476.044	5542
476.122	5675
476.200	5735
476.278	4627
476.356	5475
476.434	5022
476.512	4709
476.590	5201
476.667	5998
476.745	5193
476.823	5896
476.901	5314
476.979	5382
477.056	5405
477.134	5012
477.212	5925
477.290	6242
477.367	5437
477.445	5657
477.523	4585
477.601	4860
477.678	4376
477.756	5746
477.834	4943
477.911	5780
477.989	4741
478.066	5115
478.144	4905
478.222	6005
478.299	5132
478.377	5573
478.454	5116
478.532	4882
478.609	4500
478.687	5468
478.764	4701
478.842	5167
478.919	4837
478.997	5308
479.074	4239
479.152	5263
479.229	5355
479.307	5604
479.384	4297
479.461	4876
479.539	5073
479.616	4491
479.694	3935
479.771	4491
479.848	4789
479.926	4309
480.003	6451
480.080	5753
480.157	4985
480.235	5185
480.312	4835
480.389	4831
480.467	5375
480.544	7238
480.621	5517
480.698	6020
480.775	6074
480.853	5495
480.930	5203
481.007	5298
481.084	4610
481.161	5150
481.238	5521
481.315	4781
481.392	5155
481.470	5941
481.547	4886
481.624	4767
481.701	5240
481.778	4749
481.855	5538
481.932	7113
482.009	8276
482.086	7899
482.163	7082
482.240	9068
482.317	8746
482.393	7840
482.470	6866
482.547	6779
482.624	6475
482.701	6485
482.778	6059
482.855	6266
482.932	6245
483.009	6372
483.085	7643
483.162	8869
483.239	9135
483.316	7971
483.393	8193
483.469	8384
483.546	7169
483.623	7328
483.699	6223
483.776	5774
483.853	6053
483.930	6935
484.006	8425
484.083	12891
484.160	10630
484.236	14354
484.313	11827
484.389	9770
484.466	10952
484.543	11468
484.619	14400
484.696	17966
484.772	11523
484.849	10517
484.925	8509
485.002	9359
485.078	8636
485.155	8572
485.231	7416
485.308	7516
485.384	8069
485.461	8946
485.537	9021
485.614	11383
485.690	7659
485.766	7943
485.843	7119
485.919	8180
485.995	7150
486.072	7785
486.148	7224
486.224	7540
486.301	7012
486.377	7707
486.453	6977
486.530	8640
486.606	10657
486.682	9769
486.758	10435
486.835	11548
486.911	8905
486.987	13381
487.063	11733
487.139	10917
487.215	11353
487.292	13421
487.368	13969
487.444	17469
487.520	22898
487.596	31726
487.672	68511
487.748	226795
487.824	360852
487.900	135459
487.976	34359
488.052	18596
488.128	14733
488.204	10689
488.280	10996
488.356	10283
488.432	12113
488.508	13962
488.584	9270
488.660	7495
488.736	6819
488.812	7277
488.888	8126
488.964	8327
489.039	8540
489.115	10255
489.191	8417
489.267	7900
489.343	7232
489.418	7158
489.494	7086
489.570	6031
489.646	8190
489.722	7095
489.797	7322
489.873	8611
489.949	11452
490.024	10439
490.100	6566
490.176	7147
490.251	6829
490.327	7143
490.403	7203
490.478	6652
490.554	6991
490.629	7101
490.705	6511
490.781	7596
490.856	6432
490.932	7099
491.007	6813
491.083	6480
491.158	6094
491.234	7296
491.309	9632
491.385	9868
491.460	6391
491.536	7676
491.611	6187
491.686	6400
491.762	6599
491.837	7088
491.913	8382
491.988	10136
492.063	9346
492.139	8516
492.214	7612
492.289	7207
492.365	5179
492.440	6802
492.515	5851
492.590	6183
492.666	5773
492.741	6851
492.816	7425
492.891	6014
492.967	5814
493.042	5921
493.117	5893
493.192	6883
493.267	9099
493.342	16126
493.418	22133
493.493	8322
493.568	5722
493.643	5878
493.718	6280
493.793	6739
493.868	6728
493.943	7316
494.018	6785
494.093	5345
494.168	6276
494.243	5703
494.318	5909
494.393	6861
494.468	5698
494.543	5890
494.618	6647
494.693	6671
494.768	6477
494.842	7240
494.917	6710
494.992	7256
495.067	5618
495.142	5820
495.217	6538
495.292	6170
495.366	6564
495.441	6418
495.516	7402
495.591	6637
495.665	8856
495.740	14502
495.815	9732
495.890	6705
495.964	5488
496.039	8204
496.114	7029
496.188	7960
496.263	7162
496.338	6590
496.412	6769
496.487	8256
496.561	6991
496.636	6940
496.710	6642
496.785	7659
496.860	7688
496.934	7183
497.009	7544
497.083	6939
497.158	7086
497.232	8392
497.307	8928
497.381	9077
497.455	9625
497.530	8580
497.604	6546
497.679	7615
497.753	8588
497.827	8237
497.902	7324
497.976	9908
498.050	16013
498.125	54489
498.199	55521
498.273	11186
498.348	9428
498.422	10315
498.496	10368
498.570	11152
498.645	7871
498.719	5200
498.793	7023
498.867	8447
498.941	8857
499.016	22378
499.090	57067
499.164	25107
499.238	7853
499.312	7495
499.386	7888
499.460	9784
499.534	10239
499.609	13563
499.683	11018
499.757	7730
499.831	10793
499.905	35838
499.979	35655
500.053	8283
500.127	7162
500.201	6607
500.275	7424
500.349	8493
500.422	9269
500.496	10191
500.570	13191
500.644	26332
500.718	43482
500.792	12709
500.866	6947
500.940	5685
501.013	6441
501.087	6036
501.161	5666
501.235	6292
501.309	13688
501.382	30432
501.456	27924
501.530	9081
501.603	10769
501.677	6851
501.751	3370
501.825	6537
501.898	7327
501.972	13956
502.046	10506
502.119	4020
502.193	7454
502.266	14288
502.340	8783
502.413	8053
502.487	13257
502.561	7698
502.634	6222
502.708	5046
502.781	3533
502.855	5638
502.928	3530
503.002	5843
503.075	4220
503.149	4842
503.222	4617
503.295	5020
503.369	5377
503.442	6375
503.516	12518
503.589	24287
503.662	17297
503.736	12522
503.809	18506
503.882	20675
503.956	30681
504.029	49504
504.102	129375
504.175	206536
504.249	86831
504.322	30874
504.395	15503
504.468	10613
504.542	6768
504.615	6349
504.688	6448
504.761	4443
504.834	6462
504.907	5429
504.980	4965
505.053	4469
505.127	2634
505.200	7103
505.273	4870
505.346	4351
505.419	3397
505.492	5993
505.565	3847
505.638	4461
505.711	3036
505.784	2680
505.857	3015
505.930	5822
506.003	2685
506.076	6147
506.149	3640
506.221	2437
506.294	5539
506.367	5706
506.440	16113
506.513	10682
506.586	4108
506.659	3398
506.731	3389
506.804	3547
506.877	3365
506.950	4634
507.022	3590
507.095	2234
507.168	4474
507.241	3919
507.313	3009
507.386	2976
507.459	4214
507.531	3787
507.604	2531
507.677	4503
507.749	1700
507.822	5263
507.894	4092
507.967	7223
508.040	4306
508.112	4972
508.185	4370
508.257	3060
508.330	5691
508.402	4236
508.475	4249
508.547	5192
508.620	4105
508.692	5146
508.765	4792
508.837	3670
508.909	4337
508.982	3509
509.054	4539
509.127	3583
509.199	3981
509.271	3174
509.344	2817
509.416	3817
509.488	4303
509.560	4818
509.633	4085
509.705	4269
509.777	4745
509.849	5543
509.922	2921
509.994	3877
510.066	5627
510.138	3900
510.210	7689
510.283	4766
510.355	4892
510.427	4636
510.499	5193
510.571	6090
510.643	3267
510.715	6313
510.787	2518
510.859	6828
510.931	4278
511.003	4683
511.076	6635
511.148	4250
511.219	4358
511.291	6543
511.363	6305
511.435	5463
511.507	4068
511.579	5589
511.651	5180
511.723	4262
511.795	3488
511.867	3724
511.939	4858
512.010	5390
512.082	5661
512.154	3573
512.226	4681
512.298	6561
512.369	5928
512.441	5374
512.513	5041
512.585	3398
512.656	5633
512.728	4599
512.800	4205
512.871	5505
512.943	5171
513.015	3446
513.086	4751
513.158	5411
513.230	3709
513.301	5207
513.373	6195
513.444	3973
513.516	4934
513.588	4263
513.659	4731
513.731	4510
513.802	3225
513.874	7017
513.945	5413
514.016	4152
514.088	4242
514.159	4003
514.231	5795
514.302	5281
514.374	5781
514.445	4449
514.516	8264
514.588	5348
514.659	4778
514.730	5701
514.802	6805
514.873	2751
514.944	7090
515.016	6183
515.087	4861
515.158	5297
515.229	7830
515.301	4235
515.372	6078
515.443	4163
515.514	5127
515.585	4360
515.656	4951
515.728	5947
515.799	4233
515.870	6736
515.941	6528
516.012	4837
516.083	8123
516.154	7786
516.225	9645
516.296	12558
516.367	12009
516.438	14674
516.509	19227
516.580	29213
516.651	101366
516.722	360562
516.793	172511
516.864	30625
516.935	26427
517.006	31106
517.077	39866
517.148	83445
517.219	387932
517.289	639015
517.360	132525
517.431	33072
517.502	15541
517.573	14441
517.643	11743
517.714	12275
517.785	14416
517.856	15184
517.926	21729
517.997	26298
518.068	32943
518.138	47365
518.209	70014
518.280	252982
518.350	852966
518.421	407754
518.492	74185
518.562	40336
518.633	39215
518.703	46035
518.774	97716
518.845	255852
518.915	265338
518.986	80731
519.056	32184
519.127	21613
519.197	17411
519.268	23505
519.338	19023
519.408	8296
519.479	8830
519.549	7147
519.620	8663
519.690	5939
519.760	6242
519.831	6654
519.901	5575
519.971	6377
520.042	5129
520.112	6167
520.182	5645
520.253	5827
520.323	4850
520.393	5008
520.463	7871
520.534	3622
520.604	8928
520.674	6822
520.744	5060
520.814	7438
520.885	8244
520.955	8686
521.025	21065
521.095	11423
521.165	6575
521.235	4972
521.305	3679
521.375	5548
521.445	5184
521.515	3698
521.585	5407
521.655	3987
521.725	5160
521.795	6249
521.865	1885
521.935	8244
522.005	4018
522.075	3561
522.145	5682
522.215	4596
522.285	5102
522.355	5043
522.424	8596
522.494	6323
522.564	4599
522.634	5198
522.704	9497
522.774	4760
522.843	5046
522.913	4124
522.983	5062
523.053	4080
523.122	5171
523.192	4670
523.262	4806
523.331	5823
523.401	5414
523.471	4761
523.540	5133
523.610	3653
523.680	5152
523.749	5253
523.819	5255
523.888	4302
523.958	4616
524.027	5192
524.097	4940
524.166	4357
524.236	3556
524.305	6790
524.375	3950
524.444	4170
524.514	7468
524.583	4781
524.653	3309
524.722	6195
524.791	2910
524.861	6363
524.930	4340
524.999	4702
525.069	5824
525.138	5222
525.207	6259
525.277	6023
525.346	6060
525.415	7737
525.484	7729
525.554	8500
525.623	10858
525.692	13230
525.761	15822
525.830	22229
525.900	27399
525.969	43861
526.038	80282
526.107	157954
526.176	483251
526.245	419846
526.314	119191
526.383	229269
526.452	337545
526.522	439665
526.591	453011
526.660	84425
526.729	43579
526.797	46000
526.867	57772
526.935	166415
527.004	641546
527.073	468249
527.142	69963
527.211	26538
527.280	17356
527.349	12312
527.418	8255
527.487	9268
527.555	7061
527.624	6430
527.693	5008
527.762	7731
527.831	5331
527.899	7175
527.968	5327
528.037	3817
528.106	5902
528.174	5891
528.243	6084
528.312	5180
528.380	5873
528.449	4269
528.518	6482
528.586	4134
528.655	5138
528.723	5401
528.792	4285
528.861	3732
528.929	4697
528.998	5671
529.066	4575
529.135	7290
529.203	6398
529.272	7547
529.340	11131
529.409	11218
529.477	8022
529.545	7225
529.614	11367
529.682	8821
529.751	10765
529.819	13311
529.887	11772
529.956	11314
530.024	11332
530.092	10048
530.161	11909
530.229	11252
530.297	10739
530.365	12481
530.434	11740
530.502	11731
530.570	11893
530.638	9184
530.707	10013
530.775	11143
530.843	9577
530.911	10667
530.979	11365
531.047	12231
531.115	13131
531.183	9982
531.252	11106
531.320	9965
531.388	9191
531.456	11706
531.524	10713
531.592	12183
531.660	14937
531.728	12031
531.796	11079
531.864	12757
531.932	10852
532.000	12229
532.067	12112
532.135	14031
532.203	14522
532.271	14401
532.339	16261
532.407	16489
532.475	14350
532.542	14545
532.610	14248
532.678	12306
532.746	18311
532.814	23749
532.881	18155
532.949	14361
533.017	13432
533.084	13331
533.152	12303
533.220	12695
533.287	12036
533.355	13793
533.423	14263
533.490	13851
533.558	13881
533.625	13284
533.693	12573
533.761	13628
533.828	13000
533.896	12232
533.963	15803
534.031	16315
534.098	16925
534.166	17645
534.233	16502
534.300	19576
534.368	18763
534.435	17321
534.503	17903
534.570	19789
534.637	21914
534.705	24860
534.772	29299
534.840	47485
534.907	202664
534.974	292400
535.041	46454
535.109	20448
535.176	15824
535.243	16592
535.310	15200
535.378	14350
535.445	15039
535.512	14678
535.579	14483
535.646	13169
535.714	13901
535.781	16658
535.848	15196
535.915	15392
535.982	15123
536.049	15611
536.116	16203
536.183	14426
536.250	12938
536.317	12820
536.384	14332
536.451	14400
536.518	15287
536.585	12887
536.652	15976
536.719	15109
536.786	12598
536.853	12813
536.920	14403
536.987	14057
537.053	13235
537.120	17695
537.187	17835
537.254	15006
537.321	14239
537.388	16234
537.454	13731
537.521	13776
537.588	12929
537.654	14362
537.721	13851
537.788	16250
537.855	14298
537.921	14515
537.988	13405
538.055	14470
538.121	12140
538.188	12959
538.254	12549
538.321	12922
538.388	12416
538.454	15436
538.521	15274
538.587	15047
538.654	13844
538.720	13276
538.787	14640
538.853	15022
538.920	13839
538.986	13086
539.053	12987
539.119	13488
539.185	12135
539.252	15446
539.318	13522
539.385	16821
539.451	13859
539.517	14951
539.583	15097
539.650	13741
539.716	15701
539.782	14773
539.849	12899
539.915	14032
539.981	12774
540.047	12964
540.114	12096
540.180	15185
540.246	14477
540.312	14425
540.378	14267
540.444	16115
540.510	15663
540.576	17080
540.643	13911
540.709	12502
540.775	12822
540.841	13565
540.907	13775
540.973	15626
541.039	13274
541.105	14053
541.171	14534
541.237	15029
541.303	14708
541.369	16378
541.435	14801
541.500	14720
541.566	11382
541.632	13226
541.698	12109
541.764	15686
541.830	13336
541.896	13449
541.961	14330
542.027	13092
542.093	13944
542.159	14848
542.224	13424
542.290	15899
542.356	13683
542.421	14687
542.487	13603
542.553	13013
542.618	13012
542.684	13204
542.750	13395
542.815	14455
542.881	13390
542.947	16751
543.012	16564
543.078	13686
543.143	12239
543.209	13819
543.274	12438
543.340	14133
543.405	15180
543.471	14329
543.536	14617
543.602	14949
543.667	13114
543.732	15094
543.798	13791
543.863	15788
543.928	14026
543.994	12875
544.059	14257
544.124	15446
544.190	15282
544.255	15816
544.320	15040
544.386	14415
544.451	16069
544.516	15401
544.581	14288
544.646	16476
544.712	19382
544.777	18123
544.842	17497
544.907	15528
544.972	15908
545.037	16940
545.102	16989
545.168	18218
545.233	18288
545.298	19259
545.363	17496
545.428	18767
545.493	19607
545.558	19387
545.623	19753
545.688	19094
545.753	18976
545.818	19766
545.883	22469
545.947	22010
546.012	22893
546.077	23288
546.142	25319
546.207	24982
546.272	27415
546.337	27315
546.401	28417
546.466	29024
546.531	30319
546.596	33353
546.661	34846
546.725	37809
546.790	37164
546.855	42196
546.919	43212
546.984	50896
547.049	54144
547.113	60864
547.178	67037
547.243	77356
547.307	89621
547.372	100297
547.436	100055
547.501	103794
547.565	114459
547.630	103704
547.695	99419
547.759	100117
547.823	101811
547.888	103036
547.952	105304
548.017	109633
548.081	111778
548.146	109901
548.210	113763
548.274	124281
548.339	122745
548.403	110865
548.468	105156
548.532	102879
548.596	105963
548.660	105895
548.725	115831
548.789	123551
548.853	122513
548.917	116884
548.982	115152
549.046	104002
549.110	92509
549.174	95279
549.238	109185
549.303	121818
549.367	125715
549.431	120655
549.495	111226
549.559	112360
549.623	127868
549.687	142616
549.751	136970
549.815	162571
549.879	168611
549.943	160099
550.007	166516
550.071	167092
550.135	151606
550.199	141965
550.263	140230
550.327	133548
550.391	133119
550.455	148286
550.519	157413
550.582	166248
550.646	188021
550.710	191250
550.774	188576
550.838	191789
550.901	196402
550.965	205788
551.029	213483
551.093	226335
551.156	244936
551.220	271788
551.284	298613
551.347	242512
551.411	210463
551.475	200644
551.538	204069
551.602	193882
551.666	182238
551.729	172359
551.793	168988
551.856	165271
551.920	161757
551.983	162100
552.047	158815
552.110	160704
552.174	160920
552.237	165863
552.301	156202
552.364	148893
552.428	145456
552.491	148388
552.554	151828
552.618	151998
552.681	157140
552.745	152007
552.808	170727
552.871	194068
552.934	172457
552.998	156738
553.061	150748
553.124	145633
553.187	142290
553.251	147058
553.314	146888
553.377	148501
553.440	157938
553.503	166318
553.567	176016
553.630	159409
553.693	160712
553.756	158194
553.819	155925
553.882	148255
553.945	148749
554.008	150993
554.071	152236
554.134	155142
554.197	145141
554.260	141491
554.323	142744
554.386	144810
554.449	149860
554.512	151919
554.575	145620
554.638	144485
554.701	142211
554.764	143312
554.827	136930
554.889	132739
554.952	123893
555.015	120298
555.078	124000
555.141	126631
555.203	123302
555.266	122050
555.329	121367
555.391	117701
555.454	115357
555.517	111038
555.580	108716
555.642	104266
555.705	102508
555.768	101820
555.830	99993
555.893	93594
555.955	91554
556.018	88966
556.080	89454
556.143	93165
556.206	91553
556.268	89047
556.330	87135
556.393	83801
556.455	83093
556.518	82151
556.580	78460
556.643	76721
556.705	74370
556.767	72694
556.830	72169
556.892	71404
556.955	69131
557.017	66570
557.079	66546
557.142	65549
557.204	64511
557.266	64257
557.328	60202
557.391	55888
557.453	54822
557.515	55076
557.577	55653
557.639	56742
557.701	56592
557.764	56989
557.826	57026
557.888	59327
557.950	61053
558.012	65445
558.074	77259
558.136	150477
558.198	369786
558.260	156633
558.322	63893
558.384	62824
558.446	64696
558.508	70403
558.570	76793
558.632	87482
558.694	103831
558.756	158986
558.818	416053
558.880	898173
558.942	412383
559.003	394451
559.065	216082
559.127	83905
559.189	76522
559.251	81382
559.312	104124
559.374	229118
559.436	680182
559.498	390917
559.559	100541
559.621	77453
559.683	82188
559.744	119965
559.806	362647
559.868	559363
559.929	147915
559.991	84021
560.052	121088
560.114	342626
560.176	237651
560.237	195247
560.299	333237
560.360	87045
560.422	36167
560.483	30935
560.545	27825
560.606	26959
560.667	25097
560.729	24191
560.790	23948
560.852	23858
560.913	22583
560.974	21130
561.036	21955
561.097	22691
561.158	21954
561.220	21206
561.281	20006
561.342	20137
561.403	20291
561.465	20690
561.526	20070
561.587	21938
561.648	18061
561.709	18791
561.771	17914
561.832	17919
561.893	16414
561.954	16915
562.015	17040
562.076	16615
562.137	16405
562.198	16182
562.259	16212
562.320	17587
562.381	18091
562.442	17255
562.503	16338
562.564	16332
562.625	15561
562.686	15836
562.747	15083
562.808	15215
562.869	15791
562.930	15982
562.991	14585
563.051	14582
563.112	14508
563.173	13939
563.234	14433
563.294	14544
563.355	14579
563.416	14156
563.477	13352
563.537	12983
563.598	13945
563.659	13355
563.720	13625
563.780	13154
563.841	13579
563.901	13694
563.962	14172
564.023	13631
564.083	12651
564.144	13107
564.204	12589
564.265	13716
564.325	13028
564.386	13960
564.446	13584
564.507	12007
564.567	13187
564.628	12529
564.688	12540
564.749	12588
564.809	13314
564.869	13049
564.930	12189
564.990	13330
565.050	11838
565.111	12036
565.171	12598
565.231	12794
565.292	13472
565.352	11475
565.412	13003
565.472	12774
565.532	12252
565.593	12418
565.653	10999
565.713	12434
565.773	12356
565.833	12396
565.893	13729
565.953	12358
566.013	12087
566.074	11914
566.134	11565
566.194	11846
566.254	12821
566.314	12143
566.374	11611
566.434	11064
566.494	12204
566.554	11207
566.614	11762
566.673	13390
566.733	12847
566.793	12611
566.853	11997
566.913	11496
566.973	12285
567.033	12113
567.092	12836
567.152	11372
567.212	12499
567.272	11937
567.331	12581
567.391	12372
567.451	14139
567.511	13944
567.570	13989
567.630	12787
567.690	12135
567.749	11986
567.809	11959
567.868	12931
567.928	11946
567.988	12239
568.047	11798
568.107	12212
568.166	11889
568.226	13724
568.285	14322
568.345	13147
568.404	13258
568.464	13368
568.523	12124
568.582	13554
568.642	12341
568.701	12640
568.761	12158
568.820	13246
568.879	13483
568.939	12791
568.998	13047
569.057	11900
569.116	12680
569.176	12431
569.235	11988
569.294	12319
569.353	10937
569.413	12131
569.472	10902
569.531	10781
569.590	10938
569.649	10619
569.708	10382
569.767	12509
569.827	11637
569.886	11671
569.945	11221
570.004	11295
570.063	11332
570.122	12050
570.181	11383
570.240	11984
570.299	11757
570.358	12234
570.417	11049
570.475	12551
570.534	12604
570.593	12820
570.652	12444
570.711	12748
570.770	12037
570.829	12969
570.887	12377
570.946	13328
571.005	12217
571.064	13060
571.122	14300
571.181	13786
571.240	12138
571.299	11547
571.357	11587
571.416	11906
571.475	11180
571.533	13087
571.592	12003
571.650	12930
571.709	12315
571.768	14693
571.826	15132
571.885	14842
571.943	11727
572.002	12039
572.060	10941
572.119	11922
572.177	11341
572.236	12772
572.294	12298
572.352	13446
572.411	13126
572.469	12580
572.528	10934
572.586	11544
572.644	10741
572.703	12109
572.761	11113
572.819	11025
572.877	10321
572.936	10531
572.994	10716
573.052	10441
573.110	10498
573.169	11114
573.227	11448
573.285	11366
573.343	11073
573.401	9722
573.459	11548
573.517	10636
573.576	11774
573.634	11204
573.692	10426
573.750	11655
573.808	10206
573.866	10273
573.924	10741
573.982	10436
574.040	9985
574.098	10495
574.155	10758
574.213	10347
574.271	9125
574.329	10741
574.387	10633
574.445	9651
574.503	9333
574.560	10059
574.618	9289
574.676	9163
574.734	10038
574.792	9454
574.849	8934
574.907	8099
574.965	8696
575.022	7998
575.080	8228
575.138	8414
575.195	7748
575.253	7537
575.311	7452
575.368	8255
575.426	6940
575.483	8861
575.541	8630
575.598	8454
575.656	8398
575.713	8781
575.771	8506
575.828	8755
575.886	7998
575.943	8351
576.001	7239
576.058	7176
576.115	7187
576.173	8930
576.230	8478
576.287	7759
576.345	8297
576.402	7997
576.459	8382
576.517	8138
576.574	7974
576.631	8098
576.688	7265
576.746	7524
576.803	7801
576.860	7267
576.917	7525
576.974	7404
577.031	7174
577.089	7330
577.146	6799
577.203	7474
577.260	7506
577.317	7045
577.374	7110
577.431	6986
577.488	6528
577.545	7229
577.602	7165
577.659	7584
577.716	8177
577.773	7832
577.830	7439
577.886	7897
577.943	7301
578.000	7465
578.057	7595
578.114	7653
578.171	9295
578.227	9782
578.284	9725
578.341	8418
578.398	8121
578.454	8455
578.511	6512
578.568	6983
578.625	7250
578.681	7323
578.738	7697
578.794	7208
578.851	7587
578.908	7529
578.964	7350
579.021	7806
579.077	6787
579.134	6909
579.190	7209
579.247	7383
579.303	7158
579.360	6575
579.416	7446
579.473	6402
579.529	6566
579.586	7826
579.642	8413
579.698	7735
579.755	8222
579.811	7853
579.867	7717
579.924	7610
579.980	6986
580.036	9041
580.093	10224
580.149	13443
580.205	14534
580.261	10796
580.317	10372
580.374	9062
580.430	9411
580.486	9225
580.542	8189
580.598	8791
580.619	8890
580.654	9068
580.692	9256
580.710	9359
580.765	7535
580.767	7480
580.823	8425
580.838	8647
580.879	9260
580.911	8992
580.935	8797
580.984	8459
580.991	8415
581.047	9215
581.057	9252
581.103	9465
581.130	9267
581.159	9063
581.203	9773
581.215	9960
581.270	9526
581.276	9398
581.326	8189
581.349	8690
581.382	9396
581.422	9132
581.438	9061
581.494	8400
581.494	8398
581.550	8128
581.567	8503
581.606	9290
581.640	8819
581.661	8541
581.713	10331
581.717	10477
581.773	9043
581.786	9036
581.829	9018
581.859	9146
581.885	9280
581.932	9721
581.940	9793
581.996	9374
582.004	9552
582.052	10483
582.077	10074
582.107	9621
582.150	10231
582.163	10406
582.219	8999
582.223	9064
582.274	9839
582.296	9451
582.330	8853
582.368	9458
582.386	9825
582.441	9675
582.441	9672
582.497	10071
582.514	9989
582.552	10095
582.587	10105
582.608	10030
582.659	10086
582.663	10094
582.719	10966
582.732	10855
582.774	10530
582.805	10463
582.830	10502
582.877	11309
582.885	11397
582.941	11177
582.950	11286
582.996	12004
583.023	12595
583.052	13408
583.095	14171
583.107	14302
583.162	14782
583.168	14812
583.218	14651
583.240	13660
583.273	12321
583.313	12588
583.328	12717
583.384	12268
583.385	12210
583.439	10365
583.458	10651
583.494	11439
583.531	10902
583.549	10603
583.603	10812
583.605	10812
583.660	10370
583.676	10673
583.715	11618
583.748	11222
583.770	11016
583.820	11922
583.825	11973
583.881	11253
583.893	11200
583.936	11188
583.965	11197
583.991	11253
584.038	11813
584.046	11896
584.101	11757
584.110	11722
584.156	11668
584.183	11512
584.211	11328
584.255	11958
584.266	12146
584.321	12099
584.328	12189
584.376	13097
584.400	13449
584.431	13819
584.472	13981
584.486	13991
584.541	14106
584.545	14134
584.596	14773
584.617	14525
584.651	14559
584.689	15124
584.706	15059
584.761	14850
584.762	14844
584.816	15998
584.834	16392
584.871	17001
584.906	17085
584.926	17157
584.978	17813
584.980	17861
585.035	19318
585.051	19579
585.090	20471
585.123	22143
585.145	23508
585.195	25304
585.200	25553
585.254	30248
585.267	31411
585.309	35451
585.340	38609
585.364	41618
585.412	47472
585.419	48658
585.473	58413
585.484	61143
585.528	80159
585.556	97306
585.583	138396
585.628	229175
585.637	264666
585.692	545106
585.700	590967
585.747	716806
585.772	643318
585.801	426823
585.845	156765
585.856	127512
585.910	64073
585.917	57591
585.965	43743
585.989	38402
586.019	34927
586.061	31011
586.074	30190
586.128	28170
586.133	27910
586.183	26374
586.205	25979
586.237	25873
586.277	25884
586.292	25810
586.346	25303
586.349	25206
586.401	24357
586.421	24392
586.455	24472
586.493	24227
586.509	24464
586.564	24302
586.565	24318
586.618	28466
586.637	29567
586.672	32293
586.709	35121
586.727	36403
586.781	40665
586.781	40710
586.835	32104
586.853	29650
586.889	26931
586.925	24826
586.944	24620
586.996	24567
586.998	24607
587.052	24367
587.068	24448
587.106	25280
587.140	25404
587.161	25464
587.212	25966
587.215	26007
587.269	25057
587.284	25067
587.323	25995
587.356	26496
587.377	26894
587.427	27734
587.431	27828
587.485	28643
587.499	28670
587.539	28989
587.571	29354
587.593	29983
587.643	31266
587.648	31397
587.702	31466
587.715	31622
587.755	32297
587.786	32348
587.810	32318
587.858	32696
587.864	32898
587.917	33588
587.930	33692
587.971	34318
588.001	34828
588.025	34805
588.073	34802
588.079	34967
588.133	35028
588.145	35167
588.187	36448
588.217	36832
588.241	37432
588.288	38951
588.295	39218
588.348	40254
588.360	40574
588.402	42090
588.431	42506
588.456	43333
588.503	45856
588.510	46514
588.564	50607
588.575	51581
588.617	55813
588.646	57900
588.671	60797
588.718	67390
588.725	69686
588.778	87771
588.789	92216
588.832	141707
588.861	179155
588.886	248467
588.932	396055
588.939	406384
588.993	463120
589.004	460413
589.047	281812
589.075	170214
589.100	133039
589.147	79954
589.154	78224
589.207	66618
589.218	64459
589.261	65182
589.290	65323
589.314	67195
589.361	72184
589.368	75377
589.421	102140
589.433	108488
589.475	182172
589.504	239466
589.528	301175
589.576	424068
589.582	410959
589.635	233261
589.647	195768
589.689	115115
589.718	66565
589.742	60704
589.790	50219
589.795	50111
589.849	48600
589.861	48183
589.902	46197
589.932	44523
589.955	43977
590.004	42427
590.009	42460
590.062	41862
590.075	41508
590.115	41283
590.146	41329
590.168	41573
590.218	41181
590.222	41354
590.275	42631
590.289	42775
590.328	43776
590.360	44283
590.381	44496
590.431	44798
590.435	44946
590.488	45016
590.503	44979
590.541	45126
590.574	44945
590.594	45629
590.645	47085
590.647	47293
590.700	49059
590.716	49453
590.753	50221
590.787	50700
590.806	51639
590.859	53801
590.859	53969
590.912	54140
590.930	54126
590.965	54272
591.001	54053
591.018	54109
591.071	53619
591.072	53455
591.124	53326
591.143	53148
591.177	54403
591.214	55365
591.230	55553
591.283	55647
591.285	55475
591.336	55429
591.356	55230
591.389	55682
591.427	55789
591.442	55923
591.495	55762
591.498	55574
591.547	56316
591.569	56467
591.600	57025
591.640	57254
591.653	57693
591.706	58854
591.711	58791
591.759	60163
591.782	60609
591.811	62666
591.853	65108
591.864	65150
591.917	64415
591.924	64068
591.969	64190
591.995	64053
592.022	64717
592.066	65207
592.075	66034
592.127	69851
592.137	70329
592.180	69678
592.208	68897
592.233	70683
592.279	73368
592.285	73575
592.338	73307
592.350	73010
592.390	73874
592.421	74132
592.443	74987
592.491	76049
592.495	76363
592.548	77294
592.562	77300
592.600	76953
592.633	76197
592.653	76973
592.704	77915
592.705	78401
592.775	80256
592.846	84053
592.916	83031
592.987	84096
593.058	83186
593.128	85360
593.199	87271
593.270	88727
593.341	90497
593.411	93319
593.482	96802
593.553	98602
593.623	99267
593.694	102751
593.764	102648
593.835	100122
593.906	102582
593.976	104239
594.047	105303
594.117	111638
594.188	115250
594.258	112691
594.329	110328
594.399	117595
594.470	120102
594.540	124170
594.611	125079
594.681	125587
594.751	125901
594.822	131775
594.892	135621
594.963	138196
595.033	142677
595.103	147611
595.174	148022
595.244	153973
595.314	158798
595.384	161103
595.455	164441
595.525	169855
595.595	176493
595.665	178118
595.736	169619
595.806	176636
595.876	179278
595.946	178985
596.016	187631
596.087	192738
596.157	191710
596.227	194393
596.297	203649
596.367	219008
596.437	229432
596.507	229341
596.577	229316
596.647	235504
596.717	247216
596.787	251358
596.857	250409
596.927	251333
596.997	253940
597.067	256849
597.137	259338
597.207	261875
597.277	264672
597.347	251503
597.417	246094
597.487	244492
597.557	252805
597.626	257694
597.696	260563
597.766	258896
597.836	244435
597.906	232700
597.975	230103
598.045	236086
598.115	244264
598.185	262814
598.254	294083
598.324	315942
598.394	321201
598.464	311653
598.533	305718
598.603	287338
598.672	279057
598.742	283659
598.812	286241
598.881	295335
598.951	293255
599.020	300202
599.090	308344
599.159	312908
599.229	299681
599.299	296959
599.368	301699
599.437	297905
599.507	275425
599.576	268551
599.646	261838
599.715	262409
599.785	258685
599.854	253664
599.924	248465
599.993	247764
600.062	256500
600.132	260585
600.201	280578
600.270	322045
600.340	336579
600.409	330030
600.478	327378
600.547	334347
600.617	302855
600.686	246437
600.755	227907
600.824	214861
600.894	211935
600.963	217324
601.032	213910
601.101	207816
601.170	197539
601.239	196878
601.308	195518
601.378	196550
601.447	197224
601.516	200271
601.585	202006
601.654	206102
601.723	208076
601.792	215339
601.861	220164
601.930	228986
601.999	232885
602.068	231594
602.137	233137
602.206	237251
602.275	239334
602.343	245706
602.412	246556
602.481	247613
602.550	250831
602.619	256403
602.688	260367
602.756	263728
602.825	263092
602.894	270291
602.963	275132
603.032	280871
603.100	279484
603.169	278012
603.238	282567
603.307	279773
603.375	285956
603.444	291646
603.513	288486
603.581	295320
603.650	299567
603.719	285230
603.787	289032
603.856	300085
603.924	304993
603.993	315327
604.061	326395
604.130	340329
604.198	348656
604.267	352603
604.335	357273
604.404	361298
604.472	370806
604.541	369955
604.609	377193
604.678	378780
604.746	382384
604.815	394407
604.883	395230
604.951	395113
605.020	402591
605.088	403200
605.156	409169
605.225	412216
605.293	410556
605.361	412274
605.429	414763
605.498	426209
605.566	433388
605.634	455722
605.702	467565
605.771	477510
605.839	481282
605.907	470990
605.975	457835
606.043	448572
606.111	446965
606.180	451002
606.248	438861
606.316	436524
606.384	443664
606.452	430033
606.520	435286
606.588	449456
606.656	452028
606.724	441727
606.792	417264
606.860	377449
606.928	345379
606.996	332847
607.064	327918
607.132	337409
607.200	357654
607.267	365966
607.335	376962
607.403	384631
607.471	367579
607.539	360356
607.607	359457
607.674	319555
607.742	318963
607.810	316331
607.878	317998
607.946	324934
608.013	340038
608.081	345400
608.149	346747
608.216	364261
608.284	369676
608.352	370313
608.419	366186
608.487	357097
608.555	350435
608.622	366212
608.690	385183
608.757	425058
608.825	430735
608.893	420759
608.960	394143
609.028	377196
609.095	379776
609.163	378560
609.230	336379
609.298	311204
609.365	328677
609.432	356471
609.500	386189
609.567	440358
609.635	499107
609.702	518695
609.769	490872
609.837	383104
609.904	337455
609.971	348121
610.039	375570
610.106	462368
610.173	765622
610.241	1431177
610.308	859215
610.375	427706
610.442	369525
610.509	349111
610.577	349575
610.644	356379
610.711	367843
610.778	376280
610.845	393045
610.912	416602
610.980	430989
611.047	432401
611.114	424432
611.181	411828
611.248	410888
611.315	431249
611.382	442298
611.449	457605
611.516	463374
611.583	453749
611.650	459087
611.717	463761
611.784	475633
611.851	486118
611.918	506378
611.984	571224
612.051	718429
612.118	1153804
612.185	2024642
612.252	1429161
612.319	696300
612.386	597829
612.452	544973
612.519	521954
612.586	511220
612.653	521443
612.719	535905
612.786	512203
612.853	478168
612.919	472847
612.986	475613
613.053	450781
613.120	423024
613.186	408957
613.253	413990
613.319	414743
613.386	416041
613.453	422603
613.519	428271
613.586	417032
613.652	423698
613.719	418176
613.785	426116
613.852	434851
613.918	426884
613.985	432950
614.051	452097
614.118	449706
614.184	429955
614.250	426925
614.317	437241
614.383	432656
614.449	440440
614.516	435845
614.582	437851
614.648	429860
614.715	428475
614.781	415789
614.847	417110
614.914	417153
614.980	403442
615.046	408529
615.112	420343
615.179	419685
615.245	427720
615.311	417149
615.377	426002
615.443	430936
615.509	435988
615.575	448794
615.642	441603
615.708	451746
615.774	468783
615.840	491945
615.906	514663
615.972	587562
616.038	789643
616.104	1339730
616.170	2191862
616.236	1843920
616.302	911668
616.368	747396
616.434	570821
616.500	528607
616.565	580714
616.631	705979
616.697	592591
616.763	608476
616.829	856329
616.895	1388886
616.961	1264691
617.026	638294
617.092	479615
617.158	451358
617.224	438595
617.289	408984
617.355	390473
617.421	387829
617.487	384418
617.552	365413
617.618	366832
617.684	366141
617.749	365264
617.815	354318
617.880	347057
617.946	347983
618.012	351988
618.077	360524
618.143	343422
618.208	347396
618.274	371954
618.339	368519
618.405	308313
618.470	309833
618.536	305633
618.601	304325
618.667	282721
618.732	270085
618.798	267119
618.863	267922
618.928	265372
618.994	268242
619.059	266853
619.124	266679
619.190	266637
619.255	263000
619.320	262464
619.386	265607
619.451	260080
619.516	253547
619.581	258133
619.647	265850
619.712	265146
619.777	253817
619.842	255377
619.907	263127
619.972	265422
620.038	261892
620.103	256372
620.168	258322
620.233	261492
620.298	263881
620.363	268407
620.428	274175
620.493	279891
620.558	284069
620.623	288423
620.688	286641
620.753	283239
620.818	290010
620.883	287930
620.948	285911
621.013	282872
621.078	277126
621.143	281187
621.207	284986
621.272	277797
621.337	268345
621.402	265881
621.467	267263
621.532	262559
621.596	267880
621.661	257280
621.726	255847
621.791	259751
621.855	258651
621.920	257132
621.985	261688
622.049	266204
622.114	266770
622.179	271768
622.243	275365
622.308	284803
622.373	295726
622.437	287132
622.502	271644
622.566	268902
622.631	268348
622.695	274189
622.760	272756
622.824	272149
622.889	275252
622.953	272700
623.018	291367
623.082	291821
623.147	287606
623.211	281785
623.276	280905
623.340	270849
623.404	264363
623.469	264967
623.533	267546
623.597	258820
623.662	258595
623.726	241019
623.790	224930
623.854	221603
623.919	224675
623.983	228824
624.047	233028
624.111	234561
624.176	238530
624.240	240305
624.304	247619
624.368	236370
624.432	240664
624.496	243605
624.560	257698
624.625	258442
624.689	258564
624.753	270689
624.817	255780
624.881	249020
624.945	225539
625.009	218225
625.073	222358
625.137	231541
625.201	240558
625.265	241604
625.329	230728
625.393	235324
625.456	237123
625.520	241842
625.584	248814
625.648	251461
625.712	259874
625.776	261234
625.839	247627
625.903	205414
625.967	192858
626.031	209246
626.095	247017
626.158	223127
626.222	176804
626.286	168060
626.349	159612
626.413	150541
626.477	149460
626.540	150400
626.604	150293
626.668	145934
626.731	142979
626.795	146230
626.858	146307
626.922	143918
626.986	142730
627.049	143090
627.113	148900
627.176	143552
627.240	138334
627.303	140248
627.366	139278
627.430	141841
627.493	139155
627.557	135069
627.620	140758
627.684	146081
627.747	147535
627.810	132163
627.874	121046
627.937	117300
628.000	121680
628.064	116102
628.127	103559
628.190	103397
628.253	99701
628.317	96967
628.380	91686
628.443	89605
628.506	89302
628.569	87306
628.632	82124
628.696	82330
628.759	82734
628.822	78021
628.885	76605
628.948	76029
629.011	74509
629.074	71826
629.137	69428
629.200	67567
629.263	69267
629.326	66277
629.389	68299
629.452	66534
629.515	65889
629.578	65101
629.641	65503
629.704	66582
629.767	63905
629.830	63064
629.892	61833
629.955	62004
630.018	65825
630.081	62716
630.144	64298
630.207	61223
630.269	62973
630.332	60097
630.395	60500
630.458	59013
630.520	57293
630.583	57214
630.646	59271
630.708	57981
630.771	59664
630.834	63203
630.896	61178
630.959	60828
631.021	60385
631.084	58829
631.146	61668
631.209	61209
631.272	60087
631.334	61829
631.397	63241
631.459	61531
631.522	66168
631.584	68020
631.646	72637
631.709	75389
631.771	75021
631.834	72110
631.896	67736
631.958	63794
632.021	61866
632.083	58618
632.145	59392
632.208	57314
632.270	59129
632.332	55840
632.395	56786
632.457	58493
632.519	56264
632.581	56184
632.643	55446
632.706	55449
632.768	54056
632.830	57078
632.892	58939
632.954	57233
633.016	59458
633.078	57287
633.141	57365
633.203	57435
633.265	57087
633.327	56849
633.389	57346
633.451	57620
633.513	56656
633.575	60118
633.637	58385
633.698	59778
633.760	61898
633.822	64518
633.884	65578
633.946	68546
634.008	69283
634.070	72269
634.132	76638
634.193	82774
634.255	88598
634.317	89975
634.379	88162
634.441	78392
634.502	71988
634.564	67023
634.626	60860
634.687	59092
634.749	56425
634.811	56569
634.873	54193
634.934	56298
634.996	55863
635.057	55308
635.119	55938
635.181	57613
635.242	58640
635.304	56042
635.365	60479
635.427	56965
635.488	57768
635.550	56045
635.611	58035
635.673	55909
635.734	63058
635.796	63454
635.857	72083
635.918	76127
635.980	84648
636.041	89350
636.102	94700
636.164	95785
636.225	91141
636.286	77495
636.348	70012
636.409	62661
636.470	58358
636.531	58780
636.593	54348
636.654	53894
636.715	51254
636.776	51513
636.838	48568
636.899	49478
636.960	47812
637.021	47503
637.082	46569
637.143	46305
637.204	44488
637.265	46441
637.326	47102
637.387	47355
637.448	47011
637.509	46483
637.570	45731
637.631	46345
637.692	43893
637.753	42350
637.814	44405
637.875	42126
637.936	43001
637.997	42096
638.058	42142
638.119	43083
638.179	43586
638.240	42230
638.301	43401
638.362	40537
638.423	41515
638.483	40779
638.544	39429
638.605	40420
638.666	39529
638.726	40587
638.787	39098
638.848	39423
638.908	40054
638.969	37850
639.030	37392
639.090	36871
639.151	36928
639.211	38605
639.272	39573
639.332	38511
639.393	41088
639.453	43498
639.514	44928
639.574	38842
639.635	35886
639.695	37855
639.756	35189
639.816	35148
639.877	33898
639.937	35727
639.997	37236
640.058	34460
640.118	34730
640.178	36168
640.239	34175
640.299	35026
640.359	36385
640.420	38945
640.480	43534
640.540	49747
640.600	49996
640.661	43417
640.721	41347
640.781	40767
640.841	34697
640.901	35634
640.961	37214
641.021	38355
641.082	40615
641.142	37200
641.202	36603
641.262	31352
641.322	34246
641.382	31902
641.442	34783
641.502	33396
641.562	35335
641.622	34718
641.682	38275
641.742	43766
641.802	39358
641.861	34584
641.921	33499
641.981	32131
642.041	31886
642.101	30647
642.161	29742
642.221	30571
642.280	31689
642.340	30744
642.400	30701
642.460	33150
642.519	32298
642.579	32353
642.639	33522
642.698	32047
642.758	37137
642.818	33390
642.877	32745
642.937	32921
642.997	33449
643.056	32969
643.116	31382
643.175	35047
643.235	33845
643.294	35575
643.354	36400
643.414	38680
643.473	44959
643.532	52581
643.592	68690
643.651	100462
643.711	165076
643.770	311677
643.830	717848
643.889	1143084
643.948	351688
644.008	99037
644.067	62740
644.126	47130
644.186	41386
644.245	38490
644.304	34151
644.363	35360
644.423	32169
644.482	33126
644.541	36300
644.600	35989
644.659	45813
644.719	56115
644.778	81626
644.837	138423
644.896	283888
644.955	572965
645.014	173341
645.073	53763
645.132	41582
645.191	38346
645.250	36679
645.309	39523
645.368	43132
645.427	57812
645.486	106245
645.545	165816
645.604	48613
645.663	34282
645.722	33277
645.781	36673
645.840	40372
645.898	49138
645.957	64345
646.016	92861
646.075	157639
646.134	298172
646.192	746493
646.251	880843
646.310	190024
646.369	72027
646.427	61647
646.486	44057
646.545	36996
646.603	34215
646.662	31174
646.721	30595
646.779	29338
646.838	32296
646.896	39665
646.955	53303
647.014	84935
647.072	166002
647.131	424076
647.189	170833
647.248	37656
647.306	29405
647.365	27771
647.423	23059
647.481	25240
647.540	22334
647.598	24410
647.657	23574
647.715	24782
647.773	21343
647.832	23359
647.890	19636
647.948	20343
648.007	19983
648.065	18871
648.123	18754
648.181	20802
648.240	19985
648.298	18821
648.356	19069
648.414	19253
648.472	18780
648.531	18974
648.589	18139
648.647	18174
648.705	17705
648.763	18323
648.821	19355
648.879	19739
648.937	22838
648.995	26016
649.053	33469
649.111	47737
649.169	76474
649.227	136662
649.285	289830
649.343	709185
649.401	303397
649.459	55223
649.516	34966
649.574	27789
649.632	29913
649.690	34472
649.748	40415
649.806	61195
649.863	116472
649.921	318668
649.979	175239
650.037	29840
650.094	18989
650.152	17704
650.210	16313
650.268	15731
650.325	15222
650.383	15017
650.440	12560
650.498	14243
650.556	12913
650.613	13297
650.671	14233
650.728	14973
650.786	15135
650.843	23402
650.901	14940
650.958	14192
651.016	12274
651.073	13216
651.131	11542
651.188	11235
651.246	11762
651.303	10396
651.360	11877
651.418	11017
651.475	11399
651.532	10258
651.590	11302
651.647	11000
651.704	11057
651.762	11465
651.819	9622
651.876	10605
651.933	10162
651.990	11688
652.048	9598
652.105	10597
652.162	10125
652.219	9453
652.276	10658
652.333	10808
652.390	8634
652.448	10485
652.505	9784
652.562	9852
652.619	9314
652.676	10561
652.733	10431
652.790	9417
652.847	8461
652.904	9455
652.961	8669
653.017	8675
653.074	9138
653.131	8990
653.188	8045
653.245	8820
653.302	8275
653.359	8095
653.415	8865
653.472	7983
653.529	9139
653.586	7969
653.642	8671
653.699	9869
653.756	8182
653.813	7976
653.869	9359
653.926	9177
653.983	7553
654.039	9489
654.096	7890
654.152	9422
654.209	7218
654.266	9208
654.322	7585
654.379	8507
654.435	9084
654.492	8564
654.548	8565
654.605	8380
654.661	9591
654.717	9144
654.774	8296
654.830	7765
654.887	7278
654.943	8558
655.000	8227
655.056	8683
655.112	7956
655.168	7531
655.225	8425
655.281	8558
655.337	8517
655.394	8091
655.450	8385
655.506	8274
655.562	8767
655.618	8721
655.675	6368
655.731	7995
655.787	7192
655.843	8108
655.899	6995
655.955	8539
656.011	8890
656.067	7273
656.123	8426
656.179	8110
656.235	8811
656.291	7079
656.347	9676
656.403	7746
656.459	7924
656.515	8030
656.571	8908
656.627	8078
656.683	7497
656.739	8097
656.795	8204
656.850	7440
656.906	8432
656.962	8392
657.018	8995
657.074	10986
657.129	15492
657.185	23501
657.241	55000
657.297	26882
657.352	9713
657.408	7566
657.464	8400
657.519	5789
657.575	6194
657.630	6751
657.686	6469
657.742	6736
657.797	7416
657.853	6072
657.908	7807
657.964	6647
658.019	6062
658.075	6885
658.130	6521
658.186	5534
658.241	6757
658.297	6478
658.352	5692
658.407	6604
658.463	5702
658.518	6602
658.573	5908
658.629	6558
658.684	5452
658.739	6920
658.795	6110
658.850	6439
658.905	5924
658.960	5952
659.016	5377
659.071	6101
659.126	5565
659.181	5327
659.236	6504
659.291	7590
659.346	5794
659.401	5830
659.457	6558
659.512	5525
659.567	6008
659.622	5651
659.677	5800
659.732	4982
659.787	4580
659.842	4932
659.897	5128
659.952	6426
660.007	5464
660.061	5387
660.116	3980
660.171	5406
660.226	5124
660.281	6265
660.336	5183
660.391	6316
660.445	5343
660.500	5245
660.555	5435
660.610	5432
660.664	5964
660.719	4857
660.774	5976
660.828	6125
660.883	5125
660.938	5802
660.992	4679
661.047	6160
661.101	5506
661.156	5564
661.211	4992
661.265	5993
661.320	5598
661.374	5646
661.429	4845
661.483	6053
661.538	3949
661.592	5204
661.647	4990
661.701	5564
661.755	4219
661.810	5481
661.864	4221
661.919	5384
661.973	4404
662.027	5149
662.081	4574
662.136	5196
662.190	5254
662.244	5229
662.299	5212
662.353	5751
662.407	4278
662.461	4509
662.515	5128
662.569	4632
662.624	5578
662.678	4699
662.732	4603
662.786	5585
662.840	6007
662.894	4387
662.948	5613
663.002	5555
663.056	4573
663.110	5055
663.164	5435
663.218	5640
663.272	5462
663.326	5752
663.380	5001
663.434	5095
663.488	4594
663.542	5191
663.595	5393
663.649	5341
663.703	4749
663.757	5910
663.811	4597
663.864	4483
663.918	5285
663.972	5275
664.026	4976
664.079	4716
664.133	5982
664.187	5772
664.240	4822
664.294	5022
664.348	6442
664.401	5205
664.455	4809
664.508	5451
664.562	4939
664.615	5445
664.669	4166
664.722	4754
664.776	4790
664.829	5719
664.883	4784
664.936	4073
664.990	4648
665.043	5292
665.097	4553
665.150	6562
665.203	4455
665.257	5043
665.310	5217
665.363	5702
665.417	5410
665.470	5782
665.523	5216
665.576	5909
665.630	5539
665.683	5263
665.736	5796
665.789	5764
665.842	5043
665.895	5757
665.949	5029
666.002	5047
666.055	4958
666.108	6961
666.161	5969
666.214	5820
666.267	5872
666.320	5458
666.373	6263
666.426	6172
666.479	5499
666.532	5945
666.585	5747
666.638	6913
666.691	6210
666.744	5873
666.796	6111
666.849	6313
666.902	6255
666.955	4745
667.008	5158
667.060	5281
667.113	6037
667.166	6160
667.219	6399
667.271	7336
667.324	6452
667.377	6416
667.430	6795
667.482	5199
667.535	5279
667.587	6366
667.640	5261
667.693	5650
667.745	6093
667.798	7182
667.850	5849
667.903	6154
667.955	5482
668.008	6497
668.060	6146
668.113	6180
668.165	5525
668.218	6136
668.270	5724
668.322	5662
668.375	4974
668.427	6527
668.479	4780
668.532	6583
668.584	5423
668.636	5847
668.689	5841
668.741	5239
668.793	5608
668.845	5049
668.898	4971
668.950	5149
669.002	5465
669.054	5403
669.106	4714
669.158	5892
669.211	5412
669.263	5236
669.315	6022
669.367	6172
669.419	5034
669.471	5889
669.523	5428
669.575	6075
669.627	5488
669.679	5743
669.731	6612
669.783	5593
669.835	5880
669.886	6396
669.938	5787
669.990	6116
670.042	4646
670.094	6353
670.146	4458
670.197	6758
670.249	6329
670.301	6337
670.353	7665
670.404	8952
670.456	11084
670.508	16366
670.560	23850
670.611	37971
670.663	63574
670.715	157653
670.766	217333
670.818	57179
670.869	13365
670.921	10369
670.972	8481
671.024	7688
671.075	6332
671.127	6566
671.178	7252
671.230	7458
671.281	7974
671.333	8604
671.384	9592
671.436	13273
671.487	19345
671.538	27295
671.590	45187
671.641	74765
671.692	136966
671.744	244249
671.795	153892
671.846	53901
671.897	25480
671.949	16373
672.000	12396
672.051	10106
672.102	8746
672.153	7299
672.204	6401
672.256	7233
672.307	5082
672.358	5832
672.409	5126
672.460	5180
672.511	4702
672.562	4331
672.613	4061
672.664	3771
672.715	4678
672.766	4262
672.817	4309
672.868	4248
672.919	3787
672.970	4651
673.021	3871
673.071	3497
673.122	4135
673.173	4602
673.224	4349
673.275	4157
673.326	3483
673.376	3703
673.427	3381
673.478	3823
673.528	3877
673.579	4018
673.630	3830
673.680	5601
673.731	3319
673.782	3767
673.832	2917
673.883	3467
673.934	3334
673.984	3894
674.035	3853
674.085	4416
674.136	4195
674.186	3854
674.237	3780
674.287	3783
674.338	4188
674.388	4360
674.438	4489
674.489	4906
674.539	4984
674.589	4442
674.640	4528
674.690	3681
674.740	3777
674.791	4478
674.841	2979
674.891	4427
674.942	3496
674.992	2858
675.042	3301
675.092	3641
675.142	2520
675.193	3112
675.243	3063
675.293	3933
675.343	3480
675.393	3166
675.443	3854
675.493	3992
675.543	2900
675.593	3418
675.643	3188
675.693	3613
675.743	3318
675.793	3245
675.843	2025
675.893	3622
675.943	3000
675.993	2054
676.043	2396
676.093	3037
676.142	2684
676.192	3339
676.242	1888
676.292	3567
676.341	2430
676.391	2463
676.441	2662
676.491	2977
676.540	1945
676.590	2916
676.640	2308
676.689	2520
676.739	1866
676.789	2707
676.838	2010
676.888	1671
676.937	2158
676.987	1710
677.037	2639
677.086	2307
677.136	2710
677.185	2577
677.235	1688
677.284	2513
677.333	2681
677.383	1501
677.432	2387
677.482	2381
677.531	2011
677.580	2109
677.630	2244
677.679	2196
677.728	1815
677.778	2995
677.827	1858
677.876	2591
677.925	2144
677.975	2435
678.024	2195
678.073	2778
678.122	2464
678.171	3097
678.220	2848
678.269	3656
678.319	5195
678.368	4047
678.417	3394
678.466	3035
678.515	2878
678.564	2068
678.613	842
678.662	2010
678.711	1949
678.760	2287
678.809	2264
678.857	2635
678.906	3634
678.955	2500
679.004	2341
679.053	2137
679.102	1882
679.151	2578
679.199	1013
679.248	1612
679.297	2312
679.346	1698
679.394	1144
679.443	2497
679.492	1954
679.540	2502
679.589	2497
679.638	2414
679.686	2415
679.735	3790
679.784	3181
679.832	3965
679.881	2042
679.929	1966
679.978	2663
680.026	2174
680.075	1542
680.123	1547
680.172	1412
680.220	1551
680.268	1964
680.317	1584
680.365	928
680.414	1907
680.462	1570
680.510	2007
680.559	2010
680.607	1958
680.655	1962
680.703	2382
680.752	1773
680.800	2155
680.848	1153
680.896	2022
680.945	1926
680.993	591
681.041	1100
681.089	1994
681.137	1924
681.185	1344
681.233	1832
681.258	1738
681.281	1637
681.329	755
681.377	1802
681.380	1822
681.425	1954
681.473	2223
681.502	1822
681.521	1512
681.569	2831
681.617	1970
681.624	1993
681.665	2033
681.713	2678
681.745	2207
681.761	1962
681.809	1521
681.857	1911
681.867	1960
681.904	2066
681.952	2495
681.989	2528
682.000	2521
682.048	1739
682.096	2292
682.111	2394
682.143	2576
682.191	2010
682.233	2414
682.239	2457
682.286	1358
682.334	2020
682.354	1956
682.382	1840
682.430	2155
682.476	1795
682.477	1775
682.525	2650
682.572	1569
682.598	1846
682.620	2058
682.667	2528
682.715	2588
682.720	2608
682.763	2565
682.810	2403
682.841	2645
682.857	2794
682.905	1960
682.952	2179
682.963	2322
683.000	2693
683.047	2620
683.085	2823
683.095	2882
683.142	2399
683.190	2983
683.206	2719
683.237	2210
683.284	2410
683.328	2805
683.332	2817
683.379	3064
683.426	2775
683.449	2485
683.473	2247
683.521	2537
683.568	3540
683.571	3490
683.615	2537
683.662	2849
683.693	2820
683.709	2802
683.757	3013
683.804	2666
683.814	2580
683.851	2281
683.898	3629
683.936	2517
683.945	2224
683.992	2669
684.039	2775
684.057	2980
684.086	3248
684.133	2642
684.179	2446
684.180	2431
684.227	2974
684.274	3176
684.300	2898
684.321	2693
684.368	2509
684.415	3521
684.422	3540
684.462	3546
684.509	2824
684.543	2588
684.556	2506
684.603	3567
684.649	2356
684.665	2727
684.696	3454
684.743	4147
684.786	4285
684.790	4289
684.837	3094
684.883	3891
684.908	3679
684.930	3500
684.977	4359
685.023	3681
685.029	3706
685.070	3715
685.117	3305
685.150	3245
685.164	3227
685.210	3020
685.257	4305
685.272	4181
685.303	3947
685.350	4136
685.393	3491
685.396	3424
685.443	3863
685.490	3795
685.514	3763
685.536	3775
685.583	3893
685.629	3382
685.636	3420
685.675	3563
685.722	4210
685.757	4006
685.768	3941
685.815	3275
685.861	3579
685.878	3678
685.908	3879
685.954	3944
686.000	4025
686.000	4022
686.047	4182
686.093	4344
686.121	4263
686.139	4204
686.185	4930
686.232	3956
686.242	3951
686.278	3894
686.324	4247
686.363	4040
686.370	4009
686.416	4385
686.463	4022
686.484	3856
686.509	3660
686.555	4268
686.601	3768
686.606	3846
686.647	4597
686.693	4077
686.727	4610
686.739	4745
686.785	4851
686.831	4403
686.848	4283
686.877	4187
686.923	4306
686.969	4802
686.969	4804
687.015	4373
687.061	4726
687.090	4847
687.107	4895
687.153	5172
687.199	4889
687.211	4759
687.245	4489
687.291	4695
687.332	4988
687.336	5015
687.382	5224
687.428	4486
687.453	4515
687.474	4468
687.520	4851
687.565	4717
687.574	4679
687.611	4758
687.657	5276
687.695	5142
687.702	5093
687.748	5428
687.794	5540
687.816	5486
687.839	5397
687.885	5436
687.931	5028
687.937	4955
687.976	4652
688.022	5638
688.058	5368
688.067	5301
688.113	5094
688.158	5003
688.179	5130
688.204	5288
688.249	5138
688.295	5187
688.300	5237
688.340	5676
688.386	5710
688.421	5550
688.431	5454
688.477	5534
688.522	5461
688.542	5383
688.567	5633
688.613	5604
688.658	6299
688.663	6341
688.703	6167
688.749	6142
688.784	5956
688.794	5974
688.839	6015
688.884	6556
688.905	6598
688.930	6461
688.975	6023
689.020	5273
689.026	5277
689.065	5727
689.110	5962
689.146	6025
689.155	5983
689.201	5950
689.246	6136
689.267	5947
689.291	5849
689.336	6398
689.381	5455
689.388	5522
689.426	5891
689.471	6127
689.509	5969
689.516	5952
689.561	6479
689.606	5936
689.630	5836
689.651	5802
689.696	5762
689.741	6414
689.750	6486
689.785	6702
689.830	6661
689.871	6282
689.875	6215
689.920	6398
689.965	5691
689.992	5602
690.010	5799
690.054	5673
690.099	6204
690.112	6186
690.144	5990
690.189	6107
690.233	5900
690.233	5908
690.278	6371
690.323	6394
690.354	6559
690.367	6634
690.412	6504
690.457	6750
690.474	6908
690.501	7070
690.546	6621
690.590	6891
690.595	6855
690.635	6797
690.680	6871
690.716	6910
690.724	6992
690.769	7795
690.813	8629
690.836	8612
690.857	9230
690.902	11256
690.946	13767
690.957	14243
690.991	17813
691.035	23739
691.077	28542
691.080	28420
691.124	23107
691.168	17847
691.198	14958
691.213	14023
691.257	11960
691.301	9010
691.318	8099
691.346	7860
691.390	7445
691.434	6753
691.439	6694
691.478	6858
691.522	7384
691.559	7136
691.567	7110
691.611	7610
691.655	7507
691.680	7690
691.699	7776
691.743	7598
691.787	7749
691.800	7625
691.831	7339
691.875	7388
691.919	7375
691.921	7354
691.964	7304
692.008	7200
692.041	7584
692.052	7691
692.096	7654
692.139	7580
692.162	7529
692.183	7348
692.227	7059
692.271	6753
692.282	6697
692.315	7059
692.359	7179
692.402	7363
692.403	7378
692.447	7649
692.490	7921
692.523	7885
692.534	7793
692.578	7648
692.622	7463
692.643	7307
692.666	7339
692.709	7545
692.753	7286
692.763	7361
692.797	7662
692.840	7791
692.884	7796
692.884	7814
692.928	8131
692.971	7955
693.004	8133
693.015	8093
693.059	7765
693.102	7577
693.124	7351
693.146	7511
693.189	8062
693.233	8346
693.245	8539
693.276	8823
693.320	8306
693.363	8363
693.365	8337
693.407	8677
693.450	9561
693.485	9858
693.493	10036
693.537	11263
693.580	12365
693.605	12930
693.624	14821
693.667	19229
693.710	24187
693.725	25884
693.753	32817
693.797	44533
693.840	55890
693.845	56815
693.883	47350
693.926	37004
693.966	28009
693.970	27423
694.013	21524
694.056	15575
694.086	11309
694.099	10984
694.142	9951
694.185	8999
694.206	8678
694.229	8847
694.272	8718
694.315	8906
694.326	8834
694.358	8647
694.401	8764
694.444	8611
694.446	8590
694.487	8334
694.530	8049
694.566	7779
694.573	7842
694.616	8117
694.659	8318
694.686	8503
694.702	8525
694.745	8559
694.787	8392
694.806	8386
694.830	8473
694.873	8458
694.916	8554
694.926	8534
694.959	8654
695.002	8856
695.044	8816
695.046	8807
695.087	9080
695.130	9081
695.166	9353
695.172	9416
695.215	9234
695.258	9433
695.286	9334
695.301	9409
695.343	9659
695.386	9926
695.406	10141
695.428	10600
695.471	11190
695.514	11889
695.526	12017
695.556	12408
695.599	13203
695.641	13669
695.646	13705
695.684	13208
695.726	12645
695.766	12047
695.769	12054
695.811	11653
695.854	11569
695.886	11293
695.896	11360
695.938	11287
695.981	11657
696.005	11786
696.023	12093
696.065	12687
696.108	13478
696.125	13707
696.150	13954
696.192	14234
696.235	14609
696.245	14693
696.277	14829
696.319	14790
696.361	14929
696.365	14884
696.404	14680
696.446	14609
696.485	14457
696.488	14485
696.530	14372
696.572	14338
696.604	14226
696.614	14251
696.656	14268
696.698	14301
696.724	14214
696.740	14229
696.783	14283
696.825	14452
696.844	14377
696.867	14356
696.909	14350
696.951	14392
696.964	14373
696.992	14533
697.034	14629
697.076	14748
697.083	14756
697.118	15212
697.160	15509
697.202	16027
697.203	16000
697.244	15857
697.286	15629
697.323	15524
697.327	15574
697.369	15540
697.411	15660
697.442	15631
697.453	15733
697.494	15939
697.536	16329
697.562	16498
697.578	16438
697.620	16102
697.661	15751
697.682	15601
697.703	15932
697.744	16452
697.786	16950
697.801	17083
697.828	16983
697.869	16767
697.911	16543
697.921	16461
697.952	16604
697.994	16723
698.035	16776
698.040	16746
698.077	16556
698.118	16281
698.160	16041
698.160	16001
698.201	16606
698.243	17221
698.279	17739
698.284	17819
698.325	18143
698.367	18504
698.399	18681
698.408	18690
698.449	18586
698.491	18448
698.518	18321
698.532	18519
698.573	18966
698.614	19438
698.638	19662
698.656	19775
698.697	19922
698.738	20073
698.757	20089
698.779	19887
698.820	19422
698.862	18959
698.877	18736
698.903	19103
698.944	19632
698.985	20155
698.996	20252
699.026	20066
699.067	19737
699.116	19298
699.235	20228
699.354	19309
699.474	17417
699.593	17717
699.713	20140
699.832	18379
699.951	20092
700.070	18409
700.190	17762
700.309	17589
700.428	16535
700.547	16710
700.667	16649
700.786	16374
700.905	15960
701.024	16650
701.143	16173
701.262	17421
701.381	17223
701.500	17206
701.619	17461
701.738	16763
701.857	16929
701.976	16054
702.095	16981
702.214	16112
702.333	16951
702.452	17115
702.571	18607
702.690	17278
702.809	16067
702.928	16590
703.047	15592
703.165	15913
703.284	15534
703.403	16038
703.522	14270
703.640	14498
703.759	15943
703.878	15376
703.997	15715
704.115	15482
704.234	14716
704.353	15327
704.471	13323
704.590	13806
704.708	13996
704.827	14542
704.946	14007
705.064	13713
705.183	13973
705.301	14302
705.420	14866
705.538	14004
705.656	13080
705.775	13447
705.893	15238
706.012	14811
706.130	13219
706.249	14591
706.367	13519
706.485	12569
706.604	12647
706.722	12642
706.840	13846
706.958	12493
707.077	13065
707.195	11895
707.313	12775
707.431	11056
707.549	11983
707.668	11438
707.786	12823
707.904	10870
708.022	13323
708.140	11488
708.258	11542
708.376	12050
708.494	10894
708.612	12040
708.730	13352
708.848	11710
708.966	12352
709.084	11483
709.202	11674
709.320	10460
709.438	11623
709.556	11735
709.674	10173
709.791	10826
709.909	10016
710.027	10104
710.145	10644
710.263	10706
710.380	10987
710.498	9806
710.616	9837
710.733	10506
710.851	10382
710.969	10092
711.086	10128
711.204	10821
711.322	9440
711.439	10155
711.557	8822
711.674	10468
711.792	9770
711.909	10257
712.027	9408
712.144	9494
712.262	10279
712.379	9738
712.497	9703
712.614	9860
712.732	9764
712.849	9067
712.966	10385
713.084	9823
713.201	9117
713.318	9750
713.436	10892
713.553	9420
713.670	11266
713.787	10578
713.905	10550
714.022	10470
714.139	9885
714.256	14241
714.373	22017
714.490	43380
714.608	130070
714.725	504655
714.842	296208
714.959	27881
715.076	14529
715.193	13828
715.310	12702
715.427	8937
715.544	10667
715.661	9906
715.778	9094
715.895	9488
716.011	9723
716.128	8860
716.245	8968
716.362	7901
716.479	7420
716.596	8361
716.713	9253
716.829	8610
716.946	8293
717.063	7638
717.180	7795
717.296	7217
717.413	7672
717.530	7358
717.646	7590
717.763	6801
717.880	6907
717.996	6653
718.113	7831
718.229	6815
718.346	7683
718.462	6272
718.579	6845
718.695	7981
718.812	8478
718.928	7093
719.045	7260
719.161	7342
719.277	8466
719.394	7697
719.510	7810
719.626	8396
719.743	12541
719.859	20317
719.975	46630
720.092	200372
720.208	277995
720.324	24866
720.440	10589
720.557	8718
720.673	9092
720.789	7811
720.905	9750
721.021	7322
721.137	7352
721.253	6947
721.369	6830
721.486	7145
721.602	6185
721.718	6825
721.834	7189
721.950	5998
722.066	5664
722.181	6619
722.297	6146
722.413	6304
722.529	6902
722.645	5886
722.761	5912
722.877	6139
722.993	8057
723.108	8190
723.224	6384
723.340	5431
723.456	5846
723.571	4991
723.687	5629
723.803	6022
723.918	5418
724.034	5146
724.150	6068
724.265	5050
724.381	6308
724.497	5616
724.612	5491
724.728	5307
724.843	5442
724.959	5629
725.074	6831
725.190	5441
725.305	5778
725.421	5296
725.536	5527
725.651	5367
725.767	5923
725.882	5725
725.997	4416
726.113	6084
726.228	5282
726.343	4855
726.459	4815
726.574	5368
726.689	4998
726.804	5547
726.920	5076
727.035	5347
727.150	5109
727.265	5720
727.380	5730
727.495	5389
727.610	5328
727.725	5396
727.841	5507
727.956	5514
728.071	6442
728.186	5168
728.301	4357
728.416	5157
728.531	5449
728.645	5146
728.760	5305
728.875	5256
728.990	4243
729.105	4921
729.220	5011
729.335	4957
729.449	5766
729.564	4322
729.679	5526
729.794	5015
729.908	4791
730.023	5397
730.138	5242
730.253	5187
730.367	5184
730.482	5179
730.596	5312
730.711	5298
730.826	8837
730.940	7264
731.055	6685
731.169	6966
731.284	6828
731.398	7040
731.513	8151
731.627	7503
731.742	10971
731.856	11643
731.970	12329
732.085	15044
732.199	21077
732.313	39422
732.428	114439
732.542	304094
732.656	109737
732.771	23655
732.885	17479
732.999	17228
733.113	17225
733.227	17769
733.342	16526
733.456	16495
733.570	15519
733.684	14392
733.798	14690
733.912	13838
734.026	14059
734.140	15156
734.254	13969
734.368	13141
734.482	14658
734.596	13050
734.710	12838
734.824	13258
734.938	13539
735.052	12906
735.166	13251
735.280	13193
735.393	13323
735.507	13098
735.621	13172
735.735	13063
735.849	12026
735.962	12101
736.076	13022
736.190	11319
736.303	12773
736.417	11684
736.531	11513
736.644	10821
736.758	11759
736.872	12079
736.985	11686
737.099	11432
737.212	11715
737.326	11131
737.439	11879
737.553	10777
737.666	10177
737.780	10413
737.893	11255
738.007	11064
738.120	11337
738.233	10647
738.347	9644
738.460	10254
738.573	11151
738.687	9284
738.800	10658
738.913	10903
739.026	9906
739.140	9639
739.253	9725
739.366	10015
739.479	9853
739.592	9170
739.705	9414
739.818	10276
739.932	8451
740.045	9923
740.158	9048
740.271	9589
740.384	8732
740.497	9198
740.610	10052
740.723	8711
740.836	9820
740.949	9420
741.062	9896
741.174	8571
741.287	9024
741.400	8509
741.513	7344
741.626	9042
741.739	8440
741.851	8162
741.964	9724
742.077	7530
742.189	7501
742.302	8950
742.415	7777
742.527	8658
742.640	8114
742.753	7251
742.865	8723
742.978	7309
743.090	7991
743.203	8604
743.316	6940
743.428	8371
743.541	8345
743.653	7340
743.766	8080
743.878	8196
743.990	7451
744.103	8469
744.215	7533
744.327	7129
744.440	9194
744.552	7495
744.664	7649
744.777	8667
744.889	7205
745.001	7738
745.113	8942
745.226	6417
745.338	8275
745.450	8164
745.562	6890
745.674	6566
745.786	8271
745.898	6963
746.010	6941
746.122	6857
746.234	7419
746.347	7598
746.459	6859
746.570	5866
746.682	7983
746.794	8665
746.906	6901
747.018	7357
747.130	8224
747.242	5588
747.354	6788
747.466	6650
747.577	6401
747.689	7457
747.801	6725
747.913	5891
748.024	5499
748.136	6136
748.248	6411
748.359	6498
748.471	7179
748.583	5775
748.694	5928
748.806	6648
748.918	5444
749.029	5388
749.141	6447
749.252	6513
749.364	5095
749.475	5955
749.587	5547
749.698	5558
749.809	6087
749.921	5471
750.032	6427
750.144	5784
750.255	5487
750.366	5313
750.478	6336
750.589	5596
750.700	5068
750.811	5242
750.923	5553
751.034	4835
751.145	6548
751.256	4800
751.367	5453
751.479	5065
751.590	5437
751.701	5260
751.812	4961
751.923	5275
752.034	6462
752.145	5618
752.256	6534
752.367	5327
752.478	5273
752.589	5592
752.700	6206
752.811	5885
752.922	6132
753.032	5612
753.143	6193
753.254	4907
753.365	5635
753.476	5636
753.586	5124
753.697	5152
753.808	5274
753.919	5650
754.029	5899
754.140	4560
754.251	5532
754.361	5507
754.472	6186
754.582	5476
754.693	5605
754.804	5774
754.914	4621
755.025	4121
755.135	4771
755.246	5585
755.356	5334
755.466	4841
755.577	5294
755.687	5948
755.798	4921
755.908	5148
756.018	5383
756.129	4900
756.239	5608
756.349	4913
756.460	4999
756.570	5607
756.680	5286
756.790	5783
756.900	5702
757.011	4947
757.121	4504
757.231	5155
757.341	5103
757.451	4305
757.561	5125
757.671	5307
757.781	5007
757.891	5435
758.001	5047
758.111	5781
758.221	6684
758.331	6115
758.441	5169
758.551	5960
758.661	5972
758.771	6899
758.880	6447
758.990	5424
759.100	6633
759.210	6169
759.320	5763
759.429	5902
759.539	6539
759.649	6864
759.758	7064
759.868	7524
759.978	7334
760.087	8395
760.197	8558
760.307	7321
760.416	7810
760.526	6347
760.635	8293
760.745	8297
760.854	8370
760.964	8829
761.073	9705
761.182	8569
761.292	8209
761.401	7165
761.511	7676
761.620	6567
761.729	7979
761.839	7090
761.948	7420
762.057	6752
762.166	7484
762.276	6680
762.385	8986
762.494	7676
762.603	7884
762.712	8160
762.822	8985
762.931	8238
763.040	8028
763.149	8808
763.258	9563
763.367	9739
763.476	9916
763.585	9852
763.694	10428
763.803	10185
763.912	10591
764.021	11907
764.130	12080
764.238	13227
764.347	13905
764.456	15970
764.565	15154
764.674	16897
764.783	18292
764.891	19759
765.000	23784
765.109	25875
765.217	30107
765.326	34881
765.435	42644
765.543	50062
765.652	65957
765.761	86596
765.869	120560
765.978	176012
766.086	271755
766.195	424754
766.303	560569
766.412	450184
766.520	526659
766.629	473063
766.737	300058
766.846	195561
766.954	135133
767.062	99937
767.171	75364
767.279	60458
767.387	48723
767.496	42350
767.604	36716
767.712	32146
767.820	29985
767.928	26966
768.037	24386
768.145	24429
768.253	22994
768.361	22034
768.469	22435
768.577	21903
768.685	23733
768.793	25972
768.901	28193
769.009	32523
769.117	38764
769.225	51069
769.333	74206
769.441	116792
769.549	198837
769.657	357390
769.765	494876
769.873	449839
769.981	414888
770.088	233158
770.196	133869
770.304	90265
770.412	64634
770.519	51805
770.627	40790
770.735	33657
770.842	28950
770.950	25524
771.058	23217
771.165	22494
771.273	20198
771.380	20797
771.488	22586
771.595	20771
771.703	18735
771.810	18169
771.918	18284
772.025	18943
772.133	19922
772.240	18165
772.348	20012
772.455	18651
772.562	17092
772.670	16926
772.777	17122
772.884	16259
772.991	16319
773.099	16370
773.206	14901
773.313	15061
773.420	15392
773.528	15429
773.635	14124
773.742	15577
773.849	13418
773.956	14290
774.063	13718
774.170	12468
774.277	13653
774.384	12183
774.491	12549
774.598	12972
774.705	14009
774.812	12242
774.919	13637
775.026	11039
775.133	12565
775.239	12188
775.346	10821
775.453	12107
775.560	10984
775.667	12157
775.773	9820
775.880	11435
775.987	10335
776.093	11634
776.200	10797
776.307	8959
776.413	11123
776.520	11945
776.627	10037
776.733	10176
776.840	9401
776.946	12852
777.053	10452
777.159	11286
777.266	8129
777.372	11647
777.478	12037
777.585	9194
777.691	9198
777.798	10247
777.904	8120
778.010	8487
778.117	10207
778.223	9130
778.329	8932
778.435	7997
778.542	9734
778.648	8203
778.754	8303
778.860	8385
778.966	8436
779.072	8652
779.178	8292
779.284	6516
779.391	8308
779.497	7226
779.603	10373
779.708	8978
779.815	16659
779.920	48322
780.026	43925
780.132	10525
780.238	7356
780.344	7544
780.450	9284
780.556	5675
780.661	7211
780.767	8225
780.873	5148
780.979	7414
781.085	7086
781.190	6328
781.296	6107
781.402	6978
781.507	6345
781.613	5401
781.719	6638
781.824	7121
781.930	6661
782.035	6707
782.141	7413
782.246	4864
782.352	6503
782.457	6591
782.563	6650
782.668	6322
782.773	5155
782.879	4884
782.984	6715
783.090	6198
783.195	6819
783.300	6406
783.405	5583
783.511	4539
783.616	6373
783.721	5039
783.826	4945
783.932	4771
784.037	6132
784.142	5809
784.247	4902
784.352	5570
784.457	4880
784.562	6074
784.667	6468
784.772	3807
784.877	4160
784.982	6368
785.087	5752
785.192	5103
785.297	4647
785.402	5774
785.507	5251
785.611	4998
785.716	4525
785.821	5831
785.926	5333
786.031	5449
786.135	4724
786.240	4647
786.345	3567
786.450	4417
786.554	4515
786.659	4217
786.763	4019
786.868	4737
786.973	5336
787.077	4092
787.182	4170
787.286	5331
787.391	5081
787.495	3690
787.600	3867
787.704	3107
787.809	4972
787.913	3464
788.017	4827
788.122	3953
788.226	4041
788.330	2903
788.435	5131
788.539	4335
788.643	3486
788.747	3554
788.852	4096
788.956	2979
789.060	5222
789.164	4055
789.268	3727
789.372	4640
789.476	3177
789.580	2844
789.684	3043
789.788	4739
789.892	3130
789.996	3055
790.100	2858
790.204	3550
790.308	4212
790.412	2242
790.516	2235
790.620	3705
790.724	4468
790.828	2611
790.931	1461
791.035	4188
791.139	2853
791.242	3602
791.346	4166
791.450	3540
791.554	2206
791.657	1255
791.761	3494
791.864	3984
791.968	3503
792.072	3635
792.175	3852
792.279	3147
792.382	3361
792.486	3535
792.589	2939
792.693	2385
792.796	2629
792.899	2854
793.003	4060
793.106	1781
793.209	2284
793.313	3389
793.416	718
793.519	3594
793.623	3966
793.726	2610
793.829	2438
793.932	2012
794.035	1076
794.138	4015
794.242	3316
794.345	2348
794.448	4242
794.551	5643
794.654	23366
794.757	22908
794.860	3974
794.963	3023
795.066	2660
795.169	4150
795.272	2471
795.375	3629
795.477	1550
795.580	2994
795.683	1265
795.786	3323
795.889	1381
795.991	2757
796.094	3900
796.197	899
796.300	3982
796.402	2530
796.505	1508
796.608	1721
796.710	3575
796.813	3008
796.915	2490
797.018	1787
797.120	2873
797.223	1122
797.326	3414
797.428	1103
797.530	1000
797.633	2152
797.735	3724
797.838	1758
797.940	3620
798.042	1476
798.145	1595
798.247	2057
798.349	133
798.452	2723
798.554	2269
798.656	1869
798.758	3305
798.860	2108
798.962	2025
799.065	1703
799.167	1573
799.269	3103
799.371	2615
799.473	3259
799.575	2033
799.677	1349
799.779	2752
799.881	763
799.983	3601
800.085	1695
800.187	2624
800.289	985
800.390	681
800.492	2942
800.594	1561
800.696	1017
800.798	2000
800.899	915
801.001	1612
801.103	540
801.205	1646
801.306	2197
801.408	689
801.509	1895
801.611	1366
801.713	3273
801.814	1040
801.916	879
802.017	1885
802.119	507
802.220	2298
802.322	-196
802.423	2725
802.525	-455
802.626	1576
802.727	1519
802.829	2162
802.930	-913
803.031	2140
803.133	525
803.234	1783
803.335	1209
803.436	1231
803.538	808
803.639	403
803.740	2092
803.841	1055
803.942	2745
804.043	2411
804.144	-452
804.245	896
804.346	630
804.447	405
804.548	1042
804.649	2318
804.750	-128
804.851	782
804.952	1169
805.053	1781
805.154	128
805.255	2791
805.355	1192
805.456	966
805.557	324
805.658	1508
805.758	1830
805.859	1314
805.960	1058
806.061	337
806.161	591
806.262	945
806.362	566
806.463	1615
806.564	1004
806.664	927
806.765	1315
806.865	976
806.966	1566
807.066	1200
807.166	1232
807.267	1467
807.367	23
807.468	814
807.568	-452
807.668	1834
807.769	1470
807.869	866
807.969	1265
808.069	1780
808.170	927
808.270	1241
808.370	1766
808.470	1483
808.570	202
808.670	898
808.770	1128
808.870	483
808.970	1593
809.070	968
809.170	-142
809.271	971
809.370	313
809.470	1371
809.570	958
809.670	360
809.770	656
809.870	1415
809.970	429
810.070	256
810.169	922
810.269	776
810.369	2262
810.469	404
810.568	571
810.668	974
810.768	188
810.867	700
810.967	-660
811.066	593
811.166	732
811.265	1660
811.365	834
811.464	260
811.564	766
811.663	1215
811.763	-546
811.862	1079
811.962	1366
812.061	1211
812.160	592
812.260	894
812.359	482
812.458	867
812.557	1881
812.657	1682
812.756	1444
812.855	164
812.954	265
813.053	1217
813.153	1229
813.252	143
813.351	819
813.450	1374
813.549	114
813.648	1704
813.747	-99
813.846	1097
813.945	183
814.044	1487
814.143	1036
814.242	1567
814.341	1156
814.439	1584
814.538	2558
814.637	1209
814.736	1132
814.835	2016
814.933	670
815.032	2879
815.131	3990
815.229	8411
815.328	8612
815.427	6038
815.525	5993
815.624	5707
815.722	5108
815.821	5891
815.919	5826
816.018	6069
816.116	7052
816.215	5188
816.313	7278
816.412	7790
816.510	7154
816.609	9284
816.707	9168
816.805	7733
816.904	6147
817.002	7972
817.100	7862
817.198	9333
817.296	7243
817.395	7791
817.493	7188
817.591	6460
817.689	7653
817.787	7243
817.885	7047
817.983	7746
818.081	7906
818.179	9973
818.277	15600
818.375	10784
818.473	6580
818.571	5892
818.669	6849
818.767	6782
818.865	5865
818.963	6785
819.061	7452
819.158	7046
819.256	11656
819.354	12832
819.452	21938
819.549	10985
819.647	8138
819.745	5697
819.842	6957
819.940	6667
820.038	4922
820.135	4843
820.233	6836
820.330	5856
820.428	4159
820.525	5828
820.623	5346
820.720	4926
820.818	5364
820.915	6142
821.012	4850
821.110	4648
821.207	5611
821.304	5171
821.402	5758
821.499	5296
821.596	4073
821.693	6211
821.791	5583
821.888	4913
821.985	5617
822.082	3145
822.179	5722
822.276	5216
822.373	4408
822.470	5650
822.567	5137
822.664	3320
822.761	5221
822.858	4031
822.955	4775
823.052	4662
823.149	4779
823.246	4294
823.343	3044
823.440	5123
823.536	4987
823.633	3529
823.730	3879
823.827	4943
823.923	3238
824.020	4994
824.117	3867
824.213	4600
824.310	4292
824.407	3499
824.503	4426
824.600	3464
824.696	4022
824.793	5136
824.889	4082
824.986	2778
825.082	2622
825.179	3771
825.275	4985
825.371	4015
825.468	3011
825.564	1588
825.660	5402
825.757	3955
825.853	5073
825.949	2668
826.045	2802
826.142	3693
826.238	3387
826.334	4474
826.430	2549
826.526	2336
826.622	1829
826.718	5130
826.814	3472
826.910	4116
827.006	1419
827.102	2502
827.198	4031
827.294	3831
827.390	2986
827.486	2279
827.582	1319
827.678	2405
827.774	3864
827.869	1834
827.965	2838
828.061	2018
828.157	3800
828.252	3262
828.348	1782
828.444	2500
828.539	2163
828.635	2645
828.731	2944
828.826	1605
828.922	2823
829.017	3975
829.113	2890
829.208	1680
829.304	1928
829.399	4824
829.495	1939
829.590	2900
829.685	2427
829.781	3087
829.876	1894
829.971	695
830.066	1416
830.162	3202
830.257	4219
830.352	1448
830.447	2883
830.543	1704
830.638	2228
830.733	4051
830.828	1785
830.923	3274
831.018	2899
831.113	3053
831.208	1548
831.303	1103
831.398	1582
831.493	2202
831.588	3936
831.683	1272
831.778	1744
831.873	1906
831.967	3267
832.062	2264
832.157	1580
832.252	2370
832.346	1535
832.441	2894
832.536	2106
832.631	2091
832.725	1581
832.820	1844
832.914	2308
833.009	2130
833.104	803
833.198	2274
833.293	1269
833.387	3298
833.482	2356
833.576	1696
833.670	1950
833.765	2246
833.859	2283
833.954	2896
834.048	2138
834.142	880
834.237	385
834.331	1551
834.425	1376
834.519	774
834.613	1493
834.708	1650
834.802	1088
834.896	582
834.990	1692
835.084	913
835.178	574
835.272	1378
835.366	1456
835.460	3047
835.554	939
835.648	1157
835.742	787
835.836	1286
835.930	792
836.024	1392
836.117	1551
836.211	995
836.305	740
836.399	1885
836.493	381
836.586	2607
836.680	1029
836.774	1098
836.867	1369
836.961	1997
837.055	891
837.148	117
837.242	1783
837.335	1442
837.429	1434
837.522	537
837.616	818
837.709	1571
837.803	491
837.896	2039
837.989	352
838.083	1079
838.176	836
838.269	221
838.363	2417
838.456	118
838.549	2051
838.642	1159
838.735	1867
838.829	1447
838.922	863
839.015	1812
839.108	-394
839.201	1338
839.294	1869
839.387	743
839.480	-366
839.573	1198
839.666	269
839.759	1321
839.852	451
839.945	1309
840.038	818
840.131	360
840.223	718
840.316	1043
840.409	1579
840.502	1070
840.594	1829
840.687	-300
840.780	1072
840.873	496
840.965	-261
841.058	1193
841.150	1350
841.243	-1
841.336	1188
841.428	477
841.521	879
841.613	749
841.706	587
841.798	859
841.890	710
841.983	-304
842.075	790
842.167	589
842.260	184
842.352	1753
842.444	64
842.537	230
842.629	649
842.721	449
842.813	1321
842.905	-83
842.997	212
843.090	273
843.182	389
843.274	-792
843.366	612
843.458	1979
843.550	1917
843.642	481
843.734	813
843.826	1100
843.918	94
844.009	969
844.101	-290
844.193	1645
844.285	609
844.377	339
844.469	864
844.560	-278
844.652	515
844.744	647
844.835	160
844.927	1428
845.019	-166
845.110	282
845.202	563
845.293	-36
845.385	-706
845.476	-68
845.568	878
845.659	-599
845.751	1225
845.842	519
845.934	-672
846.025	-62
846.116	451
846.208	1219
846.299	-871
846.390	21
846.482	232
846.573	725
846.664	611
846.755	223
846.846	675
846.937	-551
847.029	-204
847.120	-554
847.211	660
847.302	1854
847.393	-731
847.484	911
847.575	-607
847.666	663
847.757	-68
847.847	-465
847.938	236
848.029	1251
848.120	-315
848.211	315
848.302	-652
848.392	506
848.483	930
848.574	370
848.664	-169
848.755	511
848.846	-107
848.936	-676
849.027	94
849.118	1183
849.208	-554
849.299	1042
849.389	3960
849.480	7139
849.570	11768
849.661	27014
849.751	35186
849.841	9298
849.932	814
850.022	-45
850.112	1157
850.203	709
850.293	-666
850.383	-73
850.474	-228
850.564	290
850.654	68
850.744	423
850.834	-596
850.924	717
851.014	792
851.104	236
851.194	-539
851.284	-234
851.374	-172
851.464	369
851.554	405
851.644	560
851.734	244
851.824	598
851.914	-25
852.004	771
852.094	-494
852.183	261
852.273	-282
852.363	34
852.452	176
852.542	432
852.632	-218
852.721	237
852.811	165
852.901	583
852.990	676
853.080	1214
853.169	645
853.259	1052
853.348	681
853.438	1242
853.527	1786
853.617	2876
853.706	7550
853.795	14747
853.885	31988
853.974	56445
854.063	109039
854.152	124436
854.242	37648
854.331	8342
854.420	3678
854.509	3344
854.598	1849
854.687	1883
854.777	1188
854.866	783
854.955	1406
855.044	-157
855.133	629
855.222	410
855.311	-34
855.400	653
855.488	-61
855.577	-351
855.666	501
855.755	207
855.844	-65
855.933	-129
856.021	-295
856.110	146
856.199	-382
856.288	-557
856.376	-825
856.465	268
856.554	-454
856.642	31
856.731	-19
856.819	402
856.908	-536
856.996	-219
857.085	-541
857.173	-640
857.262	56
857.350	-542
857.438	-662
857.527	-287
857.615	-509
857.703	1072
857.792	-193
857.880	-462
857.968	-703
858.056	-301
858.145	458
858.233	470
858.321	-1284
858.409	190
858.497	-690
858.585	-276
858.673	932
858.761	-700
858.849	-576
858.937	-148
859.025	-68
859.113	682
859.201	-344
859.289	545
859.377	-295
859.465	-597
859.552	-1004
859.640	-454
859.728	-13
859.816	-1255
859.903	76
859.991	-552
860.079	711
860.166	51
860.254	-116
860.342	-310
860.429	-151
860.517	308
860.604	733
860.692	344
860.779	-173
860.867	662
860.954	-257
861.042	622
861.129	199
861.216	-307
861.304	-132
861.391	-355
861.478	538
861.565	-53
861.653	675
861.740	-385
861.827	-259
861.914	671
862.001	-287
862.089	713
862.176	-75
862.263	-159
862.350	311
862.437	-484
862.524	-22
862.611	-179
862.698	376
862.785	491
862.871	356
862.958	255
863.045	36
863.132	980
863.219	-93
863.306	-948
863.392	960
863.479	423
863.566	-59
863.652	895
863.739	199
863.826	874
863.912	105
863.999	-176
864.086	403
864.172	540
864.259	625
864.345	165
864.432	-72
864.518	614
864.604	557
864.691	1303
864.777	1060
864.863	2739
864.950	3208
865.036	5328
865.122	9289
865.209	7624
865.295	7259
865.381	6768
865.467	6568
865.553	8441
865.639	8833
865.726	11869
865.812	21603
865.898	34931
865.984	48330
866.070	88291
866.156	68148
866.242	19016
866.328	8765
866.414	6131
866.499	6673
866.585	5811
866.671	5021
866.757	6086
866.843	5550
866.928	4634
867.014	4727
867.100	5308
867.186	4172
867.271	5257
867.357	4977
867.442	4680
867.528	4754
867.614	4837
867.699	5049
867.785	5994
867.870	4866
867.956	4990
868.041	4998
868.127	5072
868.212	4181
868.297	5193
868.383	5016
868.468	4832
868.553	4903
868.639	4449
868.724	5206
868.809	4159
868.894	3662
868.979	4852
869.065	4641
869.150	3286
869.235	3572
869.320	3268
869.405	3818
869.490	4204
869.575	3508
869.660	3056
869.745	4934
869.830	3645
869.915	3111
870.000	3776
870.085	3654
870.169	4739
870.254	4731
870.339	2535
870.424	3195
870.509	4395
870.593	4347
870.678	4436
870.763	3388
870.847	3026
870.932	3847
871.016	4120
871.101	2209
871.186	4779
871.270	4501
871.355	2628
871.439	3461
871.523	4426
871.608	2371
871.692	2673
871.777	4694
871.861	3030
871.945	3430
872.030	3976
872.114	3218
872.198	2011
872.282	3439
872.367	2752
872.451	2653
872.535	3317
872.619	3212
872.703	3565
872.787	3928
872.871	3496
872.955	2244
873.039	2594
873.123	3072
873.207	3627
873.291	1475
873.375	2993
873.459	2858
873.543	2246
873.627	2535
873.711	1699
873.794	3898
873.878	3276
873.962	1857
874.045	2745
874.129	1664
874.137	1735
874.213	2442
874.245	2401
874.296	2340
874.352	2174
874.380	2091
874.460	2120
874.464	2122
874.547	2589
874.568	2580
874.631	2557
874.676	2639
874.714	2690
874.784	3185
874.798	3294
874.881	2991
874.892	2801
874.965	1453
874.999	1798
875.048	2247
875.107	1892
875.131	1759
875.215	2363
875.215	2362
875.298	1194
875.323	1652
875.381	2795
875.430	2950
875.465	3045
875.538	2559
875.548	2482
875.631	1089
875.646	1223
875.714	1910
875.753	2356
875.798	2885
875.861	3262
875.881	3376
875.964	1540
875.968	1530
876.047	1317
876.076	2010
876.130	3304
876.183	2661
876.213	2375
876.291	2471
876.296	2460
876.379	2257
876.398	2083
876.462	1506
876.506	1148
876.545	889
876.613	1451
876.628	1584
876.711	2582
876.721	2565
876.794	2391
876.828	2388
876.877	2277
876.935	1410
876.960	1142
877.043	1715
877.043	1716
877.125	1843
877.150	2181
877.208	2864
877.258	1809
877.291	1175
877.365	1185
877.374	1174
877.456	698
877.472	694
877.539	869
877.579	1513
877.622	2019
877.687	1601
877.704	1572
877.787	1732
877.794	1787
877.869	2178
877.901	2198
877.952	2017
878.008	1395
878.034	1216
878.115	909
878.117	906
878.199	1687
878.222	1707
878.282	1778
878.329	2557
878.364	3013
878.437	1731
878.447	1523
878.529	1226
878.544	1188
878.611	1295
878.651	1504
878.694	1856
878.758	1446
878.776	1287
878.858	2116
878.865	2073
878.941	1284
878.972	1017
879.023	637
879.078	430
879.105	473
879.185	1320
879.187	1334
879.269	1461
879.292	1429
879.351	1321
879.399	915
879.433	599
879.506	1452
879.516	1582
879.598	1326
879.613	1339
879.680	1684
879.720	2115
879.762	2190
879.827	1353
879.844	1169
879.926	1846
879.933	1833
880.007	1978
880.040	1736
880.089	1337
880.147	2162
880.171	2545
880.253	3877
880.254	3880
880.335	4001
880.360	4402
880.417	6391
880.467	9223
880.499	10876
880.574	10894
880.580	10576
880.662	4311
880.680	3435
880.744	1892
880.787	1475
880.825	1450
880.893	1037
880.907	989
880.989	1310
881.000	1381
881.070	1737
881.106	1741
881.152	1491
881.213	1284
881.233	1337
881.315	1536
881.319	1536
881.396	1736
881.426	1751
881.478	1480
881.532	1721
881.559	1907
881.639	973
881.641	950
881.722	1106
881.745	1229
881.803	1786
881.852	1755
881.885	1511
881.958	1022
881.966	1030
882.047	1761
882.064	1721
882.129	970
882.171	701
882.210	782
882.277	1408
882.291	1528
882.372	1734
882.383	1770
882.454	2079
882.489	2156
882.535	2096
882.596	2297
882.616	2376
882.697	2107
882.702	2074
882.778	1333
882.808	1167
882.859	997
882.914	1062
882.940	1229
883.020	1573
883.021	1578
883.102	1949
883.127	2137
883.183	2344
883.233	1968
883.264	1615
883.339	1008
883.345	981
883.426	817
883.445	861
883.507	994
883.551	966
883.587	1226
883.657	1680
883.668	1735
883.749	2294
883.763	2256
883.830	1306
883.869	981
883.910	1025
883.975	1281
883.991	1309
884.072	1079
884.081	1084
884.152	1657
884.187	1925
884.233	2039
884.292	1862
884.314	1589
884.394	352
884.398	327
884.475	778
884.504	860
884.555	1022
884.610	966
884.636	960
884.716	1705
884.716	1713
884.797	2256
884.821	2306
884.877	1543
884.927	1110
884.958	1171
885.033	1379
885.038	1331
885.118	212
885.139	32
885.199	625
885.244	904
885.279	1182
885.350	2088
885.359	2168
885.439	2482
885.456	2477
885.520	1678
885.561	1316
885.600	1259
885.667	1393
885.680	1455
885.760	1678
885.773	1677
885.840	1167
885.878	895
885.920	685
885.984	521
886.000	786
886.080	1828
886.089	1949
886.160	1756
886.195	1618
886.240	1292
886.300	1122
886.320	1338
886.400	1853
886.406	1882
886.480	936
886.511	536
886.560	762
886.616	1153
886.640	1273
886.720	1462
886.722	1467
886.800	901
886.827	615
886.879	471
886.932	453
886.959	862
887.038	1980
887.039	1977
887.119	1201
887.143	1015
887.198	1357
887.248	1733
887.278	1555
887.354	824
887.358	839
887.437	1294
887.459	1406
887.517	1325
887.564	1141
887.596	1107
887.669	1022
887.676	998
887.755	917
887.774	846
887.835	769
887.880	758
887.914	1061
887.985	1629
887.994	1662
888.073	2013
888.090	2024
888.153	1923
888.195	1903
888.232	1678
888.300	1445
888.311	1454
888.391	1313
888.405	1286
888.470	1146
888.510	1049
888.549	1227
888.615	1619
888.628	1601
888.708	1400
888.720	1359
888.787	1835
888.825	2102
888.866	1583
888.930	817
888.945	886
889.024	1243
889.035	1285
889.103	1223
889.140	1185
889.182	1243
889.245	1336
889.261	1367
889.340	1514
889.349	1529
889.419	1457
889.454	1409
889.498	1077
889.559	632
889.577	736
889.656	1206
889.664	1254
889.735	1797
889.768	2058
889.814	1965
889.873	1829
889.978	1395
890.083	1333
890.187	1686
890.292	2123
890.397	1111
890.501	1442
890.606	1337
890.710	1789
890.815	1763
890.919	688
891.024	1007
891.128	700
891.233	881
891.337	1545
891.442	956
891.546	1515
891.650	1113
891.755	658
891.859	2223
891.963	1916
892.068	1666
892.172	273
892.276	148
892.380	1334
892.484	1252
892.589	1749
892.693	951
892.797	755
892.901	405
893.005	1157
893.109	1864
893.213	2038
893.317	1299
893.421	510
893.525	170
893.629	493
893.733	1959
893.837	719
893.941	959
894.045	1221
894.148	-89
894.252	258
894.356	1515
894.460	1495
894.564	335
894.667	541
894.771	460
894.875	86
894.978	844
895.082	684
895.186	1661
895.289	1283
895.393	1524
895.496	1738
895.600	897
895.703	961
895.807	447
895.910	1407
896.014	1932
896.117	900
896.221	1363
896.324	1387
896.427	597
896.531	742
896.634	603
896.737	1511
896.840	838
896.944	2125
897.047	1088
897.150	1104
897.253	-512
897.356	-231
897.460	958
897.563	588
897.666	1281
897.769	1112
897.872	297
897.975	1016
898.078	166
898.181	347
898.284	754
898.387	928
898.490	1801
898.593	266
898.695	734
898.798	52
898.901	845
899.004	5
899.107	709
899.209	995
899.312	1312
899.415	863
899.518	-56
899.620	362
899.723	907
899.826	273
899.928	185
900.031	99
900.133	340
900.236	126
900.338	-149
900.441	515
900.543	807
900.646	1027
900.748	331
900.851	1257
900.953	181
901.055	-140
901.158	478
901.260	896
901.362	774
901.465	-41
901.567	-278
901.669	419
901.771	552
901.873	617
901.976	127
902.078	1246
902.180	454
902.282	-87
902.384	424
902.486	1774
902.588	741
902.690	-248
902.792	348
902.894	1101
902.996	1227
903.098	303
903.200	1171
903.302	444
903.404	352
903.505	-48
903.607	745
903.709	1386
903.811	-173
903.913	380
904.014	124
904.116	18
904.218	385
904.319	95
904.421	1334
904.523	1359
904.624	37
904.726	127
904.827	495
904.929	637
905.030	-209
905.132	1111
905.233	1158
905.335	652
905.436	571
905.537	-432
905.639	258
905.740	126
905.841	-132
905.943	777
906.044	72
906.145	-68
906.247	-605
906.348	42
906.449	26
906.550	858
906.651	-465
906.752	-67
906.854	-235
906.955	-184
907.056	-51
907.157	1111
907.258	1395
907.359	533
907.460	16
907.561	-692
907.662	-43
907.762	441
907.863	333
907.964	392
908.065	493
908.166	-38
908.267	11
908.367	-81
908.468	-863
908.569	503
908.670	1319
908.770	298
908.871	76
908.971	-146
909.072	-426
909.173	-264
909.273	-53
909.374	-207
909.474	-262
909.575	-75
909.675	-54
909.776	944
909.876	-545
909.977	-314
910.077	258
910.177	1850
910.278	-303
910.378	-302
910.478	-674
910.579	-127
910.679	260
910.779	155
910.879	569
910.980	182
911.080	-98
911.180	100
911.280	-315
911.380	79
911.480	-140
911.580	82
911.680	-101
911.780	313
911.880	362
911.980	-93
912.080	-59
912.180	-317
912.280	-1161
912.380	-456
912.480	54
912.580	-513
912.679	277
912.779	83
912.879	415
912.979	-204
913.078	-727
913.178	-153
913.278	-1066
913.377	130
913.477	-588
913.577	-580
913.676	361
913.776	580
913.875	219
913.975	332
914.074	-95
914.174	-913
914.273	-711
914.373	566
914.472	-291
914.572	-1098
914.671	-684
914.770	295
914.870	-140
914.969	-730
915.068	-581
915.167	748
915.267	-755
915.366	-1021
915.465	-479
915.564	54
915.663	-190
915.763	-455
915.862	82
915.961	643
916.060	-232
916.159	-576
916.258	-344
916.357	443
916.456	-410
916.555	-1014
916.654	-161
916.752	44
916.851	-179
916.950	-647
917.049	-1173
917.148	-409
917.247	-43
917.345	-375
917.444	-196
917.543	-109
917.642	100
917.740	182
917.839	130
917.937	965
918.036	-525
918.135	-416
918.233	-1200
918.332	29
918.430	12
918.529	-196
918.627	-731
918.726	-97
918.824	211
918.923	153
919.021	-438
919.119	-3
919.218	-562
919.316	65
919.414	323
919.512	-371
919.611	-218
919.709	469
919.807	818
919.905	1091
920.003	380
920.102	974
920.200	712
920.298	527
920.396	232
920.494	827
920.592	457
920.690	493
920.788	693
920.886	-16
920.984	722
921.082	633
921.180	1162
921.277	659
921.375	1356
921.473	1870
921.571	1361
921.669	1814
921.766	1136
921.864	2357
921.962	1782
922.060	1178
922.157	1474
922.255	1503
922.352	1468
922.450	2364
922.548	1735
922.645	2652
922.743	3333
922.840	6900
922.938	7879
923.035	6710
923.133	6564
923.230	7647
923.327	9815
923.425	8308
923.522	7748
923.619	6853
923.717	6565
923.814	7101
923.911	5029
924.008	6585
924.106	5855
924.203	5823
924.300	7024
924.397	6186
924.494	6895
924.591	6211
924.688	5661
924.786	5449
924.883	6002
924.979	6698
925.077	5956
925.173	6038
925.270	5501
925.367	5961
925.464	6774
925.561	5873
925.658	6692
925.755	5663
925.852	6872
925.948	6782
926.045	5769
926.142	6659
926.239	6367
926.335	5093
926.432	6074
926.529	5742
926.625	6851
926.722	5116
926.818	5344
926.915	6667
927.011	4994
927.108	5666
927.204	5366
927.301	4475
927.397	6524
927.494	6302
927.590	3831
927.687	4989
927.783	6356
927.879	6794
927.976	3972
928.072	4451
928.168	5085
928.264	5434
928.361	5190
928.457	6233
928.553	4316
928.649	4772
928.745	4703
928.841	5301
928.937	5435
929.033	5095
929.129	5849
929.225	4903
929.321	4300
929.417	4112
929.513	4925
929.609	3703
929.705	3773
929.801	5424
929.897	4275
929.993	4840
930.089	4450
930.184	5082
930.280	4598
930.376	6427
930.471	3848
930.567	3271
930.663	4259
930.758	3649
930.854	3773
930.950	3792
931.045	3248
931.141	4395
931.236	5339
931.332	4531
931.427	3354
931.523	5438
931.618	3787
931.714	2310
931.809	3528
931.905	4474
932.000	1825
932.095	3248
932.191	4763
932.286	5606
932.381	3443
932.476	2908
932.572	3477
932.667	3320
932.762	3097
932.857	4038
932.952	4393
933.047	4454
933.142	2926
933.237	4129
933.332	3552
933.427	5480
933.522	3220
933.617	4046
933.712	3449
933.807	4619
933.902	4689
933.997	5208
934.092	2796
934.187	3797
934.282	4266
934.376	3892
934.471	3888
934.566	3074
934.661	2630
934.755	4180
934.850	4356
934.945	3228
935.039	2272
935.134	2152
935.228	3383
935.323	5539
935.417	2555
935.512	2119
935.606	2042
935.701	3283
935.795	4220
935.890	2912
935.984	2990
936.079	1652
936.173	3506
936.267	2347
936.362	2995
936.456	4117
936.550	4764
936.644	4263
936.738	2047
936.833	2525
936.927	1117
937.021	2873
937.115	2917
937.209	2683
937.303	2176
937.397	2770
937.491	2460
937.585	3367
937.679	3430
937.773	2327
937.867	1484
937.961	2459
938.055	4412
938.149	3785
938.243	1419
938.337	2290
938.430	2824
938.524	3980
938.618	2912
938.712	3027
938.805	2997
938.899	3322
938.993	4409
939.086	2893
939.180	1339
939.274	2207
939.367	2638
939.461	3880
939.554	2676
939.648	1750
939.741	1899
939.835	3520
939.928	3014
940.022	3482
940.115	2308
940.208	3616
940.302	4227
940.395	4587
940.488	2220
940.582	3000
940.675	1237
940.768	2622
940.861	3184
940.954	3567
941.048	2439
941.141	1353
941.234	2166
941.327	2093
941.420	3316
941.513	3496
941.606	2260
941.699	2445
941.792	3864
941.885	2295
941.978	2789
942.071	2132
942.164	1599
942.257	2359
942.349	2136
942.442	2276
942.535	1021
942.628	1940
942.721	2115
942.813	1583
942.906	2563
942.999	2303
943.091	2086
943.184	2692
943.277	1180
943.369	1081
943.462	458
943.554	2219
943.647	1524
943.739	3282
943.832	3147
943.924	676
944.017	1307
944.109	1275
944.201	2115
944.294	1669
944.386	2931
944.478	1640
944.571	2157
944.663	1725
944.755	2586
944.847	2555
944.940	1474
945.032	1301
945.124	1150
945.216	2552
945.308	2764
945.400	3012
945.492	1693
945.584	2632
945.676	3094
945.768	1915
945.860	2693
945.952	1753
946.044	1628
946.136	1501
946.228	1954
946.320	1365
946.412	1825
946.503	2540
946.595	2607
946.687	1281
946.779	145
946.870	1487
946.962	1618
947.054	2400
947.145	2692
947.237	2281
947.329	1420
947.420	1187
947.512	1134
947.603	727
947.695	821
947.786	981
947.878	1326
947.969	1738
948.061	1742
948.152	1995
948.243	860
948.335	560
948.426	769
948.517	1343
948.609	1845
948.700	1633
948.791	1952
948.882	539
948.973	1148
949.065	1038
949.156	900
949.247	468
949.338	847
949.429	848
949.520	852
949.611	854
949.702	1287
949.793	1248
949.884	1596
949.975	684
950.066	314
950.157	1002
950.247	437
950.338	1173
950.429	1107
950.520	1374
950.611	44
950.701	1135
950.792	2108
950.883	2583
950.973	612
951.064	2189
951.155	1260
951.245	1059
951.336	1388
951.427	1349
951.517	2615
951.608	1734
951.698	990
951.788	1109
951.879	827
951.969	1242
952.060	805
952.150	1375
952.240	2176
952.331	566
952.421	2268
952.511	812
952.602	128
952.692	541
952.782	319
952.872	980
952.962	798
953.052	908
953.143	300
953.233	932
953.323	1436
953.413	984
953.503	663
953.593	2045
953.683	996
953.773	-373
953.863	-542
953.953	61
954.042	883
954.132	961
954.222	1387
954.312	654
954.402	636
954.492	289
954.581	1001
954.671	540
954.761	-42
954.850	1291
954.940	40
955.030	578
955.119	571
955.209	295
955.298	191
955.388	1239
955.477	956
955.567	-476
955.656	671
955.746	1079
955.835	986
955.925	-406
956.014	311
956.103	1688
956.193	2013
956.282	1174
956.371	376
956.461	807
956.550	942
956.639	1317
956.728	-88
956.817	697
956.906	265
956.995	1995
957.085	715
957.174	1150
957.263	-98
957.352	1071
957.441	872
957.530	1398
957.619	245
957.708	1274
957.796	527
957.885	742
957.974	813
958.063	983
958.152	-364
958.241	290
958.329	429
958.418	1273
958.507	863
958.596	1792
958.684	138
958.773	530
958.861	613
958.950	302
959.039	915
959.127	-54
959.216	1376
959.304	1467
959.393	1075
959.481	733
959.570	625
959.658	663
959.746	252
959.835	1108
959.923	-634
960.011	419
960.100	589
960.188	1640
960.276	49
960.365	-100
960.453	220
960.541	-650
960.629	596
960.717	684
960.805	-1058
960.893	545
960.981	-40
961.069	2180
961.158	761
961.245	927
961.333	1052
961.421	118
961.509	489
961.597	1317
961.685	450
961.773	350
961.861	260
961.949	1020
962.036	-126
962.124	429
962.212	-143
962.299	-194
962.387	-1345
962.475	22
962.562	-1029
962.650	1343
962.738	451
962.825	-14
962.913	179
963.000	31
963.088	461
963.175	214
963.263	211
963.350	70
963.438	691
963.525	-1092
963.612	285
963.700	362
963.787	1286
963.874	917
963.962	-825
964.049	142
964.136	204
964.223	-557
964.310	469
964.398	-636
964.485	-114
964.572	-603
964.659	-98
964.746	-458
964.833	61
964.920	187
965.007	-38
965.094	182
965.181	457
965.268	-226
965.355	-444
965.441	288
965.528	-890
965.615	1326
965.702	-445
965.789	-359
965.875	30
965.962	375
966.049	-128
966.136	1215
966.222	118
966.309	1529
966.395	242
966.482	1021
966.569	-471
966.655	257
966.742	-73
966.828	780
966.915	-261
967.001	-304
967.087	-367
967.174	-285
967.260	377
967.347	664
967.433	-559
967.519	1173
967.605	216
967.692	-220
967.778	-139
967.864	-941
967.950	-102
968.036	-432
968.123	-386
968.209	28
968.295	-1432
968.381	570
968.467	-5
968.553	-1446
968.639	927
968.725	-558
968.811	29
968.897	1286
968.983	-424
969.069	-39
969.154	-218
969.240	554
969.326	-529
969.412	-115
969.497	-801
969.583	-604
969.669	567
969.755	178
969.840	55
969.926	706
970.012	1388
970.097	2601
970.183	1529
970.268	855
970.354	288
970.439	-279
970.525	884
970.610	-950
970.696	502
970.781	-366
970.866	-1415
970.952	397
971.037	-1261
971.122	263
971.208	-601
971.293	-32
971.378	-452
971.463	-462
971.549	239
971.634	302
971.719	82
971.804	460
971.889	319
971.974	-215
972.059	384
972.144	-428
972.229	-386
972.314	-1365
972.399	376
972.484	-1057
972.569	-288
972.654	-293
972.739	1226
972.824	-180
972.908	-788
972.993	-1197
973.078	-649
973.163	-790
973.247	-334
973.332	-2114
973.417	728
973.501	-801
973.586	503
973.671	-124
973.755	-782
973.840	362
973.924	545
974.009	772
974.093	-66
974.178	994
974.262	35
974.346	140
974.431	-180
974.515	-692
974.600	-422
974.684	811
974.768	-230
974.852	1476
974.937	-1486
975.021	1001
975.105	-388
975.189	368
975.273	671
975.358	-1060
975.442	-1288
975.526	-451
975.610	-430
975.694	-1776
975.778	586
975.862	-575
975.946	-2139
976.030	770
976.114	-602
976.198	985
976.281	-961
976.365	858
976.449	-893
976.533	50
976.617	-819
976.700	-31
976.784	-650
976.868	98
976.951	135
977.035	75
977.119	-497
977.202	153
977.286	123
977.369	621
977.453	2475
977.536	721
977.620	-46
977.703	448
977.787	-722
977.870	671
977.953	840
978.037	-985
978.120	770
978.203	35
978.287	603
978.370	440
978.453	-750
978.536	-449
978.620	343
978.703	-662
978.786	-329
978.869	-1338
978.952	-982
979.035	1241
979.118	-103
979.201	-789
979.284	161
979.367	-223
979.450	184
979.533	-1186
979.616	-302
979.699	-128
979.782	-153
979.865	162
979.948	-396
980.030	-304
980.113	-373
980.196	-661
980.279	184
980.361	-433
980.444	-410
980.526	-13
980.609	1115
980.692	1406
980.774	755
980.857	-1033
980.939	654
981.022	-394
981.104	-449
981.187	255
981.269	452
981.352	358
981.434	100
981.516	-7
981.599	502
981.681	837
981.763	445
981.846	130
981.928	-486
982.010	-116
982.092	-1187
982.174	965
982.256	-584
982.339	108
982.421	-149
982.503	-935
982.585	-1635
982.667	489
982.749	711
982.831	-306
982.913	-1179
982.995	616
983.077	-741
983.158	1340
983.240	-1036
983.322	924
983.404	2421
983.486	542
983.568	1571
983.649	707
983.731	534
983.813	366
983.894	622
983.976	-276
984.058	-363
984.139	1344
984.221	-9
984.302	1298
984.384	426
984.465	521
984.547	1007
984.628	178
984.710	987
984.791	356
984.872	474
984.954	446
985.035	653
985.116	432
985.198	-52
985.279	1227
985.360	-136
985.441	-225
985.522	907
985.604	82
985.685	-1188
985.766	1051
985.847	934
985.928	-607
986.009	376
986.090	666
986.171	625
986.252	741
986.333	-110
986.414	551
986.495	-39
986.576	332
986.656	715
986.737	860
986.818	586
986.899	537
986.980	977
987.060	901
987.141	603
987.222	1344
987.302	1173
987.383	2279
987.464	930
987.544	2119
987.625	1063
987.705	2002
987.786	972
987.866	1343
987.947	1097
988.027	1330
988.108	1329
988.188	1213
988.268	1501
988.349	1021
988.429	355
988.509	356
988.589	741
988.670	-81
988.750	1724
988.830	550
988.910	1601
988.990	1256
989.070	1287
989.151	-137
989.231	521
989.311	1797
989.391	939
989.471	1061
989.551	668
989.631	243
989.711	1502
989.791	151
989.870	-425
989.950	1297
990.030	624
990.110	671
990.190	1025
990.269	1112
990.349	-121
990.429	493
990.509	377
990.588	92
990.668	303
990.747	553
990.827	216
990.907	1583
990.986	626
991.066	1043
991.145	-197
991.225	991
991.304	34
991.383	323
991.463	140
991.542	418
991.622	479
991.701	-392
991.780	758
991.859	83
991.939	221
992.018	769
992.097	707
992.176	-25
992.256	-202
992.335	-866
992.414	843
992.493	-695
992.572	-655
992.651	1361
992.730	-116
992.809	250
992.888	107
992.967	-20
993.046	818
993.125	-1221
993.203	-716
993.282	-35
993.361	147
993.440	31
993.519	-559
993.597	1217
993.676	-776
993.755	304
993.834	431
993.912	-1053
993.991	734
994.069	-1006
994.148	-83
994.226	-368
994.305	6
994.384	-705
994.462	882
994.540	-1022
994.619	81
994.697	917
994.776	-151
994.854	557
994.932	-365
995.011	-708
995.089	-253
995.167	344
995.245	-267
995.324	-1241
995.402	598
995.480	-1148
995.558	-387
995.636	-908
995.714	-437
995.792	1286
995.870	-1271
995.948	-521
996.026	171
996.104	-2101
996.182	449
996.260	-1017
996.338	-805
996.416	-982
996.494	-1018
996.572	799
996.649	-491
996.727	-856
996.805	-167
996.883	-844
996.960	-748
997.038	65
997.116	-181
997.193	-758
997.271	-223
997.348	-1097
997.426	-468
997.504	-142
997.581	214
997.658	579
997.736	-1710
997.813	-1867
997.891	891
997.968	-1313
998.046	-1205
998.123	-778
998.200	96
998.277	-339
998.355	-72
998.432	-2055
998.509	-499
998.586	254
998.663	247
998.741	-107
998.818	-626
998.895	-1077
998.972	-139
999.049	27
999.126	-1105
999.203	-292
999.280	-740
999.357	-1502
999.434	-177
999.511	-1140
999.587	-451
999.664	-1332
999.741	-953
999.818	-736
999.895	-1390
999.971	-1545
1000.048	-1019
1000.125	1444
1000.202	-1409
1000.278	283
1000.355	-669
1000.431	-1289
1000.508	-741
1000.584	-289
1000.661	877
1000.738	-1166
1000.814	-625
1000.890	-136
1000.967	-460
1001.043	-1526
1001.120	-1698
1001.196	-897
1001.272	-1310
1001.349	-706
1001.425	174
1001.501	-526
1001.577	-671
1001.654	-1199
1001.730	-1156
1001.806	-1009
1001.882	-1355
1001.958	187
1002.034	-1330
1002.110	-657
1002.186	-1309
1002.262	-1627
1002.338	-2219
1002.414	-1174
1002.490	-589
1002.566	-594
1002.642	-1481
1002.718	-440
1002.794	-1099
1002.870	-1262
1002.945	-665
1003.021	-1025
1003.097	-1348
1003.173	-611
1003.248	-1582
1003.324	-990
1003.400	-637
1003.475	-1583
1003.551	-279
1003.626	-1368
1003.702	-1780
1003.777	-761
1003.853	-1919
1003.928	-1914
1004.004	-1443
1004.079	-458
1004.155	-1293
1004.230	-1226
1004.305	166
1004.381	-1226
1004.456	-1628
1004.531	-1006
1004.607	-1372
1004.682	-1643
1004.757	-1521
1004.832	-967
1004.907	-1426
1004.982	-1073
1005.057	-1559
1005.133	-1066
1005.208	-1022
1005.283	-1410
1005.358	-308
1005.433	-1001
1005.508	-1016
1005.583	-1129
1005.657	-475
1005.732	-742
1005.807	-1866
1005.882	-1404
1005.957	-1153
1006.032	-496
1006.106	-1489
1006.181	-1597
1006.256	-755
1006.331	-1664
1006.405	-1636
1006.480	-350
1006.554	-668
1006.629	169
1006.704	-1895
1006.778	-1489
1006.853	-1374
1006.927	-1132
1007.002	-1251
1007.076	-996
1007.150	-1187
1007.225	-656
1007.299	-1419
1007.373	-1359
1007.448	-1026
1007.522	-768
1007.596	-1638
1007.671	-205
1007.745	-1022
1007.819	-1353
1007.893	-2118
1007.967	-948
1008.041	-1680
1008.115	-1394
1008.190	-823
1008.264	-960
1008.338	-2258
1008.412	-1450
1008.486	-1172
1008.560	-1174
1008.633	-1625
1008.707	-1623
1008.781	-816
1008.855	-1560
1008.929	-1528
1009.003	-2385
1009.076	-827
1009.150	-1298
1009.224	-642
1009.298	-1068
1009.371	-1653
1009.445	-914
1009.519	-792
1009.592	-1651
1009.666	-1258
1009.739	-783
1009.813	-1820
1009.886	-451
1009.960	-1775
1010.033	-656
1010.107	-1083
1010.180	-1641
1010.253	-1364
1010.327	-2064
1010.400	-2381
1010.473	-1478
1010.547	-340
1010.620	-1274
1010.693	-2048
1010.766	-1159
1010.840	-804
1010.913	-496
1010.986	-2076
1011.059	-1899
1011.132	-2365
1011.205	-1041
1011.278	-1161
1011.351	-1404
1011.424	-1018
1011.497	-1424
1011.570	-1813
1011.643	-1573
1011.716	-1767
1011.789	-1739
1011.862	-1403
1011.934	-638
1012.007	-1955
1012.080	-713
1012.153	-1573
1012.225	-776
1012.298	-1447
1012.371	-896
1012.443	-1129
1012.516	-1685
1012.588	-1592
1012.661	-476
1012.733	-2056
1012.806	-386
1012.879	-2055
1012.951	-1886
1013.023	-942
1013.096	-1268
1013.168	-1656
1013.241	-652
1013.313	-1162
1013.385	-2047
1013.458	-1063
1013.530	-744
1013.602	-1967
1013.674	-907
1013.746	-1830
1013.819	-1402
1013.891	-467
1013.963	-2474
1014.035	-1284
1014.107	-1441
1014.179	-1151
1014.251	-2516
1014.323	-1256
1014.395	-1739
1014.467	-972
1014.539	-1457
1014.611	-1777
1014.683	-872
1014.754	-1021
1014.826	-1559
1014.898	-883
1014.970	-1176
1015.042	-320
1015.113	-1181
1015.185	-1347
1015.257	-2099
1015.328	-1669
1015.400	-764
1015.471	-1727
1015.543	-1713
1015.615	-377
1015.686	-1095
1015.757	-2192
1015.829	-749
1015.901	-1638
1015.972	-649
1016.043	-1229
1016.115	-1194
1016.186	-1327
1016.257	-1973
1016.328	-1453
1016.400	-813
1016.471	-2570
1016.542	-1400
1016.613	-2422
1016.685	-1737
1016.756	-1406
1016.827	-1424
1016.898	-2565
1016.969	-1218
1017.040	-1797
1017.111	-2057
1017.182	-1912
1017.253	-1323
1017.324	-1524
1017.395	-1625
1017.466	-1780
1017.537	-1850
1017.608	-1375
1017.678	-801
1017.749	-1221
1017.820	-1133
1017.891	-2494
1017.961	-2349
1018.032	-1030
1018.103	-1494
1018.173	-1574
1018.244	-1360
1018.315	-1199
1018.385	-1789
1018.456	-2011
1018.526	-1963
1018.597	-1530
1018.667	-1781
1018.738	-1797
1018.808	-1195
1018.878	-1948
1018.949	-1392
1019.019	-2094
1019.089	-1261
1019.160	-1867
1019.230	-2044
1019.300	-1790
1019.371	-2141
1019.441	-1664
1019.511	-1681
1019.581	-1560
1019.651	-1437
1019.721	-1230
1019.791	-1591
1019.861	-1342
1019.931	-1382
1020.001	-2080
1020.071	-1561
1020.141	-1546
1020.211	-1083
1020.281	-2283
1020.351	-1910
1020.421	-1928
1020.491	-1398
1020.560	-1708
1020.630	-1112
1020.700	-1866
1020.770	-2241
1020.839	-1986
1020.909	-2251
1020.979	-1771
1021.048	-1794
1021.118	-2204
1021.187	-1068
1021.257	-2328
1021.326	-908
1021.396	-2776
1021.465	-1773
1021.535	-1702
1021.604	-1942
1021.674	-2027
1021.743	-1496
1021.812	-1943
1021.882	-1987
1021.951	-1114
1022.020	-1354
1022.089	-2273
1022.159	-2675
1022.228	-1133
1022.297	-1856
1022.366	-2027
1022.435	-1518
1022.504	-1741
1022.573	-1251
1022.642	-1728
1022.711	-2150
1022.781	-987
1022.849	-1899
1022.918	-2397
1022.987	-1980
1023.056	-1489
1023.125	-1045
1023.194	-1175
1023.263	-1799
1023.331	-2208
1023.400	-2621
1023.469	-2173
1023.538	-992
1023.606	-2355
1023.675	-1376
1023.744	-2052
1023.812	-2112
1023.881	-2269
1023.949	-1430
1024.018	-2210
1024.086	-1881
1024.155	-1893
1024.223	-2046
1024.292	-1743
1024.360	-984
1024.429	-1660
1024.497	-1880
1024.565	-1597
1024.634	-1613
1024.702	-872
1024.770	-2075
1024.838	-2430
1024.907	-1141
1024.975	-1613
1025.043	-2039
1025.111	-1957
1025.179	-1816
1025.247	-2213
1025.315	-2280
1025.383	-1886
1025.451	-2283
1025.519	-2573
1025.587	-1647
1025.655	-2026
1025.723	-2147
1025.791	-2399
1025.859	-2230
1025.927	-1221
1025.995	-982
1026.062	-1468
1026.130	-1748
1026.198	-2279
1026.266	-1551
1026.333	-1392
1026.401	-1584
1026.469	-2263
1026.536	-2284
1026.604	-2233
1026.671	-2700
1026.739	-2491
1026.806	-2172
1026.874	-2021
1026.941	-1651
1027.009	-2072
1027.076	-1704
1027.144	-1094
1027.211	-2001
1027.278	-2459
1027.345	-2109
1027.413	-1839
1027.480	-2106
1027.547	-1441
1027.614	-1226
1027.682	-1674
1027.749	-2078
1027.816	-2109
1027.883	-1846
1027.950	-2081
1028.017	-1455
1028.084	-1174
1028.151	-2062
1028.218	-1406
1028.285	-1048
1028.352	-2140
1028.419	-1077
1028.486	-2049
1028.553	-1894
1028.619	-2378
1028.686	-1952
1028.753	-2156
1028.820	-2560
1028.886	-1833
1028.953	-2056
1029.020	-2303
1029.086	-2226
1029.153	-2113
1029.220	-2142
1029.286	-2050
1029.353	-2149
1029.419	-2662
1029.486	-2307
1029.552	-1905
1029.619	-1744
1029.685	-1740
1029.751	-2041
1029.818	-843
1029.884	-2494
1029.951	-1046
1030.017	-2243
1030.083	-2234
1030.149	-1764
1030.216	-2409
1030.282	-1371
1030.348	-2854
1030.414	-2229
1030.480	-2060
1030.546	-2730
1030.612	-2266
1030.678	-2578
1030.744	-1859
1030.810	-1587
1030.876	-2215
1030.942	-2082
1031.008	-2123
1031.074	-1931
1031.140	-2234
1031.206	-1809
1031.272	-2674
1031.337	-2037
1031.403	-2018
1031.469	-2033
1031.534	-2165
1031.600	-1643
1031.666	-2471
1031.731	-2222
1031.797	-1705
1031.863	-2643
1031.928	-2674
1031.994	-2133
1032.059	-2010
1032.125	-2447
1032.190	-2538
1032.256	-2522
1032.321	-2584
1032.386	-1928
1032.452	-1299
1032.517	-1571
1032.582	-2843
1032.647	-1911
1032.713	-2548
1032.778	-2086
1032.843	-2334
1032.908	-2152
1032.974	-2187
1033.039	-2132
1033.104	-2253
1033.169	-2118
1033.234	-1909
1033.299	-1133
1033.364	-2063
1033.429	-2273
1033.494	-2636
1033.559	-2152
1033.624	-2166
1033.688	-1803
1033.753	-2630
1033.818	-2345
1033.883	-2004
1033.948	-1936
1034.013	-1540
1034.077	-1577
1034.142	-1350
1034.207	-562
1034.271	560
1034.336	1209
1034.400	-1026
1034.465	-1255
1034.530	-2212
1034.594	-1846
1034.658	-1824
1034.723	-2429
1034.787	-1906
1034.852	-2241
1034.916	-3176
1034.981	-2658
1035.045	-2260
1035.109	-2216
1035.173	-3045
1035.238	-2648
1035.302	-2104
1035.366	-2389
1035.430	-1760
1035.495	-2176
1035.559	-1693
1035.623	-2005
1035.687	-3198
1035.751	-2358
1035.815	-2163
1035.879	-2258
1035.943	-2658
1036.007	-2639
1036.071	-2316
1036.135	-1964
1036.198	-2405
1036.262	-2530
1036.326	-1898
1036.390	-1747
1036.454	-2784
1036.517	-2155
1036.581	-2396
1036.645	-2051
1036.709	-2201
1036.772	-1699
1036.836	-2479
1036.900	-1999
1036.963	-1991
1037.026	-3000
1037.090	-2643
1037.154	-2274
1037.217	-2477
1037.280	-2023
1037.344	-2101
1037.407	-3509
1037.471	-2823
1037.534	-3051
1037.597	-1007
1037.661	-2655
1037.724	-1797
1037.787	-2499
1037.850	-2919
1037.913	-2412
1037.977	-1620
1038.040	-1980
1038.103	-2789
1038.166	-2248
1038.229	-1723
1038.292	-2271
1038.355	-2043
1038.418	-2058
1038.481	-1859
1038.544	-3142
1038.607	-2238
1038.670	-2241
1038.732	-2636
1038.795	-2105
1038.858	-2057
1038.921	-3097
1038.984	-1711
1039.046	-2443
1039.109	-2697
1039.172	-2245
1039.234	-2131
1039.297	-2834
1039.360	-1892
1039.422	-2696
1039.485	-3040
1039.547	-3353
1039.610	-2284
1039.672	-2695
1039.734	-2524
1039.797	-2006
1039.859	-2385
1039.922	-2310
1039.984	-1747
1040.046	-2723
1040.109	-2067
1040.171	-2360
1040.233	-2739
1040.295	-1530
1040.358	-2973
1040.420	-2683
1040.482	-2911
1040.544	-2309
1040.606	-2125
1040.668	-3074
1040.730	-2792
1040.792	-2336
1040.854	-2849
1040.916	-2122
1040.978	-2095
1041.040	-1996
1041.102	-2064
1041.164	-2211
1041.225	-3003
1041.287	-2433
1041.349	-2606
1041.411	-2325
1041.472	-2410
1041.534	-2908
1041.596	-2845
1041.657	-2174
1041.719	-2202
1041.781	-2081
1041.842	-2808
1041.904	-2859
1041.965	-2231
1042.027	-2828
1042.088	-2570
1042.150	-1652
1042.211	-3238
1042.272	-1783
1042.334	-2472
1042.395	-2674
1042.456	-3215
1042.518	-2757
1042.579	-2228
1042.640	-2064
1042.701	-2118
1042.763	-2111
1042.824	-2128
1042.885	-2923
1042.946	-3133
1043.007	-2459
1043.068	-2829
1043.129	-2565
1043.190	-2283
1043.251	-2020
1043.312	-2563
1043.373	-1345
1043.434	-2474
1043.495	-2612
1043.556	-1955
1043.616	-2168
1043.677	-2827
1043.738	-2325
1043.799	-2625
1043.859	-2456
1043.920	-2697
1043.981	-2838
1044.041	-2222
1044.102	-2986
1044.162	-2425
1044.223	-3166
1044.284	-1827
1044.344	-2208
1044.405	-1835
1044.465	-2511
1044.525	-3105
1044.586	-2450
1044.646	-2443
1044.707	-1759
1044.767	-2019
1044.827	-2444
1044.887	-2251
1044.948	-2345
1045.008	-2250
1045.068	-1831
1045.128	-2204
1045.188	-2438
1045.249	-2521
1045.309	-2046
1045.369	-1775
1045.429	-1336
1045.489	-1998
1045.549	-1533
1045.609	-2016
1045.669	-2012
1045.729	-2338
1045.789	-2447
1045.848	-2434
1045.908	-2058
1045.968	-2087
1046.028	-2557
1046.088	-2054
1046.147	-1414
1046.207	-1807
1046.267	-2559
1046.326	-1809
1046.386	-1371
1046.446	-1822
1046.505	-1371
1046.565	-1507
1046.624	-1697
1046.684	-982
1046.743	-1332
1046.803	-1063
1046.862	-1069
1046.922	0
