'Start Wavelength	183.907
'End Wavelength	1046.922
'Gate Delay	5.000
'Gate Width (ms)	1.050
'Laser Output Level	0.000
'X Position	0.000
'Y Position	0.000
'Z Position	0.000
'Grid Point Number	1.000
'Shot Number	100.000
183.907	210.000
183.977	-4.000
184.047	-194
184.116	1210
184.186	606
184.256	700
184.325	-291
184.395	-78
184.465	1181
184.534	174
184.604	-572
184.674	6
184.743	51
184.813	1029
184.883	-453
184.952	964
185.022	91
185.092	604
185.161	969
185.231	1008
185.301	-27
185.370	625
185.440	-133
185.509	483
185.579	-155
185.649	469
185.718	1025
185.788	265
185.857	-46
185.927	161
185.996	-324
186.066	-340
186.136	785
186.205	426
186.275	522
186.344	662
186.414	26
186.483	-134
186.553	1433
186.622	1170
186.692	1538
186.761	164
186.831	454
186.900	507
186.970	486
187.039	347
187.109	981
187.178	205
187.248	851
187.317	693
187.387	-188
187.456	73
187.526	-8
187.595	941
187.664	337
187.734	223
187.803	139
187.873	20
187.942	565
188.012	703
188.081	404
188.150	363
188.220	1159
188.289	2062
188.358	861
188.428	1268
188.497	1015
188.567	602
188.636	539
188.705	828
188.775	803
188.844	323
188.913	1062
188.983	435
189.052	58
189.121	258
189.191	1027
189.260	996
189.329	-43
189.399	486
189.468	409
189.537	343
189.606	571
189.676	95
189.745	-99
189.814	875
189.883	421
189.953	152
190.022	222
190.091	988
190.161	228
190.230	598
190.299	50
190.368	331
190.437	-287
190.507	415
190.576	400
190.645	615
190.714	-69
190.783	-453
190.853	586
190.922	190
190.991	572
191.060	633
191.129	-802
191.198	995
191.268	437
191.337	-259
191.406	405
191.475	340
191.544	-220
191.613	894
191.682	223
191.752	1
191.821	169
191.890	362
191.959	436
192.028	-342
192.097	-324
192.166	511
192.235	-185
192.304	774
192.373	32
192.442	364
192.511	-682
192.580	-548
192.650	145
192.719	140
192.788	5
192.857	752
192.926	241
192.995	370
193.064	1086
193.133	738
193.202	360
193.271	832
193.340	282
193.409	1140
193.478	602
193.547	482
193.615	463
193.684	628
193.753	-300
193.822	923
193.891	616
193.960	732
194.029	-529
194.098	409
194.167	356
194.236	45
194.305	-154
194.374	72
194.443	-240
194.512	214
194.580	521
194.649	1234
194.718	947
194.787	1265
194.856	-155
194.925	537
194.994	-519
195.062	613
195.131	1106
195.200	935
195.269	299
195.338	521
195.407	537
195.475	415
195.544	281
195.613	152
195.682	295
195.751	73
195.819	-284
195.888	431
195.957	1618
196.026	-871
196.094	560
196.163	553
196.232	1170
196.301	-107
196.369	-688
196.438	169
196.507	661
196.576	-193
196.644	20
196.713	535
196.782	27
196.850	362
196.919	-361
196.988	1171
197.056	-205
197.125	490
197.194	475
197.262	379
197.331	543
197.400	-55
197.468	152
197.537	166
197.606	364
197.674	772
197.743	1082
197.812	244
197.880	1104
197.949	290
198.017	337
198.086	726
198.155	918
198.223	731
198.292	703
198.360	885
198.429	-41
198.497	499
198.566	882
198.635	1340
198.703	669
198.772	515
198.840	1442
198.909	1583
198.977	-26
199.046	754
199.114	432
199.183	1317
199.251	723
199.320	-45
199.388	439
199.457	581
199.525	468
199.594	665
199.662	121
199.731	613
199.799	-308
199.867	974
199.936	323
200.004	879
200.073	692
200.141	-92
200.210	-423
200.278	634
200.346	489
200.415	847
200.483	1620
200.552	975
200.620	130
200.688	486
200.757	294
200.825	492
200.893	-765
200.962	449
201.030	-444
201.098	693
201.167	555
201.235	-92
201.303	906
201.372	1868
201.440	973
201.508	994
201.577	587
201.645	1016
201.713	341
201.781	793
201.850	1294
201.918	979
201.986	487
202.055	389
202.123	26
202.191	523
202.259	632
202.327	605
202.396	250
202.464	994
202.532	1499
202.600	5209
202.669	3723
202.737	1261
202.805	568
202.873	864
202.941	92
203.009	285
203.078	500
203.146	648
203.214	342
203.282	-207
203.350	249
203.418	701
203.487	163
203.555	-380
203.623	684
203.691	755
203.759	14
203.827	438
203.895	502
203.963	1133
204.031	99
204.099	1014
204.168	-498
204.236	1193
204.304	246
204.372	734
204.440	0
204.508	748
204.576	-633
204.644	203
204.712	90
204.780	820
204.848	364
204.916	-102
204.984	107
205.052	164
205.120	638
205.188	-119
205.256	-607
205.324	371
205.392	610
205.460	722
205.528	266
205.596	667
205.664	98
205.732	263
205.799	191
205.867	2111
205.935	-132
206.003	1201
206.071	342
206.139	-294
206.207	3
206.275	440
206.343	-14
206.411	835
206.478	334
206.546	555
206.614	213
206.682	1209
206.750	772
206.818	1958
206.885	1806
206.953	-394
207.021	1236
207.089	826
207.157	-537
207.225	156
207.292	609
207.360	620
207.428	346
207.496	-39
207.563	322
207.631	311
207.699	357
207.767	157
207.834	127
207.902	99
207.970	311
208.038	520
208.105	-355
208.173	908
208.241	548
208.309	1502
208.376	1452
208.444	1737
208.512	-89
208.579	-819
208.647	1154
208.715	1647
208.782	4
208.850	568
208.918	-51
208.985	1199
209.053	281
209.120	288
209.188	-391
209.256	172
209.323	365
209.391	5
209.459	1379
209.526	12
209.594	31
209.661	-128
209.729	157
209.796	1012
209.864	377
209.932	-302
209.999	1498
210.067	776
210.134	816
210.202	885
210.269	1002
210.337	2341
210.404	743
210.472	702
210.539	-114
210.607	-118
210.674	479
210.742	-168
210.809	-76
210.877	787
210.944	848
211.012	-82
211.079	1791
211.146	764
211.214	540
211.281	2264
211.349	1820
211.416	266
211.484	175
211.551	-92
211.618	1093
211.686	50
211.753	-251
211.821	826
211.888	-81
211.955	809
212.023	140
212.090	200
212.157	148
212.225	267
212.292	775
212.359	2077
212.427	7009
212.494	2603
212.561	1031
212.629	743
212.696	61
212.763	246
212.831	-347
212.898	797
212.965	168
213.032	1565
213.100	-102
213.167	324
213.234	720
213.301	160
213.369	804
213.436	687
213.503	-165
213.570	760
213.638	10
213.705	-468
213.772	-370
213.839	858
213.906	735
213.973	-285
214.041	-201
214.108	165
214.175	557
214.242	358
214.309	843
214.376	175
214.444	-167
214.511	937
214.578	438
214.645	1119
214.712	962
214.779	463
214.846	569
214.913	1392
214.980	1318
215.048	2397
215.115	2556
215.182	1882
215.249	1097
215.316	-35
215.383	1282
215.450	732
215.517	-590
215.584	603
215.651	65
215.718	350
215.785	773
215.852	61
215.919	414
215.986	427
216.053	460
216.120	727
216.187	300
216.254	182
216.321	397
216.388	705
216.455	468
216.522	1079
216.589	465
216.656	1269
216.722	799
216.789	668
216.856	667
216.923	756
216.990	188
217.057	130
217.124	762
217.191	543
217.258	1087
217.324	1037
217.391	1067
217.458	1533
217.525	238
217.592	466
217.659	-1234
217.725	425
217.792	523
217.859	1750
217.926	137
217.993	563
218.059	531
218.126	550
218.193	-53
218.260	320
218.327	-429
218.393	792
218.460	29
218.527	158
218.594	195
218.660	1110
218.727	1352
218.794	-12
218.860	31
218.927	363
218.994	-92
219.061	200
219.127	596
219.194	442
219.261	1024
219.327	-717
219.394	347
219.461	-117
219.527	730
219.594	522
219.661	793
219.727	-612
219.794	1326
219.860	6
219.927	278
219.994	1856
220.060	5998
220.127	5674
220.193	3251
220.260	1526
220.326	2400
220.393	1584
220.460	1801
220.526	1620
220.593	-84
220.659	2661
220.726	223
220.792	3402
220.859	2656
220.925	2868
220.992	4422
221.058	4862
221.125	4643
221.191	3113
221.258	795
221.324	2120
221.391	71
221.457	489
221.524	471
221.590	1493
221.657	3590
221.723	2741
221.789	2735
221.856	2776
221.922	24
221.989	1389
222.055	573
222.121	-47
222.188	2558
222.254	499
222.321	1186
222.387	370
222.453	-287
222.520	-331
222.586	534
222.652	1254
222.719	-382
222.785	1270
222.851	-69
222.918	-49
222.984	244
223.050	-161
223.116	-1106
223.183	1379
223.249	-847
223.315	5
223.382	334
223.448	-195
223.514	50
223.580	60
223.647	-574
223.713	-827
223.779	138
223.845	-315
223.911	677
223.978	-434
224.044	59
224.110	-100
224.176	-50
224.242	223
224.309	-310
224.375	698
224.441	387
224.507	55
224.573	-1132
224.639	190
224.705	-337
224.772	248
224.838	-176
224.904	981
224.970	-536
225.036	-515
225.102	-998
225.168	1520
225.234	731
225.300	-96
225.366	43
225.432	159
225.499	405
225.565	614
225.631	-385
225.697	-1
225.763	-1093
225.829	973
225.895	307
225.961	990
226.027	459
226.093	178
226.159	1299
226.225	2229
226.291	4063
226.357	6997
226.423	2697
226.489	1904
226.554	756
226.620	1245
226.686	459
226.752	1759
226.818	3188
226.884	10269
226.950	10296
227.016	3584
227.082	2295
227.148	1231
227.214	1120
227.279	1265
227.345	965
227.411	1818
227.477	4645
227.543	11874
227.609	13442
227.674	6671
227.740	2094
227.806	1449
227.872	203
227.938	722
228.003	742
228.069	1525
228.135	408
228.201	620
228.267	-8
228.332	461
228.398	-514
228.464	993
228.530	77
228.595	174
228.661	-879
228.727	-165
228.792	715
228.858	853
228.924	-1221
228.990	1562
229.055	-969
229.121	691
229.187	29
229.252	-706
229.318	55
229.384	665
229.449	388
229.515	-1317
229.581	-559
229.646	2171
229.712	42
229.777	1050
229.843	1109
229.909	750
229.974	535
230.040	1119
230.105	141
230.171	-373
230.236	1000
230.302	935
230.368	655
230.433	-830
230.499	153
230.564	727
230.630	-96
230.695	602
230.761	1001
230.826	-599
230.892	1375
230.957	-177
231.023	-69
231.088	-106
231.154	328
231.219	778
231.284	467
231.350	1427
231.415	-384
231.481	583
231.546	-178
231.612	723
231.677	-146
231.742	-1099
231.808	1275
231.873	-489
231.939	-1175
232.004	1035
232.069	1721
232.135	-534
232.200	-135
232.265	1212
232.331	92
232.396	111
232.461	-449
232.527	668
232.592	-1142
232.657	736
232.723	476
232.788	86
232.853	437
232.918	343
232.984	646
233.049	674
233.114	198
233.179	990
233.245	1869
233.310	1290
233.375	-1101
233.440	425
233.506	-573
233.571	-340
233.636	379
233.701	-94
233.766	547
233.832	515
233.897	-198
233.962	-771
234.027	1366
234.092	838
234.157	403
234.222	737
234.288	922
234.353	2242
234.418	1729
234.483	1584
234.548	1160
234.613	617
234.678	1012
234.743	47
234.808	2430
234.873	-255
234.938	1568
235.004	676
235.069	-113
235.134	678
235.199	922
235.264	37
235.329	-1619
235.394	967
235.459	978
235.524	-905
235.589	1077
235.654	-300
235.719	-1349
235.784	1022
235.849	-227
235.913	1105
235.978	429
236.043	585
236.108	509
236.173	-380
236.238	1020
236.303	-62
236.368	12
236.433	1471
236.498	219
236.563	2071
236.627	1875
236.692	15675
236.757	12136
236.822	2582
236.887	1644
236.952	2047
237.017	-427
237.081	1727
237.146	311
237.211	4408
237.276	13736
237.341	28491
237.405	9268
237.470	2861
237.535	1727
237.600	1718
237.664	1260
237.729	600
237.794	-523
237.859	3546
237.923	1260
237.988	964
238.053	715
238.118	711
238.182	2268
238.247	5020
238.312	-756
238.376	1132
238.441	-946
238.506	1828
238.570	-641
238.635	1768
238.700	-194
238.764	403
238.829	1271
238.893	436
238.958	1481
239.023	569
239.087	244
239.152	1110
239.216	94
239.281	1321
239.346	1161
239.410	1164
239.475	656
239.539	4402
239.604	1605
239.668	2264
239.733	2768
239.797	9311
239.862	23313
239.926	15619
239.991	6108
240.055	3111
240.120	835
240.184	1417
240.249	602
240.313	695
240.378	-485
240.442	1205
240.507	3435
240.571	1570
240.635	880
240.700	1198
240.764	882
240.829	-243
240.893	-794
240.957	614
241.022	698
241.086	2889
241.151	-11
241.215	229
241.279	1362
241.344	510
241.408	940
241.472	175
241.537	1539
241.601	756
241.665	-1098
241.730	341
241.794	1575
241.858	382
241.922	401
241.987	874
242.051	-128
242.115	-56
242.179	711
242.244	212
242.308	1405
242.372	987
242.436	-966
242.501	910
242.565	-430
242.629	-28
242.693	590
242.757	-470
242.822	-114
242.886	772
242.950	1368
243.014	345
243.078	702
243.142	697
243.206	-696
243.271	941
243.335	105
243.399	2102
243.463	5795
243.527	21324
243.591	6070
243.655	2227
243.719	910
243.783	1585
243.847	1527
243.911	3250
243.975	1114
244.040	279
244.104	2285
244.168	637
244.232	-141
244.296	893
244.360	2369
244.424	606
244.488	383
244.552	1740
244.615	-360
244.679	906
244.743	629
244.807	-475
244.871	669
244.935	1626
244.999	-11
245.063	413
245.127	1493
245.191	2092
245.255	1483
245.319	963
245.383	220
245.446	2161
245.510	-878
245.574	1308
245.638	1107
245.702	-1223
245.766	2275
245.829	2536
245.893	-249
245.957	750
246.021	959
246.085	636
246.149	878
246.212	3044
246.276	4728
246.340	1894
246.404	1457
246.467	1919
246.531	124
246.595	1768
246.659	1369
246.722	-391
246.786	1549
246.850	601
246.913	1256
246.977	-273
247.041	839
247.104	630
247.168	1112
247.232	2720
247.295	7043
247.359	3884
247.423	830
247.486	2134
247.550	1775
247.614	726
247.677	1161
247.741	617
247.804	428
247.868	3834
247.932	2443
247.995	7864
248.059	2103
248.122	688
248.186	2268
248.249	2625
248.313	10560
248.376	12783
248.440	6631
248.503	2079
248.567	3262
248.630	742
248.694	1950
248.757	4611
248.821	11953
248.884	6916
248.948	5356
249.011	8905
249.075	14108
249.138	13501
249.202	3611
249.265	1500
249.328	3071
249.392	629
249.455	1980
249.519	1732
249.582	1673
249.645	2807
249.709	3167
249.772	1578
249.835	2157
249.899	1362
249.962	1368
250.025	1444
250.089	4036
250.152	6254
250.215	2598
250.279	1371
250.342	1684
250.405	2097
250.468	1379
250.532	2124
250.595	4631
250.658	18147
250.721	37889
250.785	9457
250.848	5653
250.911	2666
250.974	2677
251.038	2832
251.101	9160
251.164	3272
251.227	3529
251.290	3008
251.354	5649
251.417	27532
251.480	29367
251.543	15229
251.606	53707
251.669	42598
251.732	12455
251.795	11378
251.859	12203
251.922	33937
251.985	20431
252.048	6755
252.111	3830
252.174	2267
252.237	5257
252.300	14764
252.363	14469
252.426	45890
252.489	16345
252.552	6498
252.615	3436
252.678	4905
252.741	11854
252.804	16228
252.867	46002
252.930	23669
252.993	9202
253.056	6304
253.119	3627
253.182	2254
253.245	4202
253.308	4229
253.371	1964
253.434	2419
253.497	2092
253.559	6797
253.622	4077
253.685	1935
253.748	3005
253.811	1538
253.874	2314
253.937	1918
254.000	1689
254.062	4191
254.125	7725
254.188	4551
254.251	4038
254.314	1258
254.376	2837
254.439	3893
254.502	2321
254.565	3705
254.628	9389
254.690	2645
254.753	977
254.816	2266
254.878	1808
254.941	4684
255.004	5965
255.067	2642
255.129	1209
255.192	894
255.255	-136
255.317	1312
255.380	1444
255.443	1234
255.505	1248
255.568	1075
255.631	1556
255.693	1716
255.756	971
255.819	2456
255.881	1126
255.944	1165
256.006	907
256.069	1283
256.132	1097
256.194	964
256.257	2270
256.319	2540
256.382	2548
256.444	3539
256.507	2494
256.569	2182
256.632	1857
256.694	1448
256.757	6499
256.819	23901
256.882	8209
256.944	3956
257.007	3183
257.069	1415
257.132	1545
257.194	2939
257.257	743
257.319	1397
257.381	508
257.444	4966
257.506	26887
257.569	29784
257.631	8980
257.693	5254
257.756	3089
257.818	1986
257.880	2141
257.943	2079
258.005	671
258.067	1287
258.130	1452
258.192	1647
258.254	1184
258.317	1418
258.379	1921
258.441	3353
258.503	3768
258.566	2931
258.628	4431
258.690	1497
258.753	1490
258.815	2146
258.877	675
258.939	1607
259.001	2117
259.064	892
259.126	842
259.188	2511
259.250	1856
259.312	1569
259.375	2310
259.437	2375
259.499	1926
259.561	1817
259.623	948
259.685	937
259.747	1245
259.809	3994
259.872	6345
259.934	9943
259.996	9203
260.058	2776
260.120	692
260.182	1888
260.244	1009
260.306	958
260.368	1236
260.430	1330
260.492	2368
260.554	3689
260.616	2201
260.678	4428
260.740	5688
260.802	2040
260.864	2280
260.926	662
260.988	2028
261.050	1516
261.112	1619
261.174	6301
261.236	5141
261.298	1991
261.359	2740
261.421	4710
261.483	980
261.545	2960
261.607	46
261.669	1359
261.731	1689
261.793	3970
261.854	783
261.916	1826
261.978	1204
262.040	1675
262.102	1472
262.164	1580
262.225	2161
262.287	2083
262.349	1709
262.411	1823
262.472	2546
262.534	1212
262.596	3868
262.658	2067
262.719	1524
262.781	2372
262.843	2928
262.904	2219
262.966	2675
263.028	2588
263.090	8176
263.151	24001
263.213	8491
263.275	3874
263.336	2801
263.398	3133
263.459	2081
263.521	1411
263.583	3207
263.644	2532
263.706	1724
263.767	1495
263.829	1630
263.891	1886
263.952	978
264.014	958
264.075	1389
264.137	3013
264.198	2084
264.260	1050
264.321	1138
264.383	1697
264.444	3910
264.506	1897
264.567	1982
264.629	2325
264.690	2855
264.752	2769
264.813	868
264.875	1065
264.936	2619
264.998	1218
265.059	2740
265.120	2009
265.182	1529
265.243	8679
265.305	11342
265.366	3041
265.427	1348
265.489	2456
265.550	411
265.611	1910
265.673	556
265.734	1926
265.795	2101
265.857	1032
265.918	994
265.979	3500
266.040	16309
266.102	15616
266.163	4352
266.224	2699
266.286	2709
266.347	1385
266.408	2102
266.469	2637
266.530	2714
266.592	2566
266.653	3556
266.714	3355
266.775	2164
266.836	3121
266.898	1699
266.959	3159
267.020	2909
267.081	4198
267.142	2620
267.203	3139
267.264	2039
267.326	4038
267.387	3038
267.448	2793
267.509	3703
267.570	2835
267.631	1878
267.692	2048
267.753	2412
267.814	1159
267.875	2006
267.936	4045
267.997	1982
268.058	1446
268.119	2293
268.180	1026
268.241	1087
268.302	752
268.363	7
268.424	644
268.485	1024
268.546	585
268.607	868
268.668	351
268.729	484
268.790	1127
268.851	1820
268.912	2248
268.972	1816
269.033	1286
269.094	996
269.155	1488
269.216	461
269.277	1040
269.338	476
269.398	1569
269.459	-329
269.520	1703
269.581	1684
269.642	1408
269.702	1152
269.763	1416
269.824	1783
269.885	1443
269.945	2119
270.006	1724
270.067	434
270.128	1582
270.188	122
270.249	521
270.310	1164
270.370	1339
270.431	1249
270.492	327
270.553	846
270.613	1287
270.674	2233
270.734	1093
270.795	1078
270.856	1054
270.916	236
270.977	554
271.038	1842
271.098	1121
271.159	1044
271.219	968
271.280	1160
271.340	1848
271.401	92
271.462	1688
271.522	1069
271.583	1592
271.643	1773
271.704	1742
271.764	1821
271.825	2814
271.885	10278
271.946	16959
272.006	5185
272.066	8174
272.127	16830
272.187	11590
272.248	5402
272.308	3153
272.369	9361
272.429	7102
272.489	3671
272.550	5249
272.610	3360
272.671	2741
272.731	2587
272.791	3491
272.852	3096
272.912	2489
272.972	3578
273.033	3298
273.093	3772
273.153	4978
273.214	4329
273.274	5475
273.334	9172
273.394	15327
273.455	8886
273.515	9018
273.575	13051
273.635	10366
273.696	11828
273.756	19317
273.816	11337
273.876	9109
273.936	8579
273.997	9823
274.057	5741
274.117	4256
274.177	4642
274.237	12479
274.297	13278
274.358	6953
274.418	7510
274.478	6959
274.538	3222
274.598	2304
274.658	4541
274.718	5379
274.778	3304
274.838	2441
274.898	2533
274.958	7973
275.018	10835
275.078	8633
275.138	3908
275.198	2386
275.258	2729
275.318	2701
275.378	2493
275.438	2730
275.498	2508
275.558	4079
275.618	7679
275.678	6200
275.738	3748
275.798	3146
275.858	2278
275.918	2275
275.978	2073
276.038	2418
276.098	2373
276.157	3563
276.217	4959
276.277	3590
276.337	2751
276.397	1697
276.457	3224
276.517	2964
276.576	2329
276.636	2242
276.696	2226
276.756	3424
276.815	2988
276.875	4153
276.935	3160
276.995	3441
277.055	3074
277.114	4096
277.174	3609
277.234	5150
277.293	3732
277.353	2949
277.413	2409
277.472	2711
277.532	3388
277.592	6998
277.651	24725
277.711	53407
277.771	19279
277.830	49150
277.890	47523
277.950	33157
278.009	90191
278.069	40816
278.128	37325
278.188	58640
278.248	27929
278.307	60032
278.367	40440
278.426	11931
278.486	7175
278.545	5771
278.605	5721
278.664	6169
278.724	4892
278.783	8464
278.843	15136
278.902	8310
278.962	5757
279.021	8020
279.081	16546
279.140	17656
279.199	10855
279.259	11809
279.318	14220
279.378	20856
279.437	34111
279.496	85290
279.556	227670
279.615	214140
279.675	82375
279.734	43997
279.793	42278
279.853	51450
279.912	24175
279.971	17149
280.031	14362
280.090	18904
280.149	31410
280.208	46713
280.268	159248
280.327	183587
280.386	61601
280.445	30544
280.505	20664
280.564	15644
280.623	11735
280.682	10308
280.742	10959
280.801	8107
280.860	6125
280.919	5758
280.978	5832
281.037	6462
281.097	5381
281.156	7266
281.215	4391
281.274	4708
281.333	8431
281.392	7842
281.451	4030
281.510	3650
281.569	4095
281.628	4822
281.688	3519
281.747	4433
281.806	3722
281.865	3684
281.924	2790
281.983	3529
282.042	3604
282.101	3263
282.160	3942
282.219	3736
282.278	2900
282.337	4432
282.396	3834
282.454	3183
282.513	4342
282.572	5386
282.631	3784
282.690	3410
282.749	2827
282.808	3842
282.867	3570
282.926	4093
282.985	4648
283.043	4537
283.102	3871
283.161	4886
283.220	5672
283.279	8000
283.338	5323
283.396	5056
283.455	5098
283.514	5795
283.573	6384
283.631	5593
283.690	5543
283.749	5328
283.808	7493
283.866	7617
283.925	6238
283.984	7669
284.043	6852
284.101	8777
284.160	8323
284.219	10059
284.277	10293
284.336	11600
284.395	15139
284.453	16747
284.512	15304
284.570	17758
284.629	20884
284.688	25503
284.746	32005
284.805	38933
284.863	49911
284.922	63542
284.981	78991
285.039	107153
285.098	157973
285.156	223887
285.215	181047
285.273	171131
285.332	234032
285.390	181068
285.449	126037
285.507	91434
285.566	67865
285.624	52670
285.683	40527
285.741	32641
285.799	26823
285.858	22130
285.916	19698
285.975	17042
286.033	13110
286.091	13368
286.150	10803
286.208	10478
286.267	9737
286.325	9465
286.383	9050
286.442	8239
286.500	7185
286.558	7219
286.616	6170
286.675	6690
286.733	6283
286.791	5531
286.850	5086
286.908	5716
286.966	6016
287.024	5355
287.083	5442
287.141	4934
287.199	3240
287.257	5170
287.315	3647
287.374	3769
287.432	4804
287.490	4561
287.548	2824
287.606	3579
287.664	3513
287.723	3265
287.781	3669
287.839	3178
287.897	3470
287.955	4104
288.013	5223
288.071	11364
288.129	34337
288.187	115446
288.245	50892
288.303	15012
288.361	9345
288.419	6535
288.477	5414
288.535	4613
288.593	4654
288.651	3392
288.709	2663
288.767	2527
288.825	1752
288.883	3220
288.941	1939
288.999	1168
289.057	2437
289.115	1390
289.173	1496
289.231	2220
289.289	1550
289.346	1929
289.404	2264
289.462	2468
289.520	2667
289.578	2162
289.636	1722
289.694	1640
289.751	1679
289.809	2161
289.867	1454
289.925	2487
289.983	2293
290.040	2158
290.098	1483
290.156	1824
290.214	1189
290.271	1655
290.329	1318
290.387	1768
290.444	1397
290.502	1652
290.560	1937
290.617	1626
290.675	1063
290.733	1137
290.790	1729
290.848	2171
290.906	1793
290.963	1360
291.021	1714
291.078	1162
291.136	1055
291.194	2203
291.251	4293
291.309	1863
291.366	1533
291.424	1896
291.481	1990
291.539	3797
291.596	5755
291.654	2796
291.711	1381
291.769	1537
291.826	2000
291.884	1354
291.941	1058
291.999	1335
292.056	1122
292.114	1347
292.171	929
292.228	2474
292.286	2070
292.343	2050
292.401	2104
292.458	1892
292.515	1600
292.573	2301
292.630	2037
292.687	1552
292.745	1282
292.802	1601
292.859	5372
292.917	8013
292.974	3955
293.031	2419
293.089	1449
293.146	1752
293.203	1892
293.260	1182
293.318	1643
293.375	2152
293.432	869
293.489	2107
293.546	2416
293.604	3026
293.661	9689
293.718	18767
293.775	8533
293.832	6132
293.889	9162
293.947	6463
294.004	3660
294.061	3515
294.118	3969
294.175	7944
294.232	14527
294.289	10590
294.346	4527
294.403	3164
294.460	2344
294.517	2338
294.574	1398
294.631	2167
294.688	2462
294.745	3607
294.802	12373
294.859	10792
294.916	4009
294.973	2582
295.030	1952
295.087	1766
295.144	1598
295.201	1771
295.258	1303
295.315	1834
295.372	3989
295.429	9731
295.486	3793
295.542	2484
295.599	3030
295.656	7368
295.713	4159
295.770	7022
295.827	3851
295.883	1904
295.940	1275
295.997	2410
296.054	675
296.111	1065
296.167	1517
296.224	1274
296.281	1581
296.338	614
296.394	631
296.451	1078
296.508	2730
296.564	5419
296.621	4051
296.678	10649
296.734	17062
296.791	5762
296.848	3502
296.904	2598
296.961	4064
297.018	8057
297.074	6836
297.131	2610
297.187	1612
297.244	4274
297.301	10178
297.357	21419
297.414	7378
297.470	2616
297.527	2437
297.583	2658
297.640	1910
297.696	1224
297.753	909
297.809	911
297.866	1576
297.922	2154
297.979	1372
298.035	1314
298.092	1698
298.148	5089
298.204	4877
298.261	2834
298.317	5909
298.374	14123
298.430	9004
298.486	3295
298.543	2061
298.599	2490
298.656	1867
298.712	3575
298.768	7145
298.824	6987
298.881	2123
298.937	1952
298.993	1792
299.050	1594
299.106	1599
299.162	1118
299.218	1884
299.275	2333
299.331	2167
299.387	5948
299.443	15684
299.500	30377
299.556	21637
299.612	7881
299.668	7883
299.724	19603
299.780	26377
299.837	10479
299.893	7541
299.949	17019
300.005	28508
300.061	21379
300.117	38197
300.173	17932
300.229	7244
300.285	5750
300.341	4728
300.397	4165
300.453	2587
300.510	3705
300.566	4312
300.622	9331
300.678	31370
300.734	44721
300.790	20406
300.845	17302
300.901	19783
300.957	30787
301.013	14713
301.069	7141
301.125	4083
301.181	3613
301.237	2834
301.293	2411
301.349	2123
301.405	1199
301.461	2206
301.516	1756
301.572	759
301.628	2068
301.684	2256
301.740	2846
301.796	4620
301.851	3557
301.907	4648
301.963	6646
302.019	11114
302.074	33483
302.130	33999
302.186	15644
302.242	5906
302.297	3887
302.353	3711
302.409	5375
302.464	4710
302.520	4229
302.576	8201
302.631	11634
302.687	5116
302.743	3452
302.798	2607
302.854	1349
302.910	1623
302.965	1392
303.021	1615
303.076	2210
303.132	2011
303.187	2375
303.243	2296
303.299	1044
303.354	1024
303.410	1987
303.465	758
303.521	1249
303.576	1904
303.632	2414
303.687	4008
303.743	9875
303.798	9369
303.853	4003
303.909	1800
303.964	2264
304.020	1668
304.075	2586
304.130	1850
304.186	3138
304.241	4181
304.297	3420
304.352	1474
304.358	1513
304.407	1834
304.449	2125
304.463	2225
304.518	1536
304.539	1543
304.573	1533
304.629	2472
304.630	2493
304.684	3572
304.720	6349
304.739	7703
304.794	13944
304.811	11603
304.850	6033
304.902	3293
304.905	3125
304.960	1909
304.992	1939
305.015	1904
305.071	2963
305.083	2677
305.126	1707
305.173	1960
305.181	2009
305.236	1478
305.264	1866
305.292	2213
305.347	1740
305.354	1754
305.402	1935
305.445	1683
305.457	1586
305.512	2495
305.535	2307
305.567	2116
305.622	2436
305.626	2487
305.678	3855
305.716	6574
305.733	7459
305.788	9341
305.807	8301
305.843	6919
305.897	10223
305.898	10252
305.953	11009
305.988	7097
306.008	5002
306.063	3483
306.078	3026
306.118	2093
306.168	2005
306.173	2004
306.228	1839
306.259	1911
306.283	1951
306.338	2031
306.349	1961
306.393	1643
306.440	2238
306.448	2354
306.503	2867
306.530	2467
306.558	2236
306.613	4014
306.620	4102
306.668	4921
306.711	6508
306.723	6684
306.778	5988
306.801	5116
306.833	4025
306.888	2933
306.892	2848
306.943	2242
306.982	2568
306.997	2754
307.052	2552
307.072	2435
307.107	2102
307.162	2727
307.163	2724
307.217	2956
307.253	3339
307.272	3530
307.327	3775
307.343	3966
307.381	4380
307.434	3796
307.436	3809
307.491	5661
307.524	6577
307.546	6693
307.600	6950
307.614	6473
307.655	4889
307.704	4006
307.710	4037
307.765	4073
307.795	4806
307.819	5216
307.874	6517
307.885	6500
307.929	6606
307.975	7166
307.984	7500
308.038	10221
308.065	12449
308.093	21369
308.148	42897
308.156	47991
308.202	71441
308.246	88646
308.257	86957
308.312	42695
308.336	27654
308.366	19859
308.421	13454
308.426	12931
308.475	10752
308.517	10264
308.530	10267
308.585	10128
308.607	10244
308.639	10286
308.694	10489
308.697	10511
308.748	12289
308.787	13919
308.803	14172
308.857	13793
308.877	13880
308.912	15897
308.967	19883
308.967	19940
309.021	31392
309.058	40634
309.076	46925
309.130	70677
309.148	77482
309.185	108425
309.238	160355
309.239	160950
309.293	190758
309.328	189025
309.348	171439
309.402	105245
309.418	88198
309.457	69524
309.508	52133
309.511	52408
309.566	64510
309.598	73998
309.620	91433
309.674	142975
309.688	156683
309.729	152304
309.778	127155
309.783	123920
309.837	79925
309.868	57827
309.892	50309
309.946	36693
309.959	34233
310.001	30206
310.049	25392
310.055	24623
310.109	18589
310.139	15081
310.163	13312
310.218	10117
310.229	9577
310.272	9104
310.319	8627
310.326	8444
310.381	7188
310.409	6511
310.435	6370
310.489	6224
310.499	6252
310.543	6354
310.589	6079
310.598	6062
310.652	6141
310.679	6103
310.706	5837
310.760	5440
310.769	5349
310.814	5387
310.859	5547
310.868	5525
310.923	5174
310.948	4960
310.977	5013
311.031	5302
311.038	5335
311.085	5124
311.128	4669
311.139	4678
311.193	4939
311.218	4956
311.247	4756
311.301	4490
311.308	4431
311.356	4358
311.398	4418
311.410	4439
311.464	4266
311.488	4284
311.518	4429
311.572	4489
311.578	4500
311.626	4618
311.668	4587
311.680	4671
311.734	5108
311.758	5242
311.788	5309
311.842	5475
311.847	5473
311.896	5600
311.937	5724
311.950	5636
312.004	5158
312.027	4946
312.058	4821
312.112	4576
312.117	4542
312.165	4882
312.207	5157
312.297	4665
312.386	3865
312.476	4874
312.566	5566
312.656	5012
312.745	5310
312.835	5755
312.925	5258
313.015	5289
313.104	5072
313.194	5738
313.284	5807
313.374	6571
313.463	5868
313.553	6908
313.643	7030
313.732	6799
313.822	6625
313.912	8030
314.001	8104
314.091	8402
314.180	9228
314.270	8916
314.360	8706
314.449	9116
314.539	8014
314.628	8266
314.718	8001
314.808	8826
314.897	9011
314.987	10226
315.076	11390
315.166	11327
315.255	10333
315.345	9412
315.434	9659
315.524	9926
315.613	11418
315.703	14794
315.792	38098
315.881	107285
315.971	33664
316.060	13472
316.150	10643
316.239	9641
316.328	8719
316.418	9077
316.507	9677
316.597	11261
316.686	11108
316.775	11279
316.865	10918
316.954	9178
317.043	8773
317.133	7607
317.222	6804
317.311	6137
317.400	6331
317.490	8912
317.579	8439
317.668	11832
317.757	19345
317.847	62058
317.936	156197
318.025	48917
318.114	42873
318.203	20264
318.293	10696
318.382	15307
318.471	15845
318.560	16343
318.649	19602
318.738	9147
318.828	6922
318.917	6485
319.006	7385
319.095	9268
319.184	19867
319.273	10429
319.362	7461
319.451	5599
319.540	6065
319.629	6918
319.718	7620
319.807	7708
319.896	9790
319.985	23219
320.074	10126
320.163	6846
320.252	7432
320.341	6997
320.430	7754
320.519	8878
320.608	8726
320.697	10421
320.786	10442
320.875	13102
320.964	14319
321.053	14855
321.142	17157
321.230	18317
321.319	19656
321.408	24885
321.497	21907
321.586	18950
321.675	16048
321.764	14870
321.852	14687
321.941	16032
322.030	14687
322.119	16441
322.207	22714
322.296	23866
322.385	25415
322.474	30347
322.562	32496
322.651	24724
322.740	18647
322.829	17137
322.917	13959
323.006	13114
323.095	11470
323.183	10447
323.272	10860
323.361	13567
323.449	19657
323.538	11189
323.626	14302
323.715	10472
323.804	8468
323.892	12769
323.981	9066
324.069	8875
324.158	9759
324.246	8926
324.335	7353
324.424	8146
324.512	6763
324.601	7612
324.689	9113
324.778	11418
324.866	8308
324.954	6450
325.043	6434
325.131	6757
325.220	8491
325.308	7738
325.397	6847
325.485	6622
325.574	5160
325.662	5744
325.750	4664
325.839	6938
325.927	5477
326.015	6200
326.104	6583
326.192	6303
326.280	5449
326.369	5800
326.457	5950
326.545	5868
326.634	5636
326.722	6048
326.810	6071
326.898	6966
326.987	7707
327.075	6982
327.163	7932
327.251	6531
327.340	8319
327.428	12668
327.516	11927
327.604	8792
327.692	7189
327.781	6933
327.869	6388
327.957	6025
328.045	5986
328.133	6275
328.221	4772
328.309	5096
328.397	6354
328.485	6980
328.574	11191
328.662	16595
328.750	10238
328.838	7207
328.926	6608
329.014	6018
329.102	6231
329.190	7709
329.278	6484
329.366	5511
329.454	5877
329.542	5604
329.630	5534
329.718	6055
329.806	4373
329.893	6663
329.981	5478
330.069	6092
330.157	6684
330.245	10135
330.333	7024
330.421	6271
330.509	6774
330.597	8620
330.684	7369
330.772	5589
330.860	6490
330.948	6899
331.036	5985
331.123	5462
331.211	5881
331.299	6493
331.387	7113
331.475	8171
331.562	6538
331.650	5305
331.738	5576
331.825	5798
331.913	5754
332.001	6320
332.089	6018
332.176	7424
332.264	8925
332.352	7152
332.439	6036
332.527	6413
332.614	5955
332.702	6288
332.790	6379
332.877	10717
332.965	24207
333.052	21793
333.140	24619
333.228	60037
333.315	18228
333.403	10025
333.490	13340
333.578	27187
333.665	86410
333.753	35499
333.840	12866
333.928	11015
334.015	13575
334.103	17771
334.190	31588
334.278	26155
334.365	32709
334.452	32763
334.540	21860
334.627	20657
334.715	27065
334.802	39589
334.889	70930
334.977	86923
335.064	52297
335.151	26377
335.239	19874
335.326	16499
335.413	24736
335.501	26090
335.588	16804
335.675	18940
335.762	22606
335.850	32142
335.937	44829
336.024	73894
336.111	121580
336.199	101477
336.286	48127
336.373	28044
336.460	17998
336.547	14389
336.635	12593
336.722	11290
336.809	10444
336.896	9897
336.983	14157
337.070	20574
337.157	27312
337.245	18315
337.332	13268
337.419	8773
337.506	9020
337.593	9301
337.680	11661
337.767	17301
337.854	8822
337.941	9387
338.028	9493
338.115	7301
338.202	9138
338.289	10617
338.376	14034
338.463	9519
338.550	12110
338.637	12631
338.724	7404
338.811	8755
338.898	6042
338.984	7049
339.071	6528
339.158	6945
339.245	7101
339.332	7512
339.419	7840
339.506	7200
339.593	5525
339.679	6288
339.766	5606
339.853	6233
339.940	7163
340.027	6220
340.113	5450
340.200	6869
340.287	6194
340.374	6538
340.460	7424
340.547	5674
340.634	6736
340.720	9572
340.807	7180
340.894	6630
340.980	7000
341.067	6634
341.154	7475
341.240	6513
341.327	7194
341.414	7042
341.500	6146
341.587	6595
341.674	7073
341.760	6999
341.847	7100
341.933	6887
342.020	5816
342.106	6161
342.193	5463
342.279	6369
342.366	5574
342.452	6415
342.539	5945
342.625	7359
342.712	8959
342.798	6677
342.885	6243
342.971	5683
343.058	6354
343.144	5714
343.230	6411
343.317	6392
343.403	4736
343.490	5756
343.576	6126
343.662	6412
343.749	5634
343.835	7069
343.921	8576
344.008	28696
344.094	48217
344.180	12638
344.267	7294
344.353	13319
344.439	11889
344.525	7136
344.612	7539
344.698	6755
344.784	6151
344.870	6713
344.957	4630
345.043	6568
345.129	5447
345.215	7129
345.301	5505
345.387	6002
345.474	5527
345.560	5619
345.646	5733
345.732	6130
345.818	4991
345.904	6115
345.990	5133
346.076	5639
346.162	5321
346.249	6775
346.335	6086
346.421	6489
346.507	9513
346.593	18671
346.679	7572
346.765	8983
346.851	12538
346.937	10056
347.023	7775
347.108	6862
347.194	6060
347.280	6736
347.366	9593
347.452	25661
347.538	39060
347.624	21414
347.710	14121
347.796	7737
347.882	6238
347.967	6883
348.053	6241
348.139	7035
348.225	5850
348.311	5811
348.397	6015
348.482	7404
348.568	8526
348.654	10351
348.740	32258
348.825	32279
348.911	14121
348.997	17455
349.083	22005
349.168	7968
349.254	7258
349.340	6528
349.425	6415
349.511	6668
349.597	7075
349.682	8194
349.768	13273
349.854	9207
349.939	7325
350.025	6492
350.110	6234
350.196	6073
350.282	5537
350.367	7803
350.453	7028
350.538	7341
350.624	6031
350.709	6654
350.795	5725
350.880	5342
350.966	6437
351.051	6164
351.137	6336
351.222	6790
351.308	7520
351.393	10155
351.479	7140
351.564	5622
351.649	6280
351.735	6411
351.820	5430
351.906	6312
351.991	5540
352.076	8333
352.162	10346
352.247	6282
352.332	5970
352.418	6587
352.503	7249
352.588	13357
352.673	9605
352.759	7030
352.844	6020
352.929	6456
353.014	6001
353.100	6422
353.185	6579
353.270	6618
353.355	6771
353.441	7021
353.526	5616
353.611	6296
353.696	6947
353.781	7817
353.866	5540
353.952	6748
354.037	5929
354.122	8953
354.207	7396
354.292	7254
354.377	6658
354.462	6224
354.547	6331
354.632	7240
354.717	7162
354.802	6106
354.887	6428
354.972	6533
355.057	5624
355.142	5950
355.227	6868
355.312	7065
355.397	7655
355.482	10286
355.567	7243
355.652	8390
355.737	8541
355.822	14600
355.907	11769
355.991	8396
356.076	6079
356.161	7976
356.246	6896
356.331	8095
356.416	9726
356.501	27293
356.585	23381
356.670	8294
356.755	10231
356.840	9644
356.924	22713
357.009	51913
357.094	21270
357.179	7620
357.263	8394
357.348	9143
357.433	8877
357.517	8268
357.602	7956
357.687	7800
357.771	8786
357.856	11420
357.941	10216
358.025	21682
358.110	61463
358.195	26553
358.279	9863
358.364	10468
358.448	13699
358.533	22395
358.617	16619
358.702	17844
358.787	10460
358.871	9217
358.956	9091
359.040	7900
359.125	7994
359.209	8290
359.294	8672
359.378	15219
359.462	12208
359.547	7432
359.631	6829
359.716	6477
359.800	6599
359.885	8847
359.969	6026
360.053	7850
360.138	6566
360.222	6990
360.306	7465
360.391	7831
360.475	8386
360.559	10826
360.644	11772
360.728	9695
360.812	18300
360.896	36223
360.981	14886
361.065	10048
361.149	7485
361.233	8506
361.318	7339
361.402	8419
361.486	9739
361.570	8034
361.654	9368
361.739	12435
361.823	28626
361.907	39546
361.991	14956
362.075	15385
362.159	20524
362.243	37204
362.327	86087
362.411	120138
362.495	47860
362.580	24512
362.664	22741
362.748	25466
362.832	39634
362.916	80919
363.000	212633
363.084	285287
363.168	129916
363.252	41919
363.336	24940
363.420	21546
363.503	29376
363.587	28503
363.671	15199
363.755	14827
363.839	18692
363.923	18330
364.007	24637
364.091	32163
364.175	51619
364.258	118135
364.342	245097
364.426	395518
364.510	209222
364.594	70389
364.677	38231
364.761	46051
364.845	30878
364.929	16574
365.013	13970
365.096	13125
365.180	11616
365.264	16141
365.347	32128
365.431	16704
365.515	9174
365.598	8392
365.682	10358
365.766	8980
365.849	9969
365.933	9204
366.017	11104
366.100	9287
366.184	8527
366.267	10126
366.351	9302
366.435	8245
366.518	8572
366.602	8644
366.685	9440
366.769	8734
366.852	10064
366.936	10358
367.019	9947
367.103	8728
367.186	10866
367.270	9375
367.353	9178
367.436	12083
367.520	10665
367.603	10675
367.687	10242
367.770	10765
367.853	10841
367.937	16629
368.020	18340
368.104	9419
368.187	10606
368.270	10695
368.353	9389
368.437	9913
368.520	13464
368.603	10323
368.687	12165
368.770	17281
368.853	9256
368.936	10323
369.020	9741
369.103	7851
369.186	7395
369.269	7034
369.352	9899
369.436	8886
369.519	8244
369.602	6821
369.685	9753
369.768	7240
369.851	8500
369.934	8147
370.018	7132
370.101	8026
370.184	10647
370.267	9670
370.350	9730
370.433	13335
370.516	35163
370.599	71590
370.682	29534
370.765	16919
370.848	17677
370.931	23060
371.014	15845
371.097	9924
371.180	11707
371.263	11646
371.346	10545
371.429	12151
371.511	11472
371.594	13123
371.677	13924
371.760	16973
371.843	18081
371.926	38187
372.009	64155
372.091	36639
372.174	25215
372.257	35711
372.340	24038
372.423	22409
372.505	22752
372.588	15927
372.671	17926
372.754	26357
372.836	19515
372.919	19226
373.002	24634
373.085	17168
373.167	17406
373.250	20161
373.332	28793
373.415	43995
373.498	70844
373.580	44960
373.663	113467
373.746	98298
373.828	23265
373.911	15373
373.993	13219
374.076	22457
374.159	19752
374.241	14915
374.324	21814
374.406	18762
374.489	28390
374.571	56054
374.654	24131
374.736	19617
374.819	39886
374.901	54688
374.983	50605
375.066	18458
375.148	14210
375.231	22584
375.313	29906
375.395	18172
375.478	13981
375.560	14275
375.643	13344
375.725	20139
375.807	45896
375.890	33239
375.972	13970
376.054	13933
376.136	13346
376.219	12223
376.301	18862
376.383	34857
376.465	17150
376.548	11574
376.630	14755
376.712	28296
376.794	14779
376.877	9677
376.959	7249
377.041	8436
377.123	9119
377.205	10309
377.287	8604
377.369	9228
377.452	9717
377.534	9271
377.616	9098
377.698	9758
377.780	8534
377.862	9556
377.944	10150
378.026	7942
378.108	8652
378.190	9468
378.272	9750
378.354	10045
378.436	8223
378.518	8703
378.600	10278
378.682	11959
378.764	14198
378.846	13756
378.928	9057
379.010	9723
379.091	9937
379.173	8920
379.255	8433
379.337	8750
379.419	11895
379.501	19774
379.583	11610
379.664	9469
379.746	9573
379.828	16859
379.910	17293
379.991	17525
380.073	9769
380.155	10532
380.237	8540
380.318	9682
380.400	9842
380.482	12075
380.564	12120
380.645	11931
380.727	11591
380.809	11164
380.890	11546
380.972	9450
381.053	11869
381.135	13374
381.217	13502
381.298	19108
381.380	15177
381.461	16627
381.543	32430
381.624	35490
381.706	17037
381.787	15593
381.869	18213
381.951	27814
382.032	61644
382.113	41128
382.195	20503
382.276	23904
382.358	28525
382.439	43142
382.521	53789
382.602	73557
382.684	60564
382.765	106180
382.846	264596
382.928	485649
383.009	288243
383.090	270380
383.172	588760
383.253	617314
383.334	261077
383.416	140546
383.497	106169
383.578	125020
383.659	235262
383.741	553848
383.822	776522
383.903	445596
383.984	180000
384.066	109901
384.147	68462
384.228	46532
384.309	39194
384.390	36147
384.471	31951
384.553	28906
384.634	27148
384.715	27362
384.796	25350
384.877	27019
384.958	32986
385.039	29790
385.120	23236
385.201	20591
385.282	21724
385.363	27456
385.444	31715
385.525	32496
385.606	39785
385.687	33985
385.768	22157
385.849	22712
385.930	42259
386.011	56687
386.092	26650
386.173	21144
386.254	17396
386.335	17601
386.416	16458
386.496	19742
386.577	21957
386.658	18580
386.739	16333
386.820	18425
386.901	17226
386.981	20824
387.062	22631
387.143	24493
387.224	29601
387.304	32187
387.385	27010
387.466	23619
387.547	26968
387.627	27450
387.708	29955
387.789	38535
387.869	40337
387.950	26546
388.031	20696
388.111	18180
388.192	23143
388.273	25599
388.353	20667
388.434	15171
388.514	15612
388.595	34089
388.676	32487
388.756	19334
388.837	16833
388.917	15146
388.998	11218
389.078	12561
389.159	12490
389.239	10553
389.320	13526
389.400	11083
389.480	14701
389.561	20200
389.641	15068
389.722	12864
389.802	11842
389.883	15338
389.963	22746
390.043	16274
390.124	11106
390.204	12953
390.284	18660
390.365	14407
390.445	18937
390.525	33207
390.605	27559
390.686	14466
390.766	13077
390.846	13881
390.927	11605
391.007	11532
391.087	13314
391.167	12228
391.247	11773
391.328	14663
391.408	14578
391.488	15718
391.568	13633
391.648	14079
391.728	17181
391.808	17119
391.888	16985
391.969	21166
392.049	23953
392.129	22364
392.209	24725
392.289	33536
392.369	28845
392.449	29208
392.529	29819
392.609	34831
392.689	40370
392.769	52460
392.849	60028
392.929	73712
393.009	107166
393.089	153134
393.169	271789
393.248	577832
393.328	907677
393.408	824430
393.488	480792
393.568	234543
393.648	130919
393.728	85018
393.807	59591
393.887	48300
393.967	40174
394.047	34850
394.127	30076
394.206	30936
394.286	60398
394.366	188837
394.446	169745
394.525	44856
394.605	24162
394.685	21619
394.764	26405
394.844	45307
394.924	50774
395.003	24095
395.083	17216
395.163	17040
395.242	15671
395.322	16503
395.402	14234
395.481	18381
395.561	24505
395.640	63770
395.720	109147
395.799	62690
395.879	32681
395.958	30311
396.038	73913
396.117	237972
396.197	223836
396.276	71933
396.356	43772
396.435	50213
396.515	64794
396.594	100000
396.673	209568
396.753	515057
396.832	805314
396.912	594809
396.991	252677
397.070	115974
397.150	68137
397.229	58273
397.308	97349
397.388	158351
397.467	75787
397.546	31694
397.625	21764
397.705	21471
397.784	18628
397.863	16820
397.942	15760
398.022	15387
398.101	18011
398.180	24850
398.259	16924
398.338	13383
398.417	11508
398.497	11608
398.576	10379
398.655	9728
398.734	10633
398.813	9989
398.892	13671
398.971	23811
399.050	13612
399.129	8873
399.208	9203
399.287	9184
399.366	8018
399.445	8975
399.524	8791
399.603	7357
399.682	8480
399.761	11210
399.840	23876
399.919	17605
399.998	8686
400.077	7085
400.156	6935
400.235	9489
400.313	7167
400.392	7043
400.471	10792
400.550	11489
400.629	6846
400.708	6401
400.786	6456
400.865	8297
400.944	6845
401.023	8779
401.102	6682
401.180	7211
401.259	5944
401.338	5712
401.416	7114
401.495	5680
401.574	7008
401.652	6036
401.731	6527
401.810	4090
401.888	5643
401.967	5712
402.046	6019
402.124	5759
402.203	4984
402.281	6177
402.360	5622
402.438	7858
402.517	5660
402.596	6408
402.674	6113
402.753	5842
402.831	6534
402.910	6885
402.988	8768
403.066	19373
403.145	13202
403.223	10381
403.302	16759
403.380	14461
403.459	14142
403.537	9207
403.615	8000
403.694	6054
403.772	7216
403.850	6455
403.929	5911
404.007	6139
404.085	8356
404.164	7541
404.242	6556
404.320	11675
404.398	24620
404.477	23577
404.555	36763
404.633	30359
404.711	18639
404.789	12722
404.868	6418
404.946	5864
405.024	5161
405.102	5608
405.180	4996
405.258	4279
405.336	5474
405.415	4669
405.493	6072
405.571	6396
405.649	5266
405.727	5516
405.805	8308
405.883	8721
405.961	7968
406.039	5270
406.117	4998
406.195	6740
406.273	9379
406.351	24378
406.429	15207
406.507	6500
406.585	4046
406.663	5492
406.740	5300
406.818	3819
406.896	4861
406.974	5779
407.052	5437
407.130	14768
407.208	18028
407.285	7387
407.363	4116
407.441	4999
407.519	5179
407.596	5076
407.674	8975
407.752	20483
407.830	16298
407.907	7677
407.985	4748
408.063	5657
408.141	4524
408.218	6554
408.296	4931
408.373	5674
408.451	6475
408.529	7140
408.606	5932
408.684	7588
408.762	7077
408.839	7504
408.917	7828
408.994	8973
409.072	8903
409.149	13002
409.227	21681
409.304	31005
409.382	33001
409.459	39197
409.537	48339
409.614	42333
409.692	31504
409.769	32980
409.846	49252
409.924	59047
410.001	40839
410.079	28763
410.156	21848
410.233	16326
410.311	13225
410.388	12730
410.465	11768
410.543	11079
410.620	10679
410.697	10369
410.775	10724
410.852	10777
410.929	11927
411.006	12311
411.083	11264
411.161	11001
411.238	9569
411.315	9731
411.392	8382
411.469	8908
411.547	8198
411.624	6218
411.701	6588
411.778	6446
411.855	7020
411.932	5874
412.009	5537
412.086	6935
412.163	5441
412.240	5693
412.317	6842
412.394	5854
412.471	6118
412.548	5529
412.625	5503
412.702	5244
412.779	6266
412.856	6149
412.933	4721
413.010	5958
413.087	5734
413.164	7388
413.241	9212
413.318	4385
413.395	5579
413.471	5525
413.548	4739
413.625	5935
413.702	4446
413.779	5496
413.855	4526
413.932	4227
414.009	3738
414.086	4558
414.162	4854
414.239	4732
414.316	6952
414.393	11623
414.469	5032
414.546	4265
414.623	3748
414.699	4263
414.776	4856
414.853	3668
414.929	5337
415.006	3436
415.082	4294
415.159	3876
415.236	4845
415.312	4021
415.389	4508
415.465	4090
415.542	3634
415.618	3258
415.695	4551
415.771	4213
415.848	3598
415.924	4113
416.000	4421
416.077	5392
416.153	3579
416.230	2908
416.306	4486
416.383	3986
416.459	4688
416.535	5091
416.612	4523
416.688	5591
416.764	6301
416.841	6268
416.917	5278
416.993	5218
417.069	4855
417.146	4254
417.222	4268
417.298	4385
417.374	4200
417.451	4146
417.527	4079
417.603	4337
417.679	4341
417.755	4583
417.831	3387
417.908	4440
417.984	4359
418.060	3442
418.136	5101
418.212	3944
418.288	4518
418.364	3522
418.440	3639
418.516	5100
418.592	4926
418.668	5216
418.744	4934
418.820	5099
418.896	4147
418.972	3519
419.048	4609
419.124	6361
419.200	4317
419.276	5314
419.352	3930
419.428	4739
419.504	4377
419.579	5782
419.655	5723
419.731	6050
419.807	6832
419.883	6708
419.959	6739
420.034	6288
420.110	7106
420.186	10531
420.262	9707
420.337	7638
420.413	6937
420.489	8178
420.565	8900
420.640	8528
420.716	9563
420.792	7915
420.867	9675
420.943	9946
421.019	10872
421.094	11091
421.170	12886
421.245	12905
421.321	14701
421.397	15000
421.472	19929
421.548	26042
421.623	24282
421.699	23581
421.774	25061
421.850	28401
421.925	33434
422.001	39087
422.076	47941
422.152	60416
422.227	80033
422.302	112304
422.378	161088
422.453	255064
422.529	387726
422.604	406236
422.679	299896
422.755	381501
422.830	373013
422.905	256388
422.981	173589
423.056	122683
423.131	90267
423.207	69190
423.282	55831
423.357	46865
423.432	37942
423.508	34082
423.583	29716
423.658	26559
423.733	23111
423.808	22995
423.883	21525
423.959	23946
424.034	28023
424.109	25844
424.184	17509
424.259	14325
424.334	13221
424.409	11784
424.484	10448
424.559	10931
424.634	9169
424.709	9729
424.784	9046
424.859	9168
424.934	8197
425.009	11347
425.084	12135
425.159	8766
425.234	7942
425.309	7208
425.384	7438
425.459	6980
425.534	7119
425.609	6222
425.683	5727
425.758	6490
425.833	6272
425.908	7081
425.983	6720
426.058	10874
426.132	7076
426.207	5911
426.282	6828
426.357	5538
426.431	5130
426.506	6146
426.581	4505
426.655	5712
426.730	4942
426.805	3740
426.879	5514
426.954	4980
427.029	4847
427.103	10371
427.178	19004
427.253	9773
427.327	4652
427.402	5082
427.476	6403
427.551	5503
427.625	4799
427.700	4781
427.774	4330
427.849	4854
427.923	5099
427.998	6959
428.072	7462
428.147	16677
428.221	68234
428.296	175857
428.370	87649
428.444	17492
428.519	9081
428.593	8537
428.667	8984
428.742	11852
428.816	28283
428.890	117549
428.965	152284
429.039	39269
429.113	11687
429.188	6836
429.262	5278
429.336	6387
429.410	6482
429.485	6622
429.559	7059
429.633	8138
429.707	9527
429.781	25407
429.855	112668
429.930	134678
430.004	41539
430.078	33607
430.152	84775
430.226	237829
430.300	202753
430.374	51212
430.448	18473
430.522	14968
430.596	22569
430.670	43705
430.744	144195
430.818	136055
430.892	27406
430.966	8385
431.040	5599
431.114	4129
431.188	4723
431.262	4503
431.336	2842
431.410	5601
431.484	4495
431.557	5876
431.631	6723
431.705	13216
431.779	55822
431.853	168409
431.927	100251
432.000	18160
432.074	5641
432.148	4356
432.222	3160
432.295	3041
432.369	2296
432.443	2831
432.516	9242
432.590	16945
432.664	6139
432.737	2040
432.811	2011
432.885	2847
432.958	2546
433.032	1963
433.106	1673
433.179	2139
433.253	2347
433.326	1508
433.400	1171
433.473	2587
433.547	1788
433.620	2055
433.694	2949
433.767	2846
433.841	3367
433.914	2885
433.988	2321
434.061	2538
434.134	2724
434.208	3082
434.281	2463
434.355	1713
434.428	1737
434.501	2487
434.575	2065
434.648	1629
434.721	1781
434.795	2300
434.868	2067
434.941	3820
435.014	3257
435.088	4709
435.161	7149
435.234	10549
435.307	10359
435.381	10649
435.454	14931
435.527	24615
435.600	26750
435.673	20406
435.746	14940
435.819	10682
435.892	8950
435.966	7054
436.039	4676
436.112	4775
436.185	3275
436.258	3569
436.331	2515
436.404	3192
436.477	2571
436.550	2422
436.623	2108
436.696	2339
436.769	2614
436.842	2113
436.915	1929
436.987	1621
437.060	3087
437.133	1895
437.206	2266
437.279	2182
437.352	1312
437.425	1945
437.498	2311
437.570	2727
437.643	2169
437.716	2198
437.789	1176
437.861	1716
437.934	1735
438.007	1964
438.080	1351
438.152	2106
438.225	3179
438.298	12761
438.370	27231
438.443	10074
438.516	2573
438.588	2086
438.661	2169
438.734	2589
438.806	1636
438.879	1366
438.951	1362
439.024	2380
439.096	2210
439.169	1520
439.241	1567
439.314	2230
439.386	1328
439.459	2124
439.531	2156
439.604	1561
439.676	1740
439.749	1390
439.821	1602
439.893	2685
439.966	1748
440.038	1588
440.110	1827
440.183	1572
440.255	1710
440.327	2549
440.400	4963
440.472	14962
440.544	8302
440.617	1699
440.689	3485
440.761	2443
440.833	2868
440.905	2951
440.978	1363
441.050	1632
441.122	2591
441.194	2460
441.266	1781
441.338	2505
441.411	3120
441.483	5370
441.555	5703
441.627	3215
441.699	3285
441.771	2915
441.843	2547
441.915	3175
441.987	3206
442.059	3693
442.131	4568
442.203	5891
442.275	7464
442.347	13912
442.419	34904
442.491	145939
442.563	251823
442.635	93391
442.706	23721
442.778	11488
442.850	7656
442.922	6451
442.994	6983
443.066	8028
443.137	9745
443.209	13438
443.281	22292
443.353	50643
443.425	167117
443.496	389571
443.568	373934
443.640	152013
443.711	38358
443.783	17316
443.855	10312
443.926	7655
443.998	6420
444.070	5644
444.141	4882
444.213	4878
444.285	4613
444.356	4676
444.428	5080
444.499	3739
444.571	4238
444.642	4937
444.714	5137
444.785	5058
444.857	6845
444.928	8417
445.000	8672
445.071	11394
445.143	14786
445.214	20609
445.285	38174
445.357	97503
445.428	285040
445.500	423292
445.571	352065
445.642	225605
445.714	79430
445.785	28435
445.856	14086
445.928	10941
445.999	6477
446.070	6093
446.141	5201
446.213	4320
446.284	3397
446.355	3507
446.426	3203
446.497	3663
446.569	2765
446.640	2906
446.711	3508
446.782	2266
446.853	2381
446.924	2818
446.995	1780
447.066	1745
447.138	1739
447.209	1960
447.280	1159
447.351	1489
447.422	874
447.493	1222
447.564	1143
447.635	1418
447.706	1101
447.777	1150
447.847	1569
447.918	919
447.989	2038
448.060	1509
448.131	2161
448.202	1566
448.273	1236
448.344	1460
448.414	1036
448.485	1381
448.556	1265
448.627	829
448.698	1446
448.768	935
448.839	253
448.910	809
448.981	539
449.051	816
449.122	631
449.193	1513
449.263	484
449.334	900
449.405	1166
449.475	1793
449.546	1287
449.616	2493
449.687	1767
449.758	1063
449.828	964
449.899	888
449.969	23
450.040	1220
450.110	912
450.181	1088
450.251	546
450.322	1033
450.392	903
450.463	1316
450.533	301
450.604	916
450.674	1585
450.744	2273
450.815	2055
450.885	2852
450.955	3274
451.026	2778
451.096	1886
451.166	2358
451.237	3635
451.307	5503
451.377	2526
451.447	1166
451.518	987
451.588	1317
451.658	1547
451.728	1538
451.799	2541
451.869	2344
451.939	770
452.009	1089
452.079	583
452.149	1900
452.219	1256
452.289	3373
452.360	2972
452.430	2050
452.500	4058
452.570	6138
452.640	18229
452.710	44589
452.780	42666
452.850	19388
452.920	8365
452.990	5008
453.060	3249
453.129	3062
453.199	1562
453.269	4876
453.339	6406
453.409	7958
453.479	10011
453.549	11789
453.619	11190
453.688	3555
453.758	1212
453.828	1447
453.898	987
453.968	787
454.037	608
454.087	380
454.107	281
454.168	633
454.177	677
454.247	488
454.249	493
454.316	399
454.330	433
454.386	547
454.411	623
454.456	637
454.492	1295
454.525	1899
454.574	1815
454.595	1768
454.655	724
454.665	560
454.734	677
454.736	719
454.804	1807
454.817	1904
454.873	2125
454.898	2089
454.943	2008
454.979	1306
455.013	638
455.060	1021
455.082	1218
455.141	1240
455.152	1236
455.221	2550
455.222	2562
455.291	2302
455.303	2342
455.360	2405
455.384	2958
455.430	3704
455.465	3009
455.499	2325
455.546	2420
455.569	2468
455.627	2108
455.638	2048
455.707	837
455.708	846
455.777	722
455.789	732
455.846	896
455.869	1158
455.916	1624
455.950	1573
455.985	1450
456.031	1296
456.054	1208
456.112	1131
456.124	1151
456.193	1963
456.193	1954
456.262	1936
456.274	1948
456.332	2081
456.355	1820
456.401	1167
456.436	1313
456.470	1449
456.516	1545
456.540	1655
456.597	1530
456.609	1443
456.678	1658
456.678	1649
456.747	1115
456.759	1072
456.817	979
456.840	1209
456.886	1460
456.920	1531
456.955	1778
457.001	2068
457.024	2179
457.082	2924
457.093	3049
457.162	3547
457.163	3559
457.232	3094
457.243	2892
457.301	2158
457.324	2185
457.370	2290
457.405	2773
457.439	3171
457.485	3269
457.508	3430
457.566	4381
457.577	4735
457.646	7750
457.647	7802
457.715	18720
457.727	21726
457.784	40899
457.808	56473
457.853	76658
457.889	85886
457.922	83089
457.969	50050
457.991	47378
458.050	62638
458.060	65306
458.129	120301
458.130	121630
458.198	125076
458.211	111528
458.267	52040
458.292	34619
458.336	21729
458.372	20351
458.405	29316
458.453	46790
458.474	60611
458.533	115283
458.543	119648
458.611	195824
458.614	196026
458.680	110328
458.694	86222
458.749	33818
458.775	22622
458.818	12906
458.855	10180
458.887	8397
458.936	6066
458.955	5370
459.016	4767
459.024	4771
459.093	5004
459.097	4985
459.162	3732
459.177	3610
459.230	3584
459.257	3497
459.299	3223
459.338	2967
459.368	2871
459.418	2848
459.437	2697
459.499	2584
459.505	2639
459.574	2981
459.579	3026
459.643	3096
459.659	3059
459.711	3177
459.740	3259
459.780	3052
459.820	3021
459.849	3157
459.900	3106
459.917	3007
459.981	2805
459.986	2808
460.054	2698
460.061	2699
460.123	2550
460.141	2602
460.191	3000
460.222	3059
460.260	2946
460.302	2847
460.328	2828
460.382	3586
460.397	3732
460.462	3212
460.465	3231
460.534	4241
460.543	4359
460.602	8948
460.623	10951
460.671	15514
460.703	20914
460.739	21558
460.783	17689
460.808	14755
460.864	4517
460.876	3572
460.944	2853
460.945	2838
461.013	2643
461.024	2613
461.081	2595
461.104	2728
461.150	2992
461.184	3023
461.218	3072
461.264	3148
461.286	3187
461.345	3008
461.355	2959
461.423	3487
461.425	3470
461.491	2575
461.505	2636
461.559	3300
461.585	3284
461.628	3377
461.665	4162
461.696	4886
461.745	5432
461.764	5052
461.825	3437
461.832	3405
461.901	2957
461.905	2971
461.969	2580
461.985	2458
462.037	2927
462.065	3438
462.105	3687
462.145	3487
462.173	3649
462.225	3786
462.241	3640
462.305	3842
462.310	3860
462.378	3645
462.385	3615
462.446	3558
462.465	3511
462.514	3095
462.545	2888
462.582	2985
462.625	3292
462.650	3163
462.705	2228
462.718	2169
462.785	2934
462.786	2949
462.854	3015
462.865	3079
462.922	3368
462.945	3434
462.990	3136
463.025	2916
463.058	2774
463.104	2680
463.126	2739
463.184	2889
463.194	3002
463.262	3318
463.264	3341
463.330	2949
463.344	2838
463.398	3592
463.424	3908
463.466	3401
463.504	3279
463.533	3699
463.583	3790
463.601	3533
463.663	2960
463.669	2997
463.737	3470
463.743	3490
463.805	3800
463.823	3911
463.873	4685
463.903	5290
463.940	5331
463.982	5271
464.008	4776
464.062	3291
464.076	3148
464.142	2825
464.144	2829
464.211	2986
464.221	2990
464.279	3228
464.301	3248
464.347	2997
464.381	2951
464.414	3297
464.461	3667
464.482	3525
464.540	3102
464.550	3025
464.617	2340
464.620	2322
464.685	3762
464.699	4048
464.753	3748
464.779	3648
464.820	3490
464.859	3159
464.888	3116
464.938	3256
464.956	3675
465.018	4955
465.023	4832
465.091	3134
465.098	2970
465.158	3269
465.177	3351
465.226	2971
465.257	2719
465.293	3050
465.336	3296
465.361	3255
465.416	3452
465.428	3669
465.495	4651
465.496	4655
465.563	4151
465.575	4071
465.631	5913
465.654	6775
465.698	5593
465.734	4475
465.765	4262
465.813	3864
465.833	3692
465.893	3300
465.900	3352
465.968	3645
465.972	3666
466.035	2702
466.052	2434
466.102	3821
466.131	4624
466.170	4083
466.210	3409
466.237	3781
466.290	4554
466.304	4339
466.369	3294
466.372	3311
466.439	3749
466.449	3781
466.506	3785
466.528	3812
466.573	4544
466.607	5062
466.641	5766
466.687	6774
466.708	7160
466.766	8175
466.775	7826
466.842	5018
466.845	4879
466.909	4634
466.925	4575
466.977	4840
467.004	4971
467.044	4650
467.083	4305
467.111	4584
467.163	5106
467.178	5169
467.242	5394
467.245	5383
467.312	5015
467.321	4961
467.379	4712
467.400	4608
467.446	4950
467.480	5186
467.559	6024
467.638	4449
467.717	5147
467.796	5916
467.875	6529
467.955	6117
468.034	8339
468.113	11632
468.192	15707
468.271	14473
468.350	20162
468.429	32047
468.508	35480
468.588	21071
468.667	11874
468.746	8991
468.825	7989
468.904	6580
468.983	6856
469.062	6270
469.141	7220
469.220	4417
469.299	5491
469.378	4497
469.456	6294
469.535	6231
469.614	6619
469.693	6245
469.772	7096
469.851	7892
469.930	7961
470.009	8267
470.088	11657
470.166	20835
470.245	45234
470.324	59426
470.403	34146
470.482	16554
470.560	10131
470.639	6823
470.718	7180
470.797	6078
470.875	5921
470.954	5876
471.033	6210
471.111	4528
471.190	4314
471.269	5263
471.347	5101
471.426	5350
471.505	5490
471.583	4866
471.662	4991
471.740	4392
471.819	3640
471.898	4399
471.976	5382
472.055	4168
472.133	4690
472.212	5695
472.290	5872
472.369	4054
472.447	4613
472.526	4652
472.604	5429
472.683	4953
472.761	4319
472.839	4616
472.918	4733
472.996	5698
473.075	5808
473.153	5669
473.231	5780
473.310	5156
473.388	5624
473.466	5799
473.545	4785
473.623	6341
473.701	5873
473.780	5747
473.858	4704
473.936	6000
474.014	6407
474.093	5689
474.171	6527
474.249	7157
474.327	5480
474.405	4317
474.484	4492
474.562	4316
474.640	5267
474.718	4594
474.796	4619
474.874	5411
474.952	4655
475.030	4987
475.108	4602
475.187	4486
475.265	4750
475.343	5410
475.421	6661
475.499	3909
475.577	5368
475.655	4696
475.733	6557
475.811	7756
475.889	7358
475.966	6101
476.044	4242
476.122	4489
476.200	5148
476.278	4419
476.356	4277
476.434	4379
476.512	4420
476.590	5185
476.667	6500
476.745	3441
476.823	5612
476.901	3916
476.979	4652
477.056	5071
477.134	5046
477.212	4400
477.290	4797
477.367	4422
477.445	4913
477.523	4361
477.601	4125
477.678	3925
477.756	4201
477.834	5518
477.911	4758
477.989	4356
478.066	4739
478.144	4754
478.222	5546
478.299	5359
478.377	6092
478.454	3908
478.532	3974
478.609	3559
478.687	6234
478.764	3432
478.842	4221
478.919	4161
478.997	5143
479.074	3809
479.152	5300
479.229	4515
479.307	4700
479.384	3925
479.461	4223
479.539	4512
479.616	3962
479.694	3864
479.771	5196
479.848	4287
479.926	4045
480.003	6529
480.080	4455
480.157	4051
480.235	3484
480.312	4482
480.389	4781
480.467	5699
480.544	6473
480.621	7500
480.698	6314
480.775	6295
480.853	6060
480.930	5319
481.007	5638
481.084	6774
481.161	6303
481.238	5603
481.315	4290
481.392	5320
481.470	5231
481.547	5840
481.624	5446
481.701	5094
481.778	5589
481.855	5979
481.932	7600
482.009	8816
482.086	9587
482.163	10712
482.240	13066
482.317	12652
482.393	11150
482.470	8835
482.547	8877
482.624	7124
482.701	6800
482.778	6797
482.855	7347
482.932	7154
483.009	8571
483.085	9570
483.162	11445
483.239	12381
483.316	13031
483.393	14094
483.469	11130
483.546	9072
483.623	9091
483.699	6704
483.776	5753
483.853	6101
483.930	6973
484.006	8908
484.083	11993
484.160	9030
484.236	11144
484.313	8823
484.389	9020
484.466	11259
484.543	13220
484.619	16461
484.696	21501
484.772	14416
484.849	10492
484.925	8579
485.002	8888
485.078	7700
485.155	6804
485.231	6418
485.308	6170
485.384	6723
485.461	7130
485.537	8081
485.614	9448
485.690	5954
485.766	6603
485.843	6152
485.919	7861
485.995	7381
486.072	6113
486.148	5600
486.224	5584
486.301	6590
486.377	6723
486.453	5481
486.530	7552
486.606	8021
486.682	7237
486.758	8285
486.835	9600
486.911	8501
486.987	12827
487.063	12446
487.139	14519
487.215	13668
487.292	15664
487.368	16663
487.444	20989
487.520	31735
487.596	46348
487.672	112981
487.748	396420
487.824	630354
487.900	233714
487.976	54884
488.052	26410
488.128	18856
488.204	12955
488.280	11627
488.356	10591
488.432	12010
488.508	13894
488.584	8913
488.660	7701
488.736	7511
488.812	6429
488.888	7442
488.964	7603
489.039	9751
489.115	14464
489.191	11512
489.267	7020
489.343	6055
489.418	6328
489.494	6403
489.570	5246
489.646	7161
489.722	6883
489.797	6891
489.873	7860
489.949	10980
490.024	10124
490.100	6702
490.176	7100
490.251	6685
490.327	7342
490.403	7004
490.478	6445
490.554	6136
490.629	6525
490.705	6315
490.781	6947
490.856	6008
490.932	6384
491.007	7010
491.083	5823
491.158	5766
491.234	6726
491.309	8764
491.385	8585
491.460	4982
491.536	6188
491.611	5566
491.686	6148
491.762	6105
491.837	7939
491.913	9890
491.988	13403
492.063	15259
492.139	8521
492.214	5919
492.289	5438
492.365	5211
492.440	6384
492.515	4938
492.590	5424
492.666	5428
492.741	5882
492.816	6245
492.891	4707
492.967	6568
493.042	5148
493.117	4901
493.192	5083
493.267	7280
493.342	11501
493.418	14676
493.493	6564
493.568	5281
493.643	5589
493.718	5151
493.793	5754
493.868	5891
493.943	5414
494.018	5311
494.093	4932
494.168	5907
494.243	4226
494.318	5895
494.393	6397
494.468	5818
494.543	6008
494.618	5357
494.693	5202
494.768	5317
494.842	5890
494.917	6287
494.992	5667
495.067	5122
495.142	5861
495.217	5355
495.292	5548
495.366	5492
495.441	4866
495.516	6731
495.591	6496
495.665	12638
495.740	23930
495.815	13946
495.890	6296
495.964	4108
496.039	8017
496.114	6435
496.188	7724
496.263	6999
496.338	6605
496.412	4920
496.487	6372
496.561	6020
496.636	6297
496.710	5973
496.785	6007
496.860	6189
496.934	5951
497.009	5750
497.083	6404
497.158	6464
497.232	7085
497.307	7367
497.381	8170
497.455	7761
497.530	8397
497.604	5877
497.679	6224
497.753	7090
497.827	7773
497.902	6835
497.976	8597
498.050	14863
498.125	53066
498.199	58934
498.273	11972
498.348	8074
498.422	8292
498.496	9849
498.570	11071
498.645	6636
498.719	4910
498.793	5964
498.867	7774
498.941	8252
499.016	21161
499.090	54281
499.164	26605
499.238	7134
499.312	7128
499.386	8152
499.460	8937
499.534	9590
499.609	11960
499.683	9831
499.757	7558
499.831	10096
499.905	34176
499.979	36825
500.053	8435
500.127	8094
500.201	6848
500.275	7085
500.349	7482
500.422	7898
500.496	9427
500.570	12369
500.644	26724
500.718	41608
500.792	14146
500.866	5944
500.940	6026
501.013	5078
501.087	5578
501.161	6299
501.235	6143
501.309	13359
501.382	27085
501.456	28865
501.530	9920
501.603	10006
501.677	7324
501.751	3569
501.825	6426
501.898	5821
501.972	13209
502.046	11027
502.119	4349
502.193	7858
502.266	13217
502.340	8972
502.413	7054
502.487	12955
502.561	8393
502.634	6213
502.708	4887
502.781	4190
502.855	5584
502.928	3586
503.002	4633
503.075	3553
503.149	4310
503.222	4706
503.295	4514
503.369	5644
503.442	6393
503.516	11772
503.589	23665
503.662	20620
503.736	14243
503.809	22772
503.882	27285
503.956	40546
504.029	76401
504.102	220375
504.175	362124
504.249	151674
504.322	48343
504.395	23750
504.468	15076
504.542	10080
504.615	7238
504.688	7106
504.761	4921
504.834	6148
504.907	5182
504.980	6011
505.053	4572
505.127	2715
505.200	7290
505.273	4030
505.346	3832
505.419	2494
505.492	5286
505.565	3508
505.638	3838
505.711	3141
505.784	2563
505.857	2812
505.930	4405
506.003	1951
506.076	5309
506.149	2136
506.221	2323
506.294	4115
506.367	4368
506.440	14519
506.513	10751
506.586	3507
506.659	2489
506.731	3414
506.804	2342
506.877	2353
506.950	3282
507.022	3927
507.095	1527
507.168	3729
507.241	3927
507.313	2314
507.386	2004
507.459	3263
507.531	2203
507.604	1593
507.677	3460
507.749	1104
507.822	3953
507.894	3337
507.967	5001
508.040	2589
508.112	3489
508.185	3044
508.257	1911
508.330	4956
508.402	1574
508.475	2029
508.547	3409
508.620	1946
508.692	4409
508.765	3202
508.837	2645
508.909	3186
508.982	2322
509.054	2821
509.127	2260
509.199	2684
509.271	1650
509.344	2652
509.416	3501
509.488	2320
509.560	3558
509.633	2233
509.705	2533
509.777	2978
509.849	3079
509.922	1570
509.994	2535
510.066	3019
510.138	2128
510.210	6701
510.283	4479
510.355	2930
510.427	4034
510.499	2774
510.571	4151
510.643	1515
510.715	4425
510.787	2473
510.859	4856
510.931	3331
511.003	3778
511.076	4057
511.148	1811
511.219	2463
511.291	4376
511.363	4555
511.435	3825
511.507	3052
511.579	4284
511.651	3681
511.723	2681
511.795	1981
511.867	2703
511.939	3103
512.010	4066
512.082	3986
512.154	2774
512.226	2614
512.298	3988
512.369	3775
512.441	5032
512.513	4117
512.585	2666
512.656	3814
512.728	3005
512.800	3630
512.871	3778
512.943	3813
513.015	2123
513.086	3903
513.158	3936
513.230	2403
513.301	2994
513.373	5282
513.444	3557
513.516	2989
513.588	3828
513.659	4504
513.731	3708
513.802	2611
513.874	5997
513.945	6652
514.016	3983
514.088	3558
514.159	3468
514.231	4831
514.302	4155
514.374	4493
514.445	3095
514.516	6945
514.588	4932
514.659	4250
514.730	5060
514.802	6061
514.873	2266
514.944	6635
515.016	5663
515.087	3746
515.158	5211
515.229	6782
515.301	3578
515.372	4552
515.443	4190
515.514	4685
515.585	3807
515.656	5902
515.728	5641
515.799	4803
515.870	6636
515.941	7046
516.012	7263
516.083	9943
516.154	11356
516.225	14662
516.296	20024
516.367	23610
516.438	30011
516.509	40950
516.580	62007
516.651	236855
516.722	867367
516.793	394514
516.864	67611
516.935	56524
517.006	67061
517.077	87912
517.148	193724
517.219	949677
517.289	1464912
517.360	281583
517.431	64357
517.502	31566
517.573	26027
517.643	22386
517.714	22523
517.785	26054
517.856	30286
517.926	42157
517.997	55394
518.068	73879
518.138	103112
518.209	163309
518.280	607406
518.350	1920507
518.421	914267
518.492	157528
518.562	78460
518.633	70072
518.703	81989
518.774	166017
518.845	455518
518.915	484666
518.986	145071
519.056	54730
519.127	34969
519.197	28020
519.268	28636
519.338	24150
519.408	12071
519.479	10705
519.549	8523
519.620	9698
519.690	7096
519.760	7170
519.831	7974
519.901	6067
519.971	6301
520.042	5759
520.112	5409
520.182	5882
520.253	7140
520.323	3982
520.393	4031
520.463	8138
520.534	3069
520.604	8285
520.674	5962
520.744	4484
520.814	5431
520.885	7024
520.955	7982
521.025	18882
521.095	11808
521.165	5912
521.235	4388
521.305	3274
521.375	4905
521.445	4776
521.515	4168
521.585	5832
521.655	3661
521.725	5524
521.795	5526
521.865	2432
521.935	7242
522.005	4285
522.075	3858
522.145	4789
522.215	4685
522.285	4758
522.355	6291
522.424	7865
522.494	7045
522.564	5512
522.634	6181
522.704	13499
522.774	7705
522.843	5073
522.913	4612
522.983	4771
523.053	3593
523.122	6014
523.192	4232
523.262	7347
523.331	7641
523.401	6096
523.471	4921
523.540	4262
523.610	3581
523.680	4988
523.749	5363
523.819	5927
523.888	5389
523.958	4875
524.027	5116
524.097	5548
524.166	4619
524.236	3935
524.305	7408
524.375	4493
524.444	4304
524.514	6567
524.583	4295
524.653	4229
524.722	7188
524.791	3951
524.861	7212
524.930	4539
524.999	4983
525.069	7304
525.138	6114
525.207	6478
525.277	7604
525.346	8201
525.415	9894
525.484	10183
525.554	12506
525.623	14980
525.692	19775
525.761	25398
525.830	34097
525.900	44925
525.969	70320
526.038	133712
526.107	274121
526.176	850070
526.245	755884
526.314	211167
526.383	393550
526.452	603704
526.522	786357
526.591	824531
526.660	150050
526.729	76536
526.797	77801
526.867	101354
526.935	297753
527.004	1181886
527.073	868262
527.142	124869
527.211	41861
527.280	25909
527.349	18026
527.418	11579
527.487	12313
527.555	8362
527.624	7373
527.693	6167
527.762	8185
527.831	6163
527.899	7129
527.968	5811
528.037	4125
528.106	6400
528.174	6397
528.243	5916
528.312	7079
528.380	6169
528.449	4512
528.518	6568
528.586	3479
528.655	5051
528.723	5158
528.792	4208
528.861	3834
528.929	3731
528.998	5981
529.066	5209
529.135	7991
529.203	7041
529.272	8856
529.340	11685
529.409	11677
529.477	9179
529.545	8965
529.614	12716
529.682	9847
529.751	13520
529.819	15590
529.887	15091
529.956	14509
530.024	14352
530.092	12255
530.161	13036
530.229	13087
530.297	13620
530.365	15696
530.434	14522
530.502	15236
530.570	13220
530.638	11035
530.707	11707
530.775	12838
530.843	10809
530.911	13793
530.979	12708
531.047	14083
531.115	14366
531.183	12855
531.252	12304
531.320	11515
531.388	10695
531.456	13874
531.524	12467
531.592	15345
531.660	18386
531.728	14448
531.796	13160
531.864	14085
531.932	14092
532.000	13665
532.067	13953
532.135	16170
532.203	16804
532.271	17453
532.339	19339
532.407	19753
532.475	17949
532.542	16913
532.610	16696
532.678	16040
532.746	24414
532.814	35580
532.881	23511
532.949	17865
533.017	15349
533.084	16113
533.152	14547
533.220	15120
533.287	14318
533.355	16458
533.423	15917
533.490	15946
533.558	15815
533.625	16153
533.693	15230
533.761	14745
533.828	15106
533.896	13112
533.963	17149
534.031	17841
534.098	20878
534.166	20784
534.233	19662
534.300	21929
534.368	20290
534.435	20434
534.503	23780
534.570	26669
534.637	29433
534.705	35570
534.772	41368
534.840	71614
534.907	351086
534.974	528735
535.041	78676
535.109	28041
535.176	19269
535.243	19129
535.310	18460
535.378	16093
535.445	16961
535.512	17144
535.579	15607
535.646	14198
535.714	15396
535.781	17150
535.848	16771
535.915	16635
535.982	15250
536.049	15178
536.116	16566
536.183	14687
536.250	13104
536.317	13380
536.384	14503
536.451	15622
536.518	15811
536.585	14218
536.652	16513
536.719	17014
536.786	13576
536.853	14145
536.920	15499
536.987	15941
537.053	14477
537.120	22280
537.187	21993
537.254	16516
537.321	14954
537.388	16186
537.454	13359
537.521	14676
537.588	13608
537.654	14906
537.721	14459
537.788	15895
537.855	13547
537.921	14845
537.988	14214
538.055	14198
538.121	12428
538.188	12334
538.254	12915
538.321	14941
538.388	14164
538.454	14798
538.521	15523
538.587	14900
538.654	14505
538.720	14352
538.787	14625
538.853	13792
538.920	13378
538.986	12607
539.053	12007
539.119	13054
539.185	12312
539.252	14906
539.318	14366
539.385	17273
539.451	13540
539.517	15512
539.583	14938
539.650	15173
539.716	18148
539.782	13640
539.849	12033
539.915	13416
539.981	12759
540.047	13173
540.114	12832
540.180	14906
540.246	13732
540.312	15990
540.378	15967
540.444	16705
540.510	16052
540.576	20103
540.643	15046
540.709	12332
540.775	13221
540.841	13178
540.907	12857
540.973	14219
541.039	14244
541.105	14202
541.171	13987
541.237	14793
541.303	15639
541.369	16401
541.435	14634
541.500	14905
541.566	12607
541.632	13590
541.698	12068
541.764	14723
541.830	12574
541.896	12976
541.961	13347
542.027	12293
542.093	14378
542.159	16047
542.224	12333
542.290	15803
542.356	14330
542.421	15571
542.487	12633
542.553	11898
542.618	12359
542.684	12622
542.750	13246
542.815	13669
542.881	13768
542.947	18921
543.012	18509
543.078	13145
543.143	11766
543.209	13205
543.274	11337
543.340	12957
543.405	13957
543.471	16732
543.536	14305
543.602	13387
543.667	11831
543.732	15062
543.798	13150
543.863	14463
543.928	12873
543.994	13019
544.059	14009
544.124	15658
544.190	13701
544.255	15031
544.320	15687
544.386	14302
544.451	16345
544.516	16388
544.581	14366
544.646	17539
544.712	21235
544.777	16780
544.842	15517
544.907	15794
544.972	15639
545.037	17171
545.102	16572
545.168	16788
545.233	18570
545.298	17921
545.363	16926
545.428	18970
545.493	20863
545.558	22376
545.623	19233
545.688	19027
545.753	19220
545.818	20282
545.883	21853
545.947	21052
546.012	23281
546.077	22561
546.142	24860
546.207	26083
546.272	27411
546.337	27346
546.401	29296
546.466	30273
546.531	29713
546.596	33564
546.661	35284
546.725	38494
546.790	37891
546.855	43107
546.919	46473
546.984	53031
547.049	56834
547.113	64807
547.178	71915
547.243	80524
547.307	94687
547.372	106727
547.436	106332
547.501	112415
547.565	120821
547.630	112821
547.695	107655
547.759	108187
547.823	109158
547.888	110561
547.952	113636
548.017	118065
548.081	120612
548.146	120044
548.210	121950
548.274	132138
548.339	133350
548.403	120595
548.468	111912
548.532	110275
548.596	111517
548.660	112595
548.725	123137
548.789	134653
548.853	131539
548.917	124165
548.982	121105
549.046	110040
549.110	97419
549.174	99623
549.238	114658
549.303	130159
549.367	133396
549.431	129824
549.495	119334
549.559	119155
549.623	134572
549.687	153887
549.751	146393
549.815	173488
549.879	180343
549.943	170450
550.007	180397
550.071	179886
550.135	162501
550.199	151501
550.263	151849
550.327	141163
550.391	141553
550.455	158588
550.519	168975
550.582	179749
550.646	203231
550.710	210985
550.774	206418
550.838	210317
550.901	215646
550.965	229720
551.029	243043
551.093	262634
551.156	295227
551.220	353669
551.284	418483
551.347	312856
551.411	240946
551.475	222296
551.538	225672
551.602	210235
551.666	194396
551.729	184305
551.793	176689
551.856	174840
551.920	169765
551.983	169129
552.047	166514
552.110	167125
552.174	167550
552.237	175429
552.301	164302
552.364	156361
552.428	149599
552.491	156489
552.554	162664
552.618	162833
552.681	168466
552.745	169806
552.808	214992
552.871	269894
552.934	208289
552.998	173904
553.061	159291
553.124	150858
553.187	146425
553.251	154003
553.314	152053
553.377	152425
553.440	163427
553.503	167993
553.567	167448
553.630	164002
553.693	161146
553.756	161404
553.819	156885
553.882	150224
553.945	149708
554.008	151527
554.071	151766
554.134	153543
554.197	143696
554.260	138123
554.323	140374
554.386	143635
554.449	150794
554.512	153104
554.575	144116
554.638	144347
554.701	142388
554.764	142187
554.827	135571
554.889	130601
554.952	123488
555.015	120126
555.078	123486
555.141	126151
555.203	122354
555.266	119485
555.329	120125
555.391	115937
555.454	114131
555.517	110950
555.580	109408
555.642	103732
555.705	101164
555.768	100424
555.830	99070
555.893	92701
555.955	91516
556.018	89808
556.080	89493
556.143	93612
556.206	90441
556.268	89076
556.330	86744
556.393	85000
556.455	83146
556.518	81920
556.580	79143
556.643	75330
556.705	73651
556.767	72652
556.830	72473
556.892	71310
556.955	70970
557.017	67906
557.079	67619
557.142	65027
557.204	65643
557.266	70330
557.328	64137
557.391	58029
557.453	57593
557.515	56861
557.577	59566
557.639	59680
557.701	60913
557.764	62022
557.826	64857
557.888	68871
557.950	72114
558.012	77109
558.074	101314
558.136	232980
558.198	628334
558.260	256746
558.322	82901
558.384	80202
558.446	85388
558.508	94658
558.570	108498
558.632	126396
558.694	156853
558.756	251061
558.818	728928
558.880	1600038
558.942	722934
559.003	676764
559.065	366695
559.127	124881
559.189	111268
559.251	117965
559.312	161129
559.374	384525
559.436	1204550
559.498	688339
559.559	157754
559.621	117227
559.683	120790
559.744	189613
559.806	621677
559.868	984742
559.929	243499
559.991	125437
560.052	189290
560.114	583168
560.176	410833
560.237	322101
560.299	582178
560.360	142291
560.422	46931
560.483	37822
560.545	31789
560.606	29651
560.667	27261
560.729	26414
560.790	24186
560.852	24517
560.913	23378
560.974	22784
561.036	22128
561.097	22604
561.158	21309
561.220	21767
561.281	20427
561.342	20859
561.403	20203
561.465	19372
561.526	21611
561.587	23884
561.648	17909
561.709	18313
561.771	18055
561.832	17891
561.893	18309
561.954	17885
562.015	16108
562.076	17270
562.137	17126
562.198	16035
562.259	17135
562.320	16771
562.381	17228
562.442	16541
562.503	16674
562.564	16084
562.625	15166
562.686	15627
562.747	13915
562.808	15704
562.869	14657
562.930	15650
562.991	15196
563.051	14367
563.112	15010
563.173	14737
563.234	12883
563.294	13791
563.355	13360
563.416	13822
563.477	12830
563.537	13734
563.598	13146
563.659	13680
563.720	12436
563.780	13069
563.841	12824
563.901	13623
563.962	13064
564.023	12632
564.083	12480
564.144	12867
564.204	11965
564.265	12628
564.325	13047
564.386	13857
564.446	12785
564.507	12076
564.567	11173
564.628	11296
564.688	11252
564.749	11612
564.809	11992
564.869	12437
564.930	11775
564.990	12087
565.050	10811
565.111	11590
565.171	11865
565.231	12194
565.292	12756
565.352	10069
565.412	11236
565.472	10956
565.532	10134
565.593	10597
565.653	10471
565.713	11237
565.773	11574
565.833	11738
565.893	13417
565.953	11830
566.013	10323
566.074	10030
566.134	11671
566.194	11366
566.254	11778
566.314	11628
566.374	9417
566.434	10550
566.494	10471
566.554	10602
566.614	11007
566.673	10931
566.733	11873
566.793	11109
566.853	10972
566.913	11004
566.973	10438
567.033	12048
567.092	10506
567.152	11160
567.212	12023
567.272	11719
567.331	11746
567.391	12554
567.451	12754
567.511	13344
567.570	12437
567.630	12070
567.690	11132
567.749	11083
567.809	10344
567.868	11770
567.928	10826
567.988	11417
568.047	12532
568.107	11345
568.166	11884
568.226	11808
568.285	12348
568.345	12073
568.404	12811
568.464	12673
568.523	11402
568.582	11940
568.642	12235
568.701	12312
568.761	11834
568.820	11777
568.879	12028
568.939	12501
568.998	12271
569.057	11163
569.116	12183
569.176	12105
569.235	11522
569.294	11156
569.353	10531
569.413	11374
569.472	10480
569.531	10515
569.590	10170
569.649	11334
569.708	11324
569.767	11172
569.827	10512
569.886	10604
569.945	9909
570.004	11153
570.063	10741
570.122	12381
570.181	12141
570.240	11298
570.299	11659
570.358	12274
570.417	12303
570.475	12017
570.534	12050
570.593	12166
570.652	12677
570.711	12499
570.770	11053
570.829	12077
570.887	11279
570.946	12439
571.005	13228
571.064	14759
571.122	18313
571.181	15347
571.240	12656
571.299	11984
571.357	11596
571.416	11969
571.475	10897
571.533	12478
571.592	12999
571.650	12200
571.709	12980
571.768	15843
571.826	17721
571.885	15644
571.943	12423
572.002	11972
572.060	10974
572.119	11513
572.177	12101
572.236	12073
572.294	11140
572.352	13457
572.411	12873
572.469	12660
572.528	11024
572.586	11498
572.644	11154
572.703	10954
572.761	10468
572.819	9949
572.877	11131
572.936	10396
572.994	9189
573.052	10403
573.110	10722
573.169	12017
573.227	10931
573.285	11938
573.343	10627
573.401	10605
573.459	11792
573.517	11654
573.576	12814
573.634	11857
573.692	12575
573.750	13105
573.808	11326
573.866	10556
573.924	9723
573.982	11235
574.040	10833
574.098	11198
574.155	10588
574.213	10269
574.271	10543
574.329	14145
574.387	11567
574.445	9669
574.503	9493
574.560	9825
574.618	9477
574.676	9785
574.734	9599
574.792	10230
574.849	8986
574.907	8868
574.965	8766
575.022	6704
575.080	7332
575.138	8598
575.195	7715
575.253	7632
575.311	7578
575.368	7920
575.426	7104
575.483	8871
575.541	9128
575.598	8190
575.656	7531
575.713	9145
575.771	9525
575.828	9315
575.886	8457
575.943	7567
576.001	6459
576.058	8344
576.115	7198
576.173	8336
576.230	8357
576.287	7975
576.345	9475
576.402	9315
576.459	9456
576.517	8473
576.574	8179
576.631	7302
576.688	6975
576.746	6654
576.803	7055
576.860	6903
576.917	7203
576.974	7724
577.031	7634
577.089	7939
577.146	6611
577.203	7279
577.260	7503
577.317	6898
577.374	7452
577.431	7014
577.488	6936
577.545	7098
577.602	7348
577.659	6839
577.716	6894
577.773	7511
577.830	6221
577.886	7235
577.943	5569
578.000	6936
578.057	6024
578.114	7797
578.171	7210
578.227	8320
578.284	7354
578.341	7345
578.398	8046
578.454	7134
578.511	7631
578.568	7332
578.625	7380
578.681	6706
578.738	6103
578.794	7077
578.851	7515
578.908	7240
578.964	6939
579.021	8060
579.077	6979
579.134	7412
579.190	7277
579.247	7510
579.303	6830
579.360	7357
579.416	7447
579.473	6485
579.529	7072
579.586	7536
579.642	7307
579.698	7409
579.755	7087
579.811	7237
579.867	8293
579.924	8092
579.980	7098
580.036	8036
580.093	8476
580.149	10372
580.205	11559
580.261	9652
580.317	8720
580.374	9586
580.430	9428
580.486	8994
580.542	8433
580.598	9203
580.619	9151
580.654	9060
580.692	8908
580.710	8829
580.765	9038
580.767	9040
580.823	10060
580.838	9826
580.879	9193
580.911	9696
580.935	10058
580.984	10160
580.991	10170
581.047	10401
581.057	10258
581.103	9604
581.130	10307
581.159	11020
581.203	10536
581.215	10407
581.270	10902
581.276	10771
581.326	9461
581.349	9823
581.382	10361
581.422	10413
581.438	10401
581.494	9858
581.494	9863
581.550	9809
581.567	10049
581.606	10561
581.640	10243
581.661	9985
581.713	11427
581.717	11541
581.773	10724
581.786	10960
581.829	11719
581.859	11647
581.885	11576
581.932	11238
581.940	11167
581.996	11854
582.004	11951
582.052	12385
582.077	12477
582.107	12597
582.150	12891
582.163	12950
582.219	11503
582.223	11603
582.274	12805
582.296	12839
582.330	12882
582.368	12664
582.386	12590
582.441	12916
582.441	12908
582.497	13693
582.514	13605
582.552	13704
582.587	14004
582.608	14009
582.659	14116
582.663	14140
582.719	15192
582.732	15160
582.774	15080
582.805	15620
582.830	16066
582.877	16855
582.885	17022
582.941	18175
582.950	18241
582.996	18744
583.023	20152
583.052	21577
583.095	21416
583.107	21199
583.162	21567
583.168	21575
583.218	21305
583.240	20234
583.273	18722
583.313	17800
583.328	17577
583.384	18300
583.385	18267
583.439	16951
583.458	17120
583.494	17689
583.531	17480
583.549	17367
583.603	16845
583.605	16828
583.660	17027
583.676	16908
583.715	16971
583.748	17799
583.770	18236
583.820	17492
583.825	17436
583.881	18019
583.893	17959
583.936	17602
583.965	17699
583.991	17984
584.038	18757
584.046	18852
584.101	18286
584.110	18414
584.156	19523
584.183	19735
584.211	19879
584.255	20143
584.266	20305
584.321	21259
584.328	21371
584.376	21995
584.400	21824
584.431	21681
584.472	22703
584.486	23144
584.541	23674
584.545	23693
584.596	23971
584.617	24051
584.651	24638
584.689	25793
584.706	26138
584.761	26267
584.762	26243
584.816	26970
584.834	27514
584.871	28587
584.906	29192
584.926	29567
584.978	30604
584.980	30692
585.035	32329
585.051	32971
585.090	34769
585.123	36245
585.145	37325
585.195	40276
585.200	40693
585.254	45260
585.267	46791
585.309	51773
585.340	55460
585.364	59000
585.412	66240
585.419	67674
585.473	80866
585.484	84377
585.528	105573
585.556	127557
585.583	169834
585.628	273508
585.637	309335
585.692	633325
585.700	688083
585.747	869511
585.772	743459
585.801	492832
585.845	203829
585.856	162533
585.910	89748
585.917	83066
585.965	65402
585.989	58977
586.019	54273
586.061	50270
586.074	49345
586.128	46419
586.133	46084
586.183	44033
586.205	43172
586.237	42289
586.277	40810
586.292	40550
586.346	40411
586.349	40334
586.401	39452
586.421	38918
586.455	38976
586.493	38940
586.509	39196
586.564	39639
586.565	39593
586.618	42964
586.637	44133
586.672	47302
586.709	51388
586.727	52993
586.781	57028
586.781	57110
586.835	46747
586.853	44375
586.889	42139
586.925	40132
586.944	39578
586.996	39105
586.998	39216
587.052	39417
587.068	39459
587.106	39852
587.140	40310
587.161	40519
587.212	39841
587.215	39946
587.269	40770
587.284	40847
587.323	41674
587.356	42215
587.377	42707
587.427	43941
587.431	44137
587.485	44700
587.499	44677
587.539	45695
587.571	46798
587.593	48060
587.643	50901
587.648	51201
587.702	51465
587.715	51597
587.755	52079
587.786	52196
587.810	52696
587.858	52857
587.864	53051
587.917	53806
587.930	53759
587.971	53821
588.001	53786
588.025	54040
588.073	54359
588.079	54680
588.133	55365
588.145	55570
588.187	56549
588.217	56759
588.241	58041
588.288	60038
588.295	60438
588.348	62940
588.360	63196
588.402	64870
588.431	66003
588.456	67860
588.503	70468
588.510	71197
588.564	76757
588.575	77663
588.617	82597
588.646	85360
588.671	89031
588.718	96258
588.725	99232
588.778	122223
588.789	127515
588.832	198143
588.861	251068
588.886	354259
588.932	568345
588.939	583065
588.993	677626
589.004	673699
589.047	397702
589.075	229833
589.100	181235
589.147	110777
589.154	109213
589.207	96658
589.218	94020
589.261	94942
589.290	95152
589.314	98054
589.361	104545
589.368	109024
589.421	145465
589.433	153918
589.475	265081
589.504	348551
589.528	440968
589.576	630553
589.582	610209
589.635	338922
589.647	281950
589.689	168084
589.718	98337
589.742	91534
589.790	77759
589.795	77531
589.849	74053
589.861	72949
589.902	71765
589.932	70696
589.955	70544
590.004	69167
590.009	69393
590.062	69514
590.075	69267
590.115	69141
590.146	68730
590.168	68711
590.218	67534
590.222	67868
590.275	69386
590.289	69510
590.328	71251
590.360	72185
590.381	72877
590.431	73639
590.435	73934
590.488	74235
590.503	74019
590.541	75702
590.574	76848
590.594	77791
590.645	78903
590.647	79269
590.700	81157
590.716	81470
590.753	84289
590.787	86287
590.806	87307
590.859	88703
590.859	89062
590.912	90254
590.930	90448
590.965	92163
591.001	93015
591.018	92962
591.071	91574
591.072	91209
591.124	90869
591.143	90285
591.177	91768
591.214	92718
591.230	93469
591.283	94755
591.285	94429
591.336	94664
591.356	94385
591.389	94986
591.427	94640
591.442	94934
591.495	94820
591.498	94431
591.547	95063
591.569	94869
591.600	96346
591.640	97324
591.653	98194
591.706	100366
591.711	100193
591.759	103917
591.782	105208
591.811	107357
591.853	109505
591.864	110109
591.917	110768
591.924	110420
591.969	110830
591.995	110402
592.022	112077
592.066	113637
592.075	114473
592.127	116801
592.137	116750
592.180	120105
592.208	121530
592.233	123104
592.279	124581
592.285	125567
592.338	129620
592.350	130008
592.390	129825
592.421	128719
592.443	130663
592.491	133260
592.495	133899
592.548	135050
592.562	134809
592.600	135925
592.633	135838
592.653	137074
592.704	138036
592.705	138886
592.775	141425
592.846	144477
592.916	147382
592.987	148027
593.058	150627
593.128	152737
593.199	154058
593.270	156686
593.341	162413
593.411	169740
593.482	175460
593.553	175681
593.623	178245
593.694	182111
593.764	184785
593.835	179352
593.906	181576
593.976	184625
594.047	189264
594.117	197323
594.188	199273
594.258	198922
594.329	199050
594.399	205298
594.470	210726
594.540	216617
594.611	219079
594.681	218454
594.751	219190
594.822	225626
594.892	236833
594.963	239853
595.033	250733
595.103	257913
595.174	258256
595.244	263584
595.314	271697
595.384	276842
595.455	287218
595.525	295387
595.595	308241
595.665	303486
595.736	298857
595.806	303009
595.876	309094
595.946	307360
596.016	325127
596.087	336776
596.157	334730
596.227	335075
596.297	357508
596.367	382268
596.437	399856
596.507	397188
596.577	396182
596.647	410173
596.717	429576
596.787	437954
596.857	435297
596.927	438765
596.997	440189
597.067	445007
597.137	448214
597.207	457853
597.277	460507
597.347	443273
597.417	429961
597.487	430688
597.557	443865
597.626	453591
597.696	464115
597.766	457853
597.836	431611
597.906	413809
597.975	409852
598.045	416327
598.115	434737
598.185	467144
598.254	520231
598.324	557551
598.394	565499
598.464	551146
598.533	539540
598.603	508635
598.672	494500
598.742	508093
598.812	511327
598.881	528040
598.951	523505
599.020	535464
599.090	554197
599.159	558387
599.229	540946
599.299	534575
599.368	552685
599.437	542217
599.507	505196
599.576	493089
599.646	489159
599.715	485275
599.785	482867
599.854	474273
599.924	470496
599.993	470710
600.062	482722
600.132	496559
600.201	525243
600.270	597034
600.340	622137
600.409	615083
600.478	610849
600.547	626072
600.617	571836
600.686	484067
600.755	454377
600.824	441193
600.894	436363
600.963	441632
601.032	442038
601.101	432071
601.170	422303
601.239	418286
601.308	421447
601.378	427891
601.447	430388
601.516	441692
601.585	447868
601.654	456700
601.723	460600
601.792	476789
601.861	491453
601.930	511201
601.999	521558
602.068	519870
602.137	523084
602.206	530835
602.275	537096
602.343	540404
602.412	548333
602.481	553208
602.550	557554
602.619	572411
602.688	573158
602.756	583479
602.825	578555
602.894	598173
602.963	600887
603.032	608058
603.100	610638
603.169	600903
603.238	621135
603.307	601342
603.375	614678
603.444	632978
603.513	610546
603.581	629404
603.650	646858
603.719	585164
603.787	585791
603.856	599305
603.924	612265
603.993	631533
604.061	653087
604.130	677395
604.198	687781
604.267	695620
604.335	709569
604.404	714456
604.472	732185
604.541	732946
604.609	753126
604.678	763299
604.746	767346
604.815	794419
604.883	785384
604.951	776316
605.020	796565
605.088	777813
605.156	770783
605.225	776905
605.293	774922
605.361	783774
605.429	780758
605.498	803801
605.566	802105
605.634	845093
605.702	856649
605.771	880474
605.839	884721
605.907	852856
605.975	849912
606.043	827174
606.111	823653
606.180	843909
606.248	805197
606.316	802682
606.384	827870
606.452	760945
606.520	744255
606.588	767520
606.656	773832
606.724	758371
606.792	715514
606.860	654090
606.928	599142
606.996	577910
607.064	569410
607.132	587702
607.200	620293
607.267	636936
607.335	652225
607.403	664956
607.471	639579
607.539	624488
607.607	620974
607.674	551480
607.742	548666
607.810	545390
607.878	547564
607.946	561709
608.013	583820
608.081	590799
608.149	598236
608.216	617551
608.284	634633
608.352	637491
608.419	625992
608.487	609727
608.555	602091
608.622	622485
608.690	655804
608.757	720225
608.825	725626
608.893	709224
608.960	666338
609.028	643680
609.095	641201
609.163	638330
609.230	570085
609.298	528683
609.365	561475
609.432	604232
609.500	657235
609.567	745726
609.635	840150
609.702	875896
609.769	824661
609.837	640304
609.904	566686
609.971	576393
610.039	600709
610.106	676684
610.173	939526
610.241	1484653
610.308	1053868
610.375	687111
610.442	608672
610.509	587529
610.577	588336
610.644	597985
610.711	621242
610.778	633945
610.845	663704
610.912	699912
610.980	724001
611.047	723104
611.114	710027
611.181	688894
611.248	692666
611.315	728471
611.382	745065
611.449	770885
611.516	776582
611.583	766097
611.650	770248
611.717	777215
611.784	786163
611.851	805058
611.918	820352
611.984	888410
612.051	1020134
612.118	1362320
612.185	1973417
612.252	1556234
612.319	1019062
612.386	947051
612.452	893403
612.519	856121
612.586	845838
612.653	867588
612.719	898813
612.786	859907
612.853	808202
612.919	800952
612.986	806908
613.053	764961
613.120	720848
613.186	701176
613.253	705713
613.319	706383
613.386	711908
613.453	721980
613.519	721153
613.586	711783
613.652	720411
613.719	708805
613.785	721507
613.852	738034
613.918	728662
613.985	736978
614.051	760670
614.118	748174
614.184	720439
614.250	727688
614.317	741625
614.383	734524
614.449	747246
614.516	743228
614.582	747841
614.648	734535
614.715	731711
614.781	712430
614.847	716469
614.914	711538
614.980	695975
615.046	697554
615.112	718142
615.179	719449
615.245	727007
615.311	717038
615.377	727458
615.443	732626
615.509	743097
615.575	754397
615.642	747962
615.708	764219
615.774	788198
615.840	814072
615.906	824773
615.972	888788
616.038	1069808
616.104	1525256
616.170	2102550
616.236	1840638
616.302	1180165
616.368	1045620
616.434	877320
616.500	839720
616.565	881573
616.631	1000117
616.697	903726
616.763	911907
616.829	1126394
616.895	1570646
616.961	1446110
617.026	920692
617.092	786179
617.158	762829
617.224	750602
617.289	703865
617.355	680951
617.421	679219
617.487	676633
617.552	647144
617.618	647311
617.684	652615
617.749	651020
617.815	627381
617.880	620401
617.946	620956
618.012	631440
618.077	640452
618.143	611589
618.208	618897
618.274	661078
618.339	655949
618.405	551698
618.470	553143
618.536	548080
618.601	541838
618.667	504143
618.732	482581
618.798	483095
618.863	482220
618.928	478277
618.994	483302
619.059	476205
619.124	480793
619.190	477451
619.255	475993
619.320	476181
619.386	476679
619.451	469514
619.516	456674
619.581	464640
619.647	483012
619.712	481997
619.777	461325
619.842	466952
619.907	477042
619.972	483180
620.038	480791
620.103	470515
620.168	474128
620.233	479432
620.298	484380
620.363	490063
620.428	504402
620.493	517314
620.558	523503
620.623	525158
620.688	520879
620.753	517895
620.818	528851
620.883	529252
620.948	521806
621.013	514482
621.078	504663
621.143	509790
621.207	506316
621.272	500157
621.337	483532
621.402	481054
621.467	479484
621.532	478246
621.596	483225
621.661	468074
621.726	465812
621.791	472768
621.855	471203
621.920	465427
621.985	476837
622.049	481733
622.114	484142
622.179	489789
622.243	499160
622.308	514978
622.373	531678
622.437	517702
622.502	495980
622.566	488173
622.631	488557
622.695	500641
622.760	489811
622.824	494355
622.889	494912
622.953	499055
623.018	525574
623.082	528009
623.147	524823
623.211	510186
623.276	514424
623.340	493312
623.404	480470
623.469	482893
623.533	490036
623.597	474783
623.662	476098
623.726	441547
623.790	415164
623.854	408747
623.919	415315
623.983	420462
624.047	427218
624.111	433624
624.176	438205
624.240	441103
624.304	450990
624.368	436975
624.432	439212
624.496	449006
624.560	470971
624.625	472027
624.689	471042
624.753	491766
624.817	463619
624.881	457452
624.945	413977
625.009	404018
625.073	409708
625.137	424556
625.201	439908
625.265	436730
625.329	423009
625.393	430203
625.456	429960
625.520	443958
625.584	449960
625.648	462124
625.712	471629
625.776	468101
625.839	440024
625.903	371673
625.967	353753
626.031	379812
626.095	445007
626.158	406284
626.222	327933
626.286	307885
626.349	295610
626.413	277194
626.477	273277
626.540	280498
626.604	277493
626.668	271819
626.731	270378
626.795	269748
626.858	267873
626.922	263906
626.986	262496
627.049	263113
627.113	273250
627.176	265448
627.240	257889
627.303	254813
627.366	254267
627.430	257481
627.493	254745
627.557	251584
627.620	257146
627.684	264579
627.747	263327
627.810	239602
627.874	219619
627.937	210943
628.000	221884
628.064	211769
628.127	191417
628.190	186506
628.253	184161
628.317	176683
628.380	169301
628.443	164739
628.506	163663
628.569	157089
628.632	149943
628.696	150660
628.759	149498
628.822	141047
628.885	140493
628.948	137338
629.011	135674
629.074	131149
629.137	129046
629.200	124817
629.263	124153
629.326	122735
629.389	123423
629.452	121765
629.515	118493
629.578	118165
629.641	121607
629.704	120995
629.767	117284
629.830	115469
629.892	113469
629.955	113439
630.018	116845
630.081	114280
630.144	113662
630.207	110613
630.269	114060
630.332	109217
630.395	110064
630.458	106721
630.520	101937
630.583	104576
630.646	107101
630.708	106136
630.771	110267
630.834	113089
630.896	111651
630.959	110419
631.021	106861
631.084	106995
631.146	107520
631.209	107839
631.272	106285
631.334	109186
631.397	108477
631.459	107224
631.522	111238
631.584	112697
631.646	116155
631.709	117936
631.771	116606
631.834	113254
631.896	109373
631.958	107563
632.021	105289
632.083	101710
632.145	103104
632.208	101353
632.270	101270
632.332	102579
632.395	101501
632.457	102527
632.519	100298
632.581	101601
632.643	98671
632.706	100863
632.768	97025
632.830	100804
632.892	102219
632.954	102769
633.016	105344
633.078	102415
633.141	102628
633.203	102212
633.265	100320
633.327	101914
633.389	100222
633.451	101210
633.513	101230
633.575	103289
633.637	100725
633.698	102306
633.760	108129
633.822	111264
633.884	112736
633.946	111397
634.008	111129
634.070	113414
634.132	113927
634.193	118580
634.255	125823
634.317	127523
634.379	126731
634.441	117657
634.502	111488
634.564	103825
634.626	99000
634.687	97355
634.749	93767
634.811	95923
634.873	94807
634.934	95108
634.996	95356
635.057	94777
635.119	96237
635.181	97240
635.242	97453
635.304	95101
635.365	98772
635.427	95847
635.488	95199
635.550	94674
635.611	95248
635.673	94089
635.734	98518
635.796	99967
635.857	105650
635.918	110481
635.980	115830
636.041	119394
636.102	124345
636.164	124548
636.225	119109
636.286	107408
636.348	99950
636.409	95517
636.470	94970
636.531	93067
636.593	92251
636.654	90133
636.715	88575
636.776	88127
636.838	85865
636.899	86589
636.960	85280
637.021	84275
637.082	82173
637.143	82410
637.204	80460
637.265	80142
637.326	81520
637.387	83791
637.448	82289
637.509	83411
637.570	82204
637.631	81910
637.692	79689
637.753	78123
637.814	79627
637.875	77598
637.936	77555
637.997	77180
638.058	76951
638.119	77277
638.179	77457
638.240	77897
638.301	79084
638.362	75931
638.423	74403
638.483	75279
638.544	70866
638.605	73068
638.666	73477
638.726	73810
638.787	73976
638.848	73882
638.908	70854
638.969	71294
639.030	69225
639.090	68592
639.151	70058
639.211	71766
639.272	71279
639.332	71866
639.393	71188
639.453	73213
639.514	74514
639.574	68483
639.635	66456
639.695	65987
639.756	65899
639.816	65016
639.877	64598
639.937	65998
639.997	64845
640.058	63793
640.118	64265
640.178	65030
640.239	63955
640.299	63975
640.359	65884
640.420	68447
640.480	71295
640.540	77634
640.600	76088
640.661	71681
640.721	69165
640.781	69923
640.841	63411
640.901	65518
640.961	65724
641.021	67624
641.082	68923
641.142	64317
641.202	65546
641.262	61828
641.322	65020
641.382	61852
641.442	62396
641.502	62250
641.562	63025
641.622	63511
641.682	67015
641.742	69631
641.802	66361
641.861	62845
641.921	59784
641.981	59381
642.041	56928
642.101	57288
642.161	55749
642.221	56880
642.280	58114
642.340	56522
642.400	58548
642.460	61120
642.519	59607
642.579	60320
642.639	60776
642.698	58359
642.758	63797
642.818	61999
642.877	59592
642.937	60098
642.997	60464
643.056	59477
643.116	57773
643.175	61549
643.235	60922
643.294	62659
643.354	64584
643.414	67285
643.473	72827
643.532	81191
643.592	95619
643.651	123698
643.711	181045
643.770	306253
643.830	633374
643.889	967737
643.948	350527
644.008	121289
644.067	86688
644.126	72140
644.186	66276
644.245	61950
644.304	57278
644.363	60450
644.423	55094
644.482	57466
644.541	60802
644.600	60577
644.659	69774
644.719	78730
644.778	100977
644.837	151354
644.896	272867
644.955	502796
645.014	184453
645.073	77061
645.132	65793
645.191	63227
645.250	60901
645.309	64046
645.368	67050
645.427	81606
645.486	123620
645.545	179881
645.604	71653
645.663	57937
645.722	56049
645.781	59719
645.840	63557
645.898	71230
645.957	88035
646.016	113709
646.075	172207
646.134	290697
646.192	647732
646.251	758398
646.310	202968
646.369	95241
646.427	81696
646.486	68331
646.545	58847
646.603	56552
646.662	53556
646.721	51872
646.779	51633
646.838	52860
646.896	60304
646.955	71156
647.014	98767
647.072	168407
647.131	379145
647.189	178272
647.248	56661
647.306	50423
647.365	47220
647.423	43231
647.481	44540
647.540	43316
647.598	44126
647.657	44124
647.715	44511
647.773	41814
647.832	42649
647.890	39461
647.948	38926
648.007	39460
648.065	35938
648.123	36997
648.181	36661
648.240	37662
648.298	35942
648.356	35116
648.414	36414
648.472	35800
648.531	34961
648.589	32745
648.647	34817
648.705	35461
648.763	33666
648.821	35847
648.879	35580
648.937	38331
648.995	41776
649.053	49261
649.111	62646
649.169	86219
649.227	137531
649.285	265494
649.343	598800
649.401	287636
649.459	68810
649.516	46939
649.574	40202
649.632	42906
649.690	45875
649.748	54673
649.806	70702
649.863	118408
649.921	288506
649.979	176745
650.037	43438
650.094	32053
650.152	30876
650.210	28726
650.268	29848
650.325	28504
650.383	27452
650.440	25964
650.498	26555
650.556	26145
650.613	25520
650.671	25966
650.728	25981
650.786	27746
650.843	34491
650.901	26899
650.958	25265
651.016	24018
651.073	24087
651.131	23308
651.188	23104
651.246	23806
651.303	22235
651.360	23124
651.418	22186
651.475	22019
651.532	21916
651.590	22113
651.647	21015
651.704	22647
651.762	22046
651.819	22602
651.876	20335
651.933	20568
651.990	21481
652.048	19025
652.105	19486
652.162	20911
652.219	19626
652.276	20904
652.333	19685
652.390	19266
652.448	19917
652.505	19960
652.562	19610
652.619	18877
652.676	19121
652.733	20291
652.790	18951
652.847	17682
652.904	18081
652.961	17950
653.017	17094
653.074	18526
653.131	17933
653.188	18299
653.245	18338
653.302	18855
653.359	18603
653.415	18529
653.472	17330
653.529	18381
653.586	18239
653.642	17679
653.699	18902
653.756	17236
653.813	17467
653.869	18671
653.926	17840
653.983	18132
654.039	18669
654.096	17044
654.152	18251
654.209	16274
654.266	17495
654.322	16020
654.379	17754
654.435	18080
654.492	16153
654.548	17021
654.605	17205
654.661	18090
654.717	17076
654.774	17515
654.830	17109
654.887	16752
654.943	16274
655.000	17492
655.056	16937
655.112	17222
655.168	17341
655.225	16762
655.281	17863
655.337	18275
655.394	17098
655.450	15964
655.506	15872
655.562	15704
655.618	17813
655.675	16334
655.731	16420
655.787	15834
655.843	16906
655.899	15686
655.955	17524
656.011	17117
656.067	15736
656.123	16695
656.179	15820
656.235	17764
656.291	15384
656.347	18349
656.403	15332
656.459	17318
656.515	16502
656.571	16603
656.627	15497
656.683	16272
656.739	15936
656.795	16671
656.850	15650
656.906	15887
656.962	16453
657.018	17260
657.074	20563
657.129	25483
657.185	37977
657.241	76962
657.297	39569
657.352	17836
657.408	15220
657.464	16785
657.519	14298
657.575	13978
657.630	15269
657.686	14259
657.742	14550
657.797	14916
657.853	14038
657.908	16087
657.964	14704
658.019	14801
658.075	14317
658.130	15416
658.186	13135
658.241	14719
658.297	13255
658.352	13399
658.407	14520
658.463	13028
658.518	14371
658.573	14034
658.629	13053
658.684	13965
658.739	13911
658.795	13729
658.850	13951
658.905	12998
658.960	13343
659.016	12418
659.071	13364
659.126	13978
659.181	12623
659.236	14486
659.291	14091
659.346	11795
659.401	13675
659.457	14363
659.512	12966
659.567	13653
659.622	12448
659.677	12840
659.732	12795
659.787	13489
659.842	12914
659.897	13289
659.952	13098
660.007	12921
660.061	12361
660.116	11254
660.171	12279
660.226	11674
660.281	13719
660.336	11930
660.391	13362
660.445	12587
660.500	12376
660.555	12645
660.610	11884
660.664	12659
660.719	12028
660.774	12177
660.828	12580
660.883	11451
660.938	12285
660.992	12146
661.047	11515
661.101	11671
661.156	11590
661.211	11338
661.265	11429
661.320	11655
661.374	12163
661.429	12028
661.483	12992
661.538	10692
661.592	11895
661.647	12139
661.701	12315
661.755	12836
661.810	11694
661.864	11370
661.919	11114
661.973	12230
662.027	10766
662.081	11320
662.136	11295
662.190	10931
662.244	11333
662.299	12059
662.353	12005
662.407	11340
662.461	11815
662.515	11734
662.569	10672
662.624	11398
662.678	11318
662.732	11520
662.786	11694
662.840	11150
662.894	11460
662.948	11208
663.002	12446
663.056	11886
663.110	11165
663.164	11725
663.218	12267
663.272	11877
663.326	11456
663.380	11258
663.434	11682
663.488	11183
663.542	11703
663.595	11380
663.649	11371
663.703	10984
663.757	11171
663.811	10844
663.864	11149
663.918	11283
663.972	10627
664.026	11317
664.079	10863
664.133	12189
664.187	11637
664.240	11305
664.294	11302
664.348	11762
664.401	11112
664.455	11449
664.508	10266
664.562	11056
664.615	10644
664.669	10068
664.722	10312
664.776	10953
664.829	11109
664.883	11432
664.936	11232
664.990	11890
665.043	11064
665.097	10967
665.150	11972
665.203	11341
665.257	11469
665.310	12157
665.363	11179
665.417	12257
665.470	11628
665.523	11578
665.576	12266
665.630	12182
665.683	10707
665.736	12219
665.789	10714
665.842	10319
665.895	10931
665.949	11996
666.002	11414
666.055	11397
666.108	12174
666.161	12250
666.214	11805
666.267	13030
666.320	12173
666.373	12442
666.426	12701
666.479	11770
666.532	11949
666.585	13641
666.638	12258
666.691	12022
666.744	12400
666.796	11639
666.849	12762
666.902	12758
666.955	12239
667.008	12109
667.060	12471
667.113	13231
667.166	12810
667.219	13435
667.271	14365
667.324	13613
667.377	12245
667.430	13225
667.482	12000
667.535	12330
667.587	12940
667.640	12324
667.693	12158
667.745	12157
667.798	12823
667.850	11666
667.903	12700
667.955	13364
668.008	11973
668.060	12659
668.113	11675
668.165	12586
668.218	12586
668.270	12745
668.322	11944
668.375	11933
668.427	12915
668.479	12140
668.532	12215
668.584	11627
668.636	11618
668.689	12846
668.741	11886
668.793	12221
668.845	11575
668.898	12352
668.950	12514
669.002	12315
669.054	11636
669.106	11950
669.158	12244
669.211	11910
669.263	11356
669.315	13000
669.367	12414
669.419	11627
669.471	12551
669.523	11808
669.575	11961
669.627	11265
669.679	11319
669.731	12401
669.783	12325
669.835	12278
669.886	9912
669.938	11996
669.990	11290
670.042	11967
670.094	12092
670.146	12053
670.197	12889
670.249	14339
670.301	14736
670.353	18131
670.404	21727
670.456	26635
670.508	40761
670.560	60346
670.611	96378
670.663	165655
670.715	374449
670.766	498453
670.818	151062
670.869	38155
670.921	25731
670.972	20488
671.024	17072
671.075	14304
671.127	13945
671.178	14686
671.230	14335
671.281	14192
671.333	15281
671.384	17260
671.436	20688
671.487	26787
671.538	35145
671.590	51304
671.641	79617
671.692	139336
671.744	240956
671.795	158633
671.846	60078
671.897	31130
671.949	23134
672.000	18773
672.051	15059
672.102	13879
672.153	12900
672.204	12034
672.256	12438
672.307	10899
672.358	11326
672.409	10646
672.460	10310
672.511	10854
672.562	9651
672.613	9039
672.664	8620
672.715	9781
672.766	8745
672.817	9046
672.868	8801
672.919	8837
672.970	8203
673.021	9635
673.071	7824
673.122	7848
673.173	7884
673.224	8096
673.275	8372
673.326	8364
673.376	8408
673.427	7890
673.478	9915
673.528	9831
673.579	7958
673.630	8859
673.680	9714
673.731	8832
673.782	8009
673.832	8677
673.883	7965
673.934	8151
673.984	8495
674.035	8921
674.085	7912
674.136	8303
674.186	9322
674.237	8900
674.287	9000
674.338	8357
674.388	8853
674.438	8877
674.489	9233
674.539	9503
674.589	9216
674.640	9000
674.690	8987
674.740	8727
674.791	8450
674.841	8841
674.891	7871
674.942	7008
674.992	7222
675.042	7309
675.092	6703
675.142	6883
675.193	5862
675.243	7593
675.293	7674
675.343	7563
675.393	8268
675.443	7904
675.493	7154
675.543	7550
675.593	7951
675.643	7827
675.693	7706
675.743	7994
675.793	7149
675.843	7158
675.893	6381
675.943	7181
675.993	6823
676.043	6429
676.093	7446
676.142	7223
676.192	7162
676.242	7890
676.292	6808
676.341	7465
676.391	6540
676.441	6870
676.491	6040
676.540	6353
676.590	6560
676.640	6113
676.689	6822
676.739	5224
676.789	5867
676.838	6294
676.888	6391
676.937	6047
676.987	6322
677.037	6459
677.086	6044
677.136	6559
677.185	6182
677.235	6569
677.284	7194
677.333	5903
677.383	7160
677.432	4966
677.482	5029
677.531	6399
677.580	5504
677.630	6198
677.679	6037
677.728	6482
677.778	5534
677.827	4755
677.876	5581
677.925	6801
677.975	6542
678.024	6707
678.073	6659
678.122	6295
678.171	6728
678.220	6176
678.269	8084
678.319	8200
678.368	7402
678.417	6862
678.466	7190
678.515	5693
678.564	6133
678.613	5646
678.662	5201
678.711	5818
678.760	5115
678.809	6395
678.857	5969
678.906	6087
678.955	5598
679.004	5844
679.053	5268
679.102	5477
679.151	5093
679.199	5244
679.248	5470
679.297	5384
679.346	4518
679.394	4671
679.443	5383
679.492	4755
679.540	5599
679.589	5476
679.638	5014
679.686	5687
679.735	6437
679.784	6182
679.832	7114
679.881	5429
679.929	5972
679.978	5083
680.026	6230
680.075	5706
680.123	4348
680.172	4444
680.220	5258
680.268	5173
680.317	4086
680.365	4706
680.414	4453
680.462	5780
680.510	5106
680.559	5224
680.607	4353
680.655	5768
680.703	4932
680.752	5227
680.800	5590
680.848	4643
680.896	4672
680.945	4403
680.993	4513
681.041	4280
681.089	4898
681.137	5169
681.185	4944
681.233	5897
681.258	5053
681.281	4237
681.329	3987
681.377	4300
681.380	4339
681.425	4679
681.473	5284
681.502	5366
681.521	5381
681.569	5531
681.617	5563
681.624	5556
681.665	5371
681.713	5500
681.745	5574
681.761	5573
681.809	4880
681.857	4997
681.867	5181
681.904	5764
681.952	5668
681.989	5468
682.000	5378
682.048	5722
682.096	5761
682.111	5488
682.143	4833
682.191	5763
682.233	5969
682.239	5983
682.286	5971
682.334	4669
682.354	5253
682.382	5999
682.430	6263
682.476	5106
682.477	5062
682.525	5455
682.572	5237
682.598	5123
682.620	5013
682.667	6096
682.715	5634
682.720	5728
682.763	6394
682.810	6004
682.841	5801
682.857	5662
682.905	5350
682.952	5641
682.963	5724
683.000	5966
683.047	5155
683.085	6377
683.095	6692
683.142	5935
683.190	5805
683.206	5751
683.237	5597
683.284	6465
683.328	6072
683.332	6026
683.379	5637
683.426	6087
683.449	6163
683.473	6214
683.521	5785
683.568	6056
683.571	6104
683.615	6498
683.662	6324
683.693	6108
683.709	5956
683.757	6883
683.804	6087
683.814	5916
683.851	5236
683.898	6090
683.936	6241
683.945	6280
683.992	6742
684.039	6298
684.057	6462
684.086	6683
684.133	6026
684.179	6096
684.180	6082
684.227	6237
684.274	6883
684.300	6485
684.321	6204
684.368	6286
684.415	6758
684.422	6827
684.462	7218
684.509	6747
684.543	7414
684.556	7612
684.603	6480
684.649	6765
684.665	6948
684.696	7342
684.743	7346
684.786	7561
684.790	7562
684.837	6926
684.883	6823
684.908	7030
684.930	7205
684.977	7301
685.023	7674
685.029	7630
685.070	7286
685.117	8038
685.150	7513
685.164	7260
685.210	7675
685.257	7355
685.272	7602
685.303	8161
685.350	7859
685.393	8009
685.396	8001
685.443	7518
685.490	7269
685.514	7454
685.536	7641
685.583	7124
685.629	6979
685.636	6928
685.675	6670
685.722	7843
685.757	7350
685.768	7169
685.815	7489
685.861	7342
685.878	7530
685.908	7864
685.954	7796
686.000	8123
686.000	8122
686.047	7460
686.093	7783
686.121	7943
686.139	8055
686.185	8160
686.232	8046
686.242	7937
686.278	7551
686.324	8394
686.363	7715
686.370	7593
686.416	8067
686.463	8681
686.484	8680
686.509	8598
686.555	8051
686.601	8009
686.606	8007
686.647	8113
686.693	8122
686.727	8536
686.739	8635
686.785	7684
686.831	7747
686.848	7773
686.877	7996
686.923	7933
686.969	8125
686.969	8124
687.015	8330
687.061	8696
687.090	9184
687.107	9361
687.153	9569
687.199	8929
687.211	8715
687.245	8242
687.291	8555
687.332	9317
687.336	9388
687.382	8965
687.428	8741
687.453	8934
687.474	9136
687.520	8934
687.565	9290
687.574	9261
687.611	9134
687.657	9511
687.695	9378
687.702	9360
687.748	9364
687.794	10311
687.816	9896
687.839	9422
687.885	9653
687.931	9384
687.937	9395
687.976	9593
688.022	9665
688.058	9724
688.067	9690
688.113	9339
688.158	9397
688.179	9224
688.204	9155
688.249	9699
688.295	10142
688.300	10060
688.340	9459
688.386	10002
688.421	9754
688.431	9691
688.477	9088
688.522	9412
688.542	9745
688.567	10351
688.613	10162
688.658	10713
688.663	10727
688.703	10425
688.749	10526
688.784	10475
688.794	10497
688.839	10349
688.884	10437
688.905	10191
688.930	9946
688.975	10198
689.020	10136
689.026	10108
689.065	9845
689.110	9995
689.146	9831
689.155	9876
689.201	10064
689.246	11027
689.267	10734
689.291	10268
689.336	10867
689.381	10042
689.388	10117
689.426	10683
689.471	10791
689.509	10737
689.516	10728
689.561	10830
689.606	10698
689.630	10757
689.651	10742
689.696	10503
689.741	10445
689.750	10466
689.785	10823
689.830	10668
689.871	10497
689.875	10474
689.920	10468
689.965	10682
689.992	10787
690.010	10900
690.054	10522
690.099	10928
690.112	10809
690.144	10481
690.189	10482
690.233	10599
690.233	10612
690.278	10448
690.323	10890
690.354	10758
690.367	10737
690.412	11037
690.457	11091
690.474	11143
690.501	11139
690.546	11394
690.590	11039
690.595	11006
690.635	11066
690.680	11429
690.716	11825
690.724	11901
690.769	11750
690.813	12072
690.836	11894
690.857	12264
690.902	13669
690.946	15396
690.957	15731
690.991	17971
691.035	21641
691.077	24569
691.080	24502
691.124	20827
691.168	17527
691.198	15751
691.213	15254
691.257	13961
691.301	12162
691.318	11718
691.346	11787
691.390	11462
691.434	11385
691.439	11365
691.478	11682
691.522	11916
691.559	11877
691.567	11869
691.611	12167
691.655	12627
691.680	12373
691.699	11997
691.743	11751
691.787	11398
691.800	11211
691.831	11223
691.875	11455
691.919	11753
691.921	11739
691.964	11712
692.008	11848
692.041	11595
692.052	11564
692.096	12052
692.139	12130
692.162	12269
692.183	12203
692.227	11607
692.271	11188
692.282	11107
692.315	11483
692.359	12043
692.402	12350
692.403	12368
692.447	12119
692.490	12239
692.523	11934
692.534	11850
692.578	11324
692.622	11586
692.643	11488
692.666	11537
692.709	11479
692.753	11800
692.763	11846
692.797	12045
692.840	12072
692.884	12283
692.884	12304
692.928	12444
692.971	11893
693.004	11746
693.015	11810
693.059	12209
693.102	12450
693.124	12511
693.146	12570
693.189	12550
693.233	12743
693.245	12761
693.276	12731
693.320	12681
693.363	12756
693.365	12726
693.407	13031
693.450	13377
693.485	13946
693.493	14165
693.537	14849
693.580	15478
693.605	15854
693.624	16702
693.667	18879
693.710	21024
693.725	21889
693.753	26515
693.797	33988
693.840	41190
693.845	41723
693.883	34964
693.926	27637
693.966	22148
693.970	21940
694.013	19027
694.056	16216
694.086	14083
694.099	13921
694.142	13761
694.185	13329
694.206	13239
694.229	13353
694.272	13229
694.315	13082
694.326	13117
694.358	13413
694.401	13546
694.444	13509
694.446	13486
694.487	13397
694.530	13355
694.566	13304
694.573	13331
694.616	13245
694.659	13105
694.686	13218
694.702	13444
694.745	13697
694.787	13832
694.806	13903
694.830	13761
694.873	13578
694.916	13280
694.926	13206
694.959	13597
695.002	14038
695.044	14517
695.046	14507
695.087	14678
695.130	14915
695.166	14827
695.172	14910
695.215	15362
695.258	15690
695.286	16241
695.301	16397
695.343	16364
695.386	16287
695.406	16293
695.428	16949
695.471	18019
695.514	19253
695.526	19580
695.556	20292
695.599	21322
695.641	21947
695.646	21965
695.684	21004
695.726	20167
695.766	19306
695.769	19309
695.811	18876
695.854	18030
695.886	17697
695.896	17944
695.938	18602
695.981	19249
696.005	19613
696.023	20055
696.065	21188
696.108	22353
696.125	22675
696.150	22848
696.192	23145
696.235	23410
696.245	23421
696.277	23373
696.319	23295
696.361	23282
696.365	23221
696.404	22857
696.446	22559
696.485	22043
696.488	22079
696.530	22065
696.572	22096
696.604	21944
696.614	22011
696.656	22263
696.698	22293
696.724	22342
696.740	22495
696.783	22874
696.825	23160
696.844	23221
696.867	23242
696.909	23291
696.951	23123
696.964	23111
696.992	23594
697.034	24054
697.076	24542
697.083	24579
697.118	25017
697.160	25433
697.202	25826
697.203	25780
697.244	25568
697.286	25343
697.323	24941
697.327	25010
697.369	25268
697.411	25584
697.442	25755
697.453	25834
697.494	25789
697.536	25838
697.562	25733
697.578	25848
697.620	26119
697.661	26363
697.682	26426
697.703	26722
697.744	27259
697.786	27711
697.801	27814
697.828	27887
697.869	27883
697.911	27871
697.921	27824
697.952	27682
697.994	27322
698.035	26985
698.040	26890
698.077	27461
698.118	27980
698.160	28516
698.160	28454
698.201	28908
698.243	29346
698.279	29663
698.284	29811
698.325	30552
698.367	31238
698.399	31789
698.408	31941
698.449	32246
698.491	32533
698.518	32657
698.532	32756
698.573	32856
698.614	32934
698.638	32909
698.656	32797
698.697	32363
698.738	31904
698.757	31618
698.779	31806
698.820	32036
698.862	32268
698.877	32278
698.903	32360
698.944	32373
698.985	32389
698.996	32322
699.026	32454
699.067	32528
699.116	32545
699.235	32333
699.354	31861
699.474	29140
699.593	29476
699.713	29644
699.832	30473
699.951	32349
700.070	31825
700.190	29249
700.309	28535
700.428	28023
700.547	28351
700.667	27011
700.786	26654
700.905	26434
701.024	26421
701.143	26088
701.262	28220
701.381	27949
701.500	28913
701.619	28187
701.738	28588
701.857	28058
701.976	26426
702.095	28333
702.214	28470
702.333	27349
702.452	28256
702.571	27543
702.690	27312
702.809	27576
702.928	26107
703.047	23888
703.165	26597
703.284	24630
703.403	25118
703.522	24635
703.640	24961
703.759	24328
703.878	24187
703.997	24780
704.115	25128
704.234	24353
704.353	24624
704.471	22349
704.590	23160
704.708	23191
704.827	22083
704.946	21503
705.064	23418
705.183	22675
705.301	23792
705.420	21250
705.538	21131
705.656	20408
705.775	20302
705.893	22305
706.012	20781
706.130	21268
706.249	22154
706.367	19388
706.485	20993
706.604	19003
706.722	19273
706.840	20796
706.958	21061
707.077	18941
707.195	19022
707.313	19703
707.431	18115
707.549	18703
707.668	17242
707.786	20662
707.904	18298
708.022	19882
708.140	18063
708.258	17328
708.376	19463
708.494	16764
708.612	20378
708.730	18452
708.848	18256
708.966	17981
709.084	19002
709.202	19629
709.320	16652
709.438	17357
709.556	17247
709.674	16522
709.791	16569
709.909	16212
710.027	16801
710.145	15511
710.263	17564
710.380	16395
710.498	16958
710.616	15182
710.733	14948
710.851	16202
710.969	16394
711.086	15487
711.204	16527
711.322	16425
711.439	15373
711.557	13945
711.674	15315
711.792	15123
711.909	15312
712.027	14247
712.144	13549
712.262	14416
712.379	15183
712.497	15273
712.614	16056
712.732	14930
712.849	14167
712.966	14672
713.084	15624
713.201	14510
713.318	15784
713.436	15554
713.553	14311
713.670	15115
713.787	15282
713.905	13571
714.022	15649
714.139	15298
714.256	19411
714.373	27516
714.490	51486
714.608	146912
714.725	537263
714.842	306692
714.959	34959
715.076	19658
715.193	17881
715.310	16263
715.427	13297
715.544	14410
715.661	14483
715.778	12661
715.895	14633
716.011	13028
716.128	13570
716.245	12937
716.362	13665
716.479	11354
716.596	13029
716.713	12006
716.829	12111
716.946	11601
717.063	11573
717.180	10757
717.296	11740
717.413	12200
717.530	11444
717.646	10605
717.763	10634
717.880	10404
717.996	10418
718.113	11063
718.229	11417
718.346	9706
718.462	9970
718.579	10705
718.695	11160
718.812	10824
718.928	10852
719.045	9476
719.161	10205
719.277	10893
719.394	12664
719.510	11372
719.626	12334
719.743	15122
719.859	24380
719.975	55055
720.092	226330
720.208	294781
720.324	29981
720.440	13426
720.557	12406
720.673	12785
720.789	11520
720.905	11896
721.021	10210
721.137	8778
721.253	9807
721.369	8872
721.486	9898
721.602	9488
721.718	9056
721.834	9623
721.950	8947
722.066	9335
722.181	9250
722.297	9058
722.413	9247
722.529	8823
722.645	9497
722.761	9047
722.877	9109
722.993	10326
723.108	10966
723.224	9610
723.340	9719
723.456	8428
723.571	8582
723.687	8028
723.803	8552
723.918	8016
724.034	8327
724.150	8113
724.265	9067
724.381	7939
724.497	8018
724.612	8415
724.728	8616
724.843	8119
724.959	8797
725.074	8797
725.190	8980
725.305	7702
725.421	7319
725.536	9013
725.651	8470
725.767	8507
725.882	8418
725.997	7444
726.113	8107
726.228	7481
726.343	8131
726.459	7610
726.574	7360
726.689	7085
726.804	7598
726.920	6912
727.035	7872
727.150	8240
727.265	7782
727.380	7927
727.495	8305
727.610	6857
727.725	7952
727.841	8383
727.956	7793
728.071	7701
728.186	7359
728.301	6844
728.416	7464
728.531	8050
728.645	7105
728.760	7535
728.875	7730
728.990	6911
729.105	7594
729.220	7212
729.335	7537
729.449	7504
729.564	7420
729.679	6932
729.794	8371
729.908	7775
730.023	7576
730.138	8105
730.253	8500
730.367	6238
730.482	7531
730.596	7255
730.711	10033
730.826	12753
730.940	10956
731.055	9833
731.169	10198
731.284	9497
731.398	9675
731.513	10364
731.627	12728
731.742	16494
731.856	18569
731.970	17246
732.085	21399
732.199	30537
732.313	53868
732.428	147661
732.542	354671
732.656	130492
732.771	34066
732.885	24880
732.999	25819
733.113	26479
733.227	26808
733.342	26282
733.456	24928
733.570	24418
733.684	23080
733.798	22579
733.912	23489
734.026	22794
734.140	22380
734.254	21721
734.368	22664
734.482	21814
734.596	22482
734.710	20492
734.824	20893
734.938	21022
735.052	20475
735.166	20736
735.280	20538
735.393	19471
735.507	20466
735.621	19251
735.735	20011
735.849	20037
735.962	19240
736.076	20030
736.190	19549
736.303	19107
736.417	18768
736.531	17908
736.644	18440
736.758	18432
736.872	17715
736.985	18878
737.099	17270
737.212	17004
737.326	16638
737.439	18318
737.553	16230
737.666	16957
737.780	16847
737.893	17284
738.007	16775
738.120	16973
738.233	15901
738.347	16391
738.460	16486
738.573	17765
738.687	16533
738.800	16023
738.913	17337
739.026	16063
739.140	15368
739.253	15906
739.366	15710
739.479	15302
739.592	14815
739.705	13891
739.818	16863
739.932	14122
740.045	16217
740.158	14499
740.271	16120
740.384	13516
740.497	13785
740.610	13634
740.723	14090
740.836	14260
740.949	14684
741.062	14604
741.174	14421
741.287	14085
741.400	14299
741.513	12884
741.626	14770
741.739	12349
741.851	14252
741.964	14672
742.077	12978
742.189	11607
742.302	14564
742.415	12147
742.527	13459
742.640	11738
742.753	11119
742.865	13759
742.978	12115
743.090	11594
743.203	13657
743.316	11911
743.428	12285
743.541	11886
743.653	11496
743.766	12185
743.878	11774
743.990	10801
744.103	13690
744.215	11346
744.327	11139
744.440	15012
744.552	10608
744.664	10587
744.777	13173
744.889	10341
745.001	11613
745.113	12544
745.226	11661
745.338	10204
745.450	12822
745.562	10533
745.674	10113
745.786	11948
745.898	11022
746.010	10813
746.122	10778
746.234	10228
746.347	11003
746.459	9919
746.570	8912
746.682	12814
746.794	12353
746.906	9276
747.018	10313
747.130	10978
747.242	8998
747.354	10025
747.466	10473
747.577	10077
747.689	10273
747.801	10225
747.913	9449
748.024	9028
748.136	10388
748.248	9270
748.359	9602
748.471	10192
748.583	7599
748.694	8486
748.806	9701
748.918	9005
749.029	9433
749.141	9793
749.252	9485
749.364	7254
749.475	9364
749.587	8193
749.698	8607
749.809	8624
749.921	9214
750.032	8771
750.144	9251
750.255	7830
750.366	8391
750.478	7409
750.589	9314
750.700	7373
750.811	9671
750.923	7852
751.034	8484
751.145	8766
751.256	8136
751.367	7376
751.479	8052
751.590	7490
751.701	7193
751.812	7293
751.923	7738
752.034	8518
752.145	8848
752.256	8234
752.367	8618
752.478	7528
752.589	8734
752.700	7368
752.811	7331
752.922	7198
753.032	8551
753.143	8094
753.254	7821
753.365	9382
753.476	8216
753.586	7797
753.697	7423
753.808	7534
753.919	8009
754.029	7090
754.140	7700
754.251	7255
754.361	7995
754.472	8589
754.582	6802
754.693	6860
754.804	8777
754.914	6514
755.025	6649
755.135	7576
755.246	8466
755.356	6840
755.466	6764
755.577	6633
755.687	7756
755.798	7301
755.908	6833
756.018	6642
756.129	7860
756.239	7034
756.349	7699
756.460	6899
756.570	7349
756.680	6692
756.790	7254
756.900	7601
757.011	6412
757.121	6649
757.231	7531
757.341	6666
757.451	6434
757.561	5047
757.671	7427
757.781	6499
757.891	7167
758.001	6055
758.111	8081
758.221	8071
758.331	7497
758.441	7468
758.551	7358
758.661	7293
758.771	8292
758.880	7493
758.990	7074
759.100	6849
759.210	6760
759.320	6758
759.429	7457
759.539	7983
759.649	8041
759.758	8720
759.868	9054
759.978	9288
760.087	10028
760.197	9787
760.307	8535
760.416	8140
760.526	8119
760.635	9026
760.745	9817
760.854	9891
760.964	11432
761.073	10348
761.182	10231
761.292	8199
761.401	8302
761.511	7491
761.620	7252
761.729	7682
761.839	6827
761.948	7409
762.057	6728
762.166	7205
762.276	7120
762.385	8193
762.494	7299
762.603	6913
762.712	8080
762.822	8452
762.931	6895
763.040	6355
763.149	7418
763.258	7792
763.367	7809
763.476	8187
763.585	8939
763.694	8141
763.803	8599
763.912	8958
764.021	10004
764.130	8214
764.238	10013
764.347	9693
764.456	10531
764.565	10870
764.674	10480
764.783	11589
764.891	12659
765.000	14801
765.109	15978
765.217	15839
765.326	19673
765.435	23315
765.543	27471
765.652	33761
765.761	44455
765.869	64483
765.978	99018
766.086	166390
766.195	315911
766.303	610871
766.412	733470
766.520	661791
766.629	375394
766.737	183835
766.846	110110
766.954	74779
767.062	55496
767.171	41262
767.279	34030
767.387	27851
767.496	24588
767.604	21220
767.712	19231
767.820	17317
767.928	16297
768.037	15414
768.145	14857
768.253	15340
768.361	14004
768.469	13797
768.577	14461
768.685	15681
768.793	15919
768.901	17246
769.009	19968
769.117	22641
769.225	30016
769.333	42565
769.441	68976
769.549	125136
769.657	274888
769.765	580725
769.873	619845
769.981	356430
770.088	143029
770.196	76069
770.304	51818
770.412	37903
770.519	30005
770.627	24163
770.735	21077
770.842	17324
770.950	17670
771.058	16471
771.165	17313
771.273	16705
771.380	16738
771.488	21170
771.595	21839
771.703	19039
771.810	19016
771.918	18546
772.025	22752
772.133	23339
772.240	22434
772.348	25806
772.455	23053
772.562	21310
772.670	20197
772.777	21304
772.884	21101
772.991	19501
773.099	20513
773.206	19287
773.313	19496
773.420	19114
773.528	18826
773.635	19043
773.742	19416
773.849	17691
773.956	18629
774.063	18483
774.170	18751
774.277	18139
774.384	17630
774.491	17569
774.598	17733
774.705	16466
774.812	17105
774.919	18250
775.026	16102
775.133	17261
775.239	17142
775.346	14546
775.453	16886
775.560	15486
775.667	16414
775.773	13185
775.880	16976
775.987	14561
776.093	16119
776.200	16533
776.307	12343
776.413	14823
776.520	17633
776.627	13032
776.733	13358
776.840	12336
776.946	19103
777.053	13712
777.159	14821
777.266	11995
777.372	15133
777.478	15648
777.585	14225
777.691	11906
777.798	15742
777.904	11938
778.010	13083
778.117	14273
778.223	12863
778.329	12425
778.435	11925
778.542	13809
778.648	12005
778.754	11928
778.860	13555
778.966	11995
779.072	11544
779.178	12045
779.284	10974
779.391	12590
779.497	11906
779.603	13776
779.708	11870
779.815	17957
779.920	47189
780.026	49577
780.132	14313
780.238	9521
780.344	10688
780.450	13471
780.556	8928
780.661	10074
780.767	12427
780.873	8012
780.979	11357
781.085	10593
781.190	9945
781.296	9442
781.402	10015
781.507	10254
781.613	8114
781.719	10122
781.824	11448
781.930	8830
782.035	11269
782.141	10255
782.246	7500
782.352	8867
782.457	10161
782.563	9210
782.668	10340
782.773	8208
782.879	7544
782.984	9556
783.090	8331
783.195	9402
783.300	10380
783.405	8516
783.511	7382
783.616	8417
783.721	8643
783.826	7265
783.932	9591
784.037	8249
784.142	9321
784.247	7682
784.352	7884
784.457	6531
784.562	9211
784.667	9154
784.772	5851
784.877	5806
784.982	9146
785.087	8051
785.192	7543
785.297	7346
785.402	8070
785.507	7586
785.611	7677
785.716	6303
785.821	7979
785.926	8117
786.031	6566
786.135	7479
786.240	7805
786.345	4456
786.450	6421
786.554	6763
786.659	6776
786.763	6566
786.868	6314
786.973	7632
787.077	5615
787.182	5469
787.286	7671
787.391	7796
787.495	6006
787.600	5128
787.704	6744
787.809	6883
787.913	6666
788.017	6309
788.122	7708
788.226	5336
788.330	4102
788.435	6620
788.539	7327
788.643	4764
788.747	4433
788.852	6344
788.956	5547
789.060	6641
789.164	6410
789.268	5452
789.372	7632
789.476	4817
789.580	4644
789.684	5279
789.788	6892
789.892	6357
789.996	4371
790.100	4131
790.204	6051
790.308	5977
790.412	4602
790.516	4306
790.620	4972
790.724	6768
790.828	4662
790.931	3584
791.035	6224
791.139	4421
791.242	5120
791.346	5268
791.450	5497
791.554	4399
791.657	3150
791.761	4955
791.864	6057
791.968	5359
792.072	5454
792.175	4401
792.279	4527
792.382	4297
792.486	4789
792.589	3436
792.693	4722
792.796	3743
792.899	5354
793.003	6032
793.106	3463
793.209	3800
793.313	4393
793.416	1749
793.519	4663
793.623	5816
793.726	4619
793.829	2937
793.932	3301
794.035	2240
794.138	6019
794.242	5877
794.345	3992
794.448	4730
794.551	6629
794.654	20851
794.757	24235
794.860	5783
794.963	4746
795.066	3292
795.169	4689
795.272	3480
795.375	4701
795.477	2826
795.580	3810
795.683	2930
795.786	4704
795.889	2769
795.991	3809
796.094	4222
796.197	3406
796.300	6003
796.402	4467
796.505	2660
796.608	2561
796.710	4019
796.813	4797
796.915	4369
797.018	3402
797.120	5012
797.223	2682
797.326	4503
797.428	2685
797.530	2594
797.633	2822
797.735	4349
797.838	4081
797.940	4839
798.042	3553
798.145	2933
798.247	3816
798.349	988
798.452	3746
798.554	3642
798.656	3086
798.758	3860
798.860	4241
798.962	2832
799.065	2568
799.167	1180
799.269	4442
799.371	4727
799.473	5040
799.575	2663
799.677	3328
799.779	4544
799.881	2286
799.983	4250
800.085	3694
800.187	2457
800.289	1641
800.390	3390
800.492	4778
800.594	3927
800.696	2080
800.798	3208
800.899	3297
801.001	3134
801.103	2814
801.205	2454
801.306	4131
801.408	2001
801.509	3869
801.611	3025
801.713	4025
801.814	1749
801.916	2560
802.017	2190
802.119	2310
802.220	3100
802.322	1789
802.423	4519
802.525	1154
802.626	2706
802.727	3156
802.829	2486
802.930	583
803.031	4010
803.133	2815
803.234	2582
803.335	3523
803.436	1457
803.538	2710
803.639	1497
803.740	3752
803.841	2328
803.942	3477
804.043	2508
804.144	2336
804.245	2003
804.346	2324
804.447	1856
804.548	1788
804.649	3403
804.750	2111
804.851	1845
804.952	2148
805.053	2154
805.154	1668
805.255	2542
805.355	2212
805.456	1851
805.557	1650
805.658	2030
805.758	2951
805.859	1616
805.960	2560
806.061	1128
806.161	1899
806.262	1854
806.362	1581
806.463	2220
806.564	3341
806.664	1858
806.765	1610
806.865	2209
806.966	1422
807.066	585
807.166	3996
807.267	2965
807.367	2156
807.468	2310
807.568	313
807.668	2279
807.769	3255
807.869	1776
807.969	3051
808.069	1974
808.170	2239
808.270	1629
808.370	2580
808.470	2368
808.570	1240
808.670	2289
808.770	2508
808.870	1243
808.970	1393
809.070	1214
809.170	1417
809.271	3099
809.370	1440
809.470	2073
809.570	270
809.670	876
809.770	2001
809.870	2199
809.970	1732
810.070	1611
810.169	2413
810.269	553
810.369	2444
810.469	1596
810.568	1707
810.668	627
810.768	1194
810.867	885
810.967	1385
811.066	1365
811.166	2169
811.265	2186
811.365	1991
811.464	1354
811.564	2031
811.663	2802
811.763	988
811.862	2486
811.962	2507
812.061	2255
812.160	1153
812.260	1612
812.359	2199
812.458	1455
812.557	3972
812.657	2725
812.756	2543
812.855	1511
812.954	2181
813.053	2654
813.153	2197
813.252	1841
813.351	2577
813.450	2333
813.549	1261
813.648	2415
813.747	1220
813.846	2809
813.945	1889
814.044	2013
814.143	2464
814.242	2695
814.341	2648
814.439	2579
814.538	3645
814.637	2630
814.736	2175
814.835	3276
814.933	2637
815.032	4073
815.131	6725
815.229	13103
815.328	15625
815.427	10850
815.525	10468
815.624	9478
815.722	9495
815.821	10610
815.919	10356
816.018	10208
816.116	10293
816.215	10477
816.313	11538
816.412	13672
816.510	13028
816.609	14263
816.707	16491
816.805	12114
816.904	13613
817.002	12443
817.100	14288
817.198	14012
817.296	11144
817.395	12632
817.493	13375
817.591	12067
817.689	10982
817.787	11763
817.885	11876
817.983	11722
818.081	12353
818.179	15277
818.277	21304
818.375	13809
818.473	11673
818.571	10585
818.669	11566
818.767	13187
818.865	10248
818.963	9408
819.061	11801
819.158	10916
819.256	16037
819.354	16749
819.452	27066
819.549	13726
819.647	12650
819.745	8023
819.842	10831
819.940	10780
820.038	9196
820.135	8968
820.233	11273
820.330	8867
820.428	7835
820.525	10256
820.623	10169
820.720	7853
820.818	10140
820.915	9446
821.012	8472
821.110	8056
821.207	9689
821.304	8228
821.402	9570
821.499	9502
821.596	7387
821.693	8937
821.791	9558
821.888	8067
821.985	10228
822.082	6858
822.179	9524
822.276	9169
822.373	7380
822.470	7921
822.567	8686
822.664	7351
822.761	10169
822.858	7970
822.955	8085
823.052	6783
823.149	8630
823.246	7328
823.343	6262
823.440	7582
823.536	9241
823.633	7331
823.730	7588
823.827	8349
823.923	6891
824.020	6856
824.117	8722
824.213	7434
824.310	6422
824.407	5797
824.503	7253
824.600	6671
824.696	6388
824.793	8397
824.889	7259
824.986	5268
825.082	4863
825.179	5834
825.275	8789
825.371	7755
825.468	5068
825.564	3516
825.660	8412
825.757	8085
825.853	6711
825.949	4438
826.045	4879
826.142	6736
826.238	7864
826.334	8373
826.430	5547
826.526	3471
826.622	4406
826.718	7301
826.814	7972
826.910	5902
827.006	3815
827.102	4476
827.198	7225
827.294	7031
827.390	6334
827.486	4050
827.582	3197
827.678	4037
827.774	7532
827.869	3415
827.965	5526
828.061	3826
828.157	7491
828.252	5891
828.348	4289
828.444	4666
828.539	5418
828.635	4863
828.731	5912
828.826	4292
828.922	5894
829.017	6130
829.113	5903
829.208	3768
829.304	4980
829.399	7416
829.495	5207
829.590	4925
829.685	4805
829.781	6465
829.876	4371
829.971	2314
830.066	2460
830.162	5854
830.257	7947
830.352	3809
830.447	3552
830.543	3495
830.638	4576
830.733	5866
830.828	3505
830.923	5262
831.018	4844
831.113	6070
831.208	2544
831.303	2136
831.398	3343
831.493	5407
831.588	6674
831.683	2723
831.778	2962
831.873	3708
831.967	5521
832.062	4305
832.157	3934
832.252	4903
832.346	4170
832.441	4491
832.536	4599
832.631	4362
832.725	3446
832.820	3926
832.914	3543
833.009	2416
833.104	2821
833.198	3579
833.293	3595
833.387	4594
833.482	4424
833.576	4013
833.670	3717
833.765	3612
833.859	3648
833.954	4406
834.048	3803
834.142	2935
834.237	2749
834.331	3652
834.425	4084
834.519	2855
834.613	3255
834.708	3150
834.802	3160
834.896	2635
834.990	3960
835.084	2390
835.178	2414
835.272	3058
835.366	4558
835.460	5077
835.554	3260
835.648	1760
835.742	1686
835.836	2926
835.930	2380
836.024	3137
836.117	3676
836.211	2677
836.305	2740
836.399	2397
836.493	3162
836.586	3846
836.680	3496
836.774	1988
836.867	3450
836.961	1456
837.055	1721
837.148	1894
837.242	2950
837.335	3268
837.429	2773
837.522	1961
837.616	2217
837.709	3412
837.803	1858
837.896	4396
837.989	2889
838.083	1231
838.176	1825
838.269	997
838.363	3118
838.456	1459
838.549	3584
838.642	1882
838.735	2756
838.829	2712
838.922	1927
839.015	1998
839.108	1632
839.201	1914
839.294	3091
839.387	2861
839.480	1446
839.573	2355
839.666	1488
839.759	2241
839.852	1704
839.945	2823
840.038	2500
840.131	1183
840.223	1778
840.316	1870
840.409	2636
840.502	2534
840.594	2934
840.687	-32
840.780	2320
840.873	228
840.965	1080
841.058	2638
841.150	3547
841.243	1111
841.336	2510
841.428	379
841.521	1595
841.613	2040
841.706	2492
841.798	1765
841.890	2096
841.983	953
842.075	2260
842.167	781
842.260	2644
842.352	3078
842.444	1882
842.537	1640
842.629	1285
842.721	1124
842.813	2445
842.905	700
842.997	1665
843.090	1786
843.182	1334
843.274	53
843.366	1701
843.458	1954
843.550	2785
843.642	2046
843.734	2226
843.826	250
843.918	903
844.009	2635
844.101	1172
844.193	1333
844.285	2062
844.377	2292
844.469	2322
844.560	544
844.652	1156
844.744	1486
844.835	888
844.927	1363
845.019	1436
845.110	977
845.202	2463
845.293	564
845.385	658
845.476	954
845.568	2033
845.659	1307
845.751	1769
845.842	1281
845.934	1804
846.025	895
846.116	1375
846.208	1428
846.299	148
846.390	600
846.482	1422
846.573	1488
846.664	1867
846.755	1360
846.846	1899
846.937	-177
847.029	179
847.120	-113
847.211	1989
847.302	2698
847.393	302
847.484	1351
847.575	354
847.666	683
847.757	1374
847.847	1448
847.938	1764
848.029	1958
848.120	899
848.211	346
848.302	460
848.392	921
848.483	1619
848.574	740
848.664	1068
848.755	1380
848.846	1622
848.936	206
849.027	2044
849.118	1000
849.208	1583
849.299	3837
849.389	6080
849.480	8838
849.570	17355
849.661	35187
849.751	39042
849.841	9276
849.932	2326
850.022	1706
850.112	1992
850.203	1000
850.293	431
850.383	674
850.474	1290
850.564	824
850.654	1504
850.744	889
850.834	685
850.924	762
851.014	1351
851.104	482
851.194	284
851.284	503
851.374	987
851.464	1277
851.554	1639
851.644	465
851.734	1447
851.824	645
851.914	1328
852.004	1290
852.094	505
852.183	-268
852.273	944
852.363	970
852.452	1493
852.542	717
852.632	461
852.721	665
852.811	1728
852.901	1926
852.990	1665
853.080	1897
853.169	1955
853.259	1386
853.348	2158
853.438	2525
853.527	3891
853.617	5266
853.706	11043
853.795	20074
853.885	40394
853.974	67145
854.063	124989
854.152	130672
854.242	39101
854.331	10413
854.420	5128
854.509	4485
854.598	3758
854.687	2806
854.777	2256
854.866	611
854.955	2247
855.044	1051
855.133	1476
855.222	663
855.311	1616
855.400	328
855.488	936
855.577	1480
855.666	489
855.755	879
855.844	1295
855.933	1178
856.021	1486
856.110	222
856.199	-489
856.288	48
856.376	523
856.465	248
856.554	920
856.642	1720
856.731	1532
856.819	1843
856.908	1366
856.996	489
857.085	324
857.173	396
857.262	1198
857.350	1060
857.438	866
857.527	712
857.615	556
857.703	943
857.792	70
857.880	-33
857.968	622
858.056	615
858.145	1514
858.233	362
858.321	776
858.409	921
858.497	1359
858.585	295
858.673	1009
858.761	-469
858.849	493
858.937	1073
859.025	588
859.113	1282
859.201	492
859.289	1498
859.377	557
859.465	994
859.552	401
859.640	259
859.728	891
859.816	717
859.903	928
859.991	-241
860.079	584
860.166	404
860.254	748
860.342	1093
860.429	390
860.517	189
860.604	1015
860.692	900
860.779	379
860.867	512
860.954	1146
861.042	837
861.129	562
861.216	626
861.304	530
861.391	936
861.478	512
861.565	22
861.653	1468
861.740	-38
861.827	556
861.914	858
862.001	598
862.089	768
862.176	1834
862.263	13
862.350	523
862.437	641
862.524	603
862.611	892
862.698	1315
862.785	919
862.871	2343
862.958	594
863.045	873
863.132	1036
863.219	932
863.306	-160
863.392	1693
863.479	948
863.566	1125
863.652	1540
863.739	1585
863.826	1580
863.912	1849
863.999	822
864.086	1913
864.172	1975
864.259	2108
864.345	1719
864.432	1955
864.518	1961
864.604	2639
864.691	2580
864.777	2842
864.863	4483
864.950	5613
865.036	9131
865.122	13867
865.209	13193
865.295	11636
865.381	11218
865.467	10782
865.553	11751
865.639	14184
865.726	18541
865.812	29078
865.898	45237
865.984	61340
866.070	106898
866.156	78265
866.242	24962
866.328	14199
866.414	11455
866.499	11257
866.585	9507
866.671	9784
866.757	10256
866.843	8740
866.928	8355
867.014	8739
867.100	9056
867.186	8658
867.271	8557
867.357	9174
867.442	7593
867.528	8791
867.614	8753
867.699	8996
867.785	9037
867.870	8362
867.956	8692
868.041	8913
868.127	8492
868.212	7908
868.297	7738
868.383	7360
868.468	7820
868.553	8634
868.639	7617
868.724	7880
868.809	7793
868.894	7322
868.979	7684
869.065	7834
869.150	6128
869.235	7565
869.320	6619
869.405	6841
869.490	7621
869.575	7344
869.660	5408
869.745	8308
869.830	7676
869.915	6111
870.000	6556
870.085	6055
870.169	8417
870.254	8585
870.339	4468
870.424	6335
870.509	7003
870.593	8903
870.678	7177
870.763	5956
870.847	5212
870.932	7474
871.016	6554
871.101	4922
871.186	6733
871.270	8152
871.355	3984
871.439	6650
871.523	6145
871.608	4636
871.692	4414
871.777	7604
871.861	6778
871.945	5630
872.030	6606
872.114	6772
872.198	4859
872.282	5765
872.367	4984
872.451	5732
872.535	5702
872.619	5722
872.703	5601
872.787	6682
872.871	5738
872.955	4109
873.039	3733
873.123	6175
873.207	5614
873.291	3796
873.375	4653
873.459	6489
873.543	5048
873.627	4654
873.711	3898
873.794	6367
873.878	4752
873.962	3787
874.045	4825
874.129	4276
874.137	4380
874.213	5420
874.245	4970
874.296	4242
874.352	3754
874.380	3518
874.460	4969
874.464	5029
874.547	4276
874.568	4452
874.631	4965
874.676	4796
874.714	4657
874.784	5354
874.798	5497
874.881	4470
874.892	4307
874.965	3188
874.999	3655
875.048	4302
875.107	4320
875.131	4308
875.215	2306
875.215	2306
875.298	3891
875.323	4060
875.381	4431
875.430	6031
875.465	7174
875.538	4058
875.548	3621
875.631	3011
875.646	2953
875.714	2747
875.753	3377
875.798	4107
875.861	3941
875.881	3891
875.964	2523
875.968	2539
876.047	2809
876.076	3521
876.130	4821
876.183	4219
876.213	3909
876.291	4300
876.296	4318
876.379	2744
876.398	2798
876.462	2989
876.506	2647
876.545	2429
876.613	3263
876.628	3428
876.711	3170
876.721	3340
876.794	4554
876.828	4206
876.877	3713
876.935	2752
876.960	2420
877.043	2999
877.043	3000
877.125	3055
877.150	3528
877.208	4632
877.258	3273
877.291	2326
877.365	2324
877.374	2336
877.456	2440
877.472	2408
877.539	2173
877.579	2816
877.622	3566
877.687	3207
877.704	3068
877.787	3539
877.794	3464
877.869	2661
877.901	2661
877.952	2713
878.008	1910
878.034	1509
878.115	1945
878.117	1957
878.199	1869
878.222	2081
878.282	2576
878.329	3385
878.364	3888
878.437	3142
878.447	3049
878.529	1683
878.544	1748
878.611	2006
878.651	2100
878.694	2235
878.758	2650
878.776	2739
878.858	3062
878.865	2990
878.941	2340
878.972	2167
879.023	1812
879.078	2509
879.105	2840
879.185	3007
879.187	3006
879.269	2808
879.292	2801
879.351	2952
879.399	2411
879.433	1891
879.506	2481
879.516	2599
879.598	2245
879.613	2244
879.680	2146
879.720	2811
879.762	3413
879.827	2393
879.844	2132
879.926	2548
879.933	2582
880.007	3107
880.040	3221
880.089	3265
880.147	3730
880.171	4133
880.253	6169
880.254	6178
880.335	7337
880.360	8255
880.417	12645
880.467	17249
880.499	19752
880.574	20498
880.580	19738
880.662	8159
880.680	6030
880.744	2998
880.787	2218
880.825	2212
880.893	2236
880.907	2255
880.989	1244
881.000	1396
881.070	2853
881.106	2617
881.152	1810
881.213	1643
881.233	1738
881.315	2076
881.319	2104
881.396	2416
881.426	2234
881.478	1955
881.532	2701
881.559	3026
881.639	1864
881.641	1833
881.722	1366
881.745	1462
881.803	1875
881.852	1956
881.885	1866
881.958	1043
881.966	990
882.047	2069
882.064	1980
882.129	1474
882.171	1399
882.210	1217
882.277	1050
882.291	1109
882.372	2176
882.383	2202
882.454	2062
882.489	1923
882.535	1854
882.596	2271
882.616	2336
882.697	1536
882.702	1523
882.778	1350
882.808	1375
882.859	1413
882.914	1540
882.940	1688
883.020	1833
883.021	1830
883.102	1918
883.127	1897
883.183	2175
883.233	2151
883.264	1861
883.339	821
883.345	758
883.426	852
883.445	1002
883.507	1789
883.551	1955
883.587	1951
883.657	1836
883.668	1863
883.749	2164
883.763	2116
883.830	1217
883.869	1073
883.910	1197
883.975	1569
883.991	1617
884.072	1201
884.081	1213
884.152	2039
884.187	2213
884.233	1921
884.292	1680
884.314	1543
884.394	722
884.398	694
884.475	614
884.504	777
884.555	1085
884.610	1331
884.636	1436
884.716	1205
884.716	1207
884.797	2313
884.821	2367
884.877	1820
884.927	1621
884.958	1420
885.033	754
885.038	730
885.118	611
885.139	562
885.199	573
885.244	721
885.279	990
885.350	1568
885.359	1634
885.439	1987
885.456	1932
885.520	1355
885.561	1355
885.600	1122
885.667	779
885.680	855
885.760	1237
885.773	1232
885.840	634
885.878	620
885.920	803
885.984	660
886.000	645
886.080	1118
886.089	1135
886.160	1296
886.195	1269
886.240	991
886.300	947
886.320	1090
886.400	1553
886.406	1566
886.480	1072
886.511	1057
886.560	1224
886.616	1148
886.640	1106
886.720	1168
886.722	1169
886.800	641
886.827	469
886.879	604
886.932	752
886.959	1058
887.038	2059
887.039	2049
887.119	990
887.143	782
887.198	962
887.248	1042
887.278	1033
887.354	1114
887.358	1097
887.437	577
887.459	455
887.517	589
887.564	711
887.596	532
887.669	198
887.676	169
887.755	-280
887.774	-329
887.835	619
887.880	1323
887.914	1131
887.985	584
887.994	681
888.073	1753
888.090	1925
888.153	1695
888.195	1558
888.232	1428
888.300	1324
888.311	1275
888.391	849
888.405	776
888.470	744
888.510	723
888.549	790
888.615	1021
888.628	1091
888.708	1421
888.720	1463
888.787	1090
888.825	892
888.866	931
888.930	1034
888.945	978
889.024	747
889.035	704
889.103	1236
889.140	1536
889.182	1239
889.245	852
889.261	897
889.340	1068
889.349	1095
889.419	1140
889.454	1138
889.498	955
889.559	747
889.577	807
889.656	1073
889.664	1104
889.735	1739
889.768	2040
889.814	1509
889.873	800
889.978	931
890.083	1104
890.187	1274
890.292	1437
890.397	-11
890.501	1269
890.606	696
890.710	1133
890.815	1319
890.919	101
891.024	1283
891.128	1781
891.233	467
891.337	1307
891.442	1326
891.546	1452
891.650	958
891.755	718
891.859	1662
891.963	758
892.068	1454
892.172	702
892.276	649
892.380	876
892.484	1489
892.589	1950
892.693	2740
892.797	785
892.901	1068
893.005	724
893.109	1071
893.213	1211
893.317	489
893.421	1004
893.525	105
893.629	378
893.733	1296
893.837	703
893.941	952
894.045	-36
894.148	267
894.252	778
894.356	895
894.460	1022
894.564	-84
894.667	1160
894.771	-14
894.875	-177
894.978	625
895.082	76
895.186	925
895.289	1116
895.393	487
895.496	929
895.600	486
895.703	-213
895.807	817
895.910	31
896.014	-49
896.117	-204
896.221	941
896.324	776
896.427	-205
896.531	190
896.634	536
896.737	985
896.840	947
896.944	-301
897.047	1169
897.150	-183
897.253	364
897.356	-276
897.460	-165
897.563	601
897.666	1072
897.769	338
897.872	707
897.975	284
898.078	281
898.181	735
898.284	323
898.387	1645
898.490	861
898.593	351
898.695	114
898.798	-461
898.901	523
899.004	560
899.107	1046
899.209	365
899.312	699
899.415	434
899.518	154
899.620	-381
899.723	589
899.826	385
899.928	753
900.031	379
900.133	665
900.236	-144
900.338	306
900.441	440
900.543	-56
900.646	1216
900.748	-879
900.851	788
900.953	162
901.055	566
901.158	489
901.260	138
901.362	-128
901.465	-1178
901.567	650
901.669	36
901.771	26
901.873	530
901.976	100
902.078	331
902.180	-351
902.282	350
902.384	59
902.486	-23
902.588	1162
902.690	-607
902.792	-405
902.894	308
902.996	590
903.098	-32
903.200	-245
903.302	-397
903.404	210
903.505	12
903.607	209
903.709	239
903.811	487
903.913	284
904.014	-505
904.116	-18
904.218	-29
904.319	411
904.421	1266
904.523	852
904.624	749
904.726	192
904.827	-17
904.929	258
905.030	383
905.132	176
905.233	488
905.335	-579
905.436	-172
905.537	-5
905.639	-25
905.740	-273
905.841	313
905.943	1165
906.044	678
906.145	-77
906.247	651
906.348	759
906.449	710
906.550	504
906.651	593
906.752	-181
906.854	-875
906.955	-106
907.056	420
907.157	603
907.258	636
907.359	-167
907.460	-575
907.561	358
907.662	-243
907.762	-95
907.863	-441
907.964	-83
908.065	293
908.166	572
908.267	204
908.367	-136
908.468	-57
908.569	-293
908.670	832
908.770	799
908.871	117
908.971	-137
909.072	-78
909.173	-381
909.273	78
909.374	160
909.474	33
909.575	291
909.675	287
909.776	136
909.876	443
909.977	268
910.077	1510
910.177	930
910.278	73
910.378	-409
910.478	330
910.579	301
910.679	492
910.779	563
910.879	691
910.980	-340
911.080	35
911.180	-665
911.280	-318
911.380	-748
911.480	518
911.580	-296
911.680	-13
911.780	165
911.880	-736
911.980	-297
912.080	179
912.180	-685
912.280	49
912.380	-153
912.480	382
912.580	-99
912.679	231
912.779	-138
912.879	-150
912.979	301
913.078	-483
913.178	222
913.278	35
913.377	-714
913.477	27
913.577	-997
913.676	814
913.776	116
913.875	220
913.975	239
914.074	445
914.174	842
914.273	-559
914.373	523
914.472	371
914.572	-648
914.671	370
914.770	-490
914.870	-951
914.969	30
915.068	-210
915.167	620
915.267	108
915.366	-1034
915.465	547
915.564	183
915.663	-796
915.763	986
915.862	13
915.961	-349
916.060	-102
916.159	-677
916.258	-268
916.357	-426
916.456	-81
916.555	-114
916.654	440
916.752	-121
916.851	442
916.950	265
917.049	112
917.148	-122
917.247	-493
917.345	-257
917.444	-513
917.543	-576
917.642	-352
917.740	89
917.839	-363
917.937	177
918.036	705
918.135	-325
918.233	-45
918.332	108
918.430	-8
918.529	-338
918.627	43
918.726	-60
918.824	873
918.923	104
919.021	-141
919.119	143
919.218	-580
919.316	-172
919.414	1405
919.512	209
919.611	124
919.709	-799
919.807	1326
919.905	180
920.003	388
920.102	-445
920.200	-169
920.298	-122
920.396	465
920.494	959
920.592	70
920.690	-509
920.788	1308
920.886	-488
920.984	162
921.082	-27
921.180	1024
921.277	-166
921.375	1747
921.473	1419
921.571	1053
921.669	1499
921.766	803
921.864	1368
921.962	1402
922.060	862
922.157	888
922.255	933
922.352	654
922.450	1488
922.548	1263
922.645	732
922.743	2389
922.840	4388
922.938	4614
923.035	4270
923.133	3586
923.230	4439
923.327	5703
923.425	4950
923.522	5133
923.619	3599
923.717	3914
923.814	4398
923.911	4381
924.008	4657
924.106	3520
924.203	3003
924.300	4575
924.397	3437
924.494	4347
924.591	3480
924.688	3729
924.786	4016
924.883	4620
924.979	3915
925.077	4399
925.173	4497
925.270	4111
925.367	4891
925.464	4852
925.561	4312
925.658	5497
925.755	4516
925.852	5035
925.948	4097
926.045	4277
926.142	4101
926.239	4323
926.335	3464
926.432	3659
926.529	4403
926.625	4129
926.722	3105
926.818	4187
926.915	3837
927.011	3987
927.108	3034
927.204	2672
927.301	3089
927.397	4281
927.494	3616
927.590	1900
927.687	2943
927.783	3765
927.879	2950
927.976	3238
928.072	2350
928.168	2964
928.264	3108
928.361	3183
928.457	4007
928.553	1719
928.649	3972
928.745	2236
928.841	3098
928.937	3161
929.033	2044
929.129	2677
929.225	3115
929.321	2188
929.417	2392
929.513	3210
929.609	2912
929.705	2828
929.801	2522
929.897	1444
929.993	2354
930.089	2852
930.184	1305
930.280	3421
930.376	2668
930.471	1508
930.567	1757
930.663	2252
930.758	1669
930.854	2020
930.950	2173
931.045	1712
931.141	1792
931.236	2422
931.332	2364
931.427	1387
931.523	2071
931.618	1956
931.714	1328
931.809	2711
931.905	2760
932.000	1275
932.095	1660
932.191	3179
932.286	3121
932.381	1912
932.476	1652
932.572	1818
932.667	796
932.762	1729
932.857	2245
932.952	2486
933.047	1397
933.142	1940
933.237	1846
933.332	1614
933.427	2484
933.522	1042
933.617	1317
933.712	2059
933.807	2299
933.902	2385
933.997	1730
934.092	862
934.187	1729
934.282	1446
934.376	2188
934.471	2501
934.566	1233
934.661	1906
934.755	1968
934.850	1816
934.945	1369
935.039	1261
935.134	538
935.228	2016
935.323	2430
935.417	1788
935.512	250
935.606	1571
935.701	1245
935.795	1968
935.890	1809
935.984	1209
936.079	785
936.173	1106
936.267	1648
936.362	603
936.456	1726
936.550	1225
936.644	939
936.738	603
936.833	821
936.927	678
937.021	1091
937.115	1594
937.209	654
937.303	1456
937.397	511
937.491	1547
937.585	1538
937.679	1422
937.773	721
937.867	769
937.961	1090
938.055	1407
938.149	577
938.243	70
938.337	511
938.430	883
938.524	1100
938.618	952
938.712	738
938.805	936
938.899	1564
938.993	1916
939.086	196
939.180	682
939.274	1638
939.367	1828
939.461	647
939.554	652
939.648	1108
939.741	648
939.835	1296
939.928	1756
940.022	1174
940.115	211
940.208	1134
940.302	2677
940.395	2212
940.488	841
940.582	1080
940.675	1220
940.768	829
940.861	885
940.954	674
941.048	245
941.141	814
941.234	-541
941.327	1232
941.420	1259
941.513	1757
941.606	813
941.699	1604
941.792	1252
941.885	366
941.978	1267
942.071	496
942.164	-92
942.257	-342
942.349	1098
942.442	679
942.535	-148
942.628	1057
942.721	279
942.813	-42
942.906	836
942.999	42
943.091	577
943.184	1177
943.277	298
943.369	691
943.462	-18
943.554	360
943.647	326
943.739	2105
943.832	820
943.924	-1093
944.017	746
944.109	-658
944.201	-139
944.294	241
944.386	575
944.478	203
944.571	41
944.663	-51
944.755	339
944.847	1236
944.940	790
945.032	-843
945.124	220
945.216	467
945.308	801
945.400	386
945.492	844
945.584	962
945.676	364
945.768	429
945.860	187
945.952	399
946.044	936
946.136	-106
946.228	741
946.320	-309
946.412	1510
946.503	1288
946.595	2035
946.687	-26
946.779	-453
946.870	71
946.962	56
947.054	82
947.145	311
947.237	69
947.329	217
947.420	246
947.512	744
947.603	-609
947.695	-263
947.786	-527
947.878	-502
947.969	505
948.061	286
948.152	-109
948.243	-135
948.335	-793
948.426	-139
948.517	347
948.609	593
948.700	250
948.791	-264
948.882	-1110
948.973	-391
949.065	1167
949.156	97
949.247	-795
949.338	420
949.429	-827
949.520	238
949.611	-892
949.702	578
949.793	399
949.884	28
949.975	58
950.066	-1024
950.157	-107
950.247	-41
950.338	-517
950.429	-1209
950.520	-748
950.611	-1037
950.701	-13
950.792	486
950.883	-117
950.973	212
951.064	7
951.155	-182
951.245	314
951.336	1040
951.427	-612
951.517	1224
951.608	364
951.698	44
951.788	-319
951.879	217
951.969	-952
952.060	-2
952.150	-21
952.240	232
952.331	-1541
952.421	875
952.511	-995
952.602	-129
952.692	-558
952.782	-373
952.872	-612
952.962	44
953.052	-749
953.143	-546
953.233	-66
953.323	624
953.413	-236
953.503	421
953.593	286
953.683	607
953.773	-1719
953.863	-894
953.953	-1228
954.042	174
954.132	-614
954.222	-127
954.312	-323
954.402	743
954.492	375
954.581	175
954.671	-787
954.761	-307
954.850	1513
954.940	-1045
955.030	-550
955.119	57
955.209	198
955.298	-174
955.388	-496
955.477	408
955.567	-1532
955.656	-16
955.746	-176
955.835	-161
955.925	-307
956.014	582
956.103	-102
956.193	620
956.282	-185
956.371	538
956.461	-530
956.550	-1225
956.639	-544
956.728	-647
956.817	-394
956.906	-691
956.995	255
957.085	-749
957.174	-1171
957.263	-785
957.352	-1181
957.441	127
957.530	-576
957.619	299
957.708	-1054
957.796	274
957.885	-613
957.974	-933
958.063	-349
958.152	-1150
958.241	269
958.329	-511
958.418	-166
958.507	-79
958.596	534
958.684	-1282
958.773	501
958.861	-810
958.950	-354
959.039	-220
959.127	-330
959.216	327
959.304	-202
959.393	-455
959.481	-519
959.570	-875
959.658	-625
959.746	-589
959.835	126
959.923	-692
960.011	-883
960.100	292
960.188	-232
960.276	-771
960.365	-920
960.453	-577
960.541	-1195
960.629	-555
960.717	-256
960.805	-1831
960.893	-204
960.981	-946
961.069	80
961.158	-78
961.245	170
961.333	124
961.421	-1168
961.509	-590
961.597	-28
961.685	-319
961.773	-805
961.861	-802
961.949	-94
962.036	-677
962.124	466
962.212	-535
962.299	-778
962.387	-1170
962.475	-444
962.562	-820
962.650	279
962.738	-967
962.825	-1139
962.913	-253
963.000	-601
963.088	-131
963.175	128
963.263	-649
963.350	-1084
963.438	-603
963.525	-1558
963.612	324
963.700	-691
963.787	423
963.874	-955
963.962	-971
964.049	-416
964.136	-576
964.223	-1287
964.310	-301
964.398	-441
964.485	-1341
964.572	-69
964.659	-98
964.746	-949
964.833	-935
964.920	-1248
965.007	-567
965.094	-551
965.181	-747
965.268	-567
965.355	-80
965.441	-1181
965.528	-1015
965.615	180
965.702	-648
965.789	-1135
965.875	-567
965.962	-761
966.049	-862
966.136	92
966.222	-820
966.309	123
966.395	-681
966.482	504
966.569	-812
966.655	226
966.742	-405
966.828	-320
966.915	-581
967.001	-474
967.087	-974
967.174	-518
967.260	-1088
967.347	-1436
967.433	-435
967.519	162
967.605	-592
967.692	-194
967.778	-1430
967.864	-187
967.950	-878
968.036	-1913
968.123	-472
968.209	-1159
968.295	-1172
968.381	-266
968.467	-404
968.553	-2219
968.639	452
968.725	-770
968.811	518
968.897	-127
968.983	-815
969.069	-1449
969.154	-53
969.240	-558
969.326	-296
969.412	-1906
969.497	-739
969.583	-681
969.669	865
969.755	-769
969.840	-285
969.926	633
970.012	848
970.097	1491
970.183	798
970.268	166
970.354	-588
970.439	-2119
970.525	-511
970.610	-1408
970.696	164
970.781	-1269
970.866	-1582
970.952	-755
971.037	-1027
971.122	-935
971.208	-210
971.293	-369
971.378	-1226
971.463	-1175
971.549	-680
971.634	-642
971.719	-987
971.804	-1394
971.889	18
971.974	-730
972.059	-1444
972.144	-90
972.229	-786
972.314	-1253
972.399	-186
972.484	-876
972.569	-266
972.654	-2092
972.739	259
972.824	-1329
972.908	-1069
972.993	-1197
973.078	-648
973.163	-1870
973.247	-476
973.332	-3191
973.417	312
973.501	-1304
973.586	-909
973.671	-968
973.755	-853
973.840	-17
973.924	-187
974.009	-308
974.093	-1555
974.178	395
974.262	-257
974.346	-878
974.431	-1034
974.515	-670
974.600	-198
974.684	-1235
974.768	-1752
974.852	150
974.937	-2216
975.021	-23
975.105	-566
975.189	-165
975.273	37
975.358	-1788
975.442	-721
975.526	-102
975.610	-968
975.694	-1586
975.778	-374
975.862	-829
975.946	-2367
976.030	338
976.114	-1270
976.198	-715
976.281	-202
976.365	221
976.449	-1103
976.533	-339
976.617	-1209
976.700	-664
976.784	-532
976.868	-2017
976.951	-649
977.035	-1633
977.119	-185
977.202	-1886
977.286	-141
977.369	-1045
977.453	343
977.536	-953
977.620	-459
977.703	-729
977.787	-784
977.870	-370
977.953	-4
978.037	-2078
978.120	109
978.203	-893
978.287	-549
978.370	-1085
978.453	-1205
978.536	-697
978.620	-136
978.703	-874
978.786	-586
978.869	-1171
978.952	-1409
979.035	225
979.118	-961
979.201	-1166
979.284	-592
979.367	-1934
979.450	-735
979.533	-1448
979.616	-460
979.699	-747
979.782	-884
979.865	-172
979.948	-1328
980.030	-917
980.113	-580
980.196	-1600
980.279	-165
980.361	-140
980.444	-850
980.526	81
980.609	-362
980.692	-547
980.774	74
980.857	-1349
980.939	443
981.022	-1573
981.104	-6
981.187	-1095
981.269	-86
981.352	-804
981.434	-1329
981.516	-1288
981.599	895
981.681	-1454
981.763	-420
981.846	-337
981.928	-495
982.010	-702
982.092	-891
982.174	-416
982.256	-765
982.339	-152
982.421	-477
982.503	-615
982.585	-1328
982.667	-1445
982.749	-753
982.831	-261
982.913	-1696
982.995	-418
983.077	-680
983.158	-140
983.240	-1569
983.322	-488
983.404	968
983.486	-485
983.568	613
983.649	-866
983.731	150
983.813	-458
983.894	55
983.976	-631
984.058	-152
984.139	57
984.221	-1338
984.302	-18
984.384	689
984.465	-240
984.547	283
984.628	-793
984.710	-346
984.791	21
984.872	-760
984.954	-392
985.035	86
985.116	-656
985.198	-943
985.279	128
985.360	-30
985.441	-882
985.522	18
985.604	13
985.685	-2652
985.766	725
985.847	1853
985.928	-1030
986.009	476
986.090	-800
986.171	-223
986.252	58
986.333	-174
986.414	-696
986.495	537
986.576	-1140
986.656	-564
986.737	-442
986.818	-436
986.899	36
986.980	-74
987.060	422
987.141	45
987.222	229
987.302	-201
987.383	349
987.464	251
987.544	247
987.625	-231
987.705	610
987.786	-12
987.866	-711
987.947	-154
988.027	318
988.108	-195
988.188	309
988.268	296
988.349	0
988.429	215
988.509	337
988.589	-135
988.670	-1446
988.750	1377
988.830	-366
988.910	634
988.990	635
989.070	24
989.151	-200
989.231	-1425
989.311	88
989.391	-415
989.471	211
989.551	-210
989.631	-664
989.711	1439
989.791	-746
989.870	-975
989.950	687
990.030	-791
990.110	351
990.190	-425
990.269	275
990.349	-148
990.429	-139
990.509	-303
990.588	-1191
990.668	-379
990.747	-956
990.827	371
990.907	-272
990.986	-557
991.066	-160
991.145	-524
991.225	-266
991.304	-823
991.383	201
991.463	-957
991.542	-844
991.622	-894
991.701	-818
991.780	-744
991.859	-1186
991.939	-389
992.018	-150
992.097	210
992.176	-416
992.256	-783
992.335	-969
992.414	951
992.493	-999
992.572	-1293
992.651	583
992.730	-1138
992.809	-349
992.888	-705
992.967	-525
993.046	418
993.125	-1497
993.203	-860
993.282	-41
993.361	-6
993.440	-775
993.519	-759
993.597	-544
993.676	-160
993.755	-232
993.834	-1173
993.912	-921
993.991	822
994.069	-737
994.148	-1070
994.226	-1400
994.305	-371
994.384	-1576
994.462	540
994.540	-1040
994.619	-1729
994.697	-1369
994.776	-1426
994.854	-550
994.932	-872
995.011	-541
995.089	-1026
995.167	-1635
995.245	-299
995.324	-1498
995.402	-310
995.480	-1227
995.558	-844
995.636	-1173
995.714	-1059
995.792	-842
995.870	-924
995.948	-1250
996.026	-977
996.104	-1608
996.182	825
996.260	-1235
996.338	-80
996.416	-2331
996.494	-961
996.572	-665
996.649	-1594
996.727	-2677
996.805	-735
996.883	-1423
996.960	-1137
997.038	-468
997.116	-448
997.193	-1764
997.271	-1065
997.348	-1255
997.426	-719
997.504	-442
997.581	278
997.658	-415
997.736	-2106
997.813	-2068
997.891	-752
997.968	-1284
998.046	-1173
998.123	-1582
998.200	-811
998.277	-1797
998.355	-842
998.432	-2292
998.509	-499
998.586	-1501
998.663	-499
998.741	-571
998.818	-1102
998.895	-1719
998.972	-376
999.049	-497
999.126	-2510
999.203	-697
999.280	-726
999.357	-1802
999.434	-1339
999.511	-1330
999.587	-122
999.664	-2150
999.741	-1316
999.818	-526
999.895	-2026
999.971	-1716
1000.048	-1883
1000.125	-125
1000.202	-1133
1000.278	-1259
1000.355	-1188
1000.431	-1972
1000.508	-1270
1000.584	-754
1000.661	-508
1000.738	-2295
1000.814	-1768
1000.890	-769
1000.967	-912
1001.043	-614
1001.120	-1379
1001.196	-760
1001.272	-1985
1001.349	-1501
1001.425	-529
1001.501	-610
1001.577	-1727
1001.654	-1246
1001.730	-608
1001.806	-1087
1001.882	-1386
1001.958	-884
1002.034	-1326
1002.110	-725
1002.186	-1600
1002.262	-1882
1002.338	-1843
1002.414	-1419
1002.490	-517
1002.566	-2275
1002.642	-2004
1002.718	-890
1002.794	-2341
1002.870	-1774
1002.945	-742
1003.021	-1182
1003.097	-1600
1003.173	-1335
1003.248	-1283
1003.324	-1255
1003.400	-1919
1003.475	-1386
1003.551	-1243
1003.626	-1012
1003.702	-2148
1003.777	-1989
1003.853	-1353
1003.928	-2220
1004.004	-1949
1004.079	-1463
1004.155	-1284
1004.230	-2208
1004.305	-602
1004.381	-1665
1004.456	-929
1004.531	-1466
1004.607	-821
1004.682	-1985
1004.757	-1131
1004.832	-2163
1004.907	-1262
1004.982	-1669
1005.057	-1469
1005.133	-1481
1005.208	-1535
1005.283	-1937
1005.358	-1329
1005.433	-2142
1005.508	-1424
1005.583	-2024
1005.657	-1531
1005.732	-1224
1005.807	-1821
1005.882	-1083
1005.957	-2222
1006.032	-1155
1006.106	-1902
1006.181	-2354
1006.256	-1083
1006.331	-2720
1006.405	-1730
1006.480	-928
1006.554	-1806
1006.629	-1706
1006.704	-1869
1006.778	-1839
1006.853	-1273
1006.927	-2078
1007.002	-1679
1007.076	-2483
1007.150	-1790
1007.225	-1939
1007.299	-1860
1007.373	-2682
1007.448	-1522
1007.522	-1608
1007.596	-1003
1007.671	-1378
1007.745	-730
1007.819	-2982
1007.893	-2383
1007.967	-1358
1008.041	-2207
1008.115	-1621
1008.190	-1827
1008.264	-1476
1008.338	-3260
1008.412	-2901
1008.486	-2036
1008.560	-1657
1008.633	-1603
1008.707	-2140
1008.781	-1763
1008.855	-2518
1008.929	-2054
1009.003	-1820
1009.076	-818
1009.150	-1622
1009.224	-1732
1009.298	-1472
1009.371	-2235
1009.445	-1869
1009.519	-1022
1009.592	-3168
1009.666	-1186
1009.739	-1736
1009.813	-2148
1009.886	-1005
1009.960	-2854
1010.033	-1048
1010.107	-1953
1010.180	-2589
1010.253	-1369
1010.327	-2146
1010.400	-889
1010.473	-2535
1010.547	-785
1010.620	-1831
1010.693	-1393
1010.766	-2414
1010.840	-1457
1010.913	-2130
1010.986	-1910
1011.059	-1567
1011.132	-2507
1011.205	-1891
1011.278	-1862
1011.351	-1984
1011.424	-2329
1011.497	-2579
1011.570	-2827
1011.643	-2490
1011.716	-2265
1011.789	-1755
1011.862	-2006
1011.934	-1417
1012.007	-2693
1012.080	-2088
1012.153	-1330
1012.225	-942
1012.298	-2803
1012.371	-1879
1012.443	-1969
1012.516	-2579
1012.588	-2351
1012.661	-2248
1012.733	-2362
1012.806	-1459
1012.879	-2178
1012.951	-2381
1013.023	-2307
1013.096	-2095
1013.168	-2204
1013.241	-2167
1013.313	-1953
1013.385	-2428
1013.458	-1873
1013.530	-1244
1013.602	-2723
1013.674	-1178
1013.746	-2430
1013.819	-2637
1013.891	-1442
1013.963	-2523
1014.035	-1880
1014.107	-1962
1014.179	-1197
1014.251	-2999
1014.323	-1088
1014.395	-2844
1014.467	-2065
1014.539	-1585
1014.611	-2949
1014.683	-1639
1014.754	-1982
1014.826	-1722
1014.898	-2227
1014.970	-2420
1015.042	-1019
1015.113	-1379
1015.185	-2388
1015.257	-2685
1015.328	-151
1015.400	-2562
1015.471	-1223
1015.543	-2813
1015.615	-2206
1015.686	-2526
1015.757	-2309
1015.829	-1069
1015.901	-1811
1015.972	-2033
1016.043	-1697
1016.115	-2565
1016.186	-1350
1016.257	-2548
1016.328	-1914
1016.400	-2007
1016.471	-1895
1016.542	-2854
1016.613	-2038
1016.685	-2470
1016.756	-1601
1016.827	-2482
1016.898	-3021
1016.969	-1728
1017.040	-2377
1017.111	-2750
1017.182	-2551
1017.253	-2201
1017.324	-2061
1017.395	-3185
1017.466	-1604
1017.537	-3128
1017.608	-1697
1017.678	-2384
1017.749	-1938
1017.820	-2573
1017.891	-3116
1017.961	-2825
1018.032	-2850
1018.103	-2178
1018.173	-2028
1018.244	-1821
1018.315	-2634
1018.385	-1328
1018.456	-1886
1018.526	-2033
1018.597	-2584
1018.667	-2419
1018.738	-1694
1018.808	-2852
1018.878	-2642
1018.949	-2742
1019.019	-2252
1019.089	-2207
1019.160	-1871
1019.230	-3422
1019.300	-1889
1019.371	-2590
1019.441	-1583
1019.511	-2531
1019.581	-2046
1019.651	-2262
1019.721	-2454
1019.791	-3029
1019.861	-1919
1019.931	-1956
1020.001	-2122
1020.071	-2261
1020.141	-2409
1020.211	-2625
1020.281	-2258
1020.351	-2758
1020.421	-1706
1020.491	-1960
1020.560	-2929
1020.630	-2343
1020.700	-2274
1020.770	-2840
1020.839	-1985
1020.909	-1723
1020.979	-2274
1021.048	-2364
1021.118	-2527
1021.187	-2625
1021.257	-2254
1021.326	-2073
1021.396	-2390
1021.465	-2118
1021.535	-1398
1021.604	-2482
1021.674	-2388
1021.743	-2779
1021.812	-2278
1021.882	-2215
1021.951	-2634
1022.020	-1212
1022.089	-1776
1022.159	-2703
1022.228	-1415
1022.297	-2513
1022.366	-2219
1022.435	-2523
1022.504	-2505
1022.573	-2501
1022.642	-2205
1022.711	-1683
1022.781	-2435
1022.849	-1534
1022.918	-2318
1022.987	-2312
1023.056	-2502
1023.125	-2406
1023.194	-2327
1023.263	-1597
1023.331	-2083
1023.400	-2469
1023.469	-1920
1023.538	-2030
1023.606	-2188
1023.675	-2111
1023.744	-2822
1023.812	-2505
1023.881	-1935
1023.949	-1344
1024.018	-2421
1024.086	-1878
1024.155	-2571
1024.223	-3150
1024.292	-2233
1024.360	-1941
1024.429	-2052
1024.497	-2815
1024.565	-2503
1024.634	-2628
1024.702	-2704
1024.770	-2355
1024.838	-1798
1024.907	-1386
1024.975	-2650
1025.043	-2389
1025.111	-2702
1025.179	-2167
1025.247	-2313
1025.315	-1717
1025.383	-1985
1025.451	-1840
1025.519	-3229
1025.587	-2749
1025.655	-1872
1025.723	-2477
1025.791	-2308
1025.859	-2142
1025.927	-1331
1025.995	-2378
1026.062	-2287
1026.130	-2432
1026.198	-2200
1026.266	-1932
1026.333	-1605
1026.401	-1252
1026.469	-1708
1026.536	-2353
1026.604	-2167
1026.671	-2427
1026.739	-2275
1026.806	-2897
1026.874	-2111
1026.941	-2919
1027.009	-2131
1027.076	-1990
1027.144	-1827
1027.211	-2166
1027.278	-2362
1027.345	-1402
1027.413	-2635
1027.480	-2846
1027.547	-1916
1027.614	-2761
1027.682	-2369
1027.749	-1907
1027.816	-2326
1027.883	-1522
1027.950	-2573
1028.017	-2904
1028.084	-2208
1028.151	-3499
1028.218	-3069
1028.285	-2172
1028.352	-2449
1028.419	-2196
1028.486	-1645
1028.553	-2353
1028.619	-2465
1028.686	-2417
1028.753	-2469
1028.820	-2169
1028.886	-2490
1028.953	-2014
1029.020	-2235
1029.086	-2808
1029.153	-2334
1029.220	-2625
1029.286	-1196
1029.353	-1693
1029.419	-2309
1029.486	-2306
1029.552	-2163
1029.619	-2350
1029.685	-2320
1029.751	-2976
1029.818	-1845
1029.884	-2525
1029.951	-1866
1030.017	-1786
1030.083	-1952
1030.149	-2438
1030.216	-2155
1030.282	-2360
1030.348	-1352
1030.414	-2669
1030.480	-2357
1030.546	-2160
1030.612	-2569
1030.678	-2442
1030.744	-1791
1030.810	-2535
1030.876	-1937
1030.942	-2872
1031.008	-1477
1031.074	-2095
1031.140	-2771
1031.206	-2279
1031.272	-2728
1031.337	-2581
1031.403	-1103
1031.469	-2969
1031.534	-1710
1031.600	-2642
1031.666	-2350
1031.731	-2684
1031.797	-1857
1031.863	-2246
1031.928	-2314
1031.994	-1634
1032.059	-2825
1032.125	-2015
1032.190	-2492
1032.256	-2628
1032.321	-2650
1032.386	-3211
1032.452	-1277
1032.517	-2388
1032.582	-2366
1032.647	-2496
1032.713	-2176
1032.778	-2564
1032.843	-1875
1032.908	-2235
1032.974	-2426
1033.039	-2697
1033.104	-1066
1033.169	-2490
1033.234	-2172
1033.299	-1186
1033.364	-1417
1033.429	-2369
1033.494	-1454
1033.559	-2183
1033.624	-2091
1033.688	-2191
1033.753	-2538
1033.818	-2411
1033.883	-1604
1033.948	-1760
1034.013	-1732
1034.077	-1101
1034.142	-349
1034.207	-420
1034.271	1096
1034.336	1753
1034.400	397
1034.465	-574
1034.530	-1664
1034.594	-1730
1034.658	-2178
1034.723	-2352
1034.787	-1756
1034.852	-1683
1034.916	-1881
1034.981	-1976
1035.045	-2649
1035.109	-2133
1035.173	-1892
1035.238	-2752
1035.302	-1822
1035.366	-2128
1035.430	-1618
1035.495	-2623
1035.559	-1712
1035.623	-2418
1035.687	-2524
1035.751	-2592
1035.815	-2140
1035.879	-2846
1035.943	-1856
1036.007	-2505
1036.071	-2381
1036.135	-1758
1036.198	-2269
1036.262	-2859
1036.326	-2894
1036.390	-1586
1036.454	-1865
1036.517	-1162
1036.581	-681
1036.645	-969
1036.709	-1862
1036.772	-2376
1036.836	-2215
1036.900	-1885
1036.963	-2379
1037.026	-3100
1037.090	-2298
1037.154	-1786
1037.217	-2525
1037.280	-2716
1037.344	-1847
1037.407	-2659
1037.471	-2414
1037.534	-1970
1037.597	-2693
1037.661	-1742
1037.724	-1299
1037.787	-1417
1037.850	-2393
1037.913	-2834
1037.977	-1682
1038.040	-2416
1038.103	-2101
1038.166	-3035
1038.229	-1423
1038.292	-2859
1038.355	-2276
1038.418	-1719
1038.481	-2550
1038.544	-2509
1038.607	-2098
1038.670	-2656
1038.732	-1430
1038.795	-3222
1038.858	-1595
1038.921	-2467
1038.984	-1781
1039.046	-2200
1039.109	-2302
1039.172	-1898
1039.234	-2092
1039.297	-2353
1039.360	-2064
1039.422	-2575
1039.485	-2678
1039.547	-3425
1039.610	-2054
1039.672	-2776
1039.734	-2660
1039.797	-2916
1039.859	-2454
1039.922	-3245
1039.984	-2646
1040.046	-2728
1040.109	-2160
1040.171	-2260
1040.233	-2128
1040.295	-2737
1040.358	-2186
1040.420	-2451
1040.482	-2416
1040.544	-2237
1040.606	-2279
1040.668	-3019
1040.730	-1955
1040.792	-2921
1040.854	-2592
1040.916	-2793
1040.978	-3410
1041.040	-2170
1041.102	-2458
1041.164	-2870
1041.225	-1985
1041.287	-2431
1041.349	-2403
1041.411	-2058
1041.472	-2686
1041.534	-3364
1041.596	-2941
1041.657	-1899
1041.719	-2255
1041.781	-2529
1041.842	-2552
1041.904	-2645
1041.965	-2947
1042.027	-2887
1042.088	-2525
1042.150	-2434
1042.211	-2756
1042.272	-2112
1042.334	-2178
1042.395	-3220
1042.456	-2188
1042.518	-2454
1042.579	-2158
1042.640	-2045
1042.701	-3448
1042.763	-2945
1042.824	-2588
1042.885	-2729
1042.946	-1322
1043.007	-2949
1043.068	-2242
1043.129	-2306
1043.190	-2580
1043.251	-2972
1043.312	-2797
1043.373	-2081
1043.434	-2797
1043.495	-2329
1043.556	-1642
1043.616	-2213
1043.677	-2505
1043.738	-2564
1043.799	-2477
1043.859	-2568
1043.920	-2639
1043.981	-1681
1044.041	-2209
1044.102	-2287
1044.162	-2626
1044.223	-2785
1044.284	-1980
1044.344	-2197
1044.405	-2370
1044.465	-2666
1044.525	-2060
1044.586	-2220
1044.646	-2196
1044.707	-1911
1044.767	-1752
1044.827	-2908
1044.887	-1798
1044.948	-2138
1045.008	-1539
1045.068	-1806
1045.128	-2409
1045.188	-1779
1045.249	-1414
1045.309	-2168
1045.369	-2034
1045.429	-2886
1045.489	-2582
1045.549	-2446
1045.609	-1998
1045.669	-2319
1045.729	-2872
1045.789	-1656
1045.848	-2854
1045.908	-2110
1045.968	-1953
1046.028	-1337
1046.088	-1863
1046.147	-1086
1046.207	-2624
1046.267	-1748
1046.326	-2220
1046.386	-1148
1046.446	-1228
1046.505	-1698
1046.565	-1647
1046.624	-1831
1046.684	-850
1046.743	-1450
1046.803	-1191
1046.862	-868
1046.922	0
