'Start Wavelength	183.907
'End Wavelength	1046.922
'Gate Delay	5.000
'Gate Width (ms)	1.050
'Laser Output Level	0.000
'X Position	0.000
'Y Position	0.000
'Z Position	0.000
'Grid Point Number	1.000
'Shot Number	100.000
183.907	-113.000
183.977	-426.000
184.047	-317
184.116	787
184.186	-462
184.256	486
184.325	-150
184.395	-573
184.465	506
184.534	402
184.604	-349
184.674	431
184.743	1
184.813	-67
184.883	-159
184.952	162
185.022	304
185.092	658
185.161	-239
185.231	126
185.301	-253
185.370	277
185.440	118
185.509	181
185.579	806
185.649	160
185.718	158
185.788	999
185.857	375
185.927	321
185.996	-224
186.066	764
186.136	-222
186.205	43
186.275	339
186.344	358
186.414	-86
186.483	-21
186.553	1145
186.622	721
186.692	-117
186.761	136
186.831	993
186.900	-388
186.970	1154
187.039	262
187.109	505
187.178	762
187.248	713
187.317	463
187.387	345
187.456	-123
187.526	45
187.595	-589
187.664	55
187.734	-99
187.803	343
187.873	148
187.942	-427
188.012	-250
188.081	67
188.150	317
188.220	630
188.289	929
188.358	228
188.428	881
188.497	-590
188.567	1043
188.636	-215
188.705	74
188.775	-41
188.844	-392
188.913	281
188.983	356
189.052	264
189.121	-718
189.191	-332
189.260	338
189.329	174
189.399	85
189.468	362
189.537	-35
189.606	473
189.676	50
189.745	2
189.814	372
189.883	331
189.953	-227
190.022	-207
190.091	-63
190.161	-548
190.230	394
190.299	274
190.368	-553
190.437	251
190.507	713
190.576	90
190.645	413
190.714	-518
190.783	-84
190.853	370
190.922	311
190.991	152
191.060	-81
191.129	-686
191.198	134
191.268	-451
191.337	47
191.406	193
191.475	-35
191.544	71
191.613	722
191.682	129
191.752	-339
191.821	-161
191.890	-117
191.959	325
192.028	653
192.097	-113
192.166	446
192.235	-145
192.304	520
192.373	371
192.442	207
192.511	-310
192.580	-319
192.650	557
192.719	-222
192.788	850
192.857	65
192.926	-119
192.995	-238
193.064	100
193.133	351
193.202	-372
193.271	1026
193.340	-295
193.409	660
193.478	-72
193.547	212
193.615	-130
193.684	-249
193.753	346
193.822	115
193.891	-95
193.960	430
194.029	-294
194.098	692
194.167	270
194.236	224
194.305	-61
194.374	430
194.443	-35
194.512	290
194.580	433
194.649	298
194.718	500
194.787	644
194.856	264
194.925	938
194.994	-576
195.062	-19
195.131	184
195.200	173
195.269	-156
195.338	9
195.407	344
195.475	-94
195.544	-235
195.613	-961
195.682	1012
195.751	-342
195.819	-263
195.888	18
195.957	545
196.026	617
196.094	-205
196.163	567
196.232	40
196.301	-65
196.369	490
196.438	248
196.507	54
196.576	-41
196.644	380
196.713	87
196.782	-579
196.850	327
196.919	-175
196.988	570
197.056	-118
197.125	-385
197.194	70
197.262	15
197.331	360
197.400	510
197.468	-55
197.537	-24
197.606	487
197.674	696
197.743	569
197.812	-220
197.880	11
197.949	88
198.017	51
198.086	265
198.155	260
198.223	271
198.292	304
198.360	-433
198.429	-150
198.497	-803
198.566	-133
198.635	574
198.703	1240
198.772	827
198.840	-445
198.909	262
198.977	-584
199.046	240
199.114	-423
199.183	95
199.251	371
199.320	-219
199.388	-911
199.457	803
199.525	339
199.594	-522
199.662	16
199.731	220
199.799	123
199.867	-27
199.936	585
200.004	763
200.073	442
200.141	678
200.210	-255
200.278	72
200.346	509
200.415	-32
200.483	723
200.552	631
200.620	-163
200.688	377
200.757	-107
200.825	220
200.893	-274
200.962	102
201.030	-688
201.098	-1001
201.167	465
201.235	-89
201.303	897
201.372	953
201.440	497
201.508	-296
201.577	1263
201.645	411
201.713	470
201.781	-80
201.850	1353
201.918	693
201.986	-109
202.055	42
202.123	-937
202.191	-240
202.259	294
202.327	-25
202.396	465
202.464	207
202.532	1034
202.600	2017
202.669	857
202.737	345
202.805	466
202.873	382
202.941	378
203.009	-249
203.078	-846
203.146	130
203.214	-352
203.282	-655
203.350	410
203.418	189
203.487	721
203.555	361
203.623	-316
203.691	831
203.759	-994
203.827	-610
203.895	-127
203.963	35
204.031	-129
204.099	624
204.168	-396
204.236	397
204.304	-443
204.372	181
204.440	-347
204.508	67
204.576	-924
204.644	60
204.712	-271
204.780	-277
204.848	-218
204.916	-139
204.984	40
205.052	-47
205.120	-357
205.188	-414
205.256	-627
205.324	308
205.392	-586
205.460	-65
205.528	-583
205.596	233
205.664	-33
205.732	-652
205.799	165
205.867	571
205.935	-304
206.003	-118
206.071	-441
206.139	-301
206.207	120
206.275	497
206.343	-390
206.411	170
206.478	-227
206.546	-277
206.614	-546
206.682	-260
206.750	-368
206.818	305
206.885	1316
206.953	-574
207.021	741
207.089	-165
207.157	244
207.225	-615
207.292	-332
207.360	104
207.428	-574
207.496	-747
207.563	532
207.631	443
207.699	-282
207.767	-248
207.834	-981
207.902	-836
207.970	624
208.038	-603
208.105	-712
208.173	-55
208.241	-697
208.309	-191
208.376	-548
208.444	516
208.512	-786
208.579	-1021
208.647	512
208.715	894
208.782	-327
208.850	162
208.918	-541
208.985	199
209.053	-646
209.120	211
209.188	-405
209.256	-386
209.323	-852
209.391	-390
209.459	700
209.526	302
209.594	-146
209.661	-41
209.729	-410
209.796	-333
209.864	181
209.932	-1173
209.999	735
210.067	77
210.134	290
210.202	270
210.269	112
210.337	1788
210.404	471
210.472	0
210.539	394
210.607	-538
210.674	-710
210.742	432
210.809	-707
210.877	-57
210.944	-326
211.012	-1020
211.079	1156
211.146	-107
211.214	-126
211.281	1493
211.349	180
211.416	449
211.484	662
211.551	86
211.618	-93
211.686	783
211.753	59
211.821	430
211.888	99
211.955	282
212.023	776
212.090	201
212.157	-124
212.225	-528
212.292	647
212.359	-107
212.427	1376
212.494	625
212.561	-599
212.629	275
212.696	-926
212.763	-569
212.831	-477
212.898	701
212.965	-547
213.032	216
213.100	-480
213.167	257
213.234	1059
213.301	-493
213.369	-272
213.436	439
213.503	-734
213.570	546
213.638	-752
213.705	64
213.772	-1392
213.839	149
213.906	112
213.973	264
214.041	-1550
214.108	-145
214.175	-457
214.242	-894
214.309	-180
214.376	-481
214.444	-404
214.511	27
214.578	-803
214.645	592
214.712	-545
214.779	37
214.846	-1383
214.913	458
214.980	-161
215.048	568
215.115	1029
215.182	-296
215.249	306
215.316	-379
215.383	310
215.450	312
215.517	-475
215.584	-255
215.651	45
215.718	308
215.785	-797
215.852	-454
215.919	-52
215.986	127
216.053	50
216.120	-50
216.187	-152
216.254	-242
216.321	-169
216.388	203
216.455	-420
216.522	343
216.589	-137
216.656	-465
216.722	552
216.789	-18
216.856	-658
216.923	-680
216.990	-404
217.057	-263
217.124	339
217.191	-931
217.258	172
217.324	75
217.391	-138
217.458	-778
217.525	-84
217.592	-22
217.659	-1269
217.725	686
217.792	-685
217.859	465
217.926	-692
217.993	-142
218.059	-348
218.126	493
218.193	-575
218.260	-583
218.327	-383
218.393	-56
218.460	-894
218.527	-1131
218.594	-397
218.660	-155
218.727	553
218.794	-936
218.860	105
218.927	-278
218.994	-821
219.061	-878
219.127	-201
219.194	58
219.261	-277
219.327	-670
219.394	132
219.461	-1189
219.527	533
219.594	399
219.661	-481
219.727	-453
219.794	-178
219.860	-383
219.927	433
219.994	1382
220.060	2825
220.127	3017
220.193	1320
220.260	-827
220.326	-688
220.393	-239
220.460	-127
220.526	-697
220.593	-987
220.659	1391
220.726	-155
220.792	265
220.859	-20
220.925	-158
220.992	429
221.058	395
221.125	366
221.191	744
221.258	-1003
221.324	-246
221.391	-400
221.457	-1246
221.524	-202
221.590	-68
221.657	1078
221.723	-888
221.789	179
221.856	241
221.922	-776
221.989	967
222.055	-618
222.121	-504
222.188	1350
222.254	-68
222.321	63
222.387	-839
222.453	58
222.520	441
222.586	-1184
222.652	179
222.719	-1702
222.785	226
222.851	-702
222.918	-189
222.984	-106
223.050	-782
223.116	-1722
223.183	724
223.249	-653
223.315	-1771
223.382	226
223.448	-390
223.514	-847
223.580	78
223.647	-683
223.713	-1292
223.779	-597
223.845	-329
223.911	-448
223.978	-1584
224.044	-233
224.110	-737
224.176	-447
224.242	-188
224.309	-1049
224.375	593
224.441	182
224.507	-364
224.573	-1555
224.639	80
224.705	-707
224.772	-517
224.838	-1010
224.904	-261
224.970	-96
225.036	-330
225.102	-753
225.168	921
225.234	143
225.300	-190
225.366	-370
225.432	65
225.499	-346
225.565	-407
225.631	211
225.697	-51
225.763	-250
225.829	-1158
225.895	-142
225.961	-285
226.027	-100
226.093	-1266
226.159	1067
226.225	398
226.291	58
226.357	792
226.423	-465
226.489	450
226.554	-64
226.620	-3
226.686	-593
226.752	-327
226.818	287
226.884	1240
226.950	1386
227.016	309
227.082	634
227.148	249
227.214	-533
227.279	-137
227.345	-31
227.411	1283
227.477	1970
227.543	5672
227.609	5166
227.674	2746
227.740	740
227.806	315
227.872	-353
227.938	808
228.003	282
228.069	-458
228.135	-887
228.201	-875
228.267	-26
228.332	-297
228.398	-1521
228.464	-446
228.530	-528
228.595	345
228.661	-980
228.727	-447
228.792	640
228.858	-192
228.924	-2189
228.990	1199
229.055	-1153
229.121	8
229.187	394
229.252	-597
229.318	-689
229.384	-98
229.449	-431
229.515	-1223
229.581	-2031
229.646	1231
229.712	244
229.777	-250
229.843	-270
229.909	314
229.974	-313
230.040	-414
230.105	-508
230.171	-1565
230.236	165
230.302	-486
230.368	-336
230.433	-913
230.499	583
230.564	-93
230.630	-1007
230.695	218
230.761	565
230.826	-1460
230.892	624
230.957	-798
231.023	-335
231.088	-794
231.154	419
231.219	341
231.284	-997
231.350	258
231.415	-689
231.481	146
231.546	-158
231.612	20
231.677	-1199
231.742	-1094
231.808	1119
231.873	-720
231.939	-1979
232.004	1067
232.069	426
232.135	-1233
232.200	-898
232.265	1069
232.331	-744
232.396	-775
232.461	-623
232.527	-680
232.592	-369
232.657	-96
232.723	-509
232.788	-1143
232.853	680
232.918	491
232.984	-828
233.049	-807
233.114	-661
233.179	288
233.245	1161
233.310	627
233.375	-1005
233.440	236
233.506	-98
233.571	-298
233.636	111
233.701	1
233.766	-629
233.832	579
233.897	-1082
233.962	-1188
234.027	404
234.092	-539
234.157	7
234.222	-658
234.288	-656
234.353	102
234.418	709
234.483	675
234.548	134
234.613	160
234.678	4
234.743	-372
234.808	703
234.873	-1613
234.938	741
235.004	-549
235.069	-709
235.134	-779
235.199	-585
235.264	-226
235.329	-1953
235.394	369
235.459	675
235.524	-1803
235.589	365
235.654	-688
235.719	-957
235.784	883
235.849	-727
235.913	-255
235.978	-78
236.043	111
236.108	-19
236.173	-1072
236.238	311
236.303	-1481
236.368	-1697
236.433	80
236.498	-740
236.563	378
236.627	10
236.692	1647
236.757	1452
236.822	166
236.887	-897
236.952	618
237.017	-884
237.081	587
237.146	-1844
237.211	414
237.276	1287
237.341	4834
237.405	779
237.470	494
237.535	124
237.600	-552
237.664	300
237.729	-1282
237.794	-905
237.859	465
237.923	109
237.988	-1023
238.053	424
238.118	-135
238.182	620
238.247	3030
238.312	-1002
238.376	144
238.441	-1296
238.506	668
238.570	-1702
238.635	876
238.700	-178
238.764	-486
238.829	567
238.893	-1225
238.958	674
239.023	85
239.087	-964
239.152	766
239.216	-541
239.281	791
239.346	293
239.410	-584
239.475	-823
239.539	1464
239.604	557
239.668	770
239.733	1025
239.797	4396
239.862	10874
239.926	8802
239.991	2930
240.055	996
240.120	182
240.184	402
240.249	-559
240.313	-373
240.378	-742
240.442	726
240.507	1133
240.571	1020
240.635	-606
240.700	461
240.764	-119
240.829	-765
240.893	-1544
240.957	383
241.022	607
241.086	1523
241.151	-951
241.215	-1953
241.279	8
241.344	-259
241.408	124
241.472	-1334
241.537	276
241.601	216
241.665	-1467
241.730	-387
241.794	34
241.858	-1211
241.922	-310
241.987	194
242.051	-354
242.115	-1000
242.179	-657
242.244	-1259
242.308	353
242.372	-224
242.436	-1262
242.501	-519
242.565	-1862
242.629	-782
242.693	857
242.757	-1346
242.822	-967
242.886	270
242.950	693
243.014	-732
243.078	485
243.142	-415
243.206	-908
243.271	514
243.335	-849
243.399	268
243.463	265
243.527	3694
243.591	-113
243.655	-415
243.719	-439
243.783	1125
243.847	-203
243.911	382
243.975	-612
244.040	-766
244.104	1600
244.168	544
244.232	-707
244.296	-891
244.360	57
244.424	-847
244.488	355
244.552	186
244.615	-1914
244.679	-483
244.743	-326
244.807	-1976
244.871	-225
244.935	25
244.999	-1345
245.063	-822
245.127	1233
245.191	-110
245.255	-248
245.319	1087
245.383	-1585
245.446	1927
245.510	-1300
245.574	148
245.638	699
245.702	-1131
245.766	1215
245.829	1250
245.893	-1192
245.957	-767
246.021	643
246.085	-974
246.149	-152
246.212	2136
246.276	864
246.340	237
246.404	43
246.467	729
246.531	-1724
246.595	821
246.659	706
246.722	-1132
246.786	-405
246.850	-519
246.913	155
246.977	-1415
247.041	-514
247.104	-665
247.168	383
247.232	1033
247.295	2045
247.359	1596
247.423	-399
247.486	336
247.550	875
247.614	-165
247.677	-296
247.741	-433
247.804	231
247.868	2897
247.932	641
247.995	3656
248.059	383
248.122	-666
248.186	976
248.249	775
248.313	4493
248.376	5604
248.440	2225
248.503	-210
248.567	1878
248.630	-209
248.694	298
248.757	2543
248.821	5378
248.884	3539
248.948	723
249.011	3828
249.075	6148
249.138	5268
249.202	708
249.265	-47
249.328	996
249.392	-449
249.455	606
249.519	-573
249.582	180
249.645	622
249.709	629
249.772	-342
249.835	-78
249.899	-113
249.962	928
250.025	-854
250.089	1186
250.152	2837
250.215	1003
250.279	265
250.342	242
250.405	-14
250.468	-765
250.532	117
250.595	1254
250.658	4007
250.721	10324
250.785	1609
250.848	1391
250.911	-429
250.974	337
251.038	604
251.101	2994
251.164	912
251.227	1134
251.290	486
251.354	714
251.417	7624
251.480	6635
251.543	2903
251.606	15117
251.669	10921
251.732	2481
251.795	2287
251.859	4132
251.922	8623
251.985	4338
252.048	1652
252.111	491
252.174	-141
252.237	1082
252.300	5783
252.363	4304
252.426	14089
252.489	4453
252.552	1931
252.615	442
252.678	1474
252.741	4642
252.804	3536
252.867	14243
252.930	7081
252.993	2281
253.056	2116
253.119	1132
253.182	250
253.245	-167
253.308	984
253.371	11
253.434	-154
253.497	794
253.559	3289
253.622	1468
253.685	1064
253.748	759
253.811	-337
253.874	226
253.937	149
254.000	641
254.062	1029
254.125	3291
254.188	1788
254.251	1107
254.314	139
254.376	607
254.439	1039
254.502	961
254.565	1261
254.628	3291
254.690	622
254.753	-217
254.816	73
254.878	-190
254.941	1824
255.004	2204
255.067	-134
255.129	-656
255.192	767
255.255	-766
255.317	18
255.380	-446
255.443	179
255.505	-112
255.568	185
255.631	-642
255.693	736
255.756	-253
255.819	1676
255.881	-546
255.944	540
256.006	-170
256.069	-457
256.132	-588
256.194	-608
256.257	434
256.319	953
256.382	249
256.444	926
256.507	1022
256.569	-1
256.632	-582
256.694	-900
256.757	1325
256.819	3901
256.882	-262
256.944	753
257.007	1307
257.069	0
257.132	-248
257.194	562
257.257	-684
257.319	-561
257.381	-726
257.444	1091
257.506	4194
257.569	5324
257.631	3849
257.693	1027
257.756	409
257.818	140
257.880	-39
257.943	528
258.005	-790
258.067	194
258.130	510
258.192	245
258.254	486
258.317	-334
258.379	406
258.441	1474
258.503	1547
258.566	1071
258.628	2372
258.690	183
258.753	1110
258.815	975
258.877	-735
258.939	242
259.001	668
259.064	-349
259.126	-475
259.188	453
259.250	376
259.312	991
259.375	2238
259.437	111
259.499	-62
259.561	-7
259.623	886
259.685	-496
259.747	-77
259.809	448
259.872	3179
259.934	5301
259.996	4612
260.058	1380
260.120	-581
260.182	475
260.244	776
260.306	92
260.368	365
260.430	-514
260.492	-483
260.554	1907
260.616	841
260.678	1614
260.740	2369
260.802	437
260.864	731
260.926	-95
260.988	581
261.050	230
261.112	-286
261.174	2734
261.236	2415
261.298	-202
261.359	718
261.421	2653
261.483	-294
261.545	1065
261.607	-1266
261.669	919
261.731	-202
261.793	1158
261.854	-503
261.916	796
261.978	-15
262.040	17
262.102	800
262.164	800
262.225	429
262.287	-20
262.349	92
262.411	173
262.472	879
262.534	-887
262.596	1149
262.658	1350
262.719	-200
262.781	1238
262.843	-36
262.904	991
262.966	395
263.028	627
263.090	2111
263.151	5832
263.213	2620
263.275	946
263.336	415
263.398	1566
263.459	-250
263.521	909
263.583	924
263.644	870
263.706	306
263.767	44
263.829	1063
263.891	-231
263.952	318
264.014	-175
264.075	239
264.137	207
264.198	610
264.260	-561
264.321	-9
264.383	-13
264.444	804
264.506	-255
264.567	-45
264.629	771
264.690	-889
264.752	-82
264.813	-354
264.875	-226
264.936	1190
264.998	28
265.059	35
265.120	496
265.182	505
265.243	539
265.305	1120
265.366	1282
265.427	-130
265.489	1203
265.550	-669
265.611	66
265.673	156
265.734	685
265.795	379
265.857	-656
265.918	-286
265.979	1471
266.040	1902
266.102	1855
266.163	799
266.224	585
266.286	958
266.347	-30
266.408	-11
266.469	798
266.530	861
266.592	166
266.653	772
266.714	1491
266.775	1459
266.836	439
266.898	563
266.959	1062
267.020	-45
267.081	1582
267.142	1361
267.203	1586
267.264	23
267.326	2606
267.387	1028
267.448	997
267.509	1892
267.570	1311
267.631	13
267.692	229
267.753	812
267.814	-74
267.875	-201
267.936	1225
267.997	684
268.058	-134
268.119	735
268.180	439
268.241	-132
268.302	283
268.363	58
268.424	197
268.485	-323
268.546	-1195
268.607	-1101
268.668	-375
268.729	-160
268.790	32
268.851	544
268.912	1
268.972	110
269.033	-145
269.094	-253
269.155	-65
269.216	-1210
269.277	-203
269.338	-502
269.398	-335
269.459	230
269.520	809
269.581	654
269.642	1058
269.702	-539
269.763	145
269.824	-50
269.885	89
269.945	344
270.006	-112
270.067	-489
270.128	-247
270.188	-177
270.249	461
270.310	60
270.370	761
270.431	-116
270.492	-941
270.553	815
270.613	-544
270.674	823
270.734	-855
270.795	-95
270.856	-295
270.916	-505
270.977	518
271.038	138
271.098	-189
271.159	-408
271.219	120
271.280	497
271.340	306
271.401	-328
271.462	519
271.522	13
271.583	-164
271.643	253
271.704	548
271.764	475
271.825	1157
271.885	4468
271.946	7574
272.006	1012
272.066	2628
272.127	6735
272.187	5282
272.248	2482
272.308	915
272.369	4673
272.429	2316
272.489	948
272.550	1818
272.610	1846
272.671	240
272.731	1260
272.791	760
272.852	1061
272.912	1092
272.972	1102
273.033	1417
273.093	745
273.153	2636
273.214	1976
273.274	2693
273.334	4065
273.394	7402
273.455	4631
273.515	4864
273.575	6476
273.635	4970
273.696	6131
273.756	9012
273.816	5629
273.876	4765
273.936	3886
273.997	4724
274.057	2022
274.117	1772
274.177	2083
274.237	5456
274.297	5306
274.358	3194
274.418	4205
274.478	2902
274.538	495
274.598	1056
274.658	2207
274.718	3114
274.778	1894
274.838	1111
274.898	1502
274.958	3427
275.018	4829
275.078	3614
275.138	1261
275.198	694
275.258	1302
275.318	161
275.378	473
275.438	918
275.498	629
275.558	1206
275.618	3422
275.678	2499
275.738	1965
275.798	1042
275.858	403
275.918	229
275.978	355
276.038	617
276.098	304
276.157	84
276.217	3224
276.277	1489
276.337	-138
276.397	508
276.457	1200
276.517	1237
276.576	1096
276.636	144
276.696	765
276.756	1478
276.815	1942
276.875	1303
276.935	1910
276.995	1236
277.055	1979
277.114	1434
277.174	2430
277.234	2514
277.293	1613
277.353	810
277.413	1109
277.472	645
277.532	1573
277.592	3621
277.651	13856
277.711	26736
277.771	9213
277.830	25985
277.890	24572
277.950	17124
278.009	48588
278.069	23066
278.128	19762
278.188	29892
278.248	15072
278.307	31898
278.367	19812
278.426	6424
278.486	4048
278.545	3427
278.605	2685
278.664	2882
278.724	2399
278.783	4324
278.843	8029
278.902	3888
278.962	3397
279.021	5039
279.081	11328
279.140	10611
279.199	6682
279.259	6937
279.318	8907
279.378	13180
279.437	20452
279.496	53084
279.556	153366
279.615	129796
279.675	48672
279.734	26248
279.793	26618
279.853	31969
279.912	15777
279.971	10772
280.031	9324
280.090	12755
280.149	21283
280.208	30603
280.268	107157
280.327	113832
280.386	35188
280.445	18156
280.505	12291
280.564	8781
280.623	6560
280.682	6060
280.742	6429
280.801	3971
280.860	3292
280.919	3346
280.978	3110
281.037	2558
281.097	2850
281.156	4827
281.215	3317
281.274	3130
281.333	4225
281.392	3930
281.451	2031
281.510	1925
281.569	1776
281.628	2533
281.688	1841
281.747	3001
281.806	1675
281.865	1927
281.924	1510
281.983	2209
282.042	1516
282.101	1667
282.160	1332
282.219	1585
282.278	1495
282.337	2142
282.396	1672
282.454	2059
282.513	1617
282.572	3050
282.631	1968
282.690	1351
282.749	1455
282.808	2624
282.867	2234
282.926	1598
282.985	2034
283.043	2139
283.102	2614
283.161	2194
283.220	3161
283.279	5388
283.338	2619
283.396	2275
283.455	2281
283.514	2877
283.573	3464
283.631	3082
283.690	2367
283.749	2654
283.808	3433
283.866	3030
283.925	2835
283.984	4420
284.043	3331
284.101	4570
284.160	4459
284.219	5513
284.277	5712
284.336	6053
284.395	7530
284.453	8950
284.512	8846
284.570	10766
284.629	10557
284.688	14300
284.746	18405
284.805	21746
284.863	27317
284.922	37151
284.981	42550
285.039	57140
285.098	77157
285.156	94221
285.215	75435
285.273	66925
285.332	86379
285.390	82053
285.449	63259
285.507	47534
285.566	35958
285.624	29686
285.683	23239
285.741	18446
285.799	14109
285.858	12558
285.916	10213
285.975	9590
286.033	8105
286.091	7187
286.150	5697
286.208	6026
286.267	5594
286.325	5341
286.383	4532
286.442	4739
286.500	3513
286.558	3176
286.616	2938
286.675	3310
286.733	3002
286.791	2711
286.850	2791
286.908	2383
286.966	2081
287.024	2480
287.083	1741
287.141	2345
287.199	2295
287.257	1651
287.315	2365
287.374	1892
287.432	1071
287.490	1865
287.548	733
287.606	1674
287.664	758
287.723	1957
287.781	2048
287.839	2032
287.897	1339
287.955	1377
288.013	1738
288.071	2745
288.129	8867
288.187	33773
288.245	14006
288.303	4147
288.361	2582
288.419	3252
288.477	1393
288.535	756
288.593	1324
288.651	1423
288.709	568
288.767	1332
288.825	47
288.883	795
288.941	531
288.999	882
289.057	1008
289.115	792
289.173	1172
289.231	795
289.289	718
289.346	454
289.404	1050
289.462	1109
289.520	1029
289.578	1122
289.636	395
289.694	950
289.751	304
289.809	862
289.867	396
289.925	1198
289.983	748
290.040	1094
290.098	136
290.156	163
290.214	253
290.271	-81
290.329	1565
290.387	1117
290.444	610
290.502	939
290.560	276
290.617	776
290.675	305
290.733	169
290.790	329
290.848	1012
290.906	-290
290.963	901
291.021	284
291.078	423
291.136	-174
291.194	588
291.251	1494
291.309	590
291.366	418
291.424	869
291.481	339
291.539	2377
291.596	3230
291.654	364
291.711	983
291.769	1426
291.826	679
291.884	802
291.941	502
291.999	341
292.056	733
292.114	-265
292.171	667
292.228	1518
292.286	804
292.343	1413
292.401	929
292.458	800
292.515	95
292.573	1052
292.630	690
292.687	1053
292.745	533
292.802	-111
292.859	2541
292.917	4973
292.974	1198
293.031	1520
293.089	1267
293.146	1075
293.203	872
293.260	66
293.318	775
293.375	779
293.432	38
293.489	1543
293.546	937
293.604	1802
293.661	5215
293.718	11022
293.775	4930
293.832	3633
293.889	5546
293.947	5086
294.004	1869
294.061	1147
294.118	1602
294.175	4208
294.232	6507
294.289	5231
294.346	1290
294.403	1491
294.460	938
294.517	1679
294.574	402
294.631	1021
294.688	576
294.745	1570
294.802	5602
294.859	4014
294.916	1768
294.973	683
295.030	670
295.087	498
295.144	606
295.201	1096
295.258	392
295.315	829
295.372	2222
295.429	4377
295.486	1252
295.542	907
295.599	1044
295.656	954
295.713	1483
295.770	3909
295.827	1363
295.883	887
295.940	-157
295.997	590
296.054	841
296.111	142
296.167	806
296.224	59
296.281	164
296.338	416
296.394	553
296.451	-232
296.508	938
296.564	2247
296.621	2178
296.678	4487
296.734	7275
296.791	2697
296.848	1371
296.904	258
296.961	1292
297.018	3103
297.074	2935
297.131	920
297.187	292
297.244	1125
297.301	4246
297.357	10663
297.414	3552
297.470	1604
297.527	1150
297.583	1382
297.640	1082
297.696	500
297.753	718
297.809	12
297.866	186
297.922	695
297.979	152
298.035	379
298.092	740
298.148	1097
298.204	2919
298.261	1444
298.317	3089
298.374	6436
298.430	3539
298.486	1420
298.543	666
298.599	347
298.656	355
298.712	234
298.768	2261
298.824	1738
298.881	310
298.937	598
298.993	-74
299.050	666
299.106	744
299.162	611
299.218	318
299.275	477
299.331	703
299.387	2573
299.443	7850
299.500	16306
299.556	11556
299.612	4397
299.668	4023
299.724	10869
299.780	14716
299.837	5754
299.893	3521
299.949	9680
300.005	15734
300.061	11245
300.117	20798
300.173	9721
300.229	3816
300.285	2160
300.341	2116
300.397	1217
300.453	1190
300.510	1053
300.566	2030
300.622	4665
300.678	16263
300.734	24441
300.790	11891
300.845	9627
300.901	10543
300.957	17485
301.013	7927
301.069	2859
301.125	3090
301.181	2208
301.237	660
301.293	688
301.349	420
301.405	1013
301.461	699
301.516	-10
301.572	313
301.628	369
301.684	898
301.740	1429
301.796	1807
301.851	1567
301.907	1616
301.963	2701
302.019	5060
302.074	15646
302.130	16302
302.186	7268
302.242	2342
302.297	1090
302.353	1727
302.409	2261
302.464	1673
302.520	1364
302.576	3544
302.631	5883
302.687	2157
302.743	1212
302.798	396
302.854	-268
302.910	386
302.965	464
303.021	1010
303.076	1887
303.132	181
303.187	744
303.243	103
303.299	432
303.354	-49
303.410	642
303.465	44
303.521	902
303.576	-21
303.632	477
303.687	1141
303.743	4039
303.798	4163
303.853	1932
303.909	747
303.964	86
304.020	737
304.075	1055
304.130	708
304.186	746
304.241	1778
304.297	1531
304.352	139
304.358	169
304.407	413
304.449	1169
304.463	1426
304.518	107
304.539	-62
304.573	-342
304.629	-13
304.630	-5
304.684	373
304.720	1948
304.739	2724
304.794	6315
304.811	5189
304.850	2536
304.902	837
304.905	724
304.960	475
304.992	536
305.015	589
305.071	114
305.083	173
305.126	379
305.173	74
305.181	27
305.236	26
305.264	393
305.292	742
305.347	58
305.354	144
305.402	703
305.445	365
305.457	267
305.512	987
305.535	728
305.567	399
305.622	514
305.626	543
305.678	1262
305.716	3428
305.733	4196
305.788	4981
305.807	4238
305.843	3169
305.897	4084
305.898	4087
305.953	5126
305.988	3180
306.008	2189
306.063	1057
306.078	1048
306.118	1101
306.168	488
306.173	418
306.228	219
306.259	-3
306.283	-76
306.338	-152
306.349	18
306.393	507
306.440	391
306.448	432
306.503	498
306.530	541
306.558	488
306.613	1444
306.620	1427
306.668	1546
306.711	2468
306.723	2569
306.778	2312
306.801	1892
306.833	1520
306.888	813
306.892	829
306.943	1146
306.982	867
306.997	727
307.052	878
307.072	700
307.107	502
307.162	411
307.163	416
307.217	1002
307.253	1182
307.272	1273
307.327	413
307.343	533
307.381	857
307.434	677
307.436	690
307.491	1940
307.524	2145
307.546	1970
307.600	2484
307.614	2265
307.655	1734
307.704	1694
307.710	1695
307.765	576
307.795	815
307.819	1160
307.874	1601
307.885	1626
307.929	1588
307.975	1696
307.984	1799
308.038	3392
308.065	3686
308.093	5198
308.148	9709
308.156	11049
308.202	17197
308.246	21418
308.257	21366
308.312	10493
308.336	7353
308.366	5676
308.421	4127
308.426	4023
308.475	3382
308.517	3414
308.530	3416
308.585	3381
308.607	3245
308.639	3142
308.694	3626
308.697	3642
308.748	3985
308.787	4026
308.803	4033
308.857	4162
308.877	4438
308.912	5418
308.967	7244
308.967	7280
309.021	12128
309.058	16290
309.076	18719
309.130	28290
309.148	30870
309.185	40903
309.238	56441
309.239	56617
309.293	70669
309.328	72562
309.348	66935
309.402	41558
309.418	34783
309.457	26893
309.508	20469
309.511	20571
309.566	26310
309.598	31358
309.620	39894
309.674	65873
309.688	72850
309.729	70068
309.778	56088
309.783	54614
309.837	33756
309.868	23829
309.892	20393
309.946	14555
309.959	13688
310.001	11704
310.049	9505
310.055	9263
310.109	7455
310.139	6460
310.163	5319
310.218	3220
310.229	2872
310.272	2919
310.319	2996
310.326	2883
310.381	1945
310.409	1699
310.435	1768
310.489	1714
310.499	1742
310.543	1808
310.589	1729
310.598	1704
310.652	1728
310.679	1628
310.706	1374
310.760	1161
310.769	1098
310.814	1370
310.859	1819
310.868	1864
310.923	1805
310.948	1856
310.977	1802
311.031	1766
311.038	1741
311.085	1534
311.128	1275
311.139	1316
311.193	1758
311.218	1877
311.247	1793
311.301	1757
311.308	1731
311.356	1580
311.398	1472
311.410	1485
311.464	1569
311.488	1608
311.518	1476
311.572	1200
311.578	1168
311.626	1491
311.668	1760
311.680	1726
311.734	1553
311.758	1487
311.788	1446
311.842	1365
311.847	1356
311.896	1494
311.937	1599
311.950	1653
312.004	1914
312.027	2016
312.058	1898
312.112	1691
312.117	1670
312.165	1541
312.207	1432
312.297	988
312.386	1285
312.476	2019
312.566	1143
312.656	2209
312.745	1631
312.835	1158
312.925	1891
313.015	1930
313.104	1934
313.194	2419
313.284	1143
313.374	1890
313.463	2167
313.553	1723
313.643	1885
313.732	2681
313.822	2482
313.912	2395
314.001	3097
314.091	3382
314.180	2917
314.270	3489
314.360	2436
314.449	2479
314.539	1919
314.628	2414
314.718	2314
314.808	3693
314.897	2950
314.987	4177
315.076	3916
315.166	3190
315.255	3627
315.345	3058
315.434	2620
315.524	3766
315.613	4141
315.703	6716
315.792	19861
315.881	71800
315.971	19678
316.060	5972
316.150	3306
316.239	3154
316.328	2852
316.418	3278
316.507	3060
316.597	4008
316.686	3795
316.775	2710
316.865	3504
316.954	3175
317.043	2931
317.133	1980
317.222	3136
317.311	2388
317.400	1174
317.490	4363
317.579	3625
317.668	5312
317.757	10885
317.847	34643
317.936	105568
318.025	29219
318.114	26568
318.203	9656
318.293	3902
318.382	4372
318.471	5034
318.560	4792
318.649	4179
318.738	1816
318.828	1996
318.917	1330
319.006	1503
319.095	1494
319.184	2777
319.273	2389
319.362	2522
319.451	1515
319.540	1689
319.629	1414
319.718	2966
319.807	2062
319.896	1404
319.985	3310
320.074	2595
320.163	1476
320.252	1851
320.341	2144
320.430	1494
320.519	2330
320.608	1935
320.697	3122
320.786	3692
320.875	4539
320.964	3991
321.053	5114
321.142	4937
321.230	6038
321.319	6836
321.408	8242
321.497	8088
321.586	6848
321.675	5013
321.764	4343
321.852	4958
321.941	4842
322.030	3869
322.119	4882
322.207	7685
322.296	7431
322.385	8656
322.474	10803
322.562	12563
322.651	7930
322.740	6694
322.829	6010
322.917	4109
323.006	3094
323.095	3316
323.183	2553
323.272	2856
323.361	2943
323.449	3916
323.538	2704
323.626	2587
323.715	2445
323.804	1022
323.892	2121
323.981	2412
324.069	1708
324.158	1741
324.246	2186
324.335	2142
324.424	2112
324.512	1356
324.601	1544
324.689	2183
324.778	2397
324.866	2021
324.954	1756
325.043	1096
325.131	1286
325.220	2840
325.308	973
325.397	1653
325.485	2064
325.574	696
325.662	999
325.750	736
325.839	1854
325.927	1693
326.015	1062
326.104	1826
326.192	1140
326.280	1944
326.369	1021
326.457	1666
326.545	1730
326.634	1543
326.722	1615
326.810	1481
326.898	1687
326.987	2757
327.075	937
327.163	2420
327.251	2317
327.340	1937
327.428	2576
327.516	3675
327.604	2574
327.692	2048
327.781	1684
327.869	1014
327.957	1460
328.045	1290
328.133	1249
328.221	804
328.309	1089
328.397	1514
328.485	1794
328.574	4132
328.662	6211
328.750	2611
328.838	1018
328.926	1584
329.014	1322
329.102	1175
329.190	1956
329.278	1062
329.366	1264
329.454	1262
329.542	1453
329.630	376
329.718	1067
329.806	1370
329.893	2512
329.981	814
330.069	1135
330.157	1496
330.245	2591
330.333	985
330.421	382
330.509	1287
330.597	2555
330.684	1315
330.772	1180
330.860	803
330.948	1239
331.036	1309
331.123	1146
331.211	1146
331.299	1205
331.387	1942
331.475	1321
331.562	1016
331.650	999
331.738	1711
331.825	1382
331.913	1405
332.001	1291
332.089	1066
332.176	1031
332.264	2116
332.352	1074
332.439	2086
332.527	1688
332.614	2017
332.702	1279
332.790	950
332.877	2652
332.965	8113
333.052	6939
333.140	9599
333.228	21164
333.315	5138
333.403	3217
333.490	3423
333.578	10117
333.665	32738
333.753	11326
333.840	2830
333.928	2752
334.015	3460
334.103	4010
334.190	4921
334.278	7118
334.365	11117
334.452	11072
334.540	5707
334.627	6079
334.715	8168
334.802	12103
334.889	20972
334.977	29475
335.064	18427
335.151	8137
335.239	5479
335.326	4382
335.413	3875
335.501	4529
335.588	5007
335.675	5025
335.762	6869
335.850	8736
335.937	13662
336.024	24668
336.111	42107
336.199	37224
336.286	16475
336.373	7917
336.460	5103
336.547	4322
336.635	3620
336.722	2788
336.809	2215
336.896	2519
336.983	3316
337.070	3049
337.157	3200
337.245	3323
337.332	2726
337.419	1874
337.506	2475
337.593	1976
337.680	2072
337.767	2983
337.854	1509
337.941	1941
338.028	1609
338.115	1290
338.202	2123
338.289	1828
338.376	1777
338.463	2205
338.550	1767
338.637	1075
338.724	1477
338.811	1883
338.898	2392
338.984	1040
339.071	429
339.158	1797
339.245	1969
339.332	1170
339.419	1376
339.506	1902
339.593	518
339.679	1366
339.766	1467
339.853	1155
339.940	1584
340.027	1641
340.113	1010
340.200	1585
340.287	1577
340.374	1456
340.460	1911
340.547	234
340.634	2030
340.720	2754
340.807	1363
340.894	1635
340.980	598
341.067	1829
341.154	1993
341.240	1605
341.327	1221
341.414	1407
341.500	792
341.587	1648
341.674	2135
341.760	2183
341.847	1606
341.933	1446
342.020	143
342.106	1995
342.193	758
342.279	1632
342.366	832
342.452	2101
342.539	1458
342.625	2727
342.712	2739
342.798	2221
342.885	1006
342.971	1130
343.058	1146
343.144	1157
343.230	1224
343.317	1210
343.403	969
343.490	1023
343.576	914
343.662	1231
343.749	734
343.835	1161
343.921	3168
344.008	11073
344.094	18556
344.180	4557
344.267	1813
344.353	3407
344.439	2742
344.525	1403
344.612	1560
344.698	1037
344.784	625
344.870	1603
344.957	1119
345.043	1943
345.129	810
345.215	1946
345.301	1674
345.387	1059
345.474	1350
345.560	10
345.646	65
345.732	1145
345.818	1239
345.904	1641
345.990	833
346.076	1169
346.162	886
346.249	1613
346.335	775
346.421	1578
346.507	2619
346.593	5845
346.679	870
346.765	2733
346.851	3374
346.937	1560
347.023	2379
347.108	1065
347.194	1167
347.280	2023
347.366	2842
347.452	9450
347.538	11774
347.624	7375
347.710	3655
347.796	1480
347.882	1064
347.967	946
348.053	809
348.139	1760
348.225	1570
348.311	706
348.397	1440
348.482	2046
348.568	1656
348.654	2870
348.740	11603
348.825	8782
348.911	4756
348.997	5141
349.083	7971
349.168	1532
349.254	651
349.340	1451
349.425	1241
349.511	1225
349.597	1107
349.682	1548
349.768	3519
349.854	1671
349.939	1885
350.025	1308
350.110	1354
350.196	1267
350.282	690
350.367	2168
350.453	998
350.538	1174
350.624	717
350.709	1186
350.795	360
350.880	1478
350.966	1905
351.051	1706
351.137	1406
351.222	676
351.308	1585
351.393	2866
351.479	1384
351.564	655
351.649	1514
351.735	1242
351.820	753
351.906	1121
351.991	1219
352.076	1834
352.162	2842
352.247	1206
352.332	1629
352.418	910
352.503	1091
352.588	4058
352.673	2434
352.759	1767
352.844	1199
352.929	1502
353.014	1010
353.100	1311
353.185	1989
353.270	1800
353.355	1870
353.441	1896
353.526	836
353.611	1906
353.696	1348
353.781	1981
353.866	899
353.952	2109
354.037	1919
354.122	2757
354.207	1661
354.292	1572
354.377	1657
354.462	1873
354.547	490
354.632	2000
354.717	2153
354.802	1628
354.887	585
354.972	1108
355.057	1301
355.142	950
355.227	1877
355.312	1659
355.397	2218
355.482	1914
355.567	1332
355.652	1705
355.737	1999
355.822	4277
355.907	1944
355.991	1720
356.076	466
356.161	1865
356.246	1522
356.331	1882
356.416	1448
356.501	11029
356.585	6776
356.670	158
356.755	3301
356.840	1809
356.924	8593
357.009	22037
357.094	7075
357.179	2048
357.263	1634
357.348	2195
357.433	1049
357.517	1401
357.602	1439
357.687	1489
357.771	1915
357.856	1705
357.941	2363
358.025	7937
358.110	29262
358.195	11094
358.279	2077
358.364	2501
358.448	3986
358.533	7562
358.617	4364
358.702	5429
358.787	2143
358.871	2304
358.956	1868
359.040	1123
359.125	1039
359.209	1982
359.294	1781
359.378	3137
359.462	2400
359.547	654
359.631	1854
359.716	196
359.800	1096
359.885	2026
359.969	747
360.053	1877
360.138	1722
360.222	1257
360.306	1458
360.391	1435
360.475	2073
360.559	1815
360.644	2799
360.728	1218
360.812	6613
360.896	12846
360.981	4305
361.065	1674
361.149	1398
361.233	1882
361.318	378
361.402	1805
361.486	3059
361.570	1554
361.654	2160
361.739	2878
361.823	10555
361.907	14307
361.991	3898
362.075	4128
362.159	5191
362.243	12543
362.327	30154
362.411	44515
362.495	14994
362.580	6679
362.664	6164
362.748	7239
362.832	12107
362.916	27633
363.000	84092
363.084	114889
363.168	47146
363.252	12319
363.336	6859
363.420	5770
363.503	5147
363.587	4315
363.671	3809
363.755	2939
363.839	6048
363.923	4155
364.007	6324
364.091	8355
364.175	13720
364.258	35288
364.342	93913
364.426	170663
364.510	79453
364.594	22637
364.677	12262
364.761	15231
364.845	9787
364.929	3608
365.013	3519
365.096	3179
365.180	1434
365.264	2972
365.347	3958
365.431	2184
365.515	1213
365.598	1322
365.682	2551
365.766	1230
365.849	1435
365.933	1137
366.017	3357
366.100	922
366.184	910
366.267	2953
366.351	1839
366.435	1350
366.518	1781
366.602	1856
366.685	1714
366.769	1260
366.852	2210
366.936	2918
367.019	2798
367.103	683
367.186	3323
367.270	2180
367.353	1699
367.436	3426
367.520	1689
367.603	2585
367.687	1205
367.770	2260
367.853	3189
367.937	4945
368.020	4795
368.104	1558
368.187	3027
368.270	2418
368.353	1520
368.437	965
368.520	2258
368.603	1991
368.687	2216
368.770	3804
368.853	1970
368.936	2171
369.020	2423
369.103	1568
369.186	1274
369.269	1349
369.352	2061
369.436	1012
369.519	1131
369.602	-401
369.685	2814
369.768	320
369.851	2127
369.934	1113
370.018	1130
370.101	1183
370.184	4178
370.267	2044
370.350	2126
370.433	2949
370.516	14451
370.599	37672
370.682	13173
370.765	6073
370.848	6379
370.931	6860
371.014	4153
371.097	876
371.180	2171
371.263	3010
371.346	1038
371.429	3210
371.511	1968
371.594	1835
371.677	2832
371.760	3805
371.843	3686
371.926	14018
372.009	22241
372.091	11218
372.174	5311
372.257	9775
372.340	5139
372.423	4928
372.505	5042
372.588	3368
372.671	5191
372.754	6897
372.836	5080
372.919	3789
373.002	4045
373.085	2487
373.167	4160
373.250	5649
373.332	8926
373.415	18783
373.498	29876
373.580	19897
373.663	61581
373.746	52466
373.828	9070
373.911	5760
373.993	2335
374.076	3680
374.159	3543
374.241	3339
374.324	6547
374.406	5729
374.489	10197
374.571	19957
374.654	6862
374.736	6296
374.819	13452
374.901	23729
374.983	20229
375.066	5282
375.148	3569
375.231	3249
375.313	4833
375.395	3537
375.478	2582
375.560	4040
375.643	3961
375.725	6699
375.807	16377
375.890	11006
375.972	2165
376.054	3642
376.136	2625
376.219	2216
376.301	6878
376.383	10720
376.465	4687
376.548	2585
376.630	3825
376.712	9471
376.794	4263
376.877	1752
376.959	1024
377.041	2056
377.123	1657
377.205	1854
377.287	1625
377.369	1485
377.452	894
377.534	1887
377.616	2159
377.698	2263
377.780	1104
377.862	2489
377.944	2133
378.026	709
378.108	2192
378.190	1429
378.272	2199
378.354	835
378.436	879
378.518	1280
378.600	2012
378.682	2369
378.764	4131
378.846	3363
378.928	1095
379.010	980
379.091	2743
379.173	2004
379.255	1006
379.337	1292
379.419	2956
379.501	5831
379.583	3099
379.664	1232
379.746	1372
379.828	4493
379.910	3865
379.991	4456
380.073	1526
380.155	1463
380.237	1812
380.318	1755
380.400	1855
380.482	2662
380.564	1731
380.645	3069
380.727	3166
380.809	2625
380.890	2470
380.972	1409
381.053	3010
381.135	3379
381.217	3414
381.298	5847
381.380	3007
381.461	4114
381.543	10961
381.624	11554
381.706	4801
381.787	3348
381.869	5349
381.951	10282
382.032	24028
382.113	16903
382.195	4756
382.276	7948
382.358	8250
382.439	13956
382.521	19148
382.602	27322
382.684	21403
382.765	38515
382.846	109859
382.928	225713
383.009	119149
383.090	105983
383.172	296234
383.253	343796
383.334	108708
383.416	48133
383.497	34939
383.578	42693
383.659	89697
383.741	263477
383.822	465204
383.903	230688
383.984	64348
384.066	37724
384.147	21491
384.228	14566
384.309	12574
384.390	10420
384.471	9313
384.553	8705
384.634	8733
384.715	8590
384.796	7076
384.877	6728
384.958	10503
385.039	8073
385.120	6973
385.201	6425
385.282	5827
385.363	8389
385.444	9148
385.525	9284
385.606	12117
385.687	9455
385.768	6121
385.849	6398
385.930	16133
386.011	20780
386.092	8406
386.173	6339
386.254	4963
386.335	5709
386.416	4015
386.496	5705
386.577	6559
386.658	5067
386.739	3869
386.820	6367
386.901	4323
386.981	6652
387.062	7492
387.143	7570
387.224	10367
387.304	9641
387.385	9314
387.466	5875
387.547	8915
387.627	8289
387.708	10188
387.789	14533
387.869	12304
387.950	8994
388.031	5427
388.111	3829
388.192	6966
388.273	8474
388.353	6172
388.434	3668
388.514	4780
388.595	11512
388.676	9960
388.756	5763
388.837	5199
388.917	3941
388.998	1813
389.078	3733
389.159	4364
389.239	1048
389.320	4854
389.400	693
389.480	3805
389.561	5398
389.641	5141
389.722	3046
389.802	1922
389.883	4435
389.963	7414
390.043	4043
390.124	1883
390.204	3234
390.284	4524
390.365	3204
390.445	3148
390.525	3941
390.605	4549
390.686	2247
390.766	4078
390.846	4076
390.927	2295
391.007	2013
391.087	3321
391.167	2903
391.247	1863
391.328	4764
391.408	3662
391.488	3969
391.568	2408
391.648	4666
391.728	5264
391.808	6285
391.888	5796
391.969	6630
392.049	7683
392.129	7263
392.209	7488
392.289	11747
392.369	9527
392.449	9683
392.529	9995
392.609	13467
392.689	15672
392.769	19893
392.849	23661
392.929	30912
393.009	42992
393.089	64391
393.169	126823
393.248	311790
393.328	606754
393.408	557132
393.488	261277
393.568	104229
393.648	55060
393.728	33988
393.807	22788
393.887	18895
393.967	15410
394.047	12428
394.127	10074
394.206	10501
394.286	16300
394.366	43792
394.446	38077
394.525	9454
394.605	6662
394.685	6516
394.764	7735
394.844	13010
394.924	15205
395.003	6534
395.083	5413
395.163	5145
395.242	4101
395.322	5515
395.402	2290
395.481	6585
395.561	6733
395.640	22033
395.720	39352
395.799	16346
395.879	7375
395.958	7595
396.038	19354
396.117	61822
396.197	55786
396.276	18358
396.356	13938
396.435	18377
396.515	25043
396.594	41814
396.673	96901
396.753	285173
396.832	531775
396.912	364308
396.991	121017
397.070	49036
397.150	27343
397.229	23636
397.308	41306
397.388	60989
397.467	26121
397.546	10849
397.625	5300
397.705	8355
397.784	5504
397.863	4723
397.942	4671
398.022	4116
398.101	2966
398.180	3649
398.259	3083
398.338	3174
398.417	2444
398.497	1592
398.576	3113
398.655	1787
398.734	2536
398.813	1951
398.892	2365
398.971	2809
399.050	1762
399.129	614
399.208	2079
399.287	1563
399.366	641
399.445	1758
399.524	1587
399.603	-63
399.682	1530
399.761	1854
399.840	2587
399.919	2698
399.998	1151
400.077	-288
400.156	399
400.235	3309
400.313	573
400.392	331
400.471	2834
400.550	2626
400.629	780
400.708	711
400.786	297
400.865	67
400.944	-760
401.023	1941
401.102	915
401.180	1309
401.259	536
401.338	502
401.416	810
401.495	89
401.574	-46
401.652	906
401.731	1819
401.810	-743
401.888	651
401.967	180
402.046	1127
402.124	1010
402.203	-1081
402.281	1213
402.360	191
402.438	845
402.517	-1485
402.596	233
402.674	-117
402.753	310
402.831	1462
402.910	1727
402.988	3201
403.066	8905
403.145	5001
403.223	4903
403.302	8012
403.380	7336
403.459	5490
403.537	2619
403.615	1419
403.694	401
403.772	1532
403.850	635
403.929	499
404.007	100
404.085	2193
404.164	1136
404.242	800
404.320	2684
404.398	3104
404.477	3447
404.555	12907
404.633	9102
404.711	2447
404.789	1231
404.868	-264
404.946	-830
405.024	-231
405.102	-125
405.180	125
405.258	-535
405.336	1003
405.415	-1483
405.493	1249
405.571	880
405.649	34
405.727	-676
405.805	1684
405.883	1595
405.961	1216
406.039	153
406.117	-402
406.195	1381
406.273	2027
406.351	8196
406.429	4082
406.507	-522
406.585	-1296
406.663	851
406.740	-246
406.818	-51
406.896	-375
406.974	1164
407.052	-228
407.130	5196
407.208	5128
407.285	1399
407.363	387
407.441	-175
407.519	-10
407.596	779
407.674	2204
407.752	4659
407.830	3245
407.907	1353
407.985	-76
408.063	-114
408.141	109
408.218	995
408.296	-696
408.373	-311
408.451	1100
408.529	973
408.606	214
408.684	1124
408.762	1079
408.839	297
408.917	834
408.994	829
409.072	739
409.149	2965
409.227	8053
409.304	10178
409.382	10723
409.459	12787
409.537	17112
409.614	13519
409.692	9725
409.769	9743
409.846	18728
409.924	21363
410.001	12084
410.079	7800
410.156	5555
410.233	4045
410.311	3281
410.388	2366
410.465	2104
410.543	1785
410.620	2388
410.697	3124
410.775	1716
410.852	869
410.929	2862
411.006	3171
411.083	1418
411.161	1944
411.238	1912
411.315	1198
411.392	806
411.469	1737
411.547	555
411.624	-204
411.701	401
411.778	742
411.855	656
411.932	-155
412.009	611
412.086	671
412.163	191
412.240	-252
412.317	1248
412.394	460
412.471	943
412.548	-437
412.625	564
412.702	-509
412.779	1005
412.856	296
412.933	-489
413.010	260
413.087	284
413.164	493
413.241	757
413.318	-364
413.395	820
413.471	715
413.548	622
413.625	728
413.702	-481
413.779	-577
413.855	276
413.932	-491
414.009	-1427
414.086	-403
414.162	155
414.239	545
414.316	872
414.393	3104
414.469	-928
414.546	-772
414.623	-72
414.699	305
414.776	-170
414.853	-736
414.929	-273
415.006	-786
415.082	-315
415.159	164
415.236	730
415.312	820
415.389	-102
415.465	-585
415.542	-60
415.618	-1030
415.695	366
415.771	-915
415.848	-62
415.924	-136
416.000	391
416.077	643
416.153	-709
416.230	-1318
416.306	34
416.383	-3
416.459	1116
416.535	-514
416.612	130
416.688	378
416.764	1275
416.841	187
416.917	986
416.993	-923
417.069	854
417.146	-685
417.222	-164
417.298	-336
417.374	-631
417.451	-111
417.527	-1062
417.603	-62
417.679	-346
417.755	-447
417.831	-1011
417.908	-1053
417.984	-215
418.060	-1110
418.136	-592
418.212	-106
418.288	-387
418.364	-164
418.440	-425
418.516	657
418.592	324
418.668	-842
418.744	-277
418.820	-237
418.896	403
418.972	-148
419.048	-206
419.124	1543
419.200	-1354
419.276	-67
419.352	229
419.428	-607
419.504	-511
419.579	173
419.655	-24
419.731	631
419.807	67
419.883	259
419.959	1179
420.034	292
420.110	473
420.186	1502
420.262	1778
420.337	671
420.413	1008
420.489	315
420.565	1467
420.640	1037
420.716	2379
420.792	474
420.867	2630
420.943	859
421.019	2008
421.094	1643
421.170	2340
421.245	2068
421.321	2671
421.397	2510
421.472	5050
421.548	6509
421.623	6146
421.699	5625
421.774	6018
421.850	6839
421.925	9122
422.001	10622
422.076	13452
422.152	17097
422.227	24324
422.302	35041
422.378	54210
422.453	92761
422.529	161897
422.604	204648
422.679	183172
422.755	200381
422.830	148881
422.905	86848
422.981	52522
423.056	35758
423.131	26116
423.207	18670
423.282	14666
423.357	12697
423.432	9643
423.508	8103
423.583	7127
423.658	6994
423.733	5685
423.808	5329
423.883	6000
423.959	6293
424.034	8427
424.109	7459
424.184	3528
424.259	2778
424.334	2571
424.409	1480
424.484	1703
424.559	1580
424.634	1119
424.709	1159
424.784	1588
424.859	726
424.934	1052
425.009	1371
425.084	3003
425.159	487
425.234	1304
425.309	787
425.384	546
425.459	-780
425.534	208
425.609	116
425.683	228
425.758	869
425.833	611
425.908	1179
425.983	-134
426.058	2050
426.132	451
426.207	-407
426.282	497
426.357	-584
426.431	224
426.506	1007
426.581	367
426.655	-121
426.730	229
426.805	-327
426.879	495
426.954	96
427.029	605
427.103	2592
427.178	5581
427.253	1304
427.327	382
427.402	-291
427.476	111
427.551	57
427.625	-23
427.700	93
427.774	-1080
427.849	841
427.923	-119
427.998	101
428.072	1243
428.147	4982
428.221	33363
428.296	86691
428.370	38664
428.444	4760
428.519	1878
428.593	993
428.667	932
428.742	3075
428.816	10343
428.890	57841
428.965	71778
429.039	13978
429.113	2569
429.188	323
429.262	234
429.336	1120
429.410	1021
429.485	902
429.559	830
429.633	737
429.707	2230
429.781	10093
429.855	53312
429.930	62902
430.004	14132
430.078	8673
430.152	36497
430.226	121743
430.300	97862
430.374	17633
430.448	5344
430.522	2603
430.596	3771
430.670	17983
430.744	72316
430.818	62783
430.892	9774
430.966	689
431.040	294
431.114	-68
431.188	-532
431.262	-94
431.336	-274
431.410	-75
431.484	-535
431.557	892
431.631	681
431.705	4537
431.779	25389
431.853	84633
431.927	45375
432.000	5726
432.074	979
432.148	119
432.222	-216
432.295	-389
432.369	-1243
432.443	-230
432.516	2293
432.590	5505
432.664	487
432.737	-1658
432.811	-1103
432.885	-1028
432.958	-502
433.032	-713
433.106	-979
433.179	-940
433.253	-676
433.326	-612
433.400	-807
433.473	-68
433.547	-736
433.620	-1063
433.694	-1158
433.767	-430
433.841	-736
433.914	-644
433.988	-1384
434.061	-708
434.134	-528
434.208	-844
434.281	-1121
434.355	-705
434.428	-1210
434.501	-863
434.575	-1204
434.648	-1568
434.721	-1127
434.795	-756
434.868	-369
434.941	-835
435.014	-375
435.088	318
435.161	756
435.234	3400
435.307	2812
435.381	2602
435.454	5697
435.527	9168
435.600	8636
435.673	6722
435.746	3830
435.819	2078
435.892	1251
435.966	955
436.039	-542
436.112	488
436.185	-157
436.258	-308
436.331	-208
436.404	-226
436.477	-1335
436.550	-840
436.623	-215
436.696	-797
436.769	-597
436.842	-1393
436.915	-1166
436.987	-1004
437.060	-919
437.133	-800
437.206	-1354
437.279	-5
437.352	-792
437.425	-792
437.498	-371
437.570	-211
437.643	-284
437.716	-519
437.789	-1510
437.861	-1026
437.934	-1624
438.007	-879
438.080	-1981
438.152	-1092
438.225	-171
438.298	4444
438.370	10369
438.443	1916
438.516	-1101
438.588	-1091
438.661	-1130
438.734	-966
438.806	-1466
438.879	-1266
438.951	-1506
439.024	-1010
439.096	-1268
439.169	-511
439.241	-1784
439.314	-1082
439.386	-1417
439.459	-688
439.531	-1399
439.604	-1117
439.676	-511
439.749	-948
439.821	-690
439.893	-911
439.966	-605
440.038	-825
440.110	-1317
440.183	-1252
440.255	-1046
440.327	-327
440.400	613
440.472	4114
440.544	614
440.617	-982
440.689	662
440.761	-553
440.833	-532
440.905	-670
440.978	-1562
441.050	-1484
441.122	-1145
441.194	-574
441.266	-717
441.338	-1757
441.411	149
441.483	530
441.555	825
441.627	-1129
441.699	-1036
441.771	-771
441.843	27
441.915	-640
441.987	-305
442.059	640
442.131	663
442.203	833
442.275	1056
442.347	4323
442.419	14662
442.491	73966
442.563	125693
442.635	40710
442.706	6841
442.778	2744
442.850	945
442.922	1948
442.994	921
443.066	1305
443.137	1950
443.209	3902
443.281	7850
443.353	20142
443.425	82758
443.496	212924
443.568	195488
443.640	69241
443.711	14555
443.783	5512
443.855	2954
443.926	1626
443.998	1359
444.070	1184
444.141	760
444.213	150
444.285	875
444.356	575
444.428	-653
444.499	505
444.571	-107
444.642	418
444.714	-34
444.785	121
444.857	961
444.928	932
445.000	1630
445.071	3026
445.143	3746
445.214	6855
445.285	13817
445.357	42400
445.428	149809
445.500	240313
445.571	179851
445.642	108792
445.714	31562
445.785	8643
445.856	2977
445.928	1987
445.999	717
446.070	1004
446.141	1364
446.213	511
446.284	-85
446.355	-368
446.426	-583
446.497	-730
446.569	-889
446.640	-645
446.711	-348
446.782	-873
446.853	-757
446.924	-672
446.995	-322
447.066	-1034
447.138	-697
447.209	-675
447.280	-1627
447.351	-1398
447.422	-1383
447.493	-893
447.564	-1062
447.635	-1203
447.706	-1599
447.777	-1240
447.847	-1191
447.918	-1274
447.989	-860
448.060	-1067
448.131	-599
448.202	-1392
448.273	-1236
448.344	-898
448.414	-324
448.485	-1258
448.556	-495
448.627	-1759
448.698	-73
448.768	-921
448.839	-301
448.910	-1517
448.981	-584
449.051	-900
449.122	-1538
449.193	-912
449.263	-1340
449.334	-1674
449.405	-1534
449.475	-917
449.546	-632
449.616	-612
449.687	-571
449.758	-1054
449.828	-1547
449.899	-1601
449.969	-1546
450.040	-1844
450.110	-1789
450.181	-981
450.251	-1139
450.322	-1264
450.392	-434
450.463	-1204
450.533	-1239
450.604	-1359
450.674	-1023
450.744	-36
450.815	-908
450.885	-790
450.955	66
451.026	-537
451.096	-896
451.166	-642
451.237	-638
451.307	400
451.377	-145
451.447	-1214
451.518	-736
451.588	-1059
451.658	-712
451.728	-849
451.799	-1757
451.869	-1623
451.939	-1563
452.009	-1103
452.079	-1219
452.149	-969
452.219	-1513
452.289	-1179
452.360	-1933
452.430	-1053
452.500	-862
452.570	1869
452.640	7808
452.710	19014
452.780	17715
452.850	6708
452.920	1491
452.990	924
453.060	-60
453.129	-1266
453.199	-1984
453.269	-387
453.339	-873
453.409	-1363
453.479	-408
453.549	-272
453.619	256
453.688	-692
453.758	-1364
453.828	-1362
453.898	-1138
453.968	-1966
454.037	-1147
454.087	-1114
454.107	-1117
454.168	-1400
454.177	-1462
454.247	-636
454.249	-651
454.316	-1517
454.330	-1385
454.386	-910
454.411	-999
454.456	-1275
454.492	-1394
454.525	-1503
454.574	-1153
454.595	-1027
454.655	-913
454.665	-921
454.734	-1133
454.736	-1104
454.804	-846
454.817	-761
454.873	-419
454.898	-328
454.943	-287
454.979	-659
455.013	-1009
455.060	-1026
455.082	-1105
455.141	-1006
455.152	-987
455.221	160
455.222	177
455.291	-220
455.303	-366
455.360	-1087
455.384	-396
455.430	603
455.465	93
455.499	-436
455.546	-523
455.569	-556
455.627	-1047
455.638	-1161
455.707	-613
455.708	-593
455.777	-318
455.789	-310
455.846	-353
455.869	-371
455.916	-461
455.950	-601
455.985	-797
456.031	-889
456.054	-965
456.112	-468
456.124	-386
456.193	-121
456.193	-141
456.262	-153
456.274	-29
456.332	580
456.355	255
456.401	-481
456.436	-317
456.470	-183
456.516	417
456.540	632
456.597	-76
456.609	-219
456.678	73
456.678	53
456.747	-362
456.759	-237
456.817	228
456.840	221
456.886	217
456.920	676
456.955	1267
457.001	1323
457.024	1156
457.082	1576
457.093	1669
457.162	1129
457.163	1154
457.232	887
457.243	866
457.301	1167
457.324	1275
457.370	1267
457.405	1658
457.439	2204
457.485	2082
457.508	1920
457.566	2599
457.577	2938
457.646	5320
457.647	5379
457.715	15425
457.727	17843
457.784	34272
457.808	45039
457.853	55855
457.889	60723
457.922	54509
457.969	34141
457.991	36298
458.050	50862
458.060	53772
458.129	94276
458.130	95343
458.198	81110
458.211	71984
458.267	34175
458.292	21371
458.336	14957
458.372	14567
458.405	23613
458.453	39429
458.474	51857
458.533	96702
458.543	99741
458.611	143170
458.614	143675
458.680	71328
458.694	53453
458.749	23354
458.775	15344
458.818	8981
458.855	7090
458.887	6341
458.936	4647
458.955	4059
459.016	3320
459.024	3335
459.093	3851
459.097	3877
459.162	3107
459.177	2958
459.230	3006
459.257	3110
459.299	2901
459.338	3086
459.368	3276
459.418	2763
459.437	2548
459.499	2385
459.505	2397
459.574	3000
459.579	3028
459.643	2785
459.659	2652
459.711	2626
459.740	2757
459.780	2678
459.820	2727
459.849	2805
459.900	2821
459.917	2780
459.981	2504
459.986	2479
460.054	2675
460.061	2697
460.123	2844
460.141	2886
460.191	3059
460.222	3122
460.260	3116
460.302	2859
460.328	2793
460.382	3202
460.397	3158
460.462	2531
460.465	2562
460.534	4078
460.543	4194
460.602	8540
460.623	10524
460.671	15379
460.703	18948
460.739	16672
460.783	12674
460.808	10374
460.864	3682
460.876	3376
460.944	3275
460.945	3267
461.013	3419
461.024	3378
461.081	3392
461.104	3515
461.150	3334
461.184	3293
461.218	3317
461.264	3587
461.286	3826
461.345	3635
461.355	3535
461.423	3025
461.425	3023
461.491	2802
461.505	2895
461.559	3527
461.585	3443
461.628	3469
461.665	3842
461.696	3850
461.745	3472
461.764	3439
461.825	3558
461.832	3555
461.901	3568
461.905	3573
461.969	3443
461.985	3408
462.037	4035
462.065	4409
462.105	4448
462.145	4259
462.173	4111
462.225	4075
462.241	4000
462.305	3448
462.310	3444
462.378	3497
462.385	3520
462.446	3878
462.465	3891
462.514	3739
462.545	3937
462.582	4175
462.625	4096
462.650	3891
462.705	3737
462.718	3827
462.785	3971
462.786	3973
462.854	4044
462.865	4026
462.922	4120
462.945	4272
462.990	4221
463.025	4070
463.058	4320
463.104	4572
463.126	4251
463.184	3470
463.194	3549
463.262	4228
463.264	4236
463.330	4109
463.344	4120
463.398	4546
463.424	4673
463.466	4160
463.504	3885
463.533	4389
463.583	4912
463.601	4774
463.663	4501
463.669	4480
463.737	4232
463.743	4189
463.805	4591
463.823	4726
463.873	4735
463.903	4790
463.940	4922
463.982	4893
464.008	4992
464.062	5108
464.076	5000
464.142	4738
464.144	4751
464.211	4731
464.221	4726
464.279	4289
464.301	4162
464.347	4615
464.381	4881
464.414	4516
464.461	4107
464.482	4345
464.540	4761
464.550	4745
464.617	4482
464.620	4474
464.685	5281
464.699	5406
464.753	4939
464.779	4660
464.820	4926
464.859	5343
464.888	4881
464.938	3980
464.956	4524
465.018	6308
465.023	6250
465.091	5366
465.098	5265
465.158	5413
465.177	5490
465.226	4962
465.257	4569
465.293	5027
465.336	5488
465.361	5601
465.416	5853
465.428	5795
465.495	5400
465.496	5407
465.563	4692
465.575	4563
465.631	5314
465.654	5679
465.698	5463
465.734	5116
465.765	5185
465.813	5362
465.833	5327
465.893	5132
465.900	5159
465.968	5195
465.972	5196
466.035	5103
466.052	5067
466.102	5486
466.131	5649
466.170	5113
466.210	4552
466.237	4855
466.290	5372
466.304	5239
466.369	4622
466.372	4667
466.439	5606
466.449	5746
466.506	5842
466.528	5820
466.573	5918
466.607	5972
466.641	6069
466.687	6206
466.708	6373
466.766	6723
466.775	6662
466.842	6137
466.845	6096
466.909	6885
466.925	7057
466.977	6208
467.004	5735
467.044	6387
467.083	7015
467.111	6917
467.163	6666
467.178	6632
467.242	6432
467.245	6436
467.312	6215
467.321	6173
467.379	6652
467.400	6805
467.446	6768
467.480	6716
467.559	7338
467.638	6763
467.717	7230
467.796	6605
467.875	9091
467.955	7614
468.034	8612
468.113	9608
468.192	13128
468.271	14229
468.350	21824
468.429	31922
468.508	34098
468.588	19974
468.667	12763
468.746	8940
468.825	9664
468.904	8300
468.983	9347
469.062	7364
469.141	8648
469.220	6755
469.299	7340
469.378	6053
469.456	8154
469.535	6318
469.614	7188
469.693	6621
469.772	8999
469.851	8098
469.930	8482
470.009	8836
470.088	11262
470.166	16313
470.245	29225
470.324	37799
470.403	25007
470.482	13459
470.560	10246
470.639	8702
470.718	9577
470.797	7825
470.875	7798
470.954	6781
471.033	7106
471.111	7130
471.190	7159
471.269	6117
471.347	7065
471.426	5614
471.505	6871
471.583	6795
471.662	7191
471.740	6550
471.819	6996
471.898	5756
471.976	7217
472.055	6368
472.133	6066
472.212	6813
472.290	7267
472.369	5816
472.447	6354
472.526	6102
472.604	6316
472.683	6199
472.761	7595
472.839	7227
472.918	8060
472.996	6620
473.075	7335
473.153	6658
473.231	7954
473.310	7015
473.388	8071
473.466	6788
473.545	7447
473.623	7050
473.701	7887
473.780	7795
473.858	6276
473.936	8599
474.014	8359
474.093	7229
474.171	7539
474.249	7382
474.327	8218
474.405	6318
474.484	8279
474.562	5972
474.640	6659
474.718	7334
474.796	6460
474.874	6565
474.952	7394
475.030	6385
475.108	6789
475.187	6521
475.265	7428
475.343	8200
475.421	9111
475.499	6671
475.577	8064
475.655	6891
475.733	7118
475.811	6910
475.889	6798
475.966	7368
476.044	6495
476.122	7522
476.200	9003
476.278	6153
476.356	7823
476.434	6026
476.512	7510
476.590	8079
476.667	8914
476.745	6386
476.823	8066
476.901	6452
476.979	6619
477.056	7012
477.134	7030
477.212	6056
477.290	5656
477.367	7075
477.445	6765
477.523	6167
477.601	6193
477.678	6003
477.756	7097
477.834	6575
477.911	6489
477.989	6713
478.066	7101
478.144	6424
478.222	7927
478.299	9037
478.377	8980
478.454	6227
478.532	6061
478.609	6083
478.687	7165
478.764	6229
478.842	7266
478.919	6022
478.997	6636
479.074	5946
479.152	7357
479.229	7420
479.307	6222
479.384	6803
479.461	7252
479.539	6281
479.616	6164
479.694	6361
479.771	7112
479.848	6446
479.926	5526
480.003	7201
480.080	7594
480.157	6097
480.235	7136
480.312	6640
480.389	7008
480.467	6083
480.544	7645
480.621	7262
480.698	8467
480.775	7793
480.853	7529
480.930	6283
481.007	6724
481.084	6801
481.161	7824
481.238	6642
481.315	6843
481.392	7506
481.470	6775
481.547	6929
481.624	7275
481.701	7046
481.778	8084
481.855	8144
481.932	8501
482.009	8757
482.086	9521
482.163	10856
482.240	12925
482.317	15645
482.393	13116
482.470	9227
482.547	10447
482.624	8111
482.701	9459
482.778	8115
482.855	9597
482.932	8597
483.009	9224
483.085	9619
483.162	11787
483.239	12383
483.316	13563
483.393	11956
483.469	11081
483.546	9572
483.623	9243
483.699	7586
483.776	8393
483.853	6830
483.930	7914
484.006	6843
484.083	8784
484.160	8203
484.236	11076
484.313	9276
484.389	9038
484.466	11407
484.543	13462
484.619	17565
484.696	21411
484.772	13203
484.849	10192
484.925	8774
485.002	9746
485.078	8434
485.155	9238
485.231	6944
485.308	8425
485.384	6760
485.461	8693
485.537	6734
485.614	8172
485.690	6911
485.766	8054
485.843	7438
485.919	8029
485.995	7277
486.072	7839
486.148	6708
486.224	6996
486.301	7930
486.377	7572
486.453	6850
486.530	8241
486.606	7898
486.682	7301
486.758	8651
486.835	8658
486.911	7173
486.987	9815
487.063	10873
487.139	12651
487.215	12404
487.292	15146
487.368	16131
487.444	21066
487.520	29939
487.596	44072
487.672	102970
487.748	346563
487.824	531830
487.900	175475
487.976	42890
488.052	22476
488.128	17105
488.204	12905
488.280	11797
488.356	11331
488.432	9361
488.508	9810
488.584	7543
488.660	9250
488.736	8120
488.812	7838
488.888	7772
488.964	9123
489.039	10337
489.115	12606
489.191	9880
489.267	8121
489.343	7489
489.418	7482
489.494	7655
489.570	6505
489.646	7736
489.722	7648
489.797	7119
489.873	8341
489.949	7748
490.024	7756
490.100	6881
490.176	8031
490.251	7773
490.327	9081
490.403	6909
490.478	8329
490.554	7483
490.629	7843
490.705	6016
490.781	7968
490.856	7030
490.932	7860
491.007	7358
491.083	7408
491.158	6935
491.234	7328
491.309	7661
491.385	6563
491.460	5989
491.536	8401
491.611	6583
491.686	8009
491.762	7269
491.837	9557
491.913	10572
491.988	11658
492.063	12235
492.139	8142
492.214	7369
492.289	7990
492.365	7204
492.440	7509
492.515	6024
492.590	7162
492.666	6811
492.741	7686
492.816	7496
492.891	7370
492.967	6830
493.042	8196
493.117	5638
493.192	8162
493.267	9149
493.342	11100
493.418	11815
493.493	7676
493.568	6560
493.643	8029
493.718	7631
493.793	7260
493.868	8228
493.943	8495
494.018	7135
494.093	7518
494.168	7943
494.243	7238
494.318	7365
494.393	8586
494.468	6947
494.543	9221
494.618	8057
494.693	8344
494.768	8663
494.842	8180
494.917	8720
494.992	9046
495.067	7336
495.142	7875
495.217	7107
495.292	9462
495.366	8172
495.441	7666
495.516	9150
495.591	9880
495.665	12974
495.740	21332
495.815	13171
495.890	9129
495.964	6500
496.039	12239
496.114	8536
496.188	10912
496.263	9364
496.338	8829
496.412	7319
496.487	8969
496.561	8467
496.636	8755
496.710	7981
496.785	9103
496.860	8198
496.934	8976
497.009	9328
497.083	9017
497.158	8845
497.232	10074
497.307	10513
497.381	12368
497.455	11024
497.530	8923
497.604	8409
497.679	8760
497.753	8506
497.827	8524
497.902	7198
497.976	10309
498.050	9908
498.125	15051
498.199	14641
498.273	11720
498.348	10341
498.422	12760
498.496	11682
498.570	15321
498.645	8814
498.719	6037
498.793	7536
498.867	7816
498.941	6527
499.016	9747
499.090	12107
499.164	10444
499.238	9006
499.312	9632
499.386	10176
499.460	12433
499.534	13059
499.609	16495
499.683	10325
499.757	7543
499.831	6319
499.905	9170
499.979	9243
500.053	7143
500.127	7237
500.201	7756
500.275	9397
500.349	10057
500.422	9644
500.496	12240
500.570	14921
500.644	21477
500.718	19798
500.792	7975
500.866	6124
500.940	5939
501.013	6237
501.087	5357
501.161	6158
501.235	4527
501.309	7557
501.382	7734
501.456	8181
501.530	6807
501.603	5345
501.677	5460
501.751	3350
501.825	6283
501.898	5351
501.972	6548
502.046	5681
502.119	4739
502.193	5245
502.266	6325
502.340	5561
502.413	5934
502.487	5200
502.561	5143
502.634	5355
502.708	5823
502.781	5080
502.855	6542
502.928	4935
503.002	5476
503.075	4781
503.149	5532
503.222	5062
503.295	5579
503.369	6534
503.442	6384
503.516	6988
503.589	10124
503.662	10417
503.736	12206
503.809	16082
503.882	20422
503.956	31245
504.029	63845
504.102	194938
504.175	301128
504.249	112392
504.322	37747
504.395	19174
504.468	12951
504.542	9049
504.615	7392
504.688	7168
504.761	5155
504.834	7559
504.907	6330
504.980	5931
505.053	5020
505.127	2400
505.200	8192
505.273	3326
505.346	5208
505.419	3373
505.492	5827
505.565	4242
505.638	5219
505.711	3535
505.784	4675
505.857	3766
505.930	5891
506.003	3389
506.076	5897
506.149	2863
506.221	2198
506.294	5428
506.367	3214
506.440	4856
506.513	5484
506.586	3897
506.659	4075
506.731	3685
506.804	3969
506.877	3141
506.950	4102
507.022	4562
507.095	3017
507.168	3953
507.241	6006
507.313	3375
507.386	2845
507.459	5286
507.531	3980
507.604	3459
507.677	5385
507.749	1829
507.822	5029
507.894	3752
507.967	5875
508.040	3923
508.112	4712
508.185	4522
508.257	3573
508.330	5574
508.402	4030
508.475	4401
508.547	4573
508.620	3352
508.692	4834
508.765	3914
508.837	3844
508.909	4529
508.982	3878
509.054	4657
509.127	4435
509.199	3073
509.271	3325
509.344	3726
509.416	4680
509.488	4140
509.560	4470
509.633	3801
509.705	4364
509.777	3870
509.849	5208
509.922	3383
509.994	4312
510.066	4801
510.138	2793
510.210	6241
510.283	3303
510.355	4166
510.427	5430
510.499	3980
510.571	5268
510.643	2796
510.715	5738
510.787	2078
510.859	6068
510.931	3588
511.003	5129
511.076	5168
511.148	3818
511.219	3432
511.291	3858
511.363	4281
511.435	4993
511.507	2750
511.579	5176
511.651	4514
511.723	4076
511.795	3262
511.867	3898
511.939	4170
512.010	3785
512.082	5168
512.154	2602
512.226	3459
512.298	5692
512.369	4569
512.441	6000
512.513	4661
512.585	2965
512.656	4887
512.728	4176
512.800	3968
512.871	5610
512.943	4212
513.015	3073
513.086	3667
513.158	5459
513.230	3060
513.301	4934
513.373	5473
513.444	4790
513.516	3707
513.588	3613
513.659	4651
513.731	4344
513.802	3561
513.874	6716
513.945	6874
514.016	4651
514.088	4138
514.159	3820
514.231	4642
514.302	5385
514.374	5188
514.445	3429
514.516	6101
514.588	3729
514.659	4198
514.730	4683
514.802	5998
514.873	3461
514.944	6581
515.016	5820
515.087	4106
515.158	4936
515.229	5572
515.301	4667
515.372	5653
515.443	4323
515.514	4867
515.585	4462
515.656	5375
515.728	6508
515.799	5762
515.870	6993
515.941	7183
516.012	5553
516.083	8541
516.154	8561
516.225	11190
516.296	14848
516.367	16060
516.438	20299
516.509	25019
516.580	40560
516.651	147986
516.722	516183
516.793	223945
516.864	40703
516.935	33948
517.006	42511
517.077	54275
517.148	116515
517.219	534791
517.289	841501
517.360	157055
517.431	38042
517.502	20492
517.573	18309
517.643	15645
517.714	16270
517.785	16794
517.856	20475
517.926	26990
517.997	35539
518.068	44776
518.138	62844
518.209	98610
518.280	352882
518.350	1113362
518.421	542361
518.492	96830
518.562	53888
518.633	51891
518.703	63995
518.774	135883
518.845	375236
518.915	361959
518.986	100577
519.056	40590
519.127	25434
519.197	19314
519.268	15626
519.338	11646
519.408	9814
519.479	9317
519.549	7437
519.620	8316
519.690	6618
519.760	5730
519.831	6290
519.901	5761
519.971	5779
520.042	4859
520.112	5160
520.182	5707
520.253	5981
520.323	4822
520.393	4807
520.463	7213
520.534	2134
520.604	6907
520.674	5995
520.744	3330
520.814	4444
520.885	5955
520.955	4698
521.025	5136
521.095	5183
521.165	5451
521.235	4917
521.305	4094
521.375	4978
521.445	5008
521.515	3867
521.585	5838
521.655	3679
521.725	4909
521.795	5292
521.865	1679
521.935	6362
522.005	3469
522.075	3814
522.145	4903
522.215	3414
522.285	5011
522.355	4629
522.424	5641
522.494	3544
522.564	5655
522.634	5200
522.704	10700
522.774	6187
522.843	4692
522.913	4759
522.983	4490
523.053	4577
523.122	5653
523.192	5187
523.262	6799
523.331	7214
523.401	5739
523.471	6147
523.540	5050
523.610	4637
523.680	6232
523.749	6013
523.819	5288
523.888	4530
523.958	4846
524.027	5381
524.097	4567
524.166	5769
524.236	3241
524.305	6754
524.375	3103
524.444	4921
524.514	6518
524.583	4973
524.653	4503
524.722	6407
524.791	4367
524.861	7297
524.930	4561
524.999	6024
525.069	7107
525.138	6102
525.207	5908
525.277	7231
525.346	7178
525.415	8988
525.484	8562
525.554	10587
525.623	13528
525.692	17979
525.761	20857
525.830	28649
525.900	36655
525.969	60196
526.038	110341
526.107	226544
526.176	666457
526.245	538387
526.314	153695
526.383	321506
526.452	442997
526.522	596053
526.591	571041
526.660	101027
526.729	57097
526.797	60508
526.867	80835
526.935	233272
527.004	853042
527.073	583021
527.142	83123
527.211	32411
527.280	21229
527.349	16335
527.418	10437
527.487	11625
527.555	7531
527.624	7451
527.693	6252
527.762	8296
527.831	6334
527.899	8115
527.968	6441
528.037	5950
528.106	6498
528.174	6654
528.243	5981
528.312	6233
528.380	6201
528.449	4545
528.518	6555
528.586	4408
528.655	6194
528.723	5949
528.792	4979
528.861	4830
528.929	3413
528.998	6644
529.066	4359
529.135	5804
529.203	4806
529.272	4443
529.340	5524
529.409	7115
529.477	4454
529.545	4248
529.614	7558
529.682	4719
529.751	5106
529.819	9429
529.887	6562
529.956	6070
530.024	6381
530.092	5401
530.161	6400
530.229	7452
530.297	6196
530.365	6750
530.434	6495
530.502	5261
530.570	6934
530.638	4601
530.707	6583
530.775	7528
530.843	5597
530.911	6109
530.979	7310
531.047	6314
531.115	6986
531.183	6675
531.252	7359
531.320	7057
531.388	5390
531.456	7596
531.524	5311
531.592	8691
531.660	8849
531.728	6377
531.796	5562
531.864	7850
531.932	6084
532.000	7247
532.067	6895
532.135	8558
532.203	8715
532.271	8272
532.339	9599
532.407	11468
532.475	9899
532.542	9243
532.610	9836
532.678	7143
532.746	15196
532.814	23891
532.881	11690
532.949	9447
533.017	8565
533.084	8659
533.152	8356
533.220	7814
533.287	6840
533.355	7901
533.423	8364
533.490	8199
533.558	8002
533.625	9608
533.693	7501
533.761	8983
533.828	8962
533.896	7939
533.963	10160
534.031	12292
534.098	13849
534.166	14338
534.233	13172
534.300	16351
534.368	15354
534.435	14743
534.503	16989
534.570	19639
534.637	22434
534.705	27335
534.772	30368
534.840	58483
534.907	279999
534.974	369145
535.041	51522
535.109	21328
535.176	14533
535.243	15071
535.310	13527
535.378	13084
535.445	13936
535.512	13992
535.579	13653
535.646	13412
535.714	13225
535.781	14970
535.848	15279
535.915	14841
535.982	12625
536.049	13353
536.116	14424
536.183	12548
536.250	11860
536.317	13255
536.384	13515
536.451	14657
536.518	14666
536.585	12955
536.652	16601
536.719	15981
536.786	12004
536.853	14221
536.920	15684
536.987	15865
537.053	14038
537.120	21838
537.187	20152
537.254	16283
537.321	14874
537.388	17310
537.454	14302
537.521	15008
537.588	14172
537.654	14927
537.721	16392
537.788	16241
537.855	13960
537.921	14599
537.988	14280
538.055	15044
538.121	13019
538.188	13019
538.254	13102
538.321	14640
538.388	15440
538.454	17065
538.521	16718
538.587	17404
538.654	15192
538.720	15985
538.787	15105
538.853	15322
538.920	14488
538.986	14028
539.053	13167
539.119	14973
539.185	13599
539.252	16819
539.318	15844
539.385	19033
539.451	14734
539.517	16078
539.583	16443
539.650	16341
539.716	18239
539.782	15713
539.849	13596
539.915	15549
539.981	14923
540.047	13940
540.114	13990
540.180	16691
540.246	14712
540.312	17056
540.378	17120
540.444	19109
540.510	17080
540.576	21373
540.643	14996
540.709	14480
540.775	14406
540.841	15444
540.907	14278
540.973	16686
541.039	14309
541.105	16955
541.171	16616
541.237	16420
541.303	17296
541.369	17850
541.435	16665
541.500	16354
541.566	13808
541.632	13940
541.698	15601
541.764	16700
541.830	14116
541.896	15663
541.961	15359
542.027	15203
542.093	16434
542.159	18374
542.224	14202
542.290	17074
542.356	15169
542.421	16802
542.487	14028
542.553	14747
542.618	13923
542.684	15887
542.750	15274
542.815	16914
542.881	15156
542.947	20722
543.012	18649
543.078	15597
543.143	14038
543.209	16088
543.274	14125
543.340	15722
543.405	16894
543.471	17363
543.536	16304
543.602	16591
543.667	14636
543.732	17216
543.798	14822
543.863	16748
543.928	15373
543.994	15856
544.059	16188
544.124	17599
544.190	16720
544.255	17583
544.320	17548
544.386	17304
544.451	18048
544.516	18141
544.581	17061
544.646	20631
544.712	21895
544.777	19308
544.842	18389
544.907	17746
544.972	17625
545.037	18829
545.102	18456
545.168	20814
545.233	19998
545.298	20640
545.363	20148
545.428	21552
545.493	23515
545.558	23914
545.623	21733
545.688	21971
545.753	22010
545.818	23722
545.883	24964
545.947	25375
546.012	25912
546.077	26531
546.142	29555
546.207	28847
546.272	30781
546.337	32495
546.401	33266
546.466	34938
546.531	34577
546.596	38759
546.661	39792
546.725	42052
546.790	44649
546.855	49304
546.919	53116
546.984	60392
547.049	64074
547.113	73602
547.178	81355
547.243	92687
547.307	106082
547.372	116941
547.436	117803
547.501	127345
547.565	135557
547.630	122723
547.695	117423
547.759	120412
547.823	121304
547.888	123237
547.952	126293
548.017	131209
548.081	133793
548.146	132517
548.210	137123
548.274	148536
548.339	143617
548.403	131165
548.468	123883
548.532	121778
548.596	124752
548.660	125777
548.725	138001
548.789	149716
548.853	143225
548.917	138641
548.982	133267
549.046	119330
549.110	108701
549.174	113857
549.238	132342
549.303	144626
549.367	148446
549.431	141071
549.495	132269
549.559	133344
549.623	154395
549.687	166441
549.751	163443
549.815	196778
549.879	196544
549.943	189161
550.007	198704
550.071	196796
550.135	173690
550.199	167550
550.263	165073
550.327	154250
550.391	157714
550.455	176655
550.519	186059
550.582	197896
550.646	223189
550.710	225915
550.774	220938
550.838	225281
550.901	229998
550.965	243274
551.029	253025
551.093	271276
551.156	292350
551.220	330945
551.284	371190
551.347	290186
551.411	243465
551.475	232798
551.538	241248
551.602	225210
551.666	211536
551.729	199648
551.793	194551
551.856	191608
551.920	186586
551.983	187058
552.047	184449
552.110	184870
552.174	186303
552.237	191908
552.301	178928
552.364	172458
552.428	165381
552.491	174160
552.554	177241
552.618	176250
552.681	181653
552.745	177168
552.808	205767
552.871	239598
552.934	202953
552.998	181725
553.061	173567
553.124	167074
553.187	163526
553.251	168706
553.314	169437
553.377	171159
553.440	181722
553.503	185988
553.567	184144
553.630	181725
553.693	180269
553.756	181217
553.819	177400
553.882	171694
553.945	171638
554.008	171205
554.071	173338
554.134	177031
554.197	164950
554.260	161195
554.323	163810
554.386	165920
554.449	174126
554.512	171353
554.575	164514
554.638	162003
554.701	163106
554.764	159889
554.827	154231
554.889	149355
554.952	140574
555.015	139263
555.078	139956
555.141	143019
555.203	138544
555.266	139337
555.329	137030
555.391	131575
555.454	129747
555.517	125915
555.580	122928
555.642	118049
555.705	114216
555.768	114820
555.830	111198
555.893	106661
555.955	102721
556.018	101317
556.080	100826
556.143	104873
556.206	101723
556.268	99849
556.330	97830
556.393	95370
556.455	91950
556.518	90227
556.580	88042
556.643	85053
556.705	83086
556.767	80767
556.830	79455
556.892	77751
556.955	77954
557.017	74620
557.079	73692
557.142	72858
557.204	70860
557.266	73417
557.328	68066
557.391	62329
557.453	61300
557.515	62036
557.577	62515
557.639	62743
557.701	62626
557.764	62557
557.826	64926
557.888	67659
557.950	69303
558.012	74953
558.074	91734
558.136	196289
558.198	466793
558.260	176639
558.322	72820
558.384	71771
558.446	75520
558.508	82624
558.570	90821
558.632	105307
558.694	125695
558.756	196465
558.818	530376
558.880	1107158
558.942	499765
559.003	498839
559.065	248689
559.127	99266
559.189	89784
559.251	96967
559.312	126871
559.374	294903
559.436	848282
559.498	463864
559.559	115277
559.621	92539
559.683	97506
559.744	149652
559.806	462612
559.868	684912
559.929	167721
559.991	100379
560.052	155656
560.114	446638
560.176	284342
560.237	252941
560.299	413571
560.360	97547
560.422	40572
560.483	33745
560.545	30098
560.606	28574
560.667	26642
560.729	26327
560.790	24668
560.852	23679
560.913	23897
560.974	22681
561.036	22227
561.097	23183
561.158	21752
561.220	22292
561.281	20274
561.342	20783
561.403	20805
561.465	20389
561.526	21374
561.587	22717
561.648	18512
561.709	18657
561.771	18610
561.832	18982
561.893	17810
561.954	19154
562.015	17632
562.076	17639
562.137	16961
562.198	17577
562.259	17981
562.320	16717
562.381	17247
562.442	17552
562.503	17002
562.564	17009
562.625	15212
562.686	16215
562.747	15184
562.808	15319
562.869	14816
562.930	15172
562.991	14700
563.051	15217
563.112	15344
563.173	14652
563.234	14614
563.294	14762
563.355	13355
563.416	14213
563.477	14478
563.537	15491
563.598	13657
563.659	14050
563.720	13301
563.780	14293
563.841	13188
563.901	13956
563.962	13423
564.023	13235
564.083	13270
564.144	13269
564.204	13204
564.265	13660
564.325	12924
564.386	13137
564.446	12929
564.507	12990
564.567	12432
564.628	12926
564.688	11814
564.749	11265
564.809	12267
564.869	13350
564.930	12081
564.990	12588
565.050	12405
565.111	13266
565.171	11657
565.231	11613
565.292	12649
565.352	11885
565.412	12167
565.472	12744
565.532	11374
565.593	11736
565.653	12318
565.713	11671
565.773	11442
565.833	12924
565.893	13512
565.953	12151
566.013	11923
566.074	12077
566.134	10330
566.194	11028
566.254	11907
566.314	11291
566.374	10586
566.434	11229
566.494	11512
566.554	12150
566.614	10874
566.673	11980
566.733	13387
566.793	12509
566.853	10496
566.913	12305
566.973	11603
567.033	11707
567.092	12221
567.152	11760
567.212	11654
567.272	12291
567.331	12242
567.391	12915
567.451	12152
567.511	12533
567.570	12143
567.630	13293
567.690	11861
567.749	12842
567.809	10820
567.868	11912
567.928	10726
567.988	11526
568.047	12286
568.107	11829
568.166	11809
568.226	11746
568.285	12293
568.345	14217
568.404	12639
568.464	12029
568.523	11634
568.582	12118
568.642	12457
568.701	11731
568.761	11056
568.820	12253
568.879	11535
568.939	11867
568.998	12359
569.057	12079
569.116	11504
569.176	12203
569.235	11173
569.294	11844
569.353	10415
569.413	10781
569.472	9864
569.531	11038
569.590	9901
569.649	11090
569.708	11016
569.767	11672
569.827	10690
569.886	9839
569.945	10495
570.004	12213
570.063	10613
570.122	11842
570.181	11485
570.240	12057
570.299	11563
570.358	11424
570.417	12432
570.475	12112
570.534	11591
570.593	12220
570.652	11869
570.711	12144
570.770	11147
570.829	12231
570.887	11161
570.946	13078
571.005	12345
571.064	13755
571.122	14931
571.181	13453
571.240	11746
571.299	11749
571.357	11129
571.416	11649
571.475	12145
571.533	11886
571.592	12278
571.650	12483
571.709	12846
571.768	15259
571.826	14972
571.885	14848
571.943	11794
572.002	11265
572.060	11472
572.119	11840
572.177	11120
572.236	11607
572.294	11839
572.352	12986
572.411	12808
572.469	12170
572.528	10272
572.586	10456
572.644	10865
572.703	11431
572.761	10573
572.819	10689
572.877	9424
572.936	10460
572.994	9705
573.052	10881
573.110	9892
573.169	11804
573.227	10714
573.285	11287
573.343	10653
573.401	10684
573.459	10890
573.517	11081
573.576	11832
573.634	12242
573.692	11032
573.750	12635
573.808	10657
573.866	9774
573.924	9994
573.982	10491
574.040	9648
574.098	10190
574.155	9778
574.213	10463
574.271	9873
574.329	12261
574.387	9683
574.445	9089
574.503	9232
574.560	9401
574.618	9148
574.676	9454
574.734	9080
574.792	9728
574.849	8231
574.907	8210
574.965	7380
575.022	7235
575.080	7378
575.138	8372
575.195	7776
575.253	8122
575.311	7103
575.368	8138
575.426	7308
575.483	8667
575.541	8302
575.598	7571
575.656	7471
575.713	8608
575.771	9202
575.828	8626
575.886	6994
575.943	8258
576.001	6850
576.058	7504
576.115	7066
576.173	7428
576.230	7953
576.287	7762
576.345	7955
576.402	8108
576.459	7784
576.517	7000
576.574	6992
576.631	6668
576.688	6825
576.746	7642
576.803	6777
576.860	7151
576.917	7077
576.974	7832
577.031	7578
577.089	6495
577.146	5963
577.203	6268
577.260	6915
577.317	6744
577.374	6981
577.431	6498
577.488	5762
577.545	5978
577.602	6692
577.659	6815
577.716	6429
577.773	6711
577.830	6059
577.886	7292
577.943	6380
578.000	6516
578.057	5830
578.114	6996
578.171	6784
578.227	7067
578.284	5358
578.341	6774
578.398	6254
578.454	7300
578.511	5747
578.568	7479
578.625	6578
578.681	6207
578.738	5473
578.794	6679
578.851	6685
578.908	6449
578.964	6006
579.021	7485
579.077	6611
579.134	6671
579.190	6064
579.247	6083
579.303	5897
579.360	6234
579.416	6437
579.473	6143
579.529	6491
579.586	5746
579.642	6906
579.698	7442
579.755	6984
579.811	6967
579.867	6801
579.924	6818
579.980	6323
580.036	6913
580.093	7231
580.149	8214
580.205	7780
580.261	7556
580.317	7565
580.374	8029
580.430	7514
580.486	8296
580.542	6319
580.598	7660
580.619	7799
580.654	8051
580.692	7267
580.710	6895
580.765	7442
580.767	7468
580.823	8049
580.838	7852
580.879	7371
580.911	7982
580.935	8444
580.984	7197
580.991	7042
581.047	8730
581.057	8443
581.103	7150
581.130	7377
581.159	7658
581.203	7261
581.215	7161
581.270	7457
581.276	7357
581.326	6515
581.349	6816
581.382	7222
581.422	7208
581.438	7238
581.494	7180
581.494	7167
581.550	6412
581.567	6893
581.606	7917
581.640	7185
581.661	6765
581.713	7910
581.717	8011
581.773	7226
581.786	7207
581.829	7034
581.859	6793
581.885	6701
581.932	7249
581.940	7345
581.996	7327
582.004	7382
582.052	7648
582.077	7416
582.107	7139
582.150	7189
582.163	7233
582.219	6859
582.223	6850
582.274	6656
582.296	6547
582.330	6486
582.368	6747
582.386	6909
582.441	6080
582.441	6081
582.497	6594
582.514	6379
582.552	6016
582.587	6685
582.608	7031
582.659	5810
582.663	5726
582.719	7191
582.732	6998
582.774	6341
582.805	6724
582.830	7125
582.877	7082
582.885	7049
582.941	7104
582.950	7065
582.996	6775
583.023	6669
583.052	6798
583.095	6781
583.107	6704
583.162	8253
583.168	8080
583.218	6431
583.240	6351
583.273	6347
583.313	6068
583.328	5982
583.384	6653
583.385	6629
583.439	5728
583.458	6043
583.494	6693
583.531	6056
583.549	5722
583.603	6446
583.605	6472
583.660	6062
583.676	6254
583.715	6523
583.748	6055
583.770	5917
583.820	7188
583.825	7267
583.881	6646
583.893	6567
583.936	6684
583.965	6749
583.991	6614
584.038	6412
584.046	6393
584.101	6052
584.110	6115
584.156	6634
584.183	6440
584.211	5986
584.255	6199
584.266	6328
584.321	6535
584.328	6589
584.376	6816
584.400	6658
584.431	6488
584.472	6309
584.486	6209
584.541	6888
584.545	6888
584.596	7013
584.617	7095
584.651	7568
584.689	8469
584.706	8495
584.761	7793
584.762	7800
584.816	8694
584.834	8581
584.871	7991
584.906	8324
584.926	8797
584.978	10039
584.980	10065
585.035	11035
585.051	11474
585.090	12802
585.123	14006
585.145	14663
585.195	16048
585.200	16247
585.254	20495
585.267	21527
585.309	24567
585.340	27475
585.364	30048
585.412	33873
585.419	34495
585.473	42664
585.484	45037
585.528	57575
585.556	72957
585.583	98882
585.628	167313
585.637	189078
585.692	405434
585.700	440627
585.747	564900
585.772	458601
585.801	281626
585.845	100551
585.856	73501
585.910	36656
585.917	33710
585.965	24336
585.989	21501
586.019	18522
586.061	15250
586.074	14550
586.128	13539
586.133	13478
586.183	12434
586.205	12365
586.237	12586
586.277	12071
586.292	11763
586.346	12114
586.349	12074
586.401	11280
586.421	11373
586.455	11287
586.493	11023
586.509	11175
586.564	11611
586.565	11648
586.618	12822
586.637	13469
586.672	15253
586.709	18106
586.727	19296
586.781	21466
586.781	21442
586.835	15061
586.853	13975
586.889	12715
586.925	11267
586.944	10766
586.996	10837
586.998	10828
587.052	10751
587.068	10711
587.106	10636
587.140	10755
587.161	10851
587.212	11237
587.215	11233
587.269	11173
587.284	11219
587.323	11102
587.356	11281
587.377	11609
587.427	12606
587.431	12622
587.485	11726
587.499	11850
587.539	12257
587.571	12066
587.593	12074
587.643	13699
587.648	13824
587.702	13282
587.715	13618
587.755	14135
587.786	13852
587.810	13751
587.858	13869
587.864	13794
587.917	13270
587.930	13258
587.971	13884
588.001	13896
588.025	13632
588.073	13995
588.079	14046
588.133	13698
588.145	13936
588.187	14446
588.217	14446
588.241	14727
588.288	15649
588.295	15666
588.348	15727
588.360	15780
588.402	16170
588.431	16558
588.456	16772
588.503	17555
588.510	17653
588.564	18602
588.575	18986
588.617	20556
588.646	21380
588.671	22051
588.718	24087
588.725	24592
588.778	29886
588.789	31519
588.832	45845
588.861	59421
588.886	86647
588.932	151398
588.939	157325
588.993	194778
589.004	190319
589.047	96544
589.075	46616
589.100	33926
589.147	22965
589.154	22438
589.207	19950
589.218	19676
589.261	20381
589.290	21010
589.314	21379
589.361	23459
589.368	24313
589.421	32889
589.433	35488
589.475	59999
589.504	81458
589.528	108358
589.576	167211
589.582	162744
589.635	76940
589.647	61048
589.689	32337
589.718	18726
589.742	17135
589.790	15317
589.795	15263
589.849	14825
589.861	14950
589.902	13910
589.932	12913
589.955	13045
590.004	13906
590.009	13836
590.062	13161
590.075	13070
590.115	13080
590.146	13040
590.168	12723
590.218	12365
590.222	12367
590.275	12797
590.289	12972
590.328	13666
590.360	14284
590.381	14308
590.431	14446
590.435	14350
590.488	13123
590.503	12908
590.541	13536
590.574	14115
590.594	14137
590.645	14408
590.647	14384
590.700	14733
590.716	14888
590.753	14949
590.787	15242
590.806	15716
590.859	17148
590.859	17095
590.912	16277
590.930	16213
590.965	16464
591.001	16637
591.018	16513
591.071	16315
591.072	16358
591.124	16154
591.143	16279
591.177	15617
591.214	14857
591.230	15364
591.283	17402
591.285	17516
591.336	15956
591.356	15523
591.389	15748
591.427	15859
591.442	15620
591.495	15282
591.498	15300
591.547	16090
591.569	16557
591.600	16257
591.640	15894
591.653	15931
591.706	16344
591.711	16441
591.759	16836
591.782	17212
591.811	17521
591.853	18035
591.864	17929
591.917	17665
591.924	17675
591.969	17543
591.995	17630
592.022	17345
592.066	17010
592.075	16952
592.127	17063
592.137	17159
592.180	17640
592.208	18057
592.233	18246
592.279	18823
592.285	18816
592.338	19431
592.350	19630
592.390	19455
592.421	19496
592.443	19323
592.491	19184
592.495	19143
592.548	19731
592.562	19976
592.600	19090
592.633	18497
592.653	18805
592.704	19743
592.705	19844
592.775	19368
592.846	20728
592.916	20509
592.987	21008
593.058	21510
593.128	22042
593.199	22310
593.270	23255
593.341	22832
593.411	22971
593.482	24129
593.553	25054
593.623	24652
593.694	25724
593.764	25366
593.835	26990
593.906	25846
593.976	26521
594.047	27110
594.117	28668
594.188	28707
594.258	29413
594.329	28994
594.399	30101
594.470	31327
594.540	32233
594.611	32481
594.681	32222
594.751	31477
594.822	34310
594.892	34987
594.963	35744
595.033	36049
595.103	38011
595.174	38612
595.244	39456
595.314	40881
595.384	41895
595.455	42293
595.525	45534
595.595	45499
595.665	45375
595.736	44645
595.806	45962
595.876	46445
595.946	46099
596.016	48895
596.087	50538
596.157	49455
596.227	49658
596.297	53227
596.367	57120
596.437	60752
596.507	59766
596.577	58986
596.647	63669
596.717	63879
596.787	65316
596.857	65807
596.927	66372
596.997	66020
597.067	67500
597.137	67809
597.207	69983
597.277	68360
597.347	65590
597.417	63787
597.487	64445
597.557	66790
597.626	67046
597.696	67897
597.766	67352
597.836	62130
597.906	60564
597.975	59791
598.045	60590
598.115	63537
598.185	68514
598.254	75952
598.324	82889
598.394	83843
598.464	81614
598.533	79041
598.603	74412
598.672	70366
598.742	73874
598.812	73333
598.881	75594
598.951	76133
599.020	77324
599.090	78993
599.159	81412
599.229	77003
599.299	75587
599.368	78545
599.437	76762
599.507	69572
599.576	67713
599.646	66060
599.715	65176
599.785	65001
599.854	61995
599.924	60780
599.993	61837
600.062	62471
600.132	66200
600.201	69451
600.270	81172
600.340	84040
600.409	82047
600.478	81866
600.547	85048
600.617	73930
600.686	59364
600.755	52470
600.824	49783
600.894	48956
600.963	49104
601.032	47678
601.101	46071
601.170	43161
601.239	41963
601.308	41751
601.378	42316
601.447	42497
601.516	43239
601.585	43281
601.654	44489
601.723	43691
601.792	46356
601.861	46071
601.930	49163
601.999	48495
602.068	49631
602.137	49066
602.206	50005
602.275	51659
602.343	50862
602.412	51555
602.481	52861
602.550	52676
602.619	54560
602.688	53734
602.756	54990
602.825	56519
602.894	57992
602.963	59183
603.032	60611
603.100	60694
603.169	61273
603.238	59763
603.307	61570
603.375	62111
603.444	64627
603.513	64096
603.581	65731
603.650	64766
603.719	66103
603.787	67493
603.856	70001
603.924	71533
603.993	75241
604.061	76817
604.130	82194
604.198	83066
604.267	85271
604.335	84864
604.404	86745
604.472	87032
604.541	88401
604.609	89233
604.678	89359
604.746	88663
604.815	92469
604.883	94061
604.951	95343
605.020	96381
605.088	97883
605.156	100860
605.225	103434
605.293	103295
605.361	103486
605.429	104907
605.498	106159
605.566	109237
605.634	115584
605.702	118674
605.771	123837
605.839	121805
605.907	119586
605.975	114098
606.043	114000
606.111	114267
606.180	112154
606.248	110507
606.316	110899
606.384	109283
606.452	111363
606.520	115411
606.588	119645
606.656	119770
606.724	116714
606.792	110245
606.860	100219
606.928	90612
606.996	87117
607.064	85836
607.132	89748
607.200	94140
607.267	96553
607.335	98140
607.403	101051
607.471	95410
607.539	94428
607.607	94462
607.674	84111
607.742	82544
607.810	83941
607.878	83234
607.946	84529
608.013	88663
608.081	90641
608.149	90070
608.216	94748
608.284	97307
608.352	97602
608.419	95273
608.487	95273
608.555	92074
608.622	97181
608.690	103520
608.757	114096
608.825	114641
608.893	112584
608.960	104364
609.028	100909
609.095	100704
609.163	100282
609.230	89279
609.298	82376
609.365	86684
609.432	95388
609.500	103701
609.567	118362
609.635	134874
609.702	139950
609.769	131687
609.837	102511
609.904	90412
609.971	97465
610.039	112127
610.106	148539
610.173	283842
610.241	599983
610.308	294619
610.375	116229
610.442	97683
610.509	93903
610.577	94179
610.644	94975
610.711	98221
610.778	101211
610.845	103997
610.912	112004
610.980	114098
611.047	114633
611.114	113513
611.181	108268
611.248	108702
611.315	116286
611.382	117399
611.449	124293
611.516	125059
611.583	123010
611.650	124114
611.717	127099
611.784	130099
611.851	138516
611.918	148619
611.984	176955
612.051	246197
612.118	463599
612.185	973479
612.252	568417
612.319	200483
612.386	166164
612.452	150364
612.519	141149
612.586	137888
612.653	140873
612.719	145416
612.786	138522
612.853	129354
612.919	125216
612.986	127934
613.053	121532
613.120	112228
613.186	108457
613.253	111108
613.319	110215
613.386	110921
613.453	112581
613.519	112530
613.586	110871
613.652	114653
613.719	112379
613.785	113677
613.852	114378
613.918	110566
613.985	115263
614.051	119717
614.118	117724
614.184	114454
614.250	113227
614.317	116724
614.383	115849
614.449	116039
614.516	115397
614.582	116689
614.648	113460
614.715	113273
614.781	109520
614.847	110353
614.914	110068
614.980	105612
615.046	109435
615.112	111119
615.179	112294
615.245	112633
615.311	109478
615.377	113216
615.443	114105
615.509	115410
615.575	121295
615.642	118108
615.708	123405
615.774	128945
615.840	139532
615.906	152969
615.972	187836
616.038	279733
616.104	548746
616.170	1091119
616.236	823282
616.302	285238
616.368	224012
616.434	159137
616.500	149005
616.565	174092
616.631	220063
616.697	172727
616.763	185590
616.829	289523
616.895	511019
616.961	436481
617.026	180520
617.092	126912
617.158	119794
617.224	114335
617.289	105537
617.355	99437
617.421	98432
617.487	99282
617.552	94018
617.618	92728
617.684	92266
617.749	95679
617.815	88730
617.880	88040
617.946	89234
618.012	89811
618.077	90455
618.143	88099
618.208	88539
618.274	95625
618.339	95079
618.405	78076
618.470	78912
618.536	77522
618.601	76314
618.667	70374
618.732	67184
618.798	65646
618.863	66160
618.928	64742
618.994	68840
619.059	68057
619.124	67133
619.190	64888
619.255	66153
619.320	64933
619.386	66480
619.451	64036
619.516	63208
619.581	64956
619.647	66349
619.712	66019
619.777	63171
619.842	62498
619.907	64696
619.972	65448
620.038	65825
620.103	63465
620.168	63293
620.233	64703
620.298	65343
620.363	66405
620.428	67239
620.493	68860
620.558	69950
620.623	70671
620.688	71447
620.753	70747
620.818	71125
620.883	72010
620.948	70416
621.013	70477
621.078	69208
621.143	68062
621.207	72470
621.272	69346
621.337	66500
621.402	66580
621.467	65780
621.532	64380
621.596	66102
621.661	62687
621.726	63431
621.791	64199
621.855	65311
621.920	62422
621.985	64030
622.049	65809
622.114	65124
622.179	66562
622.243	67975
622.308	70040
622.373	73828
622.437	71465
622.502	67091
622.566	64759
622.631	65166
622.695	69139
622.760	67501
622.824	67297
622.889	69173
622.953	66459
623.018	72797
623.082	71660
623.147	72112
623.211	69502
623.276	69741
623.340	65528
623.404	66288
623.469	65607
623.533	67351
623.597	64095
623.662	64445
623.726	58119
623.790	55563
623.854	53207
623.919	55274
623.983	56230
624.047	57806
624.111	56787
624.176	59073
624.240	57156
624.304	61231
624.368	57563
624.432	59143
624.496	60052
624.560	64700
624.625	63018
624.689	64686
624.753	66631
624.817	61941
624.881	60221
624.945	56104
625.009	54124
625.073	56065
625.137	55983
625.201	60617
625.265	58493
625.329	58418
625.393	57310
625.456	57720
625.520	60276
625.584	60166
625.648	62813
625.712	63837
625.776	62391
625.839	59404
625.903	49388
625.967	47194
626.031	51310
626.095	60451
626.158	55014
626.222	40788
626.286	39752
626.349	38484
626.413	34686
626.477	37429
626.540	35700
626.604	35130
626.668	36037
626.731	34932
626.795	35304
626.858	35174
626.922	33681
626.986	35947
627.049	33236
627.113	36996
627.176	35374
627.240	34616
627.303	33516
627.366	34456
627.430	34683
627.493	33868
627.557	31329
627.620	35441
627.684	34326
627.747	36195
627.810	29857
627.874	29880
627.937	27049
628.000	30985
628.064	27971
628.127	23357
628.190	25567
628.253	24716
628.317	23254
628.380	22210
628.443	20525
628.506	21816
628.569	20492
628.632	18937
628.696	20007
628.759	19589
628.822	18442
628.885	18011
628.948	16756
629.011	18139
629.074	16609
629.137	15691
629.200	14655
629.263	17187
629.326	14257
629.389	15609
629.452	15406
629.515	14911
629.578	15167
629.641	15532
629.704	14934
629.767	15152
629.830	14810
629.892	14521
629.955	14061
630.018	15607
630.081	13768
630.144	15640
630.207	12576
630.269	16463
630.332	12952
630.395	14130
630.458	13209
630.520	12304
630.583	13747
630.646	14521
630.708	12755
630.771	13927
630.834	14734
630.896	14437
630.959	13965
631.021	12933
631.084	13976
631.146	14772
631.209	14671
631.272	13898
631.334	13362
631.397	15074
631.459	14246
631.522	17280
631.584	16852
631.646	19530
631.709	19187
631.771	19897
631.834	19355
631.896	17939
631.958	15026
632.021	16157
632.083	13500
632.145	13893
632.208	13062
632.270	13347
632.332	13593
632.395	13222
632.457	13894
632.519	12136
632.581	14217
632.643	12153
632.706	13359
632.768	12036
632.830	14295
632.892	13849
632.954	12313
633.016	15617
633.078	13006
633.141	13022
633.203	13134
633.265	13381
633.327	13140
633.389	13251
633.451	13444
633.513	13128
633.575	13966
633.637	13784
633.698	12917
633.760	15803
633.822	15366
633.884	16958
633.946	17222
634.008	17950
634.070	18698
634.132	20674
634.193	22565
634.255	25873
634.317	27070
634.379	26619
634.441	21162
634.502	18926
634.564	17640
634.626	15852
634.687	13961
634.749	13808
634.811	14392
634.873	13317
634.934	13496
634.996	15149
635.057	13192
635.119	13696
635.181	13779
635.242	15730
635.304	13182
635.365	16835
635.427	13933
635.488	14317
635.550	12830
635.611	15026
635.673	12443
635.734	17669
635.796	16630
635.857	20735
635.918	21182
635.980	25689
636.041	26348
636.102	30019
636.164	28957
636.225	28337
636.286	20769
636.348	20382
636.409	16500
636.470	15301
636.531	14257
636.593	13597
636.654	13657
636.715	13097
636.776	13004
636.838	11508
636.899	11946
636.960	11080
637.021	11003
637.082	10800
637.143	10233
637.204	9741
637.265	9792
637.326	10846
637.387	11322
637.448	10512
637.509	10799
637.570	10826
637.631	11479
637.692	9354
637.753	8346
637.814	10115
637.875	8774
637.936	10564
637.997	9383
638.058	8895
638.119	9804
638.179	10326
638.240	8464
638.301	9311
638.362	8556
638.423	8575
638.483	9632
638.544	7887
638.605	9261
638.666	8242
638.726	8802
638.787	10097
638.848	8758
638.908	8899
638.969	8072
639.030	8226
639.090	7419
639.151	7571
639.211	8875
639.272	8227
639.332	8611
639.393	8994
639.453	9177
639.514	11230
639.574	8658
639.635	7972
639.695	8397
639.756	6796
639.816	7820
639.877	8190
639.937	7743
639.997	8867
640.058	5800
640.118	6995
640.178	8487
640.239	7648
640.299	8006
640.359	8581
640.420	9243
640.480	11100
640.540	13256
640.600	13695
640.661	10891
640.721	9120
640.781	9517
640.841	7432
640.901	8469
640.961	8124
641.021	9068
641.082	9625
641.142	7735
641.202	8110
641.262	5326
641.322	7728
641.382	6909
641.442	8369
641.502	7091
641.562	8501
641.622	7452
641.682	8987
641.742	10822
641.802	9335
641.861	8050
641.921	7117
641.981	7478
642.041	7717
642.101	6115
642.161	5416
642.221	5642
642.280	7390
642.340	6335
642.400	6633
642.460	7812
642.519	7147
642.579	6496
642.639	8026
642.698	4820
642.758	9968
642.818	7566
642.877	6235
642.937	6316
642.997	7699
643.056	6618
643.116	6856
643.175	8588
643.235	7806
643.294	8424
643.354	10068
643.414	10899
643.473	14415
643.532	18354
643.592	26918
643.651	42166
643.711	74078
643.770	141869
643.830	335333
643.889	593094
643.948	147473
644.008	31838
644.067	18733
644.126	13327
644.186	12090
644.245	10911
644.304	7464
644.363	10296
644.423	7459
644.482	8254
644.541	10803
644.600	8927
644.659	14711
644.719	19144
644.778	29552
644.837	52573
644.896	116678
644.955	242516
645.014	69549
645.073	15286
645.132	11682
645.191	10243
645.250	10211
645.309	11268
645.368	11820
645.427	18727
645.486	33679
645.545	55991
645.604	13590
645.663	9367
645.722	9577
645.781	10837
645.840	13296
645.898	16999
645.957	25732
646.016	38070
646.075	69558
646.134	133161
646.192	360249
646.251	443091
646.310	73953
646.369	22257
646.427	18195
646.486	12681
646.545	9628
646.603	8379
646.662	9208
646.721	8623
646.779	8302
646.838	9154
646.896	13696
646.955	18913
647.014	30739
647.072	63222
647.131	170658
647.189	68069
647.248	10516
647.306	8223
647.365	6982
647.423	3580
647.481	7574
647.540	4336
647.598	5769
647.657	5099
647.715	6113
647.773	3799
647.832	5546
647.890	3403
647.948	3608
648.007	4968
648.065	3892
648.123	3481
648.181	5474
648.240	3992
648.298	3372
648.356	4031
648.414	4668
648.472	3827
648.531	4585
648.589	3346
648.647	3746
648.705	3649
648.763	4278
648.821	5419
648.879	5426
648.937	6170
648.995	9220
649.053	12271
649.111	19962
649.169	32765
649.227	60880
649.285	129001
649.343	342382
649.401	143148
649.459	19241
649.516	11049
649.574	6770
649.632	8406
649.690	10783
649.748	14488
649.806	20907
649.863	43539
649.921	126354
649.979	70303
650.037	9111
650.094	3478
650.152	4720
650.210	3343
650.268	3944
650.325	2802
650.383	2555
650.440	2308
650.498	2804
650.556	2868
650.613	2694
650.671	2795
650.728	3511
650.786	3758
650.843	6763
650.901	1974
650.958	2613
651.016	1295
651.073	2042
651.131	1049
651.188	1863
651.246	1997
651.303	2021
651.360	2083
651.418	1580
651.475	2083
651.532	1813
651.590	1469
651.647	1659
651.704	2005
651.762	1885
651.819	2300
651.876	1889
651.933	1556
651.990	3034
652.048	-501
652.105	1225
652.162	2362
652.219	972
652.276	2195
652.333	2503
652.390	993
652.448	1757
652.505	370
652.562	1147
652.619	483
652.676	936
652.733	2041
652.790	1865
652.847	484
652.904	1873
652.961	195
653.017	519
653.074	1762
653.131	1451
653.188	34
653.245	483
653.302	1027
653.359	1488
653.415	1423
653.472	712
653.529	757
653.586	1158
653.642	4
653.699	1883
653.756	958
653.813	1457
653.869	2409
653.926	683
653.983	171
654.039	1121
654.096	1075
654.152	2269
654.209	-561
654.266	1016
654.322	464
654.379	1773
654.435	1272
654.492	498
654.548	1339
654.605	779
654.661	1235
654.717	1514
654.774	1436
654.830	1038
654.887	653
654.943	1169
655.000	623
655.056	1476
655.112	915
655.168	962
655.225	1371
655.281	1511
655.337	263
655.394	707
655.450	555
655.506	1510
655.562	308
655.618	2609
655.675	-187
655.731	1947
655.787	33
655.843	2436
655.899	550
655.955	2798
656.011	1346
656.067	1408
656.123	816
656.179	1696
656.235	3242
656.291	1322
656.347	3181
656.403	1014
656.459	922
656.515	1411
656.571	1246
656.627	1679
656.683	803
656.739	1766
656.795	1338
656.850	1005
656.906	1424
656.962	1914
657.018	931
657.074	1334
657.129	3476
657.185	6940
657.241	15757
657.297	7369
657.352	1565
657.408	723
657.464	1705
657.519	1433
657.575	-250
657.630	765
657.686	119
657.742	957
657.797	483
657.853	966
657.908	1217
657.964	635
658.019	1304
658.075	1015
658.130	1085
658.186	479
658.241	489
658.297	-143
658.352	-17
658.407	916
658.463	-340
658.518	1040
658.573	798
658.629	-661
658.684	189
658.739	1315
658.795	172
658.850	811
658.905	-39
658.960	872
659.016	-333
659.071	310
659.126	-529
659.181	325
659.236	1317
659.291	1867
659.346	-1079
659.401	1126
659.457	725
659.512	-289
659.567	729
659.622	592
659.677	-178
659.732	-1182
659.787	475
659.842	-188
659.897	-238
659.952	1168
660.007	-230
660.061	373
660.116	-549
660.171	931
660.226	-473
660.281	868
660.336	274
660.391	1081
660.445	-1502
660.500	467
660.555	481
660.610	76
660.664	471
660.719	681
660.774	790
660.828	650
660.883	300
660.938	800
660.992	-692
661.047	401
661.101	-145
661.156	46
661.211	-595
661.265	680
661.320	-376
661.374	634
661.429	-943
661.483	902
661.538	-914
661.592	629
661.647	-161
661.701	866
661.755	411
661.810	491
661.864	261
661.919	753
661.973	273
662.027	300
662.081	-518
662.136	193
662.190	663
662.244	126
662.299	-868
662.353	-69
662.407	-989
662.461	222
662.515	-101
662.569	142
662.624	162
662.678	381
662.732	-949
662.786	33
662.840	-306
662.894	509
662.948	187
663.002	341
663.056	332
663.110	97
663.164	-797
663.218	804
663.272	-64
663.326	-559
663.380	96
663.434	-623
663.488	-574
663.542	443
663.595	-850
663.649	95
663.703	419
663.757	1210
663.811	-93
663.864	537
663.918	212
663.972	270
664.026	742
664.079	479
664.133	943
664.187	1374
664.240	448
664.294	839
664.348	23
664.401	849
664.455	-672
664.508	575
664.562	365
664.615	1118
664.669	-450
664.722	1172
664.776	-14
664.829	56
664.883	461
664.936	127
664.990	43
665.043	133
665.097	143
665.150	1648
665.203	494
665.257	96
665.310	254
665.363	377
665.417	10
665.470	981
665.523	328
665.576	796
665.630	-254
665.683	523
665.736	649
665.789	629
665.842	112
665.895	902
665.949	287
666.002	937
666.055	-236
666.108	748
666.161	-32
666.214	691
666.267	325
666.320	640
666.373	318
666.426	1470
666.479	317
666.532	772
666.585	-115
666.638	642
666.691	360
666.744	1205
666.796	-8
666.849	568
666.902	530
666.955	646
667.008	-286
667.060	372
667.113	-171
667.166	-38
667.219	723
667.271	1370
667.324	866
667.377	1898
667.430	-112
667.482	1231
667.535	456
667.587	612
667.640	460
667.693	859
667.745	1174
667.798	906
667.850	-273
667.903	1083
667.955	133
668.008	713
668.060	44
668.113	585
668.165	211
668.218	-179
668.270	332
668.322	461
668.375	336
668.427	1224
668.479	167
668.532	1094
668.584	217
668.636	178
668.689	399
668.741	493
668.793	-312
668.845	744
668.898	91
668.950	1503
669.002	391
669.054	224
669.106	-466
669.158	487
669.211	472
669.263	877
669.315	-47
669.367	508
669.419	-262
669.471	2209
669.523	950
669.575	1087
669.627	-419
669.679	943
669.731	-4
669.783	670
669.835	-352
669.886	-205
669.938	355
669.990	890
670.042	-531
670.094	956
670.146	454
670.197	518
670.249	764
670.301	325
670.353	417
670.404	1222
670.456	69
670.508	2155
670.560	1960
670.611	3979
670.663	4593
670.715	15234
670.766	22891
670.818	6716
670.869	1158
670.921	2074
670.972	1202
671.024	716
671.075	750
671.127	1177
671.178	635
671.230	1776
671.281	2269
671.333	2646
671.384	2577
671.436	5038
671.487	6116
671.538	10419
671.590	16083
671.641	27179
671.692	54565
671.744	102829
671.795	65269
671.846	19749
671.897	8285
671.949	4348
672.000	2621
672.051	2954
672.102	2087
672.153	1475
672.204	995
672.256	1406
672.307	1368
672.358	773
672.409	-479
672.460	1498
672.511	534
672.562	-24
672.613	669
672.664	563
672.715	-228
672.766	428
672.817	-267
672.868	983
672.919	-59
672.970	73
673.021	-663
673.071	-1078
673.122	113
673.173	924
673.224	426
673.275	-25
673.326	-112
673.376	-42
673.427	-290
673.478	-105
673.528	116
673.579	429
673.630	180
673.680	582
673.731	-286
673.782	-84
673.832	281
673.883	478
673.934	-1093
673.984	106
674.035	-38
674.085	693
674.136	309
674.186	360
674.237	-453
674.287	266
674.338	463
674.388	83
674.438	325
674.489	621
674.539	428
674.589	278
674.640	-473
674.690	786
674.740	404
674.791	931
674.841	-276
674.891	507
674.942	380
674.992	247
675.042	-104
675.092	-64
675.142	-465
675.193	349
675.243	-380
675.293	145
675.343	-763
675.393	184
675.443	30
675.493	37
675.543	-212
675.593	73
675.643	-394
675.693	424
675.743	389
675.793	225
675.843	-771
675.893	163
675.943	-305
675.993	-320
676.043	68
676.093	274
676.142	-694
676.192	519
676.242	-389
676.292	-90
676.341	181
676.391	75
676.441	-367
676.491	-937
676.540	-544
676.590	167
676.640	-711
676.689	-826
676.739	-1184
676.789	333
676.838	-1005
676.888	256
676.937	-594
676.987	-1645
677.037	-735
677.086	-428
677.136	-738
677.185	-88
677.235	-935
677.284	-72
677.333	-518
677.383	-461
677.432	-501
677.482	279
677.531	-626
677.580	141
677.630	-736
677.679	-589
677.728	-757
677.778	851
677.827	-1616
677.876	159
677.925	148
677.975	49
678.024	-740
678.073	545
678.122	-950
678.171	259
678.220	-428
678.269	972
678.319	478
678.368	1017
678.417	-261
678.466	533
678.515	-222
678.564	-46
678.613	-428
678.662	47
678.711	-998
678.760	58
678.809	-1003
678.857	-610
678.906	-732
678.955	-653
679.004	-252
679.053	-650
679.102	-424
679.151	26
679.199	-1212
679.248	-942
679.297	-710
679.346	-1161
679.394	-1702
679.443	-612
679.492	-332
679.540	-592
679.589	-398
679.638	-432
679.686	590
679.735	696
679.784	-721
679.832	97
679.881	-701
679.929	243
679.978	-867
680.026	151
680.075	-813
680.123	-881
680.172	-608
680.220	-41
680.268	-175
680.317	-645
680.365	-341
680.414	-700
680.462	-645
680.510	-339
680.559	-940
680.607	-369
680.655	-323
680.703	-645
680.752	-1361
680.800	-505
680.848	-1134
680.896	-564
680.945	-382
680.993	-329
681.041	-1499
681.089	-387
681.137	-259
681.185	-549
681.233	-214
681.258	-586
681.281	-949
681.329	-1026
681.377	-1017
681.380	-964
681.425	-156
681.473	223
681.502	-93
681.521	-334
681.569	-219
681.617	-316
681.624	-290
681.665	-199
681.713	-302
681.745	-529
681.761	-659
681.809	-115
681.857	815
681.867	519
681.904	-531
681.952	135
681.989	-408
682.000	-584
682.048	129
682.096	-482
682.111	-201
682.143	341
682.191	37
682.233	308
682.239	345
682.286	-606
682.334	-9
682.354	17
682.382	17
682.430	84
682.476	-502
682.477	-524
682.525	-94
682.572	-553
682.598	-157
682.620	170
682.667	-102
682.715	248
682.720	242
682.763	40
682.810	-112
682.841	92
682.857	216
682.905	-21
682.952	326
682.963	279
683.000	-3
683.047	-1133
683.085	378
683.095	784
683.142	399
683.190	507
683.206	94
683.237	-694
683.284	832
683.328	-136
683.332	-221
683.379	119
683.426	-34
683.449	690
683.473	1416
683.521	80
683.568	660
683.571	629
683.615	79
683.662	1332
683.693	915
683.709	665
683.757	-144
683.804	215
683.814	309
683.851	632
683.898	-124
683.936	568
683.945	737
683.992	495
684.039	655
684.057	565
684.086	369
684.133	532
684.179	109
684.180	91
684.227	1092
684.274	554
684.300	818
684.321	1044
684.368	565
684.415	1224
684.422	1226
684.462	1072
684.509	945
684.543	489
684.556	319
684.603	1232
684.649	741
684.665	1023
684.696	1639
684.743	425
684.786	1239
684.790	1294
684.837	493
684.883	956
684.908	934
684.930	992
684.977	1207
685.023	584
685.029	698
685.070	1303
685.117	537
685.150	722
685.164	837
685.210	957
685.257	1500
685.272	1475
685.303	1378
685.350	960
685.393	895
685.396	879
685.443	948
685.490	1200
685.514	1015
685.536	876
685.583	1053
685.629	1556
685.636	1491
685.675	1088
685.722	1085
685.757	1002
685.768	973
685.815	1271
685.861	922
685.878	993
685.908	1121
685.954	565
686.000	1529
686.000	1542
686.047	875
686.093	1032
686.121	1203
686.139	1347
686.185	1837
686.232	976
686.242	1204
686.278	1825
686.324	1381
686.363	1673
686.370	1740
686.416	1406
686.463	1653
686.484	1396
686.509	1150
686.555	1290
686.601	1515
686.606	1602
686.647	2211
686.693	1727
686.727	841
686.739	551
686.785	1786
686.831	1421
686.848	1523
686.877	1630
686.923	2069
686.969	1125
686.969	1120
687.015	1707
687.061	2079
687.090	2129
687.107	2099
687.153	2310
687.199	2250
687.211	2120
687.245	1886
687.291	1974
687.332	1928
687.336	1908
687.382	1694
687.428	1991
687.453	1979
687.474	2081
687.520	2214
687.565	2422
687.574	2426
687.611	2202
687.657	2380
687.695	2152
687.702	2163
687.748	2329
687.794	2521
687.816	2594
687.839	2521
687.885	2542
687.931	2933
687.937	2789
687.976	2064
688.022	2393
688.058	2631
688.067	2662
688.113	2087
688.158	1622
688.179	1712
688.204	1918
688.249	2141
688.295	2526
688.300	2402
688.340	1573
688.386	2565
688.421	2238
688.431	2141
688.477	2497
688.522	2493
688.542	2555
688.567	2742
688.613	3017
688.658	2934
688.663	2979
688.703	3085
688.749	2852
688.784	2869
688.794	2860
688.839	3164
688.884	2785
688.905	2843
688.930	3015
688.975	2846
689.020	2836
689.026	2789
689.065	2450
689.110	2517
689.146	2945
689.155	3077
689.201	2880
689.246	2725
689.267	2835
689.291	2862
689.336	2576
689.381	2521
689.388	2511
689.426	2587
689.471	2626
689.509	2367
689.516	2336
689.561	3093
689.606	2715
689.630	2909
689.651	2997
689.696	2515
689.741	2597
689.750	2519
689.785	2393
689.830	2729
689.871	2733
689.875	2734
689.920	2462
689.965	2416
689.992	2746
690.010	2979
690.054	2338
690.099	3325
690.112	3128
690.144	2556
690.189	2662
690.233	2231
690.233	2235
690.278	2882
690.323	2474
690.354	2833
690.367	3002
690.412	2752
690.457	3304
690.474	3141
690.501	2684
690.546	2795
690.590	2431
690.595	2412
690.635	2568
690.680	2202
690.716	2571
690.724	2657
690.769	2262
690.813	3251
690.836	2768
690.857	2471
690.902	2992
690.946	3549
690.957	3572
690.991	3767
691.035	4130
691.077	4768
691.080	4775
691.124	4318
691.168	4159
691.198	3661
691.213	3473
691.257	3678
691.301	3280
691.318	3325
691.346	3384
691.390	2383
691.434	2549
691.439	2501
691.478	2643
691.522	3215
691.559	3477
691.567	3481
691.611	3749
691.655	3017
691.680	3078
691.699	3123
691.743	3472
691.787	3274
691.800	3148
691.831	2906
691.875	3088
691.919	2879
691.921	2880
691.964	3503
692.008	3470
692.041	3758
692.052	3762
692.096	3386
692.139	3680
692.162	3459
692.183	3269
692.227	3719
692.271	2853
692.282	2945
692.315	3373
692.359	2922
692.402	3693
692.403	3708
692.447	3534
692.490	3630
692.523	3460
692.534	3358
692.578	3724
692.622	3623
692.643	3609
692.666	3563
692.709	3076
692.753	3269
692.763	3211
692.797	3322
692.840	3272
692.884	3734
692.884	3746
692.928	3726
692.971	3678
693.004	3802
693.015	3829
693.059	3770
693.102	3674
693.124	3574
693.146	3527
693.189	3472
693.233	3446
693.245	3414
693.276	3504
693.320	3796
693.363	3752
693.365	3751
693.407	3612
693.450	3473
693.485	2896
693.493	2882
693.537	3545
693.580	3587
693.605	4059
693.624	4390
693.667	4182
693.710	4419
693.725	4500
693.753	5033
693.797	5691
693.840	6992
693.845	7032
693.883	6223
693.926	5413
693.966	5152
693.970	5169
694.013	4481
694.056	4465
694.086	4047
694.099	3876
694.142	3529
694.185	3248
694.206	3051
694.229	3180
694.272	3451
694.315	3956
694.326	3987
694.358	3894
694.401	4171
694.444	4061
694.446	4054
694.487	4090
694.530	3797
694.566	3750
694.573	3830
694.616	4191
694.659	4748
694.686	4772
694.702	4621
694.745	4845
694.787	4554
694.806	4491
694.830	4472
694.873	4362
694.916	4387
694.926	4277
694.959	4126
695.002	4407
695.044	4433
695.046	4430
695.087	4847
695.130	5017
695.166	5178
695.172	5175
695.215	5051
695.258	5089
695.286	5008
695.301	5054
695.343	5287
695.386	5302
695.406	5372
695.428	5650
695.471	5881
695.514	6423
695.526	6548
695.556	7009
695.599	7704
695.641	8053
695.646	8100
695.684	7619
695.726	6913
695.766	6456
695.769	6490
695.811	6573
695.854	6619
695.886	6675
695.896	6687
695.938	6499
695.981	6474
696.005	6576
696.023	6923
696.065	7351
696.108	7836
696.125	8070
696.150	8092
696.192	8144
696.235	7881
696.245	7896
696.277	8042
696.319	7858
696.361	7983
696.365	7942
696.404	7746
696.446	7793
696.485	7763
696.488	7794
696.530	7842
696.572	7917
696.604	7926
696.614	7912
696.656	7825
696.698	7825
696.724	7693
696.740	7737
696.783	7955
696.825	8054
696.844	8096
696.867	8023
696.909	7724
696.951	7602
696.964	7519
696.992	7844
697.034	8329
697.076	8679
697.083	8746
697.118	8912
697.160	8946
697.202	9029
697.203	9006
697.244	9057
697.286	9172
697.323	9104
697.327	9135
697.369	9311
697.411	9420
697.442	9529
697.453	9477
697.494	9077
697.536	8727
697.562	8440
697.578	8533
697.620	8783
697.661	9033
697.682	9137
697.703	9245
697.744	9311
697.786	9586
697.801	9571
697.828	9433
697.869	9336
697.911	9131
697.921	9075
697.952	9111
697.994	9080
698.035	9110
698.040	9076
698.077	9221
698.118	9485
698.160	9654
698.160	9628
698.201	9993
698.243	10327
698.279	10633
698.284	10684
698.325	10837
698.367	11049
698.399	11143
698.408	11146
698.449	11055
698.491	10936
698.518	10839
698.532	10987
698.573	11348
698.614	11727
698.638	11883
698.656	11869
698.697	11811
698.738	11733
698.757	11670
698.779	11521
698.820	11155
698.862	10814
698.877	10656
698.903	10928
698.944	11316
698.985	11706
698.996	11785
699.026	11779
699.067	11723
699.116	11630
699.235	11817
699.354	10956
699.474	10964
699.593	10605
699.713	10289
699.832	11180
699.951	11520
700.070	10625
700.190	10826
700.309	10516
700.428	9758
700.547	9550
700.667	9542
700.786	9593
700.905	9047
701.024	9481
701.143	9287
701.262	10301
701.381	9193
701.500	9773
701.619	9435
701.738	10187
701.857	9469
701.976	8245
702.095	9092
702.214	10574
702.333	9479
702.452	10132
702.571	9863
702.690	9200
702.809	9244
702.928	9552
703.047	8187
703.165	9062
703.284	8552
703.403	9477
703.522	8075
703.640	8827
703.759	7946
703.878	7836
703.997	8550
704.115	8800
704.234	8310
704.353	8582
704.471	7426
704.590	7386
704.708	7683
704.827	6633
704.946	7876
705.064	7668
705.183	7231
705.301	7463
705.420	7792
705.538	7335
705.656	6331
705.775	5636
705.893	6752
706.012	6636
706.130	6843
706.249	7223
706.367	6469
706.485	6757
706.604	6197
706.722	7164
706.840	6888
706.958	6944
707.077	6490
707.195	6584
707.313	5783
707.431	5933
707.549	5728
707.668	5467
707.786	6876
707.904	5883
708.022	6290
708.140	5364
708.258	5396
708.376	6758
708.494	6449
708.612	6115
708.730	6477
708.848	6487
708.966	5855
709.084	6828
709.202	5442
709.320	6143
709.438	5195
709.556	5661
709.674	5696
709.791	5320
709.909	5343
710.027	5337
710.145	4974
710.263	5094
710.380	4507
710.498	5105
710.616	4627
710.733	5296
710.851	5105
710.969	6156
711.086	4599
711.204	5249
711.322	4909
711.439	4864
711.557	4844
711.674	4165
711.792	4829
711.909	4868
712.027	4239
712.144	4567
712.262	4571
712.379	4843
712.497	3936
712.614	4577
712.732	5188
712.849	4359
712.966	4684
713.084	4309
713.201	4175
713.318	4319
713.436	5640
713.553	4397
713.670	4939
713.787	4686
713.905	5141
714.022	4867
714.139	5611
714.256	8158
714.373	13663
714.490	28166
714.608	92300
714.725	377024
714.842	238497
714.959	19076
715.076	9737
715.193	6928
715.310	6537
715.427	4347
715.544	5131
715.661	4835
715.778	4792
715.895	3917
716.011	4649
716.128	4100
716.245	3616
716.362	4314
716.479	3394
716.596	3686
716.713	3779
716.829	3655
716.946	3808
717.063	3333
717.180	3166
717.296	3439
717.413	3153
717.530	3642
717.646	3097
717.763	3089
717.880	3033
717.996	2320
718.113	3105
718.229	3514
718.346	2881
718.462	2596
718.579	3150
718.695	3600
718.812	3547
718.928	3099
719.045	2240
719.161	3204
719.277	3069
719.394	3169
719.510	3488
719.626	4138
719.743	6357
719.859	12455
719.975	30408
720.092	140546
720.208	218516
720.324	17738
720.440	4931
720.557	3981
720.673	3740
720.789	3591
720.905	3201
721.021	3561
721.137	3438
721.253	1963
721.369	2681
721.486	2937
721.602	2362
721.718	2725
721.834	2908
721.950	3311
722.066	2568
722.181	2973
722.297	3380
722.413	3249
722.529	2506
722.645	2803
722.761	2741
722.877	2798
722.993	2945
723.108	4277
723.224	2780
723.340	2490
723.456	2164
723.571	2395
723.687	1897
723.803	2134
723.918	1612
724.034	1193
724.150	2069
724.265	1498
724.381	1699
724.497	1605
724.612	1845
724.728	1737
724.843	1981
724.959	1817
725.074	2255
725.190	2173
725.305	2118
725.421	1720
725.536	1628
725.651	1778
725.767	2712
725.882	2365
725.997	1073
726.113	1823
726.228	2007
726.343	2324
726.459	1149
726.574	1848
726.689	1427
726.804	2362
726.920	1710
727.035	1892
727.150	2649
727.265	2348
727.380	1964
727.495	2322
727.610	2272
727.725	1724
727.841	2115
727.956	1687
728.071	1693
728.186	1640
728.301	1478
728.416	2295
728.531	1667
728.645	1353
728.760	1720
728.875	1455
728.990	1176
729.105	1767
729.220	1757
729.335	1949
729.449	2236
729.564	1677
729.679	1481
729.794	2162
729.908	2428
730.023	1233
730.138	2020
730.253	1582
730.367	1663
730.482	1619
730.596	2283
730.711	2999
730.826	3549
730.940	3228
731.055	2237
731.169	2681
731.284	2623
731.398	2768
731.513	2693
731.627	2949
731.742	4520
731.856	5805
731.970	5461
732.085	7044
732.199	12616
732.313	23082
732.428	72567
732.542	209756
732.656	83820
732.771	14650
732.885	8730
732.999	7979
733.113	8079
733.227	8214
733.342	7308
733.456	7535
733.570	6872
733.684	6396
733.798	5901
733.912	6307
734.026	6308
734.140	5880
734.254	6004
734.368	5588
734.482	7376
734.596	5770
734.710	6091
734.824	6061
734.938	5793
735.052	5124
735.166	5596
735.280	5255
735.393	4362
735.507	5483
735.621	5131
735.735	4224
735.849	5589
735.962	5636
736.076	5200
736.190	5586
736.303	5186
736.417	4859
736.531	5190
736.644	3953
736.758	5195
736.872	5840
736.985	5324
737.099	4706
737.212	4033
737.326	5351
737.439	5023
737.553	4631
737.666	4689
737.780	4506
737.893	4606
738.007	5007
738.120	4322
738.233	4736
738.347	4012
738.460	3613
738.573	4506
738.687	3531
738.800	4112
738.913	4571
739.026	4356
739.140	3811
739.253	4276
739.366	3906
739.479	4427
739.592	4129
739.705	3699
739.818	4047
739.932	3771
740.045	4080
740.158	3658
740.271	4239
740.384	3127
740.497	3892
740.610	4356
740.723	3362
740.836	3331
740.949	3949
741.062	5134
741.174	3897
741.287	3741
741.400	3005
741.513	3563
741.626	3663
741.739	3107
741.851	3092
741.964	2806
742.077	3709
742.189	3013
742.302	3292
742.415	2800
742.527	3537
742.640	3025
742.753	2530
742.865	2877
742.978	3406
743.090	2451
743.203	3715
743.316	2901
743.428	2687
743.541	3260
743.653	3460
743.766	3240
743.878	3109
743.990	2102
744.103	3570
744.215	3496
744.327	2735
744.440	4289
744.552	2858
744.664	2055
744.777	3370
744.889	1635
745.001	2768
745.113	3055
745.226	2588
745.338	3374
745.450	3545
745.562	3023
745.674	2896
745.786	3251
745.898	2326
746.010	1755
746.122	2587
746.234	3345
746.347	2655
746.459	2678
746.570	1732
746.682	3491
746.794	4251
746.906	1941
747.018	2352
747.130	2758
747.242	2771
747.354	2579
747.466	2805
747.577	2085
747.689	2687
747.801	3224
747.913	1658
748.024	1899
748.136	1762
748.248	2106
748.359	1891
748.471	2381
748.583	1232
748.694	2167
748.806	2422
748.918	1699
749.029	1859
749.141	2404
749.252	2231
749.364	1577
749.475	1507
749.587	1761
749.698	1908
749.809	2435
749.921	1865
750.032	2094
750.144	674
750.255	1745
750.366	1319
750.478	2314
750.589	1696
750.700	538
750.811	2914
750.923	1799
751.034	1260
751.145	2398
751.256	1877
751.367	2059
751.479	1172
751.590	1264
751.701	1084
751.812	2128
751.923	1581
752.034	2210
752.145	2449
752.256	1918
752.367	1428
752.478	904
752.589	1739
752.700	2036
752.811	1519
752.922	1948
753.032	1393
753.143	2243
753.254	336
753.365	2747
753.476	2770
753.586	1540
753.697	2116
753.808	2185
753.919	1550
754.029	1685
754.140	1837
754.251	1512
754.361	1613
754.472	1458
754.582	773
754.693	1445
754.804	1454
754.914	1261
755.025	755
755.135	732
755.246	1717
755.356	875
755.466	1279
755.577	1600
755.687	1980
755.798	664
755.908	1349
756.018	1600
756.129	1829
756.239	2083
756.349	2022
756.460	1711
756.570	2448
756.680	1780
756.790	2226
756.900	1497
757.011	1451
757.121	1862
757.231	1522
757.341	1628
757.451	1590
757.561	1418
757.671	1014
757.781	1096
757.891	1069
758.001	883
758.111	2275
758.221	2201
758.331	1523
758.441	1310
758.551	1009
758.661	2030
758.771	1204
758.880	1066
758.990	1753
759.100	1508
759.210	1905
759.320	1407
759.429	1075
759.539	1506
759.649	2119
759.758	2435
759.868	2814
759.978	1528
760.087	3426
760.197	2978
760.307	2165
760.416	1871
760.526	1419
760.635	2588
760.745	2668
760.854	3381
760.964	3416
761.073	3233
761.182	2636
761.292	2821
761.401	2529
761.511	880
761.620	1923
761.729	1020
761.839	1235
761.948	1579
762.057	1176
762.166	1752
762.276	116
762.385	1801
762.494	921
762.603	712
762.712	1135
762.822	747
762.931	1289
763.040	531
763.149	431
763.258	678
763.367	1052
763.476	1201
763.585	1979
763.694	507
763.803	1248
763.912	1366
764.021	898
764.130	887
764.238	1867
764.347	1470
764.456	1402
764.565	695
764.674	949
764.783	1023
764.891	655
765.000	2820
765.109	1428
765.217	1022
765.326	2677
765.435	2884
765.543	3230
765.652	2957
765.761	3917
765.869	5582
765.978	9211
766.086	14775
766.195	31591
766.303	82187
766.412	179725
766.520	118033
766.629	40869
766.737	16070
766.846	8975
766.954	6226
767.062	4929
767.171	3971
767.279	3174
767.387	2665
767.496	2589
767.604	2237
767.712	1667
767.820	1920
767.928	1538
768.037	1392
768.145	1715
768.253	1750
768.361	1588
768.469	1300
768.577	1981
768.685	1996
768.793	1692
768.901	560
769.009	1882
769.117	1861
769.225	2396
769.333	3831
769.441	6239
769.549	13162
769.657	31034
769.765	93314
769.873	133084
769.981	45801
770.088	12566
770.196	6373
770.304	5281
770.412	3505
770.519	2475
770.627	2690
770.735	1614
770.842	3095
770.950	2027
771.058	1948
771.165	2560
771.273	2599
771.380	3222
771.488	4083
771.595	3604
771.703	2757
771.810	3874
771.918	4014
772.025	4399
772.133	5571
772.240	4150
772.348	5149
772.455	5780
772.562	4137
772.670	3858
772.777	4931
772.884	4724
772.991	4951
773.099	4907
773.206	3370
773.313	4223
773.420	3816
773.528	4037
773.635	3246
773.742	4790
773.849	4467
773.956	3997
774.063	3199
774.170	3515
774.277	3890
774.384	3984
774.491	3411
774.598	3652
774.705	4056
774.812	3341
774.919	3553
775.026	3067
775.133	3419
775.239	3789
775.346	3547
775.453	3952
775.560	3436
775.667	3528
775.773	2173
775.880	3673
775.987	2623
776.093	3450
776.200	3936
776.307	2155
776.413	2975
776.520	4012
776.627	2587
776.733	2903
776.840	2168
776.946	5036
777.053	4654
777.159	5302
777.266	3001
777.372	5703
777.478	4830
777.585	3524
777.691	1344
777.798	3601
777.904	3091
778.010	2631
778.117	2605
778.223	2575
778.329	2591
778.435	2017
778.542	2677
778.648	2598
778.754	2007
778.860	2540
778.966	1536
779.072	2226
779.178	2668
779.284	2081
779.391	2531
779.497	1328
779.603	3201
779.708	943
779.815	2692
779.920	3361
780.026	3799
780.132	2615
780.238	1293
780.344	2651
780.450	3258
780.556	2158
780.661	1734
780.767	2722
780.873	482
780.979	2377
781.085	1578
781.190	2101
781.296	1460
781.402	1325
781.507	2138
781.613	1677
781.719	2057
781.824	2152
781.930	2368
782.035	2062
782.141	1604
782.246	1930
782.352	1982
782.457	2235
782.563	1808
782.668	1040
782.773	1311
782.879	1111
782.984	1469
783.090	1898
783.195	2140
783.300	2153
783.405	1410
783.511	613
783.616	1285
783.721	1657
783.826	1233
783.932	2199
784.037	1224
784.142	1442
784.247	785
784.352	1145
784.457	366
784.562	2416
784.667	428
784.772	921
784.877	536
784.982	2404
785.087	1334
785.192	1691
785.297	1757
785.402	1433
785.507	989
785.611	1998
785.716	354
785.821	1091
785.926	1474
786.031	1073
786.135	1634
786.240	1290
786.345	-223
786.450	1093
786.554	792
786.659	-247
786.763	212
786.868	869
786.973	1419
787.077	1079
787.182	70
787.286	1382
787.391	993
787.495	517
787.600	311
787.704	237
787.809	1274
787.913	203
788.017	1205
788.122	1244
788.226	416
788.330	119
788.435	685
788.539	1106
788.643	-58
788.747	-55
788.852	530
788.956	650
789.060	1361
789.164	979
789.268	840
789.372	1283
789.476	487
789.580	373
789.684	114
789.788	1423
789.892	215
789.996	724
790.100	133
790.204	698
790.308	1238
790.412	-376
790.516	-527
790.620	146
790.724	623
790.828	402
790.931	-537
791.035	1574
791.139	508
791.242	-216
791.346	1330
791.450	359
791.554	202
791.657	-988
791.761	1214
791.864	531
791.968	887
792.072	232
792.175	636
792.279	-234
792.382	-74
792.486	47
792.589	394
792.693	849
792.796	-483
792.899	880
793.003	853
793.106	-227
793.209	-365
793.313	1279
793.416	-1010
793.519	1003
793.623	1222
793.726	25
793.829	222
793.932	-320
794.035	-211
794.138	849
794.242	1069
794.345	-712
794.448	231
794.551	-37
794.654	2268
794.757	2003
794.860	-54
794.963	563
795.066	296
795.169	1570
795.272	-424
795.375	-58
795.477	-395
795.580	464
795.683	-1285
795.786	1072
795.889	-1009
795.991	1049
796.094	1525
796.197	-1632
796.300	1676
796.402	521
796.505	-909
796.608	-369
796.710	760
796.813	978
796.915	58
797.018	910
797.120	395
797.223	-925
797.326	1509
797.428	-694
797.530	-491
797.633	264
797.735	807
797.838	-766
797.940	689
798.042	-217
798.145	-623
798.247	880
798.349	-597
798.452	133
798.554	125
798.656	-178
798.758	1147
798.860	177
798.962	-379
799.065	55
799.167	-827
799.269	1696
799.371	1239
799.473	1715
799.575	-881
799.677	-439
799.779	1392
799.881	-1945
799.983	823
800.085	473
800.187	133
800.289	-848
800.390	-415
800.492	1199
800.594	1128
800.696	-524
800.798	7
800.899	-377
801.001	104
801.103	372
801.205	111
801.306	4
801.408	-894
801.509	-219
801.611	-20
801.713	134
801.814	417
801.916	-122
802.017	-485
802.119	-896
802.220	-338
802.322	-1329
802.423	1592
802.525	-1081
802.626	54
802.727	448
802.829	652
802.930	-1787
803.031	1316
803.133	-875
803.234	182
803.335	903
803.436	-1482
803.538	558
803.639	-684
803.740	526
803.841	-514
803.942	366
804.043	426
804.144	-682
804.245	-17
804.346	-961
804.447	-392
804.548	-416
804.649	800
804.750	-367
804.851	-667
804.952	-840
805.053	-95
805.154	-767
805.255	382
805.355	257
805.456	-533
805.557	-1051
805.658	-1843
805.758	532
805.859	-475
805.960	-444
806.061	-534
806.161	-810
806.262	8
806.362	150
806.463	-851
806.564	129
806.664	-708
806.765	-85
806.865	-329
806.966	65
807.066	-1063
807.166	604
807.267	252
807.367	-1118
807.468	372
807.568	-992
807.668	176
807.769	549
807.869	-1166
807.969	-159
808.069	258
808.170	23
808.270	-1340
808.370	-529
808.470	-66
808.570	-1006
808.670	-903
808.770	-805
808.870	-1238
808.970	-700
809.070	-996
809.170	-1093
809.271	-68
809.370	-1191
809.470	283
809.570	-893
809.670	-1234
809.770	-168
809.870	404
809.970	-465
810.070	-384
810.169	513
810.269	-1557
810.369	-297
810.469	-385
810.568	-589
810.668	-1019
810.768	-766
810.867	-410
810.967	-1041
811.066	-346
811.166	-107
811.265	-171
811.365	-663
811.464	-652
811.564	-857
811.663	-530
811.763	-1637
811.862	-373
811.962	-241
812.061	-349
812.160	-1147
812.260	-316
812.359	-83
812.458	-756
812.557	-257
812.657	-744
812.756	-466
812.855	-656
812.954	-1333
813.053	-291
813.153	-540
813.252	-976
813.351	337
813.450	46
813.549	-773
813.648	449
813.747	50
813.846	503
813.945	-853
814.044	440
814.143	-257
814.242	202
814.341	-564
814.439	291
814.538	-202
814.637	-85
814.736	-123
814.835	719
814.933	-1002
815.032	947
815.131	795
815.229	2793
815.328	4092
815.427	2381
815.525	3284
815.624	3574
815.722	1395
815.821	1974
815.919	3592
816.018	1576
816.116	2256
816.215	2002
816.313	2714
816.412	2867
816.510	2732
816.609	3986
816.707	4412
816.805	3035
816.904	2470
817.002	3177
817.100	3543
817.198	4164
817.296	1814
817.395	3069
817.493	3455
817.591	2488
817.689	3479
817.787	2462
817.885	2716
817.983	1754
818.081	2820
818.179	3471
818.277	4788
818.375	3804
818.473	2772
818.571	3167
818.669	2066
818.767	3102
818.865	2227
818.963	2437
819.061	2272
819.158	2561
819.256	4440
819.354	3580
819.452	6521
819.549	3164
819.647	4491
819.745	1756
819.842	3130
819.940	1461
820.038	1216
820.135	1845
820.233	3426
820.330	2461
820.428	1900
820.525	2678
820.623	1847
820.720	1933
820.818	1774
820.915	2252
821.012	3086
821.110	1411
821.207	2884
821.304	1388
821.402	2971
821.499	3128
821.596	2680
821.693	2574
821.791	2243
821.888	1389
821.985	3128
822.082	822
822.179	1876
822.276	1503
822.373	1415
822.470	1847
822.567	2177
822.664	774
822.761	2716
822.858	1427
822.955	1120
823.052	1049
823.149	1551
823.246	1531
823.343	856
823.440	1766
823.536	1702
823.633	1042
823.730	1818
823.827	1203
823.923	1697
824.020	2357
824.117	1858
824.213	1377
824.310	1861
824.407	325
824.503	1957
824.600	1041
824.696	888
824.793	2163
824.889	829
824.986	322
825.082	366
825.179	635
825.275	1648
825.371	1673
825.468	1319
825.564	-103
825.660	1297
825.757	1708
825.853	1634
825.949	-13
826.045	1183
826.142	1243
826.238	1671
826.334	618
826.430	-154
826.526	565
826.622	454
826.718	1870
826.814	759
826.910	1662
827.006	50
827.102	-708
827.198	2267
827.294	608
827.390	1618
827.486	901
827.582	-634
827.678	27
827.774	1368
827.869	-595
827.965	1321
828.061	-164
828.157	1291
828.252	1071
828.348	1142
828.444	325
828.539	707
828.635	1148
828.731	1314
828.826	-244
828.922	1984
829.017	1482
829.113	1286
829.208	661
829.304	275
829.399	1310
829.495	586
829.590	1566
829.685	-14
829.781	1325
829.876	1137
829.971	-553
830.066	-434
830.162	1230
830.257	1330
830.352	112
830.447	644
830.543	-276
830.638	-188
830.733	1574
830.828	-325
830.923	1443
831.018	-800
831.113	918
831.208	34
831.303	-233
831.398	129
831.493	936
831.588	1915
831.683	-495
831.778	430
831.873	297
831.967	2297
832.062	493
832.157	367
832.252	729
832.346	395
832.441	818
832.536	540
832.631	1188
832.725	-468
832.820	310
832.914	161
833.009	-393
833.104	-600
833.198	151
833.293	-227
833.387	1223
833.482	-189
833.576	-224
833.670	864
833.765	386
833.859	600
833.954	58
834.048	628
834.142	-11
834.237	-534
834.331	-568
834.425	748
834.519	-143
834.613	1167
834.708	-259
834.802	-442
834.896	56
834.990	-11
835.084	485
835.178	-2
835.272	76
835.366	230
835.460	653
835.554	130
835.648	503
835.742	-747
835.836	-613
835.930	-1160
836.024	672
836.117	450
836.211	-613
836.305	-320
836.399	246
836.493	-619
836.586	1531
836.680	29
836.774	-429
836.867	1387
836.961	-261
837.055	-618
837.148	-625
837.242	162
837.335	401
837.429	-199
837.522	129
837.616	-116
837.709	473
837.803	-1778
837.896	1067
837.989	-691
838.083	-175
838.176	-627
838.269	-815
838.363	482
838.456	-498
838.549	404
838.642	-583
838.735	677
838.829	640
838.922	18
839.015	-130
839.108	-1469
839.201	816
839.294	557
839.387	-217
839.480	-1500
839.573	-807
839.666	-545
839.759	-484
839.852	-1113
839.945	-193
840.038	-302
840.131	323
840.223	-666
840.316	244
840.409	473
840.502	-467
840.594	421
840.687	-1491
840.780	-95
840.873	-894
840.965	-223
841.058	369
841.150	235
841.243	-1274
841.336	641
841.428	-594
841.521	-1070
841.613	-444
841.706	-656
841.798	-584
841.890	520
841.983	-970
842.075	104
842.167	-1620
842.260	-375
842.352	438
842.444	-566
842.537	-45
842.629	-229
842.721	-302
842.813	82
842.905	-541
842.997	-564
843.090	-720
843.182	-529
843.274	-647
843.366	210
843.458	-951
843.550	290
843.642	-941
843.734	616
843.826	-620
843.918	-202
844.009	96
844.101	-540
844.193	-210
844.285	-563
844.377	-234
844.469	-444
844.560	-886
844.652	-191
844.744	-518
844.835	-23
844.927	126
845.019	-10
845.110	-630
845.202	-436
845.293	-763
845.385	-958
845.476	20
845.568	-57
845.659	-793
845.751	87
845.842	-1446
845.934	-547
846.025	-1140
846.116	360
846.208	402
846.299	-483
846.390	-914
846.482	-252
846.573	-63
846.664	-303
846.755	-616
846.846	215
846.937	-1499
847.029	-410
847.120	-865
847.211	-586
847.302	335
847.393	-1148
847.484	-602
847.575	-696
847.666	-291
847.757	-83
847.847	-141
847.938	668
848.029	-1157
848.120	-1374
848.211	-1561
848.302	-1459
848.392	-946
848.483	4
848.574	-544
848.664	-597
848.755	-258
848.846	528
848.936	-768
849.027	-342
849.118	-286
849.208	-223
849.299	865
849.389	2411
849.480	6674
849.570	13969
849.661	29037
849.751	37627
849.841	8975
849.932	1099
850.022	-12
850.112	-247
850.203	-831
850.293	-1198
850.383	-86
850.474	-407
850.564	-613
850.654	103
850.744	-1142
850.834	-506
850.924	-547
851.014	22
851.104	-630
851.194	77
851.284	-1063
851.374	-653
851.464	-1255
851.554	-478
851.644	-1540
851.734	-623
851.824	-1568
851.914	-704
852.004	-243
852.094	-1384
852.183	-1094
852.273	-414
852.363	-693
852.452	-294
852.542	367
852.632	-693
852.721	-513
852.811	-827
852.901	-194
852.990	704
853.080	-542
853.169	-244
853.259	323
853.348	-185
853.438	424
853.527	1653
853.617	2791
853.706	8304
853.795	13986
853.885	33970
853.974	58742
854.063	111030
854.152	127388
854.242	38969
854.331	7921
854.420	3038
854.509	2835
854.598	1282
854.687	1111
854.777	838
854.866	-715
854.955	559
855.044	-325
855.133	480
855.222	-619
855.311	-669
855.400	-10
855.488	90
855.577	-604
855.666	-708
855.755	267
855.844	-193
855.933	-890
856.021	-594
856.110	-828
856.199	-895
856.288	-799
856.376	-1194
856.465	-972
856.554	-201
856.642	-719
856.731	-39
856.819	217
856.908	-1016
856.996	-593
857.085	-911
857.173	-556
857.262	-12
857.350	-672
857.438	-627
857.527	-555
857.615	-606
857.703	-61
857.792	-943
857.880	-1032
857.968	-607
858.056	-967
858.145	-541
858.233	-937
858.321	-564
858.409	51
858.497	-1162
858.585	-725
858.673	-817
858.761	-830
858.849	-1523
858.937	-1156
859.025	-72
859.113	-852
859.201	-935
859.289	511
859.377	-1305
859.465	-381
859.552	-88
859.640	-744
859.728	-832
859.816	-906
859.903	-64
859.991	-1048
860.079	193
860.166	-1052
860.254	-249
860.342	-646
860.429	-135
860.517	-1063
860.604	-542
860.692	-658
860.779	-764
860.867	-1095
860.954	-714
861.042	-587
861.129	-359
861.216	-427
861.304	-455
861.391	-820
861.478	-829
861.565	-313
861.653	-469
861.740	-1116
861.827	-1320
861.914	-506
862.001	-253
862.089	-890
862.176	-903
862.263	-865
862.350	-145
862.437	-590
862.524	-1208
862.611	-1431
862.698	-379
862.785	-409
862.871	172
862.958	-1115
863.045	-628
863.132	761
863.219	-112
863.306	-1449
863.392	-548
863.479	-918
863.566	51
863.652	-103
863.739	-1027
863.826	-97
863.912	-21
863.999	-1038
864.086	199
864.172	-494
864.259	733
864.345	-631
864.432	-209
864.518	-328
864.604	321
864.691	-209
864.777	81
864.863	558
864.950	1895
865.036	2255
865.122	4819
865.209	5285
865.295	5157
865.381	3498
865.467	4296
865.553	5109
865.639	7283
865.726	10792
865.812	20648
865.898	35331
865.984	49598
866.070	92147
866.156	72421
866.242	18236
866.328	7749
866.414	5009
866.499	4968
866.585	3542
866.671	4297
866.757	4419
866.843	3738
866.928	2718
867.014	3331
867.100	2734
867.186	2994
867.271	3455
867.357	3609
867.442	2584
867.528	3611
867.614	2636
867.699	3385
867.785	3822
867.870	2770
867.956	3179
868.041	3760
868.127	3194
868.212	2644
868.297	2380
868.383	3178
868.468	2637
868.553	3112
868.639	2879
868.724	3230
868.809	2779
868.894	2078
868.979	2758
869.065	3362
869.150	1268
869.235	3147
869.320	2298
869.405	2642
869.490	2221
869.575	1599
869.660	2071
869.745	3272
869.830	2620
869.915	2552
870.000	1634
870.085	2911
870.169	2968
870.254	2900
870.339	967
870.424	2076
870.509	1973
870.593	2775
870.678	1815
870.763	1927
870.847	2816
870.932	2849
871.016	1754
871.101	1523
871.186	3256
871.270	2690
871.355	1652
871.439	2163
871.523	1945
871.608	1429
871.692	2233
871.777	2313
871.861	2366
871.945	1039
872.030	2486
872.114	1776
872.198	1008
872.282	1014
872.367	1641
872.451	1842
872.535	1655
872.619	1602
872.703	1357
872.787	1090
872.871	1847
872.955	357
873.039	1039
873.123	2334
873.207	2293
873.291	1297
873.375	1569
873.459	1767
873.543	956
873.627	162
873.711	1431
873.794	2512
873.878	975
873.962	896
874.045	1265
874.129	1884
874.137	1831
874.213	1299
874.245	1549
874.296	1947
874.352	1401
874.380	1138
874.460	1215
874.464	1217
874.547	1018
874.568	1197
874.631	1698
874.676	1186
874.714	771
874.784	1782
874.798	1979
874.881	1584
874.892	1506
874.965	1019
874.999	1419
875.048	1905
875.107	795
875.131	351
875.215	1301
875.215	1301
875.298	953
875.323	1094
875.381	1408
875.430	1806
875.465	2057
875.538	1760
875.548	1718
875.631	682
875.646	576
875.714	179
875.753	669
875.798	1179
875.861	1790
875.881	1972
875.964	577
875.968	587
876.047	785
876.076	790
876.130	910
876.183	1333
876.213	1519
876.291	2199
876.296	2242
876.379	1567
876.398	1474
876.462	1215
876.506	1104
876.545	1018
876.613	1540
876.628	1668
876.711	1125
876.721	1328
876.794	2772
876.828	2463
876.877	1958
876.935	1134
876.960	853
877.043	1129
877.043	1129
877.125	1626
877.150	1893
877.208	2127
877.258	1238
877.291	717
877.365	1050
877.374	1109
877.456	325
877.472	449
877.539	1021
877.579	1467
877.622	1924
877.687	1747
877.704	1680
877.787	2302
877.794	2271
877.869	2127
877.901	1945
877.952	1311
878.008	820
878.034	712
878.115	780
878.117	785
878.199	832
878.222	1115
878.282	2201
878.329	2745
878.364	2840
878.437	1682
878.447	1514
878.529	969
878.544	960
878.611	1188
878.651	1301
878.694	1555
878.758	2108
878.776	2213
878.858	2323
878.865	2257
878.941	1201
878.972	1126
879.023	1211
879.078	1417
879.105	1668
879.185	2504
879.187	2512
879.269	1783
879.292	1765
879.351	2014
879.399	1990
879.433	1831
879.506	1565
879.516	1575
879.598	1755
879.613	1749
879.680	1726
879.720	2239
879.762	2637
879.827	2045
879.844	1934
879.926	2218
879.933	2207
880.007	2284
880.040	2379
880.089	2461
880.147	3010
880.171	3380
880.253	5502
880.254	5501
880.335	6057
880.360	6797
880.417	9957
880.467	13859
880.499	15820
880.574	16044
880.580	15568
880.662	7035
880.680	5652
880.744	3286
880.787	2172
880.825	1937
880.893	2229
880.907	2279
880.989	1998
881.000	1991
881.070	2399
881.106	2642
881.152	2455
881.213	1741
881.233	1681
881.315	2264
881.319	2266
881.396	2429
881.426	2401
881.478	2355
881.532	2825
881.559	3064
881.639	2526
881.641	2505
881.722	2426
881.745	2187
881.803	2519
881.852	2785
881.885	2376
881.958	1890
881.966	1982
882.047	2858
882.064	2886
882.129	2125
882.171	1979
882.210	1965
882.277	1666
882.291	1761
882.372	2547
882.383	2637
882.454	3399
882.489	3655
882.535	3554
882.596	3477
882.616	3374
882.697	2927
882.702	2888
882.778	3001
882.808	2946
882.859	2392
882.914	2150
882.940	2239
883.020	2138
883.021	2147
883.102	2393
883.127	2478
883.183	2945
883.233	3407
883.264	3112
883.339	2083
883.345	2058
883.426	1634
883.445	1645
883.507	2045
883.551	2223
883.587	2743
883.657	3381
883.668	3345
883.749	3544
883.763	3446
883.830	2845
883.869	2852
883.910	2859
883.975	2513
883.991	2518
884.072	2557
884.081	2580
884.152	3729
884.187	4080
884.233	4062
884.292	3961
884.314	3519
884.394	1792
884.398	1706
884.475	1212
884.504	1106
884.555	1574
884.610	1833
884.636	2021
884.716	2891
884.716	2908
884.797	3894
884.821	4065
884.877	3670
884.927	3449
884.958	3263
885.033	2298
885.038	2276
885.118	2365
885.139	2282
885.199	2096
885.244	2223
885.279	2697
885.350	3361
885.359	3480
885.439	4460
885.456	4518
885.520	3353
885.561	2894
885.600	2725
885.667	2605
885.680	2772
885.760	3468
885.773	3516
885.840	2176
885.878	1653
885.920	2116
885.984	2676
886.000	2773
886.080	3026
886.089	3070
886.160	3638
886.195	3748
886.240	3329
886.300	2981
886.320	3185
886.400	3728
886.406	3768
886.480	2579
886.511	1954
886.560	2065
886.616	2222
886.640	2265
886.720	2551
886.722	2546
886.800	3050
886.827	3235
886.879	3155
886.932	2984
886.959	3372
887.038	4542
887.039	4555
887.119	4257
887.143	4131
887.198	3676
887.248	3262
887.278	3280
887.354	3210
887.358	3237
887.437	3591
887.459	3659
887.517	3847
887.564	3976
887.596	3501
887.669	2392
887.676	2397
887.755	2299
887.774	2295
887.835	2122
887.880	2038
887.914	2633
887.985	3583
887.994	3663
888.073	4345
888.090	4483
888.153	4952
888.195	5171
888.232	4299
888.300	2754
888.311	2784
888.391	2876
888.405	2894
888.470	2856
888.510	2763
888.549	3031
888.615	3590
888.628	3767
888.708	4636
888.720	4768
888.787	3896
888.825	3318
888.866	3036
888.930	2691
888.945	2692
889.024	2622
889.035	2595
889.103	3559
889.140	4076
889.182	3601
889.245	2899
889.261	3140
889.340	4213
889.349	4322
889.419	3531
889.454	3129
889.498	2910
889.559	2594
889.577	2891
889.656	4144
889.664	4257
889.735	4210
889.768	4170
889.814	4019
889.873	3786
889.978	3206
890.083	3663
890.187	4210
890.292	4141
890.397	3427
890.501	3054
890.606	2571
890.710	2656
890.815	5171
890.919	3228
891.024	4246
891.128	2830
891.233	3423
891.337	4623
891.442	4028
891.546	3960
891.650	3060
891.755	3037
891.859	5070
891.963	4849
892.068	3490
892.172	3017
892.276	1681
892.380	3137
892.484	5092
892.589	5157
892.693	3760
892.797	2294
892.901	2230
893.005	2573
893.109	5393
893.213	5497
893.317	2956
893.421	1837
893.525	2371
893.629	2667
893.733	4444
893.837	3579
893.941	3443
894.045	2485
894.148	2444
894.252	3071
894.356	3963
894.460	5549
894.564	3816
894.667	2563
894.771	2393
894.875	2244
894.978	2713
895.082	4306
895.186	3251
895.289	3593
895.393	3431
895.496	3653
895.600	3037
895.703	2648
895.807	2914
895.910	3453
896.014	3973
896.117	2120
896.221	3452
896.324	3653
896.427	2515
896.531	2170
896.634	3272
896.737	2825
896.840	3875
896.944	3630
897.047	4110
897.150	3028
897.253	3132
897.356	1699
897.460	2469
897.563	2106
897.666	3701
897.769	4566
897.872	2976
897.975	2699
898.078	3433
898.181	2358
898.284	3413
898.387	3956
898.490	4945
898.593	2224
898.695	2481
898.798	2738
898.901	2531
899.004	2920
899.107	2953
899.209	2762
899.312	4273
899.415	2413
899.518	2060
899.620	1591
899.723	2233
899.826	3070
899.928	2876
900.031	2459
900.133	4142
900.236	1868
900.338	1923
900.441	2074
900.543	1922
900.646	2891
900.748	2783
900.851	3461
900.953	3039
901.055	2601
901.158	2559
901.260	2573
901.362	1899
901.465	2029
901.567	3257
901.669	2796
901.771	2452
901.873	3278
901.976	2120
902.078	3178
902.180	2101
902.282	1976
902.384	3532
902.486	3510
902.588	2666
902.690	2124
902.792	1382
902.894	2120
902.996	4193
903.098	2519
903.200	1908
903.302	1666
903.404	2922
903.505	2506
903.607	2060
903.709	3940
903.811	3646
903.913	1849
904.014	1131
904.116	1699
904.218	2276
904.319	2930
904.421	4473
904.523	3288
904.624	2612
904.726	2411
904.827	1896
904.929	958
905.030	1762
905.132	3754
905.233	4279
905.335	2087
905.436	2084
905.537	1753
905.639	2645
905.740	2286
905.841	3414
905.943	2924
906.044	1998
906.145	1609
906.247	1935
906.348	2461
906.449	2727
906.550	2469
906.651	2634
906.752	1810
906.854	1626
906.955	1494
907.056	2738
907.157	3454
907.258	3451
907.359	1324
907.460	1935
907.561	1797
907.662	2276
907.762	2084
907.863	2840
907.964	2826
908.065	2861
908.166	2211
908.267	2736
908.367	1461
908.468	1893
908.569	2439
908.670	2598
908.770	2636
908.871	2269
908.971	2547
909.072	2693
909.173	1752
909.273	2256
909.374	3262
909.474	2441
909.575	1328
909.675	1577
909.776	2362
909.876	2532
909.977	1871
910.077	3201
910.177	2452
910.278	2957
910.378	2277
910.478	2794
910.579	2428
910.679	2832
910.779	2565
910.879	3165
910.980	2099
911.080	3076
911.180	1555
911.280	1871
911.380	1571
911.480	1505
911.580	1497
911.680	2639
911.780	2466
911.880	3239
911.980	2069
912.080	1134
912.180	2566
912.280	2041
912.380	2366
912.480	1370
912.580	1628
912.679	1532
912.779	2703
912.879	2701
912.979	1395
913.078	2131
913.178	1589
913.278	1775
913.377	1768
913.477	1646
913.577	1531
913.676	3102
913.776	2710
913.875	2054
913.975	1725
914.074	2066
914.174	2198
914.273	1764
914.373	1969
914.472	1740
914.572	1226
914.671	1406
914.770	1781
914.870	1458
914.969	1615
915.068	3279
915.167	1915
915.267	2160
915.366	2848
915.465	1996
915.564	1899
915.663	3305
915.763	1916
915.862	3738
915.961	3122
916.060	1745
916.159	1935
916.258	1942
916.357	2664
916.456	2135
916.555	2615
916.654	2504
916.752	3324
916.851	3005
916.950	2087
917.049	2234
917.148	2377
917.247	1616
917.345	1635
917.444	1347
917.543	1969
917.642	2663
917.740	2731
917.839	3639
917.937	4332
918.036	2955
918.135	2255
918.233	2017
918.332	1477
918.430	1588
918.529	2065
918.627	1780
918.726	4187
918.824	2742
918.923	1855
919.021	2210
919.119	2443
919.218	1496
919.316	2188
919.414	3415
919.512	2979
919.611	3510
919.709	2715
919.807	3682
919.905	3608
920.003	3528
920.102	2497
920.200	3060
920.298	4274
920.396	2677
920.494	3388
920.592	2721
920.690	3422
920.788	3245
920.886	2789
920.984	4211
921.082	4117
921.180	4353
921.277	3991
921.375	6451
921.473	6934
921.571	6556
921.669	6425
921.766	4874
921.864	5472
921.962	6553
922.060	5710
922.157	6153
922.255	5839
922.352	6050
922.450	7494
922.548	7210
922.645	7906
922.743	10439
922.840	16183
922.938	18653
923.035	15822
923.133	14999
923.230	17312
923.327	21682
923.425	19284
923.522	19436
923.619	17751
923.717	16125
923.814	15828
923.911	15112
924.008	16644
924.106	15386
924.203	15276
924.300	16057
924.397	15012
924.494	15934
924.591	15275
924.688	15307
924.786	14964
924.883	16221
924.979	14533
925.077	15739
925.173	14171
925.270	14272
925.367	15067
925.464	14690
925.561	15851
925.658	16384
925.755	13843
925.852	16363
925.948	15140
926.045	14087
926.142	14855
926.239	16228
926.335	12072
926.432	14711
926.529	16052
926.625	16662
926.722	12704
926.818	12977
926.915	15466
927.011	14760
927.108	13770
927.204	13431
927.301	12206
927.397	15901
927.494	16810
927.590	10603
927.687	11913
927.783	16033
927.879	14839
927.976	12128
928.072	11256
928.168	13678
928.264	14156
928.361	13148
928.457	14215
928.553	11652
928.649	11742
928.745	13794
928.841	10731
928.937	12337
929.033	13012
929.129	12148
929.225	13825
929.321	11643
929.417	11112
929.513	13443
929.609	11009
929.705	11277
929.801	13654
929.897	10703
929.993	10584
930.089	11443
930.184	10499
930.280	12369
930.376	14478
930.471	10944
930.567	10497
930.663	12272
930.758	9222
930.854	11373
930.950	10757
931.045	9473
931.141	10168
931.236	12971
931.332	10924
931.427	8939
931.523	13070
931.618	12704
931.714	7800
931.809	10039
931.905	12767
932.000	8000
932.095	8051
932.191	12141
932.286	13446
932.381	11319
932.476	8087
932.572	10599
932.667	8880
932.762	10026
932.857	10534
932.952	13178
933.047	10481
933.142	9347
933.237	10441
933.332	11612
933.427	11377
933.522	9739
933.617	8643
933.712	9254
933.807	11849
933.902	12735
933.997	11177
934.092	7498
934.187	9448
934.282	10646
934.376	10524
934.471	10836
934.566	8756
934.661	8311
934.755	10213
934.850	11323
934.945	8993
935.039	8224
935.134	6943
935.228	9323
935.323	13381
935.417	8057
935.512	6646
935.606	7934
935.701	9669
935.795	10629
935.890	9198
935.984	7658
936.079	5905
936.173	9049
936.267	7587
936.362	7655
936.456	9598
936.550	12060
936.644	9348
936.738	6591
936.833	6793
936.927	6289
937.021	7338
937.115	8945
937.209	9312
937.303	8488
937.397	6423
937.491	8686
937.585	9265
937.679	8107
937.773	6820
937.867	6085
937.961	6454
938.055	10373
938.149	8924
938.243	5637
938.337	6199
938.430	7292
938.524	9763
938.618	8345
938.712	6847
938.805	8089
938.899	9001
938.993	9955
939.086	6067
939.180	5988
939.274	7179
939.367	8038
939.461	9672
939.554	6990
939.648	6045
939.741	6214
939.835	8330
939.928	10042
940.022	8285
940.115	7619
940.208	7629
940.302	10299
940.395	10446
940.488	6294
940.582	7260
940.675	5732
940.768	6063
940.861	9222
940.954	9164
941.048	5320
941.141	5278
941.234	5403
941.327	6986
941.420	7921
941.513	8160
941.606	6529
941.699	6287
941.792	8384
941.885	6918
941.978	7761
942.071	7357
942.164	4487
942.257	5735
942.349	7046
942.442	7753
942.535	5519
942.628	5613
942.721	6104
942.813	5415
942.906	7190
942.999	6380
943.091	5715
943.184	6230
943.277	6309
943.369	4798
943.462	5091
943.554	6297
943.647	5959
943.739	8368
943.832	8214
943.924	4039
944.017	4560
944.109	4669
944.201	5391
944.294	6004
944.386	5979
944.478	5876
944.571	4620
944.663	5353
944.755	6331
944.847	6242
944.940	5925
945.032	3912
945.124	5064
945.216	6310
945.308	6771
945.400	6623
945.492	5663
945.584	7314
945.676	7357
945.768	6569
945.860	7507
945.952	7124
946.044	5844
946.136	5039
946.228	5450
946.320	5856
946.412	5986
946.503	7503
946.595	7404
946.687	5018
946.779	4509
946.870	4378
946.962	5120
947.054	5761
947.145	6790
947.237	4827
947.329	4813
947.420	5869
947.512	4623
947.603	3353
947.695	4428
947.786	4596
947.878	3965
947.969	5451
948.061	6157
948.152	5040
948.243	3918
948.335	3152
948.426	4645
948.517	5099
948.609	6126
948.700	5996
948.791	5248
948.882	3762
948.973	4004
949.065	5712
949.156	4890
949.247	3011
949.338	4994
949.429	3389
949.520	3488
949.611	5136
949.702	6215
949.793	4407
949.884	5276
949.975	3539
950.066	3375
950.157	3785
950.247	4123
950.338	3875
950.429	4469
950.520	4095
950.611	3672
950.701	5135
950.792	6277
950.883	5958
950.973	4296
951.064	5674
951.155	4956
951.245	5269
951.336	4778
951.427	5557
951.517	7653
951.608	5210
951.698	4796
951.788	3423
951.879	3486
951.969	3572
952.060	4096
952.150	5023
952.240	6104
952.331	3808
952.421	5556
952.511	2664
952.602	3249
952.692	3360
952.782	3590
952.872	3546
952.962	4627
953.052	3655
953.143	3416
953.233	3879
953.323	4158
953.413	4877
953.503	4928
953.593	4630
953.683	4797
953.773	2850
953.863	3360
953.953	2814
954.042	4029
954.132	3683
954.222	4946
954.312	3136
954.402	3673
954.492	3562
954.581	4867
954.671	3568
954.761	3960
954.850	4507
954.940	2781
955.030	2815
955.119	2980
955.209	3450
955.298	3741
955.388	5065
955.477	4857
955.567	2534
955.656	3222
955.746	3424
955.835	2692
955.925	2819
956.014	4417
956.103	5225
956.193	5544
956.282	4607
956.371	4788
956.461	4614
956.550	4425
956.639	3835
956.728	3304
956.817	3826
956.906	4777
956.995	5421
957.085	3683
957.174	3861
957.263	3216
957.352	3143
957.441	3413
957.530	3365
957.619	3417
957.708	3447
957.796	2936
957.885	4159
957.974	3531
958.063	4725
958.152	1935
958.241	2958
958.329	2917
958.418	3288
958.507	3600
958.596	5177
958.684	3504
958.773	3821
958.861	2052
958.950	2989
959.039	3313
959.127	3268
959.216	4185
959.304	2668
959.393	3042
959.481	3479
959.570	2986
959.658	2626
959.746	2535
959.835	3996
959.923	3344
960.011	2529
960.100	4250
960.188	4045
960.276	2906
960.365	2897
960.453	2570
960.541	2200
960.629	3092
960.717	2371
960.805	1371
960.893	3397
960.981	2798
961.069	4908
961.158	5340
961.245	5855
961.333	4578
961.421	2976
961.509	3742
961.597	3366
961.685	3872
961.773	3588
961.861	3382
961.949	4426
962.036	2374
962.124	2865
962.212	2729
962.299	2435
962.387	2979
962.475	2726
962.562	2479
962.650	3141
962.738	3401
962.825	1949
962.913	2465
963.000	2473
963.088	3721
963.175	2937
963.263	3382
963.350	2904
963.438	2491
963.525	2512
963.612	3084
963.700	1718
963.787	3022
963.874	2890
963.962	2658
964.049	2393
964.136	2269
964.223	2629
964.310	2218
964.398	2169
964.485	3050
964.572	3062
964.659	3321
964.746	2726
964.833	2090
964.920	2546
965.007	2924
965.094	2564
965.181	1791
965.268	3285
965.355	3440
965.441	2516
965.528	2224
965.615	4179
965.702	2816
965.789	2874
965.875	3390
965.962	3233
966.049	2869
966.136	3891
966.222	3485
966.309	3632
966.395	2975
966.482	3914
966.569	3084
966.655	3078
966.742	3152
966.828	3391
966.915	2260
967.001	2338
967.087	1629
967.174	2367
967.260	2698
967.347	3059
967.433	2735
967.519	2185
967.605	2602
967.692	3342
967.778	2319
967.864	3287
967.950	2255
968.036	2169
968.123	2522
968.209	2355
968.295	1304
968.381	3211
968.467	2892
968.553	655
968.639	3376
968.725	2283
968.811	3436
968.897	3108
968.983	2852
969.069	1341
969.154	2470
969.240	2868
969.326	1730
969.412	2305
969.497	2859
969.583	2335
969.669	3824
969.755	3013
969.840	2579
969.926	5194
970.012	6227
970.097	6836
970.183	5413
970.268	3781
970.354	3613
970.439	2177
970.525	2849
970.610	2007
970.696	3977
970.781	2536
970.866	1635
970.952	3189
971.037	2584
971.122	2314
971.208	2909
971.293	3219
971.378	2227
971.463	2553
971.549	2383
971.634	2952
971.719	2790
971.804	2500
971.889	3256
971.974	1883
972.059	1929
972.144	3212
972.229	2603
972.314	2446
972.399	2484
972.484	2706
972.569	2170
972.654	1827
972.739	2930
972.824	1150
972.908	2518
972.993	1591
973.078	2090
973.163	3005
973.247	2623
973.332	1086
973.417	3008
973.501	1903
973.586	2501
973.671	2963
973.755	1952
973.840	2601
973.924	3557
974.009	4188
974.093	4374
974.178	4367
974.262	3192
974.346	2151
974.431	3068
974.515	2739
974.600	2976
974.684	2576
974.768	2801
974.852	3959
974.937	2412
975.021	2999
975.105	2844
975.189	2246
975.273	2745
975.358	2276
975.442	1355
975.526	2487
975.610	2269
975.694	1734
975.778	3640
975.862	1942
975.946	587
976.030	3430
976.114	2390
976.198	3437
976.281	1495
976.365	3403
976.449	1945
976.533	2560
976.617	2252
976.700	2223
976.784	2370
976.868	1146
976.951	2603
977.035	1982
977.119	2076
977.202	1948
977.286	3741
977.369	3516
977.453	6053
977.536	4651
977.620	4195
977.703	3399
977.787	3173
977.870	3552
977.953	3694
978.037	1934
978.120	3435
978.203	2847
978.287	2412
978.370	3131
978.453	2523
978.536	2148
978.620	3308
978.703	2638
978.786	2084
978.869	1744
978.952	1852
979.035	3393
979.118	3667
979.201	2008
979.284	2921
979.367	2836
979.450	3197
979.533	2348
979.616	2076
979.699	2157
979.782	3457
979.865	2839
979.948	2029
980.030	2547
980.113	2340
980.196	2540
980.279	2996
980.361	2648
980.444	2593
980.526	3817
980.609	4668
980.692	5294
980.774	5090
980.857	2513
980.939	4139
981.022	2852
981.104	2760
981.187	2959
981.269	4135
981.352	3509
981.434	2370
981.516	2460
981.599	3443
981.681	3141
981.763	3252
981.846	2464
981.928	3415
982.010	2579
982.092	2293
982.174	3312
982.256	3195
982.339	2811
982.421	2642
982.503	2581
982.585	2149
982.667	3183
982.749	2427
982.831	3064
982.913	2353
982.995	2878
983.077	2269
983.158	3977
983.240	2325
983.322	4477
983.404	6690
983.486	5377
983.568	5290
983.649	4687
983.731	4036
983.813	3443
983.894	4143
983.976	4081
984.058	3126
984.139	4922
984.221	2806
984.302	4498
984.384	3942
984.465	3255
984.547	4822
984.628	2913
984.710	5280
984.791	3445
984.872	3765
984.954	3048
985.035	3353
985.116	3768
985.198	3783
985.279	4364
985.360	3483
985.441	3629
985.522	4289
985.604	4161
985.685	2204
985.766	4875
985.847	4759
985.928	3961
986.009	3589
986.090	4012
986.171	4630
986.252	3801
986.333	3562
986.414	3441
986.495	3981
986.576	4285
986.656	4392
986.737	5144
986.818	3802
986.899	3625
986.980	4445
987.060	4779
987.141	4805
987.222	5524
987.302	5441
987.383	6808
987.464	5249
987.544	5316
987.625	4420
987.705	5983
987.786	5558
987.866	4993
987.947	5661
988.027	5310
988.108	4586
988.188	5173
988.268	4686
988.349	4913
988.429	4623
988.509	4329
988.589	4375
988.670	4265
988.750	5401
988.830	4505
988.910	6052
988.990	4941
989.070	4034
989.151	4459
989.231	4131
989.311	4311
989.391	3680
989.471	4242
989.551	4074
989.631	3199
989.711	4684
989.791	4452
989.870	3423
989.950	5182
990.030	4728
990.110	3889
990.190	3206
990.269	3063
990.349	3882
990.429	4354
990.509	3718
990.588	3324
990.668	4105
990.747	3860
990.827	2725
990.907	3391
990.986	3772
991.066	3525
991.145	2491
991.225	4725
991.304	4027
991.383	4401
991.463	2984
991.542	4846
991.622	2280
991.701	2658
991.780	2610
991.859	1948
991.939	3000
992.018	3235
992.097	3351
992.176	3318
992.256	3681
992.335	2880
992.414	4123
992.493	2016
992.572	1713
992.651	3526
992.730	2716
992.809	2468
992.888	2612
992.967	3119
993.046	3622
993.125	1868
993.203	3189
993.282	3839
993.361	2577
993.440	3030
993.519	2758
993.597	3408
993.676	2492
993.755	3347
993.834	2881
993.912	1468
993.991	2252
994.069	2301
994.148	2647
994.226	2669
994.305	2857
994.384	1145
994.462	3966
994.540	1471
994.619	1562
994.697	2847
994.776	2454
994.854	2688
994.932	2398
995.011	2167
995.089	2371
995.167	1731
995.245	2789
995.324	1137
995.402	2972
995.480	1907
995.558	2037
995.636	1738
995.714	1785
995.792	2632
995.870	1511
995.948	2081
996.026	1902
996.104	1190
996.182	2475
996.260	1028
996.338	2119
996.416	749
996.494	2083
996.572	2480
996.649	1589
996.727	683
996.805	1587
996.883	1589
996.960	960
997.038	2602
997.116	2811
997.193	980
997.271	2710
997.348	1268
997.426	1248
997.504	1241
997.581	2065
997.658	2244
997.736	604
997.813	41
997.891	1444
997.968	640
998.046	1347
998.123	1456
998.200	3023
998.277	1495
998.355	1854
998.432	268
998.509	969
998.586	2634
998.663	1455
998.741	1397
998.818	1050
998.895	852
998.972	2894
999.049	2687
999.126	1116
999.203	1499
999.280	1323
999.357	578
999.434	1301
999.511	754
999.587	1368
999.664	972
999.741	1228
999.818	826
999.895	891
999.971	1384
1000.048	534
1000.125	1613
1000.202	762
1000.278	466
1000.355	1991
1000.431	1164
1000.508	682
1000.584	193
1000.661	1159
1000.738	733
1000.814	1434
1000.890	1123
1000.967	1540
1001.043	1054
1001.120	272
1001.196	595
1001.272	206
1001.349	-267
1001.425	1574
1001.501	1406
1001.577	617
1001.654	1468
1001.730	194
1001.806	738
1001.882	-304
1001.958	1942
1002.034	1834
1002.110	810
1002.186	-436
1002.262	162
1002.338	205
1002.414	1385
1002.490	1603
1002.566	760
1002.642	173
1002.718	1570
1002.794	769
1002.870	313
1002.945	702
1003.021	1093
1003.097	-161
1003.173	1256
1003.248	964
1003.324	822
1003.400	630
1003.475	419
1003.551	470
1003.626	442
1003.702	234
1003.777	412
1003.853	-86
1003.928	800
1004.004	331
1004.079	1117
1004.155	1225
1004.230	-801
1004.305	2274
1004.381	127
1004.456	925
1004.531	302
1004.607	10
1004.682	-186
1004.757	-120
1004.832	-142
1004.907	-37
1004.982	1171
1005.057	494
1005.133	-267
1005.208	436
1005.283	-126
1005.358	-329
1005.433	-284
1005.508	1228
1005.583	-594
1005.657	591
1005.732	799
1005.807	9
1005.882	-778
1005.957	23
1006.032	654
1006.106	406
1006.181	304
1006.256	1597
1006.331	-101
1006.405	-100
1006.480	14
1006.554	337
1006.629	-47
1006.704	-326
1006.778	212
1006.853	671
1006.927	104
1007.002	-504
1007.076	954
1007.150	-134
1007.225	-131
1007.299	599
1007.373	351
1007.448	453
1007.522	359
1007.596	336
1007.671	-877
1007.745	572
1007.819	-179
1007.893	415
1007.967	263
1008.041	-158
1008.115	905
1008.190	220
1008.264	79
1008.338	-630
1008.412	-233
1008.486	362
1008.560	570
1008.633	8
1008.707	563
1008.781	770
1008.855	-191
1008.929	-383
1009.003	-1139
1009.076	82
1009.150	-72
1009.224	283
1009.298	-298
1009.371	-589
1009.445	327
1009.519	-114
1009.592	-611
1009.666	339
1009.739	-518
1009.813	-185
1009.886	425
1009.960	-739
1010.033	61
1010.107	513
1010.180	-918
1010.253	-281
1010.327	-1039
1010.400	-66
1010.473	-255
1010.547	654
1010.620	-367
1010.693	175
1010.766	103
1010.840	252
1010.913	314
1010.986	-37
1011.059	-346
1011.132	-460
1011.205	222
1011.278	-12
1011.351	-494
1011.424	-646
1011.497	-1520
1011.570	-13
1011.643	-548
1011.716	-252
1011.789	-1257
1011.862	-76
1011.934	808
1012.007	-522
1012.080	-616
1012.153	-607
1012.225	-99
1012.298	-998
1012.371	57
1012.443	409
1012.516	-811
1012.588	-118
1012.661	88
1012.733	-1416
1012.806	-205
1012.879	-130
1012.951	-414
1013.023	-44
1013.096	-238
1013.168	-327
1013.241	-52
1013.313	-522
1013.385	-576
1013.458	-444
1013.530	-162
1013.602	-891
1013.674	242
1013.746	-1155
1013.819	-713
1013.891	332
1013.963	-994
1014.035	104
1014.107	-221
1014.179	-55
1014.251	-887
1014.323	131
1014.395	-647
1014.467	-552
1014.539	-174
1014.611	-189
1014.683	-538
1014.754	-215
1014.826	-882
1014.898	34
1014.970	-497
1015.042	888
1015.113	166
1015.185	-133
1015.257	-1810
1015.328	-387
1015.400	-1070
1015.471	-590
1015.543	-1623
1015.615	-363
1015.686	-1267
1015.757	-661
1015.829	191
1015.901	-546
1015.972	-784
1016.043	-1183
1016.115	-1081
1016.186	-880
1016.257	-830
1016.328	211
1016.400	275
1016.471	-1678
1016.542	-96
1016.613	-372
1016.685	-638
1016.756	-192
1016.827	-438
1016.898	-1349
1016.969	-787
1017.040	-1296
1017.111	-1176
1017.182	-1045
1017.253	-875
1017.324	162
1017.395	-856
1017.466	-403
1017.537	-771
1017.608	-794
1017.678	-1657
1017.749	-1136
1017.820	-243
1017.891	-976
1017.961	-1571
1018.032	-462
1018.103	-1065
1018.173	-1167
1018.244	-1408
1018.315	-812
1018.385	-8
1018.456	-1077
1018.526	-1545
1018.597	-100
1018.667	-829
1018.738	-1024
1018.808	-617
1018.878	-1120
1018.949	-1051
1019.019	-1030
1019.089	-1003
1019.160	-1222
1019.230	-1644
1019.300	-161
1019.371	-1803
1019.441	-495
1019.511	-1041
1019.581	-1075
1019.651	-1047
1019.721	-424
1019.791	-1506
1019.861	-35
1019.931	-1423
1020.001	-755
1020.071	-749
1020.141	-926
1020.211	-572
1020.281	-1541
1020.351	-915
1020.421	-551
1020.491	-475
1020.560	-1827
1020.630	-2033
1020.700	-1101
1020.770	-696
1020.839	-994
1020.909	-971
1020.979	-1737
1021.048	-1944
1021.118	-502
1021.187	-1258
1021.257	-1215
1021.326	-977
1021.396	-1672
1021.465	-1391
1021.535	-1979
1021.604	-1420
1021.674	-1037
1021.743	-1407
1021.812	-1160
1021.882	-1287
1021.951	-861
1022.020	-900
1022.089	-1116
1022.159	-962
1022.228	-604
1022.297	-1185
1022.366	-1019
1022.435	-840
1022.504	-1265
1022.573	-1830
1022.642	-1519
1022.711	-1723
1022.781	-961
1022.849	-1009
1022.918	-680
1022.987	-1976
1023.056	-1302
1023.125	-1092
1023.194	-900
1023.263	-1476
1023.331	-416
1023.400	-992
1023.469	-1416
1023.538	-1226
1023.606	-1225
1023.675	-1031
1023.744	-1642
1023.812	-2165
1023.881	-1061
1023.949	-1014
1024.018	-1218
1024.086	-1037
1024.155	-1533
1024.223	-1766
1024.292	-1595
1024.360	-1296
1024.429	-1721
1024.497	-1539
1024.565	-719
1024.634	-1348
1024.702	-1472
1024.770	-1488
1024.838	-2308
1024.907	-864
1024.975	-1636
1025.043	-1090
1025.111	-951
1025.179	-783
1025.247	-972
1025.315	-1694
1025.383	-1890
1025.451	-1456
1025.519	-1179
1025.587	-1762
1025.655	-945
1025.723	-1218
1025.791	-1396
1025.859	-557
1025.927	-729
1025.995	-1808
1026.062	-2143
1026.130	-1303
1026.198	-1811
1026.266	-2057
1026.333	-1360
1026.401	-1438
1026.469	-1152
1026.536	-1586
1026.604	-1539
1026.671	-1743
1026.739	-1518
1026.806	-1643
1026.874	-2097
1026.941	-1476
1027.009	-1371
1027.076	-1204
1027.144	-935
1027.211	-2333
1027.278	-1098
1027.345	-920
1027.413	-1475
1027.480	-1488
1027.547	-1866
1027.614	-1312
1027.682	-1033
1027.749	-1410
1027.816	-1879
1027.883	-1613
1027.950	-855
1028.017	-1420
1028.084	-1335
1028.151	-2225
1028.218	-1094
1028.285	-2066
1028.352	-1148
1028.419	-1434
1028.486	-1426
1028.553	-1499
1028.619	-1397
1028.686	-1438
1028.753	-2008
1028.820	-1699
1028.886	-760
1028.953	-1288
1029.020	-1710
1029.086	-1491
1029.153	-1829
1029.220	-912
1029.286	-1521
1029.353	-1268
1029.419	-2447
1029.486	-1323
1029.552	-1416
1029.619	-1664
1029.685	-1852
1029.751	-1481
1029.818	-53
1029.884	-1666
1029.951	-398
1030.017	-1289
1030.083	-1263
1030.149	-1088
1030.216	-941
1030.282	-1098
1030.348	-1706
1030.414	-1810
1030.480	-865
1030.546	-1527
1030.612	-1301
1030.678	-2194
1030.744	-1372
1030.810	-1849
1030.876	-1909
1030.942	-1578
1031.008	-1434
1031.074	-1933
1031.140	-1321
1031.206	-337
1031.272	-1291
1031.337	-1298
1031.403	-789
1031.469	-804
1031.534	-1537
1031.600	-1004
1031.666	-2296
1031.731	-1403
1031.797	-1306
1031.863	-1377
1031.928	-1827
1031.994	-1537
1032.059	-925
1032.125	-1371
1032.190	-1833
1032.256	-1940
1032.321	-1719
1032.386	-1374
1032.452	-1041
1032.517	-1842
1032.582	-2041
1032.647	-1263
1032.713	-1796
1032.778	-1207
1032.843	-1136
1032.908	-1377
1032.974	-1255
1033.039	-1411
1033.104	-814
1033.169	-1554
1033.234	-1844
1033.299	-1553
1033.364	-1710
1033.429	-1943
1033.494	-736
1033.559	-1708
1033.624	-1390
1033.688	-829
1033.753	-1072
1033.818	-811
1033.883	-1007
1033.948	-1191
1034.013	-341
1034.077	-208
1034.142	494
1034.207	362
1034.271	2535
1034.336	2157
1034.400	1172
1034.465	-389
1034.530	-1127
1034.594	-1477
1034.658	-1263
1034.723	-1715
1034.787	-1104
1034.852	-875
1034.916	-2109
1034.981	-1568
1035.045	-835
1035.109	-1559
1035.173	-784
1035.238	-2435
1035.302	-308
1035.366	-1987
1035.430	-1484
1035.495	-1497
1035.559	-1661
1035.623	-1829
1035.687	-1309
1035.751	-1435
1035.815	-2376
1035.879	-1552
1035.943	-1158
1036.007	-1711
1036.071	-844
1036.135	-1140
1036.198	-901
1036.262	-2090
1036.326	-1160
1036.390	-1710
1036.454	-1136
1036.517	-1840
1036.581	-762
1036.645	-560
1036.709	-365
1036.772	-2255
1036.836	-675
1036.900	-1519
1036.963	-1410
1037.026	-603
1037.090	-1202
1037.154	-880
1037.217	-1469
1037.280	-1957
1037.344	-1283
1037.407	-1533
1037.471	-1032
1037.534	-2398
1037.597	-1508
1037.661	-1062
1037.724	-1718
1037.787	-1565
1037.850	-1696
1037.913	-2340
1037.977	-1288
1038.040	-2076
1038.103	-1839
1038.166	-1665
1038.229	-1733
1038.292	-1752
1038.355	-1611
1038.418	-2398
1038.481	-1411
1038.544	-1904
1038.607	-924
1038.670	-1505
1038.732	-1273
1038.795	-2574
1038.858	-1299
1038.921	-657
1038.984	-1191
1039.046	-1638
1039.109	-1652
1039.172	-1703
1039.234	-2126
1039.297	-1154
1039.360	-1495
1039.422	-1654
1039.485	-1833
1039.547	-1947
1039.610	-1017
1039.672	-1471
1039.734	-694
1039.797	-1827
1039.859	-1303
1039.922	-1621
1039.984	-1462
1040.046	-1366
1040.109	-1451
1040.171	-1800
1040.233	-1276
1040.295	-2132
1040.358	-1331
1040.420	-1601
1040.482	-1081
1040.544	-1848
1040.606	-1136
1040.668	-1586
1040.730	-1682
1040.792	-1524
1040.854	-989
1040.916	-1534
1040.978	-1717
1041.040	-1426
1041.102	-1417
1041.164	-1180
1041.225	-1230
1041.287	-2147
1041.349	-1425
1041.411	-1601
1041.472	-1496
1041.534	-1392
1041.596	-2314
1041.657	-1783
1041.719	-541
1041.781	-2313
1041.842	-1791
1041.904	-1441
1041.965	-1009
1042.027	-1331
1042.088	-626
1042.150	-1804
1042.211	-1913
1042.272	-972
1042.334	-1539
1042.395	-1797
1042.456	-1655
1042.518	-1683
1042.579	-930
1042.640	-1812
1042.701	-1249
1042.763	-1817
1042.824	-1273
1042.885	-1583
1042.946	-1465
1043.007	-1677
1043.068	-887
1043.129	-941
1043.190	-1642
1043.251	-1614
1043.312	-1404
1043.373	-1758
1043.434	-869
1043.495	-1239
1043.556	-614
1043.616	-1856
1043.677	-1167
1043.738	-892
1043.799	-1905
1043.859	-618
1043.920	-1003
1043.981	-1949
1044.041	-1360
1044.102	-2059
1044.162	-1267
1044.223	-1410
1044.284	-1508
1044.344	-1242
1044.405	-1324
1044.465	-1758
1044.525	-1671
1044.586	-681
1044.646	-777
1044.707	-1238
1044.767	-731
1044.827	-1417
1044.887	-2396
1044.948	-1987
1045.008	-1110
1045.068	-1966
1045.128	-1181
1045.188	-1655
1045.249	-395
1045.309	-1632
1045.369	-1264
1045.429	-1898
1045.489	-1140
1045.549	-1060
1045.609	-1413
1045.669	-1381
1045.729	-1434
1045.789	-914
1045.848	-1811
1045.908	-1053
1045.968	-847
1046.028	-285
1046.088	-534
1046.147	-1044
1046.207	-1204
1046.267	-530
1046.326	-839
1046.386	-632
1046.446	-734
1046.505	-383
1046.565	401
1046.624	17
1046.684	-111
1046.743	-423
1046.803	-952
1046.862	650
1046.922	0
