'Start Wavelength	183.907
'End Wavelength	1046.922
'Gate Delay	5.000
'Gate Width (ms)	1.050
'Laser Output Level	0.000
'X Position	0.000
'Y Position	0.000
'Z Position	0.000
'Grid Point Number	1.000
'Shot Number	100.000
183.907	-8.000
183.977	229.000
184.047	-146
184.116	416
184.186	-467
184.256	279
184.325	-42
184.395	-286
184.465	1272
184.534	435
184.604	-197
184.674	506
184.743	-734
184.813	547
184.883	-370
184.952	131
185.022	140
185.092	317
185.161	-492
185.231	-136
185.301	299
185.370	394
185.440	135
185.509	433
185.579	-283
185.649	-119
185.718	-3
185.788	496
185.857	41
185.927	48
185.996	452
186.066	810
186.136	-328
186.205	-103
186.275	408
186.344	37
186.414	147
186.483	-390
186.553	1020
186.622	912
186.692	390
186.761	173
186.831	-365
186.900	-567
186.970	460
187.039	517
187.109	392
187.178	421
187.248	303
187.317	-302
187.387	-593
187.456	762
187.526	-93
187.595	570
187.664	301
187.734	1196
187.803	307
187.873	178
187.942	259
188.012	779
188.081	348
188.150	-394
188.220	-47
188.289	274
188.358	178
188.428	428
188.497	-386
188.567	1071
188.636	356
188.705	740
188.775	307
188.844	23
188.913	1303
188.983	-64
189.052	-114
189.121	828
189.191	-328
189.260	826
189.329	302
189.399	-138
189.468	138
189.537	71
189.606	-161
189.676	606
189.745	111
189.814	883
189.883	-287
189.953	1330
190.022	393
190.091	492
190.161	1273
190.230	435
190.299	-289
190.368	78
190.437	-20
190.507	876
190.576	-290
190.645	806
190.714	77
190.783	483
190.853	783
190.922	827
190.991	357
191.060	556
191.129	-966
191.198	605
191.268	-369
191.337	-631
191.406	-104
191.475	134
191.544	739
191.613	546
191.682	564
191.752	45
191.821	-108
191.890	560
191.959	-248
192.028	256
192.097	-55
192.166	451
192.235	-556
192.304	478
192.373	134
192.442	361
192.511	-89
192.580	-298
192.650	-1422
192.719	483
192.788	8
192.857	298
192.926	-830
192.995	520
193.064	859
193.133	563
193.202	-167
193.271	699
193.340	403
193.409	179
193.478	382
193.547	767
193.615	1242
193.684	1416
193.753	51
193.822	1006
193.891	-126
193.960	386
194.029	-316
194.098	593
194.167	186
194.236	1111
194.305	-135
194.374	195
194.443	300
194.512	805
194.580	658
194.649	226
194.718	562
194.787	-89
194.856	-453
194.925	1059
194.994	696
195.062	219
195.131	-116
195.200	189
195.269	323
195.338	1255
195.407	-155
195.475	92
195.544	689
195.613	-692
195.682	177
195.751	488
195.819	147
195.888	636
195.957	698
196.026	937
196.094	750
196.163	-25
196.232	-358
196.301	254
196.369	-120
196.438	50
196.507	-24
196.576	-147
196.644	-160
196.713	752
196.782	103
196.850	1256
196.919	-375
196.988	508
197.056	-5
197.125	760
197.194	376
197.262	-362
197.331	-48
197.400	-444
197.468	133
197.537	-417
197.606	-183
197.674	1192
197.743	858
197.812	-395
197.880	96
197.949	951
198.017	349
198.086	56
198.155	-527
198.223	723
198.292	-167
198.360	187
198.429	-528
198.497	304
198.566	728
198.635	992
198.703	993
198.772	1028
198.840	453
198.909	1071
198.977	730
199.046	-140
199.114	148
199.183	982
199.251	-964
199.320	787
199.388	181
199.457	76
199.525	405
199.594	597
199.662	-687
199.731	865
199.799	652
199.867	373
199.936	-322
200.004	658
200.073	566
200.141	253
200.210	-226
200.278	301
200.346	-174
200.415	1005
200.483	109
200.552	1136
200.620	776
200.688	145
200.757	71
200.825	370
200.893	78
200.962	781
201.030	517
201.098	-273
201.167	184
201.235	555
201.303	-30
201.372	867
201.440	238
201.508	1059
201.577	450
201.645	588
201.713	693
201.781	984
201.850	1072
201.918	512
201.986	39
202.055	629
202.123	-698
202.191	849
202.259	-170
202.327	455
202.396	-162
202.464	293
202.532	988
202.600	3380
202.669	3042
202.737	837
202.805	46
202.873	292
202.941	-26
203.009	846
203.078	-22
203.146	929
203.214	-619
203.282	183
203.350	189
203.418	384
203.487	-120
203.555	570
203.623	215
203.691	203
203.759	-550
203.827	-706
203.895	36
203.963	50
204.031	-654
204.099	489
204.168	-534
204.236	586
204.304	-381
204.372	453
204.440	264
204.508	493
204.576	-711
204.644	430
204.712	-760
204.780	704
204.848	401
204.916	176
204.984	-376
205.052	722
205.120	-270
205.188	304
205.256	413
205.324	-50
205.392	-624
205.460	7
205.528	-513
205.596	556
205.664	-703
205.732	653
205.799	615
205.867	2016
205.935	145
206.003	1367
206.071	-269
206.139	711
206.207	-176
206.275	686
206.343	-124
206.411	717
206.478	-213
206.546	548
206.614	-587
206.682	273
206.750	224
206.818	759
206.885	1017
206.953	-115
207.021	592
207.089	179
207.157	-633
207.225	303
207.292	-70
207.360	414
207.428	221
207.496	-11
207.563	570
207.631	909
207.699	-1306
207.767	482
207.834	-498
207.902	246
207.970	104
208.038	1009
208.105	677
208.173	619
208.241	-139
208.309	425
208.376	427
208.444	1520
208.512	66
208.579	-269
208.647	975
208.715	1326
208.782	-10
208.850	490
208.918	-749
208.985	742
209.053	277
209.120	-33
209.188	-432
209.256	131
209.323	-416
209.391	-197
209.459	1655
209.526	48
209.594	-248
209.661	330
209.729	305
209.796	1263
209.864	609
209.932	-418
209.999	992
210.067	-85
210.134	-26
210.202	437
210.269	424
210.337	1180
210.404	896
210.472	595
210.539	168
210.607	167
210.674	233
210.742	911
210.809	474
210.877	598
210.944	191
211.012	-325
211.079	1594
211.146	-268
211.214	308
211.281	1640
211.349	1386
211.416	1116
211.484	520
211.551	-59
211.618	31
211.686	430
211.753	-914
211.821	941
211.888	-320
211.955	196
212.023	339
212.090	356
212.157	277
212.225	582
212.292	528
212.359	2654
212.427	5083
212.494	3274
212.561	235
212.629	1006
212.696	-166
212.763	849
212.831	-1201
212.898	675
212.965	399
213.032	-398
213.100	486
213.167	655
213.234	878
213.301	841
213.369	813
213.436	51
213.503	-705
213.570	1123
213.638	302
213.705	126
213.772	-225
213.839	618
213.906	756
213.973	1063
214.041	-508
214.108	776
214.175	-237
214.242	671
214.309	100
214.376	626
214.444	57
214.511	1070
214.578	0
214.645	1051
214.712	21
214.779	666
214.846	-727
214.913	1330
214.980	1169
215.048	1473
215.115	1346
215.182	1500
215.249	91
215.316	591
215.383	1011
215.450	787
215.517	373
215.584	561
215.651	427
215.718	1086
215.785	131
215.852	52
215.919	959
215.986	739
216.053	-165
216.120	-57
216.187	566
216.254	353
216.321	157
216.388	532
216.455	-458
216.522	1337
216.589	-497
216.656	1114
216.722	973
216.789	532
216.856	282
216.923	733
216.990	767
217.057	587
217.124	419
217.191	182
217.258	755
217.324	1192
217.391	626
217.458	917
217.525	442
217.592	1067
217.659	-1228
217.725	1747
217.792	173
217.859	1763
217.926	-714
217.993	-173
218.059	688
218.126	501
218.193	267
218.260	412
218.327	-195
218.393	173
218.460	-382
218.527	-488
218.594	267
218.660	1116
218.727	1687
218.794	30
218.860	215
218.927	-241
218.994	25
219.061	272
219.127	4
219.194	1518
219.261	315
219.327	434
219.394	436
219.461	229
219.527	-448
219.594	810
219.661	-185
219.727	445
219.794	791
219.860	269
219.927	329
219.994	1860
220.060	3063
220.127	3791
220.193	2234
220.260	236
220.326	1102
220.393	1709
220.460	1182
220.526	1346
220.593	444
220.659	2340
220.726	124
220.792	3289
220.859	2839
220.925	3373
220.992	3499
221.058	3481
221.125	4699
221.191	3752
221.258	368
221.324	1609
221.391	477
221.457	704
221.524	-135
221.590	791
221.657	3049
221.723	1848
221.789	1904
221.856	3008
221.922	5
221.989	1559
222.055	-22
222.121	155
222.188	2083
222.254	1086
222.321	330
222.387	438
222.453	553
222.520	-283
222.586	-99
222.652	496
222.719	-104
222.785	511
222.851	128
222.918	597
222.984	-683
223.050	-191
223.116	-938
223.183	1290
223.249	-24
223.315	-554
223.382	-132
223.448	-360
223.514	-919
223.580	121
223.647	-699
223.713	-417
223.779	-238
223.845	-52
223.911	416
223.978	-312
224.044	864
224.110	-194
224.176	338
224.242	575
224.309	-957
224.375	1272
224.441	133
224.507	-332
224.573	-872
224.639	746
224.705	-618
224.772	647
224.838	-61
224.904	-331
224.970	-364
225.036	346
225.102	-936
225.168	1499
225.234	594
225.300	306
225.366	30
225.432	463
225.499	-297
225.565	643
225.631	-873
225.697	146
225.763	688
225.829	-127
225.895	405
225.961	926
226.027	871
226.093	-242
226.159	1145
226.225	2258
226.291	3714
226.357	8154
226.423	3510
226.489	2694
226.554	1678
226.620	1416
226.686	573
226.752	2065
226.818	2592
226.884	10748
226.950	10066
227.016	3596
227.082	2323
227.148	1350
227.214	1532
227.279	735
227.345	70
227.411	1467
227.477	2973
227.543	7236
227.609	7874
227.674	4180
227.740	1157
227.806	1476
227.872	381
227.938	247
228.003	663
228.069	175
228.135	-342
228.201	614
228.267	-665
228.332	-232
228.398	-608
228.464	339
228.530	-100
228.595	697
228.661	-349
228.727	-173
228.792	1175
228.858	48
228.924	-1389
228.990	1645
229.055	-702
229.121	140
229.187	166
229.252	125
229.318	-782
229.384	447
229.449	-96
229.515	-1049
229.581	-728
229.646	1620
229.712	-19
229.777	595
229.843	183
229.909	671
229.974	543
230.040	822
230.105	281
230.171	344
230.236	475
230.302	388
230.368	187
230.433	-153
230.499	589
230.564	1708
230.630	-456
230.695	22
230.761	457
230.826	-922
230.892	1326
230.957	-136
231.023	-800
231.088	399
231.154	579
231.219	912
231.284	-628
231.350	901
231.415	-21
231.481	248
231.546	-531
231.612	556
231.677	-20
231.742	-684
231.808	834
231.873	-347
231.939	-1412
232.004	1540
232.069	1168
232.135	-738
232.200	-654
232.265	625
232.331	-427
232.396	138
232.461	-945
232.527	-930
232.592	-740
232.657	-299
232.723	-64
232.788	977
232.853	442
232.918	161
232.984	-853
233.049	-24
233.114	-773
233.179	1190
233.245	993
233.310	1640
233.375	-379
233.440	839
233.506	284
233.571	209
233.636	289
233.701	96
233.766	-48
233.832	723
233.897	-507
233.962	-1028
234.027	205
234.092	721
234.157	-355
234.222	692
234.288	258
234.353	1710
234.418	1547
234.483	1721
234.548	689
234.613	-4
234.678	-116
234.743	268
234.808	1630
234.873	59
234.938	1081
235.004	703
235.069	-25
235.134	29
235.199	-70
235.264	543
235.329	-1304
235.394	1443
235.459	1157
235.524	-449
235.589	-6
235.654	-12
235.719	-1742
235.784	802
235.849	-214
235.913	1636
235.978	466
236.043	1124
236.108	216
236.173	-288
236.238	697
236.303	-340
236.368	-616
236.433	946
236.498	333
236.563	633
236.627	2294
236.692	14635
236.757	11940
236.822	3436
236.887	1289
236.952	1744
237.017	-160
237.081	2466
237.146	244
237.211	4745
237.276	12661
237.341	26559
237.405	9367
237.470	3127
237.535	1331
237.600	2173
237.664	1066
237.729	-219
237.794	-183
237.859	3114
237.923	1364
237.988	748
238.053	695
238.118	207
238.182	1548
238.247	4987
238.312	307
238.376	693
238.441	-1059
238.506	1224
238.570	-417
238.635	1394
238.700	32
238.764	330
238.829	315
238.893	741
238.958	1361
239.023	855
239.087	-674
239.152	723
239.216	-683
239.281	1145
239.346	438
239.410	400
239.475	-40
239.539	2784
239.604	1525
239.668	1965
239.733	1675
239.797	5512
239.862	13695
239.926	10884
239.991	3697
240.055	1484
240.120	707
240.184	1356
240.249	-538
240.313	844
240.378	-190
240.442	1495
240.507	2652
240.571	-119
240.635	267
240.700	1284
240.764	-192
240.829	22
240.893	-1602
240.957	859
241.022	594
241.086	2158
241.151	114
241.215	-600
241.279	1707
241.344	1156
241.408	532
241.472	-428
241.537	978
241.601	1244
241.665	-31
241.730	284
241.794	1127
241.858	-66
241.922	-281
241.987	800
242.051	-643
242.115	-633
242.179	394
242.244	-1018
242.308	799
242.372	630
242.436	-387
242.501	637
242.565	-812
242.629	-709
242.693	-62
242.757	-105
242.822	-387
242.886	726
242.950	1237
243.014	89
243.078	438
243.142	243
243.206	-486
243.271	1396
243.335	508
243.399	1574
243.463	4740
243.527	20733
243.591	6495
243.655	2152
243.719	-343
243.783	2635
243.847	698
243.911	2541
243.975	575
244.040	85
244.104	2108
244.168	1616
244.232	261
244.296	357
244.360	1585
244.424	-79
244.488	781
244.552	867
244.615	-1730
244.679	235
244.743	-1096
244.807	-517
244.871	247
244.935	1196
244.999	-870
245.063	145
245.127	1057
245.191	1417
245.255	701
245.319	1253
245.383	-443
245.446	1528
245.510	-1068
245.574	660
245.638	563
245.702	-842
245.766	2028
245.829	2185
245.893	-673
245.957	371
246.021	1892
246.085	717
246.149	56
246.212	2828
246.276	4083
246.340	1223
246.404	548
246.467	1465
246.531	-496
246.595	1284
246.659	793
246.722	-115
246.786	809
246.850	1724
246.913	524
246.977	-450
247.041	658
247.104	293
247.168	115
247.232	1587
247.295	5572
247.359	2836
247.423	516
247.486	1551
247.550	1614
247.614	395
247.677	-233
247.741	1500
247.804	531
247.868	2637
247.932	1390
247.995	6021
248.059	1093
248.122	296
248.186	1348
248.249	1062
248.313	8022
248.376	8994
248.440	5217
248.503	1010
248.567	2102
248.630	556
248.694	1234
248.757	3790
248.821	9268
248.884	5406
248.948	3929
249.011	6694
249.075	10243
249.138	9821
249.202	3331
249.265	1561
249.328	2291
249.392	617
249.455	1503
249.519	1209
249.582	440
249.645	2712
249.709	1453
249.772	421
249.835	870
249.899	689
249.962	1621
250.025	238
250.089	3631
250.152	5133
250.215	1845
250.279	1107
250.342	1108
250.405	1369
250.468	1034
250.532	1415
250.595	4220
250.658	14777
250.721	32087
250.785	8615
250.848	4819
250.911	2293
250.974	2798
251.038	3290
251.101	6227
251.164	2930
251.227	2815
251.290	2499
251.354	3375
251.417	23427
251.480	25929
251.543	14399
251.606	46164
251.669	37557
251.732	10714
251.795	9365
251.859	10578
251.922	28384
251.985	17170
252.048	5522
252.111	3449
252.174	1990
252.237	3471
252.300	12119
252.363	11958
252.426	39014
252.489	14139
252.552	5081
252.615	2742
252.678	4411
252.741	8534
252.804	14111
252.867	40649
252.930	19761
252.993	7502
253.056	5047
253.119	2324
253.182	2042
253.245	3568
253.308	3041
253.371	1184
253.434	2191
253.497	2318
253.559	4973
253.622	2752
253.685	2409
253.748	2653
253.811	566
253.874	1581
253.937	648
254.000	849
254.062	2701
254.125	5600
254.188	4330
254.251	2339
254.314	1910
254.376	1480
254.439	2695
254.502	1802
254.565	2399
254.628	5950
254.690	2188
254.753	1667
254.816	1252
254.878	624
254.941	3862
255.004	4616
255.067	1854
255.129	629
255.192	1629
255.255	-523
255.317	1172
255.380	334
255.443	645
255.505	-401
255.568	254
255.631	621
255.693	1047
255.756	-581
255.819	1309
255.881	-343
255.944	218
256.006	82
256.069	357
256.132	33
256.194	1289
256.257	1075
256.319	1008
256.382	873
256.444	2099
256.507	1598
256.569	1280
256.632	638
256.694	1668
256.757	5660
256.819	22675
256.882	7814
256.944	2427
257.007	1343
257.069	1031
257.132	694
257.194	1655
257.257	79
257.319	476
257.381	294
257.444	5587
257.506	25780
257.569	27924
257.631	8095
257.693	4092
257.756	2111
257.818	1481
257.880	1035
257.943	1916
258.005	444
258.067	1133
258.130	641
258.192	580
258.254	1045
258.317	796
258.379	877
258.441	2014
258.503	3236
258.566	2701
258.628	3995
258.690	237
258.753	974
258.815	1399
258.877	-197
258.939	889
259.001	775
259.064	819
259.126	-116
259.188	1687
259.250	1066
259.312	1572
259.375	1466
259.437	959
259.499	662
259.561	757
259.623	899
259.685	314
259.747	58
259.809	2418
259.872	4643
259.934	7983
259.996	7860
260.058	2402
260.120	144
260.182	941
260.244	849
260.306	688
260.368	881
260.430	197
260.492	1208
260.554	2947
260.616	708
260.678	3957
260.740	4314
260.802	1910
260.864	1105
260.926	80
260.988	1985
261.050	201
261.112	1134
261.174	5684
261.236	4598
261.298	1930
261.359	1509
261.421	3866
261.483	230
261.545	1472
261.607	-476
261.669	955
261.731	-95
261.793	3265
261.854	307
261.916	1209
261.978	362
262.040	960
262.102	476
262.164	791
262.225	981
262.287	1179
262.349	1142
262.411	1799
262.472	1043
262.534	712
262.596	1824
262.658	2097
262.719	216
262.781	1373
262.843	1401
262.904	1660
262.966	885
263.028	1490
263.090	6658
263.151	21900
263.213	7113
263.275	2765
263.336	1692
263.398	2666
263.459	206
263.521	1416
263.583	1090
263.644	1472
263.706	742
263.767	261
263.829	265
263.891	421
263.952	280
264.014	-37
264.075	853
264.137	2732
264.198	1555
264.260	281
264.321	85
264.383	1386
264.444	3707
264.506	1616
264.567	504
264.629	2346
264.690	2181
264.752	1724
264.813	322
264.875	537
264.936	887
264.998	1001
265.059	291
265.120	1208
265.182	1692
265.243	8612
265.305	10842
265.366	3167
265.427	1937
265.489	1787
265.550	-327
265.611	785
265.673	1436
265.734	1246
265.795	1355
265.857	534
265.918	3
265.979	2972
266.040	15112
266.102	16355
266.163	3115
266.224	2929
266.286	1236
266.347	1774
266.408	957
266.469	864
266.530	768
266.592	966
266.653	1097
266.714	2724
266.775	1256
266.836	1496
266.898	717
266.959	1769
267.020	1928
267.081	3096
267.142	1371
267.203	1701
267.264	758
267.326	2700
267.387	135
267.448	1219
267.509	584
267.570	1382
267.631	574
267.692	342
267.753	611
267.814	421
267.875	731
267.936	2390
267.997	894
268.058	1153
268.119	371
268.180	-146
268.241	-740
268.302	1208
268.363	-361
268.424	754
268.485	375
268.546	476
268.607	-47
268.668	-20
268.729	-17
268.790	392
268.851	-161
268.912	766
268.972	1310
269.033	381
269.094	-14
269.155	274
269.216	-76
269.277	448
269.338	682
269.398	861
269.459	-370
269.520	1313
269.581	640
269.642	1668
269.702	104
269.763	643
269.824	498
269.885	18
269.945	412
270.006	666
270.067	-594
270.128	234
270.188	54
270.249	490
270.310	-507
270.370	1083
270.431	947
270.492	199
270.553	156
270.613	861
270.674	2537
270.734	1002
270.795	75
270.856	1752
270.916	268
270.977	687
271.038	800
271.098	212
271.159	373
271.219	857
271.280	732
271.340	511
271.401	17
271.462	1295
271.522	567
271.583	629
271.643	870
271.704	812
271.764	304
271.825	1061
271.885	7570
271.946	13153
272.006	4379
272.066	5029
272.127	11405
272.187	7720
272.248	3471
272.308	2297
272.369	7613
272.429	4509
272.489	1945
272.550	3524
272.610	2351
272.671	2265
272.731	2069
272.791	1842
272.852	1219
272.912	2509
272.972	1156
273.033	1348
273.093	2446
273.153	3126
273.214	2399
273.274	2914
273.334	5483
273.394	12278
273.455	6093
273.515	6186
273.575	9527
273.635	6593
273.696	6840
273.756	13533
273.816	6845
273.876	5156
273.936	4639
273.997	7281
274.057	3026
274.117	2976
274.177	2659
274.237	10269
274.297	10533
274.358	5382
274.418	6182
274.478	5439
274.538	2222
274.598	2255
274.658	2914
274.718	4162
274.778	2144
274.838	1090
274.898	1844
274.958	6063
275.018	8695
275.078	7381
275.138	2123
275.198	779
275.258	1399
275.318	1213
275.378	1535
275.438	2368
275.498	1613
275.558	3090
275.618	6936
275.678	6246
275.738	2372
275.798	3023
275.858	1641
275.918	884
275.978	1880
276.038	2531
276.098	824
276.157	1631
276.217	4133
276.277	2606
276.337	1592
276.397	1414
276.457	681
276.517	1499
276.576	1339
276.636	817
276.696	1527
276.756	3240
276.815	2155
276.875	2366
276.935	1715
276.995	1444
277.055	1533
277.114	2370
277.174	1840
277.234	3987
277.293	3110
277.353	2249
277.413	1667
277.472	1514
277.532	1989
277.592	4647
277.651	16378
277.711	39630
277.771	13850
277.830	34450
277.890	36620
277.950	22461
278.009	63957
278.069	30130
278.128	25555
278.188	42496
278.248	18476
278.307	42730
278.367	29902
278.426	8500
278.486	5537
278.545	4737
278.605	3231
278.664	2950
278.724	2831
278.783	6519
278.843	13793
278.902	6705
278.962	3425
279.021	6174
279.081	9220
279.140	10387
279.199	5987
279.259	6880
279.318	8146
279.378	11929
279.437	18345
279.496	51728
279.556	158881
279.615	157766
279.675	52131
279.734	26777
279.793	25446
279.853	31700
279.912	14258
279.971	10588
280.031	8875
280.090	11997
280.149	19474
280.208	27989
280.268	108653
280.327	137244
280.386	39446
280.445	19813
280.505	13110
280.564	9129
280.623	7882
280.682	6559
280.742	7612
280.801	3983
280.860	3271
280.919	3498
280.978	3704
281.037	4231
281.097	2739
281.156	5304
281.215	3490
281.274	3535
281.333	6958
281.392	5988
281.451	2803
281.510	2859
281.569	3163
281.628	2751
281.688	1878
281.747	2905
281.806	1957
281.865	2354
281.924	1642
281.983	2310
282.042	1886
282.101	2300
282.160	1055
282.219	2497
282.278	1688
282.337	3425
282.396	2942
282.454	2681
282.513	3028
282.572	4523
282.631	3413
282.690	2095
282.749	1511
282.808	3044
282.867	2740
282.926	3365
282.985	2774
283.043	2849
283.102	1679
283.161	2863
283.220	3922
283.279	7800
283.338	3711
283.396	4083
283.455	2808
283.514	4004
283.573	4195
283.631	3849
283.690	4114
283.749	3742
283.808	3848
283.866	5468
283.925	3891
283.984	4698
284.043	4707
284.101	5340
284.160	5656
284.219	8221
284.277	6845
284.336	8664
284.395	11709
284.453	12096
284.512	9888
284.570	12916
284.629	13941
284.688	17606
284.746	20451
284.805	25638
284.863	32729
284.922	43212
284.981	53289
285.039	73996
285.098	108276
285.156	155605
285.215	120108
285.273	107835
285.332	162854
285.390	131700
285.449	89221
285.507	63305
285.566	46264
285.624	36477
285.683	27591
285.741	22688
285.799	18433
285.858	16178
285.916	13428
285.975	11855
286.033	10006
286.091	9248
286.150	7868
286.208	7784
286.267	6370
286.325	6498
286.383	6321
286.442	5971
286.500	5345
286.558	5680
286.616	3912
286.675	5067
286.733	3265
286.791	4174
286.850	3811
286.908	3457
286.966	3463
287.024	3961
287.083	3185
287.141	3124
287.199	3283
287.257	3191
287.315	3485
287.374	2197
287.432	3228
287.490	2823
287.548	2547
287.606	2679
287.664	2220
287.723	2778
287.781	3204
287.839	2584
287.897	3068
287.955	2809
288.013	4870
288.071	10783
288.129	33869
288.187	115171
288.245	53736
288.303	16125
288.361	8693
288.419	6324
288.477	4511
288.535	4155
288.593	2350
288.651	2697
288.709	1518
288.767	1607
288.825	1621
288.883	1752
288.941	2224
288.999	1570
289.057	932
289.115	1283
289.173	1475
289.231	1920
289.289	1591
289.346	1190
289.404	1791
289.462	2190
289.520	1788
289.578	681
289.636	1101
289.694	633
289.751	617
289.809	1513
289.867	1283
289.925	1661
289.983	1348
290.040	1340
290.098	649
290.156	343
290.214	1042
290.271	516
290.329	1231
290.387	1646
290.444	1204
290.502	217
290.560	843
290.617	832
290.675	858
290.733	782
290.790	1133
290.848	721
290.906	538
290.963	774
291.021	1287
291.078	1279
291.136	933
291.194	2525
291.251	5498
291.309	2074
291.366	1311
291.424	782
291.481	1473
291.539	2146
291.596	2893
291.654	1083
291.711	523
291.769	1345
291.826	696
291.884	1187
291.941	798
291.999	54
292.056	774
292.114	1012
292.171	379
292.228	1210
292.286	705
292.343	1456
292.401	1046
292.458	999
292.515	-468
292.573	2134
292.630	961
292.687	1449
292.745	460
292.802	1602
292.859	3406
292.917	6161
292.974	3300
293.031	1947
293.089	1668
293.146	1165
293.203	720
293.260	631
293.318	768
293.375	1675
293.432	670
293.489	1593
293.546	1652
293.604	2498
293.661	5989
293.718	15695
293.775	8087
293.832	6095
293.889	7277
293.947	5442
294.004	2105
294.061	1764
294.118	2822
294.175	7348
294.232	13355
294.289	8426
294.346	2430
294.403	2296
294.460	2062
294.517	1804
294.574	1464
294.631	2282
294.688	1990
294.745	3634
294.802	12216
294.859	13983
294.916	4345
294.973	1758
295.030	1114
295.087	1921
295.144	1331
295.201	2180
295.258	1129
295.315	1060
295.372	3279
295.429	9470
295.486	3792
295.542	2045
295.599	4609
295.656	8334
295.713	4805
295.770	8067
295.827	2737
295.883	2137
295.940	777
295.997	1797
296.054	1335
296.111	1512
296.167	1132
296.224	921
296.281	-72
296.338	583
296.394	-300
296.451	1481
296.508	2265
296.564	5578
296.621	4638
296.678	8922
296.734	16069
296.791	5363
296.848	2306
296.904	2527
296.961	3241
297.018	8403
297.074	6374
297.131	3195
297.187	2137
297.244	3141
297.301	8657
297.357	21858
297.414	7836
297.470	3039
297.527	1109
297.583	1826
297.640	958
297.696	1396
297.753	487
297.809	2035
297.866	90
297.922	1226
297.979	560
298.035	572
298.092	981
298.148	4369
298.204	4719
298.261	3180
298.317	3864
298.374	13679
298.430	9023
298.486	3108
298.543	1047
298.599	2120
298.656	1322
298.712	3375
298.768	8212
298.824	7797
298.881	2682
298.937	1622
298.993	820
299.050	2242
299.106	1071
299.162	928
299.218	1588
299.275	1011
299.331	2154
299.387	4400
299.443	14194
299.500	26564
299.556	19850
299.612	7613
299.668	6430
299.724	16643
299.780	23625
299.837	9144
299.893	6343
299.949	15441
300.005	25055
300.061	19114
300.117	33942
300.173	17669
300.229	5968
300.285	3973
300.341	5234
300.397	3329
300.453	2207
300.510	3273
300.566	3845
300.622	7493
300.678	24978
300.734	39435
300.790	19531
300.845	17232
300.901	17347
300.957	27194
301.013	13863
301.069	5727
301.125	3839
301.181	3045
301.237	2342
301.293	2064
301.349	1568
301.405	2199
301.461	1259
301.516	1754
301.572	1150
301.628	1792
301.684	517
301.740	2600
301.796	4173
301.851	3777
301.907	3916
301.963	5949
302.019	9565
302.074	30411
302.130	33211
302.186	15404
302.242	6048
302.297	3497
302.353	3424
302.409	4795
302.464	4458
302.520	3748
302.576	8690
302.631	11712
302.687	4286
302.743	2275
302.798	610
302.854	808
302.910	1344
302.965	2045
303.021	2010
303.076	2603
303.132	1939
303.187	3027
303.243	1119
303.299	2078
303.354	373
303.410	532
303.465	120
303.521	567
303.576	1063
303.632	2024
303.687	3148
303.743	10147
303.798	10454
303.853	3911
303.909	1631
303.964	1372
304.020	1463
304.075	1679
304.130	2024
304.186	2964
304.241	3839
304.297	3578
304.352	1697
304.358	1616
304.407	960
304.449	914
304.463	899
304.518	944
304.539	1080
304.573	1293
304.629	2342
304.630	2338
304.684	2234
304.720	5159
304.739	6622
304.794	12999
304.811	11188
304.850	6903
304.902	2343
304.905	2044
304.960	1463
304.992	1204
305.015	1026
305.071	1930
305.083	1852
305.126	1545
305.173	904
305.181	801
305.236	561
305.264	987
305.292	1403
305.347	916
305.354	1067
305.402	2090
305.445	1148
305.457	857
305.512	1483
305.535	1239
305.567	948
305.622	1435
305.626	1518
305.678	3152
305.716	5868
305.733	6882
305.788	9739
305.807	8771
305.843	7209
305.897	8548
305.898	8554
305.953	11493
305.988	7389
306.008	5060
306.063	2846
306.078	2367
306.118	1450
306.168	1417
306.173	1407
306.228	1208
306.259	1490
306.283	1683
306.338	1269
306.349	1248
306.393	1058
306.440	821
306.448	826
306.503	1574
306.530	1589
306.558	1627
306.613	2709
306.620	2940
306.668	4658
306.711	6077
306.723	6220
306.778	5158
306.801	4179
306.833	3096
306.888	1616
306.892	1574
306.943	1421
306.982	1558
306.997	1562
307.052	1284
307.072	1291
307.107	1424
307.162	2047
307.163	2050
307.217	2201
307.253	2762
307.272	3035
307.327	2934
307.343	2924
307.381	2861
307.434	2262
307.436	2266
307.491	3793
307.524	4602
307.546	4787
307.600	5678
307.614	5134
307.655	3417
307.704	2995
307.710	3008
307.765	2371
307.795	2949
307.819	3362
307.874	5149
307.885	5056
307.929	4850
307.975	5508
307.984	5720
308.038	7774
308.065	9619
308.093	16299
308.148	34486
308.156	39508
308.202	63142
308.246	81441
308.257	81964
308.312	42690
308.336	28942
308.366	19197
308.421	11398
308.426	10956
308.475	8399
308.517	7091
308.530	6723
308.585	6699
308.607	6363
308.639	6024
308.694	6136
308.697	6196
308.748	7558
308.787	8794
308.803	8921
308.857	8684
308.877	8260
308.912	8384
308.967	9855
308.967	9917
309.021	16297
309.058	21537
309.076	25088
309.130	39404
309.148	44210
309.185	68334
309.238	111874
309.239	112138
309.293	135962
309.328	129610
309.348	117468
309.402	66485
309.418	54348
309.457	39876
309.508	28504
309.511	28293
309.566	32045
309.598	36454
309.620	44334
309.674	70237
309.688	77467
309.729	76961
309.778	64009
309.783	62432
309.837	39563
309.868	28245
309.892	23854
309.946	17656
309.959	16896
310.001	15375
310.049	13790
310.055	13384
310.109	10048
310.139	7971
310.163	6565
310.218	4721
310.229	4391
310.272	4143
310.319	4152
310.326	4043
310.381	3288
310.409	2933
310.435	2654
310.489	2240
310.499	2169
310.543	2108
310.589	2161
310.598	2200
310.652	2425
310.679	2496
310.706	2269
310.760	2020
310.769	1965
310.814	2178
310.859	2314
310.868	2289
310.923	2203
310.948	2255
310.977	2277
311.031	2085
311.038	2093
311.085	2101
311.128	1841
311.139	1861
311.193	2352
311.218	2404
311.247	2239
311.301	2089
311.308	2071
311.356	1783
311.398	1477
311.410	1531
311.464	1787
311.488	1935
311.518	1856
311.572	1617
311.578	1597
311.626	1775
311.668	1910
311.680	1976
311.734	2309
311.758	2428
311.788	2271
311.842	1972
311.847	1944
311.896	2287
311.937	2567
311.950	2505
312.004	2245
312.027	2127
312.058	1988
312.112	1734
312.117	1710
312.165	1793
312.207	1867
312.297	1589
312.386	1878
312.476	1658
312.566	2088
312.656	1216
312.745	1259
312.835	2128
312.925	1906
313.015	1718
313.104	1987
313.194	2494
313.284	1052
313.374	1967
313.463	1999
313.553	2320
313.643	1993
313.732	2695
313.822	1884
313.912	2549
314.001	2777
314.091	3623
314.180	2589
314.270	3811
314.360	2979
314.449	2559
314.539	2605
314.628	2870
314.718	3157
314.808	3006
314.897	3552
314.987	3845
315.076	3643
315.166	4130
315.255	2696
315.345	2996
315.434	2401
315.524	2972
315.613	3238
315.703	4590
315.792	12454
315.881	40176
315.971	11384
316.060	4287
316.150	3678
316.239	3486
316.328	2858
316.418	2660
316.507	2686
316.597	4153
316.686	3944
316.775	3477
316.865	4720
316.954	3288
317.043	2729
317.133	2514
317.222	1983
317.311	2371
317.400	1361
317.490	2804
317.579	3698
317.668	4295
317.757	7146
317.847	22684
317.936	65832
318.025	17691
318.114	14024
318.203	6480
318.293	4127
318.382	5704
318.471	5862
318.560	6675
318.649	8970
318.738	3169
318.828	2055
318.917	2372
319.006	2214
319.095	3766
319.184	10629
319.273	5478
319.362	3323
319.451	2105
319.540	1819
319.629	2532
319.718	3350
319.807	3410
319.896	4945
319.985	14685
320.074	5162
320.163	2204
320.252	3202
320.341	2940
320.430	1648
320.519	2736
320.608	2752
320.697	3379
320.786	3258
320.875	4554
320.964	4961
321.053	4859
321.142	5463
321.230	6218
321.319	6997
321.408	9446
321.497	8193
321.586	6645
321.675	5493
321.764	5501
321.852	5101
321.941	5987
322.030	4946
322.119	5887
322.207	8323
322.296	8716
322.385	8782
322.474	10294
322.562	12190
322.651	8207
322.740	6706
322.829	6218
322.917	5370
323.006	4517
323.095	3673
323.183	3743
323.272	4368
323.361	5787
323.449	9905
323.538	5544
323.626	7407
323.715	5232
323.804	2714
323.892	5908
323.981	4139
324.069	3594
324.158	4432
324.246	4074
324.335	2715
324.424	2649
324.512	2402
324.601	2443
324.689	2930
324.778	4300
324.866	3085
324.954	1965
325.043	2437
325.131	1779
325.220	3135
325.308	2910
325.397	2912
325.485	2028
325.574	1932
325.662	2725
325.750	1934
325.839	1863
325.927	1649
326.015	2436
326.104	2414
326.192	2831
326.280	1341
326.369	2501
326.457	2698
326.545	3358
326.634	1993
326.722	1864
326.810	2158
326.898	3321
326.987	2659
327.075	2882
327.163	3310
327.251	2089
327.340	2727
327.428	4821
327.516	3406
327.604	2837
327.692	2390
327.781	2079
327.869	2164
327.957	1570
328.045	1921
328.133	1930
328.221	1897
328.309	2343
328.397	2527
328.485	2769
328.574	4334
328.662	6162
328.750	2658
328.838	2630
328.926	1837
329.014	2522
329.102	1935
329.190	3276
329.278	2661
329.366	2005
329.454	2303
329.542	1648
329.630	1763
329.718	2311
329.806	1871
329.893	2524
329.981	1772
330.069	1904
330.157	3043
330.245	5866
330.333	3169
330.421	2388
330.509	2077
330.597	3517
330.684	2445
330.772	1876
330.860	2401
330.948	2552
331.036	1847
331.123	1935
331.211	2343
331.299	2782
331.387	3063
331.475	3151
331.562	2318
331.650	1944
331.738	1995
331.825	2505
331.913	1917
332.001	2593
332.089	1773
332.176	2190
332.264	3345
332.352	3551
332.439	1941
332.527	1826
332.614	1907
332.702	2821
332.790	2552
332.877	4029
332.965	9481
333.052	7614
333.140	9455
333.228	21945
333.315	6412
333.403	2730
333.490	4854
333.578	10475
333.665	32690
333.753	12103
333.840	3295
333.928	3968
334.015	5440
334.103	8009
334.190	15896
334.278	8888
334.365	11813
334.452	11219
334.540	7052
334.627	6742
334.715	8658
334.802	13222
334.889	27824
334.977	33408
335.064	16876
335.151	8246
335.239	6050
335.326	6769
335.413	11967
335.501	12107
335.588	5734
335.675	6085
335.762	7552
335.850	10110
335.937	14925
336.024	26518
336.111	46688
336.199	35490
336.286	15790
336.373	8769
336.460	5786
336.547	4941
336.635	3973
336.722	4012
336.809	3830
336.896	3266
336.983	5948
337.070	11814
337.157	15704
337.245	9059
337.332	6839
337.419	3687
337.506	2949
337.593	3714
337.680	5013
337.767	9322
337.854	3796
337.941	4400
338.028	3224
338.115	2865
338.202	4806
338.289	4189
338.376	7560
338.463	4597
338.550	6304
338.637	6428
338.724	3731
338.811	3985
338.898	2768
338.984	1630
339.071	2626
339.158	3097
339.245	3381
339.332	3717
339.419	3262
339.506	2937
339.593	1368
339.679	2783
339.766	1824
339.853	1467
339.940	2392
340.027	2321
340.113	1740
340.200	2983
340.287	2117
340.374	2175
340.460	2493
340.547	1970
340.634	3118
340.720	4265
340.807	2838
340.894	2245
340.980	2803
341.067	2041
341.154	3583
341.240	2293
341.327	3383
341.414	2556
341.500	2195
341.587	2781
341.674	2001
341.760	3269
341.847	2443
341.933	2401
342.020	1403
342.106	2371
342.193	1658
342.279	2509
342.366	1598
342.452	2901
342.539	1939
342.625	4252
342.712	3670
342.798	2843
342.885	2418
342.971	1839
343.058	2030
343.144	1856
343.230	2002
343.317	2071
343.403	848
343.490	2276
343.576	2015
343.662	2452
343.749	1972
343.835	2052
343.921	4194
344.008	17624
344.094	29435
344.180	6748
344.267	3307
344.353	7225
344.439	6352
344.525	3304
344.612	4585
344.698	4214
344.784	2292
344.870	2433
344.957	1787
345.043	2672
345.129	1749
345.215	2617
345.301	2564
345.387	2044
345.474	2246
345.560	2356
345.646	1276
345.732	2259
345.818	1516
345.904	2392
345.990	1313
346.076	1456
346.162	1589
346.249	2814
346.335	1500
346.421	2149
346.507	4112
346.593	9534
346.679	2556
346.765	4262
346.851	3683
346.937	2730
347.023	2912
347.108	2738
347.194	2322
347.280	2803
347.366	3401
347.452	9882
347.538	17618
347.624	11441
347.710	6594
347.796	2470
347.882	2442
347.967	2458
348.053	2119
348.139	2981
348.225	2406
348.311	1626
348.397	2456
348.482	2708
348.568	2707
348.654	4218
348.740	10507
348.825	9654
348.911	6166
348.997	8713
349.083	11998
349.168	3177
349.254	2371
349.340	2210
349.425	2639
349.511	3036
349.597	2314
349.682	3250
349.768	6671
349.854	3920
349.939	2637
350.025	2187
350.110	2202
350.196	2211
350.282	1287
350.367	2890
350.453	2279
350.538	2146
350.624	1633
350.709	2751
350.795	1718
350.880	1752
350.966	2622
351.051	3365
351.137	1676
351.222	2936
351.308	2966
351.393	5263
351.479	1916
351.564	1039
351.649	2229
351.735	2246
351.820	2115
351.906	2392
351.991	1704
352.076	3020
352.162	4504
352.247	2832
352.332	2678
352.418	2771
352.503	2813
352.588	6520
352.673	3732
352.759	2049
352.844	1955
352.929	1577
353.014	1450
353.100	3008
353.185	2305
353.270	1877
353.355	2722
353.441	2833
353.526	2118
353.611	2576
353.696	1858
353.781	3235
353.866	1164
353.952	2671
354.037	2216
354.122	4254
354.207	2728
354.292	2319
354.377	2179
354.462	2868
354.547	1959
354.632	2214
354.717	2513
354.802	1893
354.887	2829
354.972	2231
355.057	1720
355.142	1665
355.227	2312
355.312	1728
355.397	2399
355.482	4880
355.567	2769
355.652	3443
355.737	3386
355.822	7489
355.907	5107
355.991	4114
356.076	1929
356.161	2207
356.246	2459
356.331	2536
356.416	3912
356.501	17229
356.585	12749
356.670	2888
356.755	4765
356.840	4340
356.924	12639
357.009	33920
357.094	11499
357.179	3160
357.263	3000
357.348	3120
357.433	3083
357.517	3330
357.602	2634
357.687	2922
357.771	4010
357.856	7094
357.941	5652
358.025	12652
358.110	40455
358.195	15257
358.279	4103
358.364	3846
358.448	5649
358.533	11404
358.617	6772
358.702	8437
358.787	3023
358.871	3375
358.956	2813
359.040	3255
359.125	1836
359.209	2733
359.294	4387
359.378	6840
359.462	4408
359.547	2899
359.631	1814
359.716	1678
359.800	1644
359.885	3288
359.969	947
360.053	3291
360.138	2207
360.222	2543
360.306	2020
360.391	2943
360.475	3236
360.559	5858
360.644	5685
360.728	3543
360.812	10010
360.896	21594
360.981	7359
361.065	3944
361.149	3688
361.233	2804
361.318	2847
361.402	2648
361.486	3614
361.570	3190
361.654	2777
361.739	4774
361.823	15375
361.907	22553
361.991	5119
362.075	4856
362.159	6151
362.243	13446
362.327	28971
362.411	42530
362.495	15380
362.580	8023
362.664	7166
362.748	7729
362.832	12372
362.916	26666
363.000	81874
363.084	115377
363.168	53525
363.252	14638
363.336	8422
363.420	7905
363.503	15147
363.587	13862
363.671	5105
363.755	4918
363.839	7391
363.923	4021
364.007	8436
364.091	10691
364.175	17983
364.258	49053
364.342	94384
364.426	166972
364.510	79196
364.594	24449
364.677	13297
364.761	23022
364.845	15047
364.929	5599
365.013	4131
365.096	5000
365.180	3739
365.264	8450
365.347	20233
365.431	7942
365.515	3234
365.598	1977
365.682	3867
365.766	2596
365.849	3798
365.933	2216
366.017	4344
366.100	1929
366.184	3349
366.267	3935
366.351	2989
366.435	2771
366.518	2565
366.602	2692
366.685	2406
366.769	3634
366.852	3253
366.936	3739
367.019	2812
367.103	2281
367.186	4993
367.270	3321
367.353	1812
367.436	4712
367.520	2777
367.603	3774
367.687	3271
367.770	3421
367.853	3996
367.937	8407
368.020	8503
368.104	2655
368.187	3430
368.270	3680
368.353	2704
368.437	3925
368.520	5849
368.603	4137
368.687	4645
368.770	8831
368.853	3574
368.936	3778
369.020	4804
369.103	2491
369.186	1319
369.269	2205
369.352	3948
369.436	2764
369.519	2257
369.602	1398
369.685	5014
369.768	2520
369.851	2976
369.934	2121
370.018	2459
370.101	1697
370.184	4383
370.267	3589
370.350	3633
370.433	6121
370.516	15254
370.599	28532
370.682	9207
370.765	7607
370.848	8695
370.931	12109
371.014	7331
371.097	3207
371.180	3831
371.263	4387
371.346	2616
371.429	4546
371.511	3134
371.594	4549
371.677	6394
371.760	7065
371.843	6859
371.926	21637
372.009	35904
372.091	17012
372.174	10684
372.257	17742
372.340	9227
372.423	8939
372.505	9448
372.588	5831
372.671	6991
372.754	12002
372.836	8174
372.919	8452
373.002	12220
373.085	6198
373.167	6843
373.250	8821
373.332	14705
373.415	25643
373.498	43954
373.580	20763
373.663	49476
373.746	45105
373.828	8295
373.911	5547
373.993	4827
374.076	11586
374.159	8351
374.241	6223
374.324	10556
374.406	8908
374.489	16212
374.571	33320
374.654	12295
374.736	9837
374.819	21604
374.901	34478
374.983	30453
375.066	7757
375.148	6011
375.231	11768
375.313	15467
375.395	7170
375.478	4561
375.560	4963
375.643	5140
375.725	9319
375.807	26342
375.890	18959
375.972	6120
376.054	5716
376.136	5924
376.219	4507
376.301	10003
376.383	19578
376.465	7697
376.548	4191
376.630	7342
376.712	15725
376.794	6824
376.877	3565
376.959	2169
377.041	3441
377.123	3316
377.205	4161
377.287	2161
377.369	3974
377.452	2560
377.534	2940
377.616	3131
377.698	3315
377.780	2659
377.862	3080
377.944	3691
378.026	2365
378.108	3293
378.190	3234
378.272	3976
378.354	2664
378.436	2860
378.518	2544
378.600	3837
378.682	5527
378.764	6810
378.846	7055
378.928	3501
379.010	2230
379.091	3928
379.173	4324
379.255	2285
379.337	2619
379.419	4597
379.501	10387
379.583	4917
379.664	3515
379.746	2744
379.828	8802
379.910	7211
379.991	8179
380.073	3189
380.155	3729
380.237	3416
380.318	2620
380.400	2691
380.482	5267
380.564	3944
380.645	4086
380.727	3748
380.809	5226
380.890	3581
380.972	3199
381.053	3243
381.135	5189
381.217	5123
381.298	8894
381.380	6388
381.461	7302
381.543	18181
381.624	19139
381.706	7210
381.787	6077
381.869	6581
381.951	15288
382.032	36713
382.113	22599
382.195	7532
382.276	9775
382.358	11168
382.439	20849
382.521	27587
382.602	37966
382.684	25307
382.765	43151
382.846	111981
382.928	234668
383.009	122490
383.090	107013
383.172	314593
383.253	368203
383.334	116643
383.416	55623
383.497	37916
383.578	42504
383.659	87860
383.741	279906
383.822	494528
383.903	238842
383.984	68768
384.066	45504
384.147	25115
384.228	15589
384.309	13652
384.390	12104
384.471	9496
384.553	10722
384.634	9565
384.715	9717
384.796	8013
384.877	9252
384.958	13081
385.039	11231
385.120	7818
385.201	7598
385.282	7937
385.363	10135
385.444	10223
385.525	12178
385.606	18740
385.687	15542
385.768	8410
385.849	9240
385.930	23995
386.011	32591
386.092	10476
386.173	7801
386.254	5845
386.335	6324
386.416	5811
386.496	8831
386.577	9119
386.658	5761
386.739	4878
386.820	6948
386.901	5092
386.981	7765
387.062	8298
387.143	10067
387.224	11101
387.304	12269
387.385	9183
387.466	7111
387.547	10060
387.627	8622
387.708	10267
387.789	18139
387.869	17802
387.950	10542
388.031	6904
388.111	5332
388.192	8690
388.273	11058
388.353	7759
388.434	4398
388.514	6619
388.595	18391
388.676	17593
388.756	7583
388.837	7558
388.917	5311
388.998	2002
389.078	4375
389.159	3698
389.239	3288
389.320	6205
389.400	1669
389.480	5542
389.561	8301
389.641	6240
389.722	4505
389.802	3239
389.883	5962
389.963	11656
390.043	6220
390.124	3415
390.204	5058
390.284	7333
390.365	5730
390.445	8755
390.525	19090
390.605	15563
390.686	4838
390.766	4763
390.846	5291
390.927	3043
391.007	3152
391.087	5418
391.167	4609
391.247	3164
391.328	5408
391.408	5091
391.488	5069
391.568	3170
391.648	4834
391.728	5189
391.808	6081
391.888	5507
391.969	7916
392.049	8749
392.129	7429
392.209	8419
392.289	13977
392.369	10203
392.449	11045
392.529	10157
392.609	11024
392.689	13465
392.769	20203
392.849	20853
392.929	25772
393.009	37456
393.089	50116
393.169	97046
393.248	262421
393.328	562668
393.408	504187
393.488	209968
393.568	78305
393.648	40343
393.728	25597
393.807	17830
393.887	15654
393.967	12287
394.047	10744
394.127	10882
394.206	12900
394.286	34388
394.366	127789
394.446	112402
394.525	23006
394.605	9261
394.685	9357
394.764	12075
394.844	19777
394.924	18090
395.003	7927
395.083	5370
395.163	5445
395.242	5277
395.322	5497
395.402	4034
395.481	7869
395.561	9135
395.640	26949
395.720	40794
395.799	26528
395.879	13882
395.958	13185
396.038	44840
396.117	162917
396.197	145946
396.276	37116
396.356	16098
396.435	17155
396.515	21981
396.594	32040
396.673	77437
396.753	247838
396.832	492161
396.912	318063
396.991	95374
397.070	38729
397.150	20945
397.229	19890
397.308	35366
397.388	58517
397.467	24809
397.546	9591
397.625	4803
397.705	7269
397.784	5458
397.863	5879
397.942	5221
398.022	4940
398.101	6753
398.180	12597
398.259	6659
398.338	4834
398.417	3134
398.497	3219
398.576	3691
398.655	2242
398.734	3520
398.813	3712
398.892	6486
398.971	12894
399.050	4491
399.129	2436
399.208	2775
399.287	3915
399.366	1736
399.445	2590
399.524	3793
399.603	1088
399.682	2284
399.761	5418
399.840	14648
399.919	10206
399.998	2869
400.077	1031
400.156	1069
400.235	4364
400.313	1099
400.392	1392
400.471	4163
400.550	4505
400.629	1326
400.708	2260
400.786	1899
400.865	3142
400.944	1835
401.023	3388
401.102	906
401.180	1429
401.259	2076
401.338	1570
401.416	2098
401.495	1333
401.574	1714
401.652	1426
401.731	2069
401.810	183
401.888	1043
401.967	791
402.046	1080
402.124	2199
402.203	675
402.281	1590
402.360	1428
402.438	4081
402.517	1036
402.596	2446
402.674	1041
402.753	2067
402.831	1640
402.910	2416
402.988	2844
403.066	6316
403.145	4663
403.223	4779
403.302	4852
403.380	5364
403.459	4128
403.537	2813
403.615	2275
403.694	1406
403.772	2747
403.850	2264
403.929	1518
404.007	1124
404.085	3661
404.164	1840
404.242	2174
404.320	7826
404.398	24362
404.477	18485
404.555	23748
404.633	19221
404.711	16471
404.789	10080
404.868	1975
404.946	871
405.024	934
405.102	1947
405.180	595
405.258	219
405.336	1973
405.415	936
405.493	1868
405.571	2403
405.649	1278
405.727	923
405.805	2631
405.883	2144
405.961	2914
406.039	1503
406.117	800
406.195	2245
406.273	3644
406.351	13977
406.429	8038
406.507	1630
406.585	1238
406.663	1596
406.740	1198
406.818	812
406.896	674
406.974	2433
407.052	1106
407.130	8539
407.208	9419
407.285	3670
407.363	200
407.441	1281
407.519	150
407.596	370
407.674	3049
407.752	6122
407.830	4746
407.907	2263
407.985	-235
408.063	1439
408.141	955
408.218	2866
408.296	-107
408.373	1252
408.451	1334
408.529	1938
408.606	1482
408.684	2169
408.762	780
408.839	2287
408.917	2108
408.994	2168
409.072	2459
409.149	3626
409.227	6650
409.304	9458
409.382	10244
409.459	12376
409.537	15642
409.614	13154
409.692	9781
409.769	10645
409.846	16334
409.924	19031
410.001	12090
410.079	8183
410.156	6368
410.233	4869
410.311	3884
410.388	3915
410.465	3940
410.543	2901
410.620	3447
410.697	4064
410.775	2086
410.852	1902
410.929	4104
411.006	4227
411.083	2438
411.161	2972
411.238	3514
411.315	2552
411.392	2381
411.469	2887
411.547	2112
411.624	664
411.701	1701
411.778	2451
411.855	1967
411.932	1499
412.009	1791
412.086	1713
412.163	2499
412.240	1433
412.317	1978
412.394	1760
412.471	2565
412.548	1245
412.625	1028
412.702	1023
412.779	1870
412.856	1764
412.933	501
413.010	2084
413.087	1431
413.164	2399
413.241	3684
413.318	1079
413.395	1598
413.471	1659
413.548	1235
413.625	1456
413.702	684
413.779	1554
413.855	886
413.932	1278
414.009	79
414.086	1069
414.162	1120
414.239	1975
414.316	2762
414.393	5524
414.469	1387
414.546	1054
414.623	1026
414.699	910
414.776	593
414.853	788
414.929	830
415.006	650
415.082	2089
415.159	1295
415.236	1850
415.312	1918
415.389	1553
415.465	731
415.542	436
415.618	862
415.695	1275
415.771	699
415.848	-8
415.924	1460
416.000	1127
416.077	1424
416.153	-232
416.230	860
416.306	516
416.383	375
416.459	1451
416.535	492
416.612	1042
416.688	1541
416.764	1547
416.841	1113
416.917	1160
416.993	2079
417.069	1396
417.146	779
417.222	996
417.298	1395
417.374	-106
417.451	1143
417.527	1078
417.603	1099
417.679	332
417.755	534
417.831	434
417.908	855
417.984	1162
418.060	-71
418.136	1509
418.212	1090
418.288	419
418.364	814
418.440	245
418.516	1283
418.592	767
418.668	2232
418.744	1103
418.820	1869
418.896	1769
418.972	627
419.048	785
419.124	2351
419.200	451
419.276	2001
419.352	725
419.428	816
419.504	339
419.579	1141
419.655	1372
419.731	987
419.807	1468
419.883	1452
419.959	2008
420.034	2345
420.110	1625
420.186	3282
420.262	3623
420.337	2507
420.413	2280
420.489	2798
420.565	3065
420.640	2478
420.716	2574
420.792	1534
420.867	3286
420.943	2822
421.019	3366
421.094	4413
421.170	3494
421.245	3916
421.321	4434
421.397	4912
421.472	6429
421.548	7840
421.623	7151
421.699	7453
421.774	8277
421.850	9614
421.925	12052
422.001	13682
422.076	16012
422.152	21115
422.227	27688
422.302	41026
422.378	62676
422.453	112425
422.529	207322
422.604	292826
422.679	262428
422.755	271305
422.830	194398
422.905	108478
422.981	64877
423.056	44282
423.131	31487
423.207	23910
423.282	19311
423.357	16194
423.432	12765
423.508	11423
423.583	9511
423.658	9125
423.733	8002
423.808	6691
423.883	7060
423.959	7152
424.034	8885
424.109	9057
424.184	5364
424.259	4820
424.334	4129
424.409	2863
424.484	3014
424.559	3192
424.634	3160
424.709	2934
424.784	1969
424.859	2349
424.934	2367
425.009	4183
425.084	4509
425.159	2016
425.234	1411
425.309	1832
425.384	2591
425.459	2294
425.534	1319
425.609	1298
425.683	712
425.758	1367
425.833	870
425.908	909
425.983	1744
426.058	4271
426.132	1986
426.207	1327
426.282	1655
426.357	840
426.431	1637
426.506	1529
426.581	583
426.655	1178
426.730	856
426.805	893
426.879	884
426.954	1011
427.029	1031
427.103	4551
427.178	10197
427.253	3559
427.327	828
427.402	1158
427.476	1800
427.551	1477
427.625	1283
427.700	1865
427.774	773
427.849	2143
427.923	648
427.998	1616
428.072	1280
428.147	6402
428.221	36137
428.296	98955
428.370	45281
428.444	6296
428.519	3100
428.593	3275
428.667	3242
428.742	4331
428.816	13274
428.890	63244
428.965	83907
429.039	20149
429.113	4785
429.188	2815
429.262	1505
429.336	1163
429.410	1822
429.485	1404
429.559	3041
429.633	2437
429.707	2537
429.781	11906
429.855	61767
429.930	75751
430.004	19681
430.078	15901
430.152	41799
430.226	133234
430.300	111268
430.374	20595
430.448	5911
430.522	6910
430.596	12080
430.670	22941
430.744	82639
430.818	77034
430.892	12924
430.966	2324
431.040	1315
431.114	-223
431.188	198
431.262	397
431.336	199
431.410	1225
431.484	1360
431.557	1866
431.631	1669
431.705	5116
431.779	28716
431.853	95965
431.927	54071
432.000	7152
432.074	1741
432.148	1186
432.222	287
432.295	786
432.369	-335
432.443	-260
432.516	4117
432.590	10243
432.664	3073
432.737	-163
432.811	-546
432.885	-406
432.958	8
433.032	-673
433.106	-107
433.179	-323
433.253	-416
433.326	-630
433.400	-558
433.473	-290
433.547	-951
433.620	-640
433.694	-764
433.767	477
433.841	-69
433.914	151
433.988	-949
434.061	-67
434.134	-341
434.208	-390
434.281	-941
434.355	-486
434.428	-547
434.501	13
434.575	-779
434.648	-45
434.721	-475
434.795	-623
434.868	-1011
434.941	-495
435.014	-187
435.088	696
435.161	1455
435.234	2272
435.307	2818
435.381	3034
435.454	4559
435.527	7943
435.600	8034
435.673	6832
435.746	4022
435.819	2023
435.892	1492
435.966	649
436.039	-367
436.112	990
436.185	-885
436.258	608
436.331	-426
436.404	34
436.477	-60
436.550	-742
436.623	-632
436.696	303
436.769	-758
436.842	-203
436.915	-496
436.987	275
437.060	-1175
437.133	-37
437.206	-516
437.279	-431
437.352	-601
437.425	-1307
437.498	-392
437.570	671
437.643	132
437.716	-808
437.789	-1364
437.861	69
437.934	-244
438.007	-383
438.080	-1290
438.152	706
438.225	658
438.298	7807
438.370	18742
438.443	6659
438.516	245
438.588	-195
438.661	-996
438.734	-247
438.806	-1049
438.879	244
438.951	-560
439.024	-283
439.096	-587
439.169	-512
439.241	-1045
439.314	-854
439.386	-35
439.459	239
439.531	-206
439.604	-1175
439.676	-217
439.749	-606
439.821	-741
439.893	-281
439.966	-1096
440.038	-551
440.110	-680
440.183	-511
440.255	-435
440.327	82
440.400	2404
440.472	8290
440.544	4303
440.617	-20
440.689	309
440.761	-262
440.833	228
440.905	591
440.978	-589
441.050	-320
441.122	224
441.194	-118
441.266	-252
441.338	-152
441.411	450
441.483	1740
441.555	3004
441.627	574
441.699	849
441.771	-249
441.843	-262
441.915	398
441.987	431
442.059	669
442.131	1013
442.203	1882
442.275	2615
442.347	4917
442.419	14596
442.491	79652
442.563	152285
442.635	56474
442.706	11307
442.778	4815
442.850	2574
442.922	2278
442.994	1204
443.066	2488
443.137	2684
443.209	4408
443.281	8217
443.353	22061
443.425	90264
443.496	251643
443.568	241662
443.640	94601
443.711	20557
443.783	7399
443.855	3716
443.926	2184
443.998	1752
444.070	1207
444.141	1680
444.213	1800
444.285	707
444.356	1846
444.428	1124
444.499	1649
444.571	607
444.642	518
444.714	1014
444.785	1866
444.857	1563
444.928	3013
445.000	2252
445.071	4084
445.143	4201
445.214	8839
445.285	15558
445.357	46171
445.428	170859
445.500	295705
445.571	222181
445.642	138893
445.714	43000
445.785	13418
445.856	5314
445.928	3366
445.999	2240
446.070	2022
446.141	1535
446.213	964
446.284	-47
446.355	515
446.426	195
446.497	-641
446.569	-620
446.640	7
446.711	116
446.782	-139
446.853	492
446.924	644
446.995	-8
447.066	-29
447.138	-408
447.209	-184
447.280	-867
447.351	-705
447.422	-1107
447.493	-436
447.564	-872
447.635	-320
447.706	-897
447.777	-346
447.847	-707
447.918	-1162
447.989	-773
448.060	-188
448.131	-269
448.202	-1124
448.273	-267
448.344	-165
448.414	-1137
448.485	-366
448.556	-733
448.627	-1165
448.698	260
448.768	-598
448.839	-1404
448.910	-1287
448.981	-557
449.051	-829
449.122	-823
449.193	-73
449.263	-1395
449.334	54
449.405	-449
449.475	289
449.546	-353
449.616	459
449.687	-213
449.758	-433
449.828	-959
449.899	-746
449.969	-1385
450.040	-663
450.110	-854
450.181	-686
450.251	-860
450.322	-203
450.392	-575
450.463	-955
450.533	-1129
450.604	-815
450.674	-1548
450.744	-622
450.815	-1226
450.885	341
450.955	242
451.026	60
451.096	-1105
451.166	-522
451.237	500
451.307	2106
451.377	418
451.447	-437
451.518	-850
451.588	-318
451.658	-998
451.728	-333
451.799	1149
451.869	279
451.939	-323
452.009	-1349
452.079	-352
452.149	218
452.219	-91
452.289	2137
452.360	437
452.430	13
452.500	-86
452.570	2220
452.640	8346
452.710	19596
452.780	20962
452.850	10025
452.920	3114
452.990	1167
453.060	656
453.129	222
453.199	-875
453.269	2807
453.339	5847
453.409	8923
453.479	8348
453.549	11538
453.619	9761
453.688	3369
453.758	-16
453.828	-765
453.898	-281
453.968	-778
454.037	-331
454.087	-734
454.107	-919
454.168	-694
454.177	-683
454.247	-203
454.249	-220
454.316	-1188
454.330	-1105
454.386	-885
454.411	-271
454.456	575
454.492	736
454.525	854
454.574	42
454.595	-320
454.655	-389
454.665	-399
454.734	-149
454.736	-83
454.804	972
454.817	1052
454.873	792
454.898	1134
454.943	1712
454.979	740
455.013	-140
455.060	-128
455.082	-33
455.141	196
455.152	199
455.221	2361
455.222	2436
455.291	4225
455.303	4661
455.360	5550
455.384	7234
455.430	8599
455.465	6496
455.499	4742
455.546	2739
455.569	1852
455.627	1469
455.638	1406
455.707	-493
455.708	-468
455.777	526
455.789	512
455.846	257
455.869	290
455.916	429
455.950	848
455.985	1155
456.031	654
456.054	367
456.112	644
456.124	695
456.193	664
456.193	641
456.262	594
456.274	777
456.332	1476
456.355	1123
456.401	425
456.436	668
456.470	745
456.516	351
456.540	187
456.597	506
456.609	562
456.678	1153
456.678	1132
456.747	990
456.759	880
456.817	273
456.840	497
456.886	928
456.920	1050
456.955	1200
457.001	1617
457.024	1802
457.082	2401
457.093	2458
457.162	2777
457.163	2806
457.232	2165
457.243	2226
457.301	2434
457.324	2215
457.370	2098
457.405	2809
457.439	3504
457.485	3426
457.508	3473
457.566	5097
457.577	5697
457.646	8624
457.647	8721
457.715	26541
457.727	30153
457.784	56472
457.808	72471
457.853	87621
457.889	96874
457.922	84719
457.969	54514
457.991	61228
458.050	87582
458.060	93138
458.129	153943
458.130	155832
458.198	127722
458.211	115518
458.267	59361
458.292	36455
458.336	26711
458.372	25720
458.405	42038
458.453	68884
458.474	91928
458.533	168865
458.543	173931
458.611	237464
458.614	239188
458.680	120365
458.694	90255
458.749	40958
458.775	25126
458.818	15431
458.855	11653
458.887	9984
458.936	7348
458.955	6637
459.016	5898
459.024	5816
459.093	5615
459.097	5600
459.162	5046
459.177	4847
459.230	4477
459.257	4605
459.299	4599
459.338	4419
459.368	4231
459.418	4155
459.437	4120
459.499	4127
459.505	4082
459.574	3567
459.579	3521
459.643	3221
459.659	3213
459.711	3259
459.740	3439
459.780	3739
459.820	3702
459.849	3614
459.900	4083
459.917	4114
459.981	3843
459.986	3821
460.054	3601
460.061	3628
460.123	3992
460.141	3946
460.191	3702
460.222	3590
460.260	4022
460.302	4631
460.328	4211
460.382	3417
460.397	3477
460.462	3367
460.465	3406
460.534	5627
460.543	5783
460.602	13066
460.623	16054
460.671	23839
460.703	30225
460.739	26805
460.783	20364
460.808	16390
460.864	4920
460.876	4384
460.944	3413
460.945	3395
461.013	3326
461.024	3309
461.081	3769
461.104	4021
461.150	3868
461.184	3780
461.218	3995
461.264	4047
461.286	4095
461.345	4167
461.355	4069
461.423	3569
461.425	3565
461.491	3859
461.505	3909
461.559	5091
461.585	5572
461.628	7557
461.665	9576
461.696	10235
461.745	11039
461.764	9425
461.825	4212
461.832	4276
461.901	4222
461.905	4277
461.969	3673
461.985	3479
462.037	4134
462.065	4462
462.105	4441
462.145	4392
462.173	4996
462.225	6068
462.241	6470
462.305	8489
462.310	8362
462.378	6092
462.385	5840
462.446	5318
462.465	4989
462.514	4566
462.545	4761
462.582	4816
462.625	4420
462.650	4294
462.705	4135
462.718	4192
462.785	4614
462.786	4622
462.854	4741
462.865	4786
462.922	5726
462.945	6189
462.990	5537
463.025	4796
463.058	4683
463.104	4436
463.126	4315
463.184	4313
463.194	4374
463.262	4401
463.264	4404
463.330	4212
463.344	4163
463.398	5025
463.424	5421
463.466	4747
463.504	4314
463.533	4617
463.583	4712
463.601	4749
463.663	5138
463.669	5154
463.737	5276
463.743	5271
463.805	7081
463.823	7630
463.873	9987
463.903	11378
463.940	11679
463.982	12182
464.008	10305
464.062	5894
464.076	5804
464.142	5531
464.144	5519
464.211	4608
464.221	4507
464.279	5046
464.301	5162
464.347	5241
464.381	5433
464.414	5296
464.461	5061
464.482	5343
464.540	5973
464.550	5947
464.617	5621
464.620	5603
464.685	5938
464.699	5998
464.753	6277
464.779	6449
464.820	6514
464.859	6437
464.888	6420
464.938	6480
464.956	6765
465.018	7564
465.023	7505
465.091	6752
465.098	6654
465.158	6246
465.177	6101
465.226	6258
465.257	6341
465.293	6287
465.336	6209
465.361	6541
465.416	7206
465.428	7457
465.495	8741
465.496	8774
465.563	11166
465.575	11596
465.631	13788
465.654	14705
465.698	10604
465.734	7062
465.765	6336
465.813	5175
465.833	5555
465.893	6770
465.900	6719
465.968	6179
465.972	6128
466.035	6936
466.052	7113
466.102	6635
466.131	6402
466.170	6371
466.210	6249
466.237	6256
466.290	6235
466.304	6218
466.369	6016
466.372	6056
466.439	6899
466.449	6996
466.506	6558
466.528	6378
466.573	8144
466.607	9431
466.641	12377
466.687	16474
466.708	17493
466.766	20113
466.775	18785
466.842	8575
466.845	8068
466.909	7120
466.925	6901
466.977	7855
467.004	8325
467.044	8079
467.083	7791
467.111	8336
467.163	9325
467.178	9576
467.242	10518
467.245	10492
467.312	9499
467.321	9349
467.379	9860
467.400	10014
467.446	10257
467.480	10396
467.559	10488
467.638	9719
467.717	10052
467.796	12113
467.875	11799
467.955	12251
468.034	16279
468.113	27579
468.192	35867
468.271	27297
468.350	35607
468.429	48861
468.508	51827
468.588	31947
468.667	19570
468.746	15847
468.825	12989
468.904	11698
468.983	11311
469.062	13074
469.141	13174
469.220	9401
469.299	9150
469.378	8858
469.456	12255
469.535	10525
469.614	9347
469.693	10813
469.772	12397
469.851	14734
469.930	12797
470.009	14572
470.088	16827
470.166	26000
470.245	49041
470.324	64886
470.403	41490
470.482	21502
470.560	14007
470.639	13208
470.718	11705
470.797	10411
470.875	9795
470.954	10984
471.033	11513
471.111	8314
471.190	7769
471.269	8013
471.347	8086
471.426	7802
471.505	8797
471.583	9379
471.662	8319
471.740	8925
471.819	8494
471.898	9047
471.976	9030
472.055	7947
472.133	8599
472.212	9767
472.290	9008
472.369	8208
472.447	7704
472.526	7512
472.604	8148
472.683	8729
472.761	8231
472.839	7543
472.918	7998
472.996	7838
473.075	9841
473.153	9155
473.231	8697
473.310	9599
473.388	9082
473.466	9868
473.545	9210
473.623	9768
473.701	9986
473.780	9515
473.858	7445
473.936	10529
474.014	8724
474.093	9967
474.171	11046
474.249	12600
474.327	9915
474.405	8723
474.484	8674
474.562	8691
474.640	7366
474.718	7701
474.796	7839
474.874	8057
474.952	7404
475.030	7468
475.108	7612
475.187	7537
475.265	7184
475.343	8820
475.421	9869
475.499	7721
475.577	8588
475.655	9161
475.733	13102
475.811	18646
475.889	16980
475.966	12500
476.044	7373
476.122	7813
476.200	8983
476.278	7510
476.356	7984
476.434	7067
476.512	8571
476.590	9055
476.667	8236
476.745	7091
476.823	8084
476.901	7989
476.979	7925
477.056	7512
477.134	6807
477.212	7449
477.290	7605
477.367	7110
477.445	7898
477.523	7066
477.601	6906
477.678	7310
477.756	7348
477.834	8191
477.911	6816
477.989	7073
478.066	7000
478.144	7414
478.222	7426
478.299	8323
478.377	8262
478.454	7234
478.532	7126
478.609	6773
478.687	7383
478.764	7058
478.842	7707
478.919	6466
478.997	6646
479.074	7087
479.152	7078
479.229	8243
479.307	7257
479.384	7016
479.461	6273
479.539	7731
479.616	7633
479.694	8053
479.771	7130
479.848	7384
479.926	7528
480.003	10279
480.080	7223
480.157	7280
480.235	7512
480.312	8495
480.389	8268
480.467	9718
480.544	11339
480.621	10543
480.698	10335
480.775	10046
480.853	9775
480.930	7983
481.007	8855
481.084	8842
481.161	9029
481.238	9582
481.315	7314
481.392	8664
481.470	9108
481.547	8693
481.624	8152
481.701	8187
481.778	10290
481.855	10372
481.932	13726
482.009	15944
482.086	15331
482.163	15000
482.240	18307
482.317	18753
482.393	14346
482.470	14171
482.547	13881
482.624	12066
482.701	10988
482.778	11253
482.855	11285
482.932	11653
483.009	11997
483.085	15835
483.162	17161
483.239	20217
483.316	18423
483.393	19301
483.469	14916
483.546	13502
483.623	13112
483.699	10574
483.776	10582
483.853	11076
483.930	12028
484.006	18022
484.083	27493
484.160	17442
484.236	21713
484.313	18476
484.389	16816
484.466	19656
484.543	23284
484.619	28433
484.696	30479
484.772	22546
484.849	17131
484.925	16220
485.002	13789
485.078	13162
485.155	12904
485.231	13059
485.308	12414
485.384	12584
485.461	13307
485.537	17450
485.614	19627
485.690	11844
485.766	11128
485.843	11214
485.919	12670
485.995	12111
486.072	10741
486.148	10765
486.224	10111
486.301	11111
486.377	12688
486.453	12278
486.530	12963
486.606	14817
486.682	15796
486.758	18651
486.835	18193
486.911	17050
486.987	23787
487.063	22878
487.139	23601
487.215	24110
487.292	24812
487.368	28719
487.444	39399
487.520	55773
487.596	80295
487.672	184319
487.748	595658
487.824	927447
487.900	318879
487.976	80216
488.052	42320
488.128	30459
488.204	22449
488.280	19023
488.356	18723
488.432	24326
488.508	29309
488.584	15932
488.660	13183
488.736	12379
488.812	10944
488.888	13129
488.964	13539
489.039	18582
489.115	22834
489.191	17347
489.267	10967
489.343	10744
489.418	9742
489.494	10342
489.570	9133
489.646	11824
489.722	11382
489.797	10304
489.873	14554
489.949	23325
490.024	18889
490.100	10847
490.176	11481
490.251	11593
490.327	12654
490.403	9852
490.478	9851
490.554	9954
490.629	9055
490.705	8978
490.781	10812
490.856	9364
490.932	10000
491.007	10508
491.083	8932
491.158	9185
491.234	10590
491.309	17116
491.385	16437
491.460	8771
491.536	10661
491.611	8821
491.686	8928
491.762	9461
491.837	13321
491.913	17846
491.988	22696
492.063	24855
492.139	13167
492.214	11776
492.289	8200
492.365	7773
492.440	9129
492.515	7897
492.590	8523
492.666	8230
492.741	9041
492.816	12819
492.891	8793
492.967	9070
493.042	8527
493.117	9223
493.192	10224
493.267	15018
493.342	41524
493.418	52920
493.493	12023
493.568	8404
493.643	7814
493.718	8318
493.793	8694
493.868	10124
493.943	7974
494.018	8092
494.093	8602
494.168	8453
494.243	7451
494.318	8595
494.393	7841
494.468	7444
494.543	7572
494.618	7263
494.693	7865
494.768	8326
494.842	8219
494.917	7861
494.992	7276
495.067	7754
495.142	7682
495.217	8228
495.292	8705
495.366	8371
495.441	7821
495.516	10168
495.591	11135
495.665	20448
495.740	38947
495.815	18631
495.890	8790
495.964	6793
496.039	10333
496.114	8931
496.188	9554
496.263	10430
496.338	8914
496.412	8242
496.487	10225
496.561	9188
496.636	9731
496.710	8309
496.785	8102
496.860	9764
496.934	8370
497.009	8481
497.083	8412
497.158	8681
497.232	9597
497.307	11569
497.381	9934
497.455	11328
497.530	11997
497.604	10364
497.679	9913
497.753	12219
497.827	13626
497.902	12833
497.976	16138
498.050	37768
498.125	145288
498.199	134990
498.273	17052
498.348	12488
498.422	11779
498.496	13017
498.570	14074
498.645	10427
498.719	9313
498.793	11725
498.867	16351
498.941	19355
499.016	56210
499.090	146985
499.164	49403
499.238	11364
499.312	10996
499.386	11516
499.460	12583
499.534	12880
499.609	16030
499.683	17030
499.757	13878
499.831	24930
499.905	94753
499.979	81518
500.053	14800
500.127	13729
500.201	10413
500.275	10462
500.349	10899
500.422	12451
500.496	14605
500.570	22482
500.644	55284
500.718	94456
500.792	22177
500.866	8928
500.940	10600
501.013	10347
501.087	8356
501.161	11914
501.235	12781
501.309	30449
501.382	75445
501.456	62178
501.530	16738
501.603	24468
501.677	11231
501.751	7000
501.825	9478
501.898	13856
501.972	30391
502.046	20030
502.119	8604
502.193	15523
502.266	31540
502.340	16727
502.413	16174
502.487	27502
502.561	17129
502.634	9816
502.708	9187
502.781	6770
502.855	8599
502.928	6529
503.002	7498
503.075	7173
503.149	7168
503.222	8803
503.295	7786
503.369	10410
503.442	12055
503.516	27653
503.589	58940
503.662	42604
503.736	25203
503.809	44746
503.882	47369
503.956	73677
504.029	122394
504.102	309906
504.175	457005
504.249	184180
504.322	64422
504.395	32859
504.468	22044
504.542	16572
504.615	11247
504.688	11496
504.761	7508
504.834	10277
504.907	8712
504.980	8760
505.053	7535
505.127	5313
505.200	9581
505.273	7493
505.346	6607
505.419	5066
505.492	6936
505.565	5698
505.638	5617
505.711	4721
505.784	4815
505.857	4552
505.930	6765
506.003	3874
506.076	7229
506.149	5546
506.221	5807
506.294	8308
506.367	11551
506.440	38350
506.513	20377
506.586	7526
506.659	4803
506.731	4703
506.804	4836
506.877	4122
506.950	5389
507.022	6175
507.095	4382
507.168	6735
507.241	5004
507.313	3103
507.386	3768
507.459	5957
507.531	3485
507.604	3739
507.677	5094
507.749	3319
507.822	5852
507.894	6417
507.967	8844
508.040	5819
508.112	5786
508.185	5719
508.257	3688
508.330	7902
508.402	5297
508.475	5319
508.547	6001
508.620	6003
508.692	7213
508.765	6236
508.837	5170
508.909	4985
508.982	4910
509.054	4919
509.127	4457
509.199	4739
509.271	3712
509.344	4240
509.416	4822
509.488	5063
509.560	5660
509.633	4925
509.705	5618
509.777	5167
509.849	6504
509.922	4934
509.994	4801
510.066	6885
510.138	3476
510.210	10650
510.283	8137
510.355	6871
510.427	6946
510.499	5802
510.571	5997
510.643	5211
510.715	6907
510.787	5579
510.859	7388
510.931	6381
511.003	6824
511.076	7007
511.148	4307
511.219	5315
511.291	8272
511.363	9343
511.435	5464
511.507	5358
511.579	6775
511.651	6725
511.723	5453
511.795	5691
511.867	5427
511.939	6943
512.010	8773
512.082	9579
512.154	4573
512.226	5889
512.298	7722
512.369	8676
512.441	7706
512.513	7250
512.585	5588
512.656	7085
512.728	6437
512.800	5793
512.871	7062
512.943	6372
513.015	4662
513.086	6230
513.158	6787
513.230	5247
513.301	6010
513.373	7958
513.444	5657
513.516	5214
513.588	6287
513.659	7472
513.731	7377
513.802	5740
513.874	8942
513.945	10563
514.016	6360
514.088	6460
514.159	4709
514.231	7577
514.302	8108
514.374	7801
514.445	5264
514.516	12873
514.588	8898
514.659	7342
514.730	10308
514.802	8835
514.873	4935
514.944	8715
515.016	7277
515.087	7120
515.158	7584
515.229	11359
515.301	4552
515.372	8341
515.443	6795
515.514	7006
515.585	6271
515.656	8892
515.728	9507
515.799	7143
515.870	9527
515.941	10050
516.012	9652
516.083	14209
516.154	13890
516.225	18956
516.296	23992
516.367	28733
516.438	38218
516.509	49377
516.580	74743
516.651	283223
516.722	991924
516.793	358736
516.864	71597
516.935	66787
517.006	81743
517.077	105678
517.148	234875
517.219	1145175
517.289	1641012
517.360	272890
517.431	68088
517.502	36297
517.573	29794
517.643	27660
517.714	27883
517.785	32402
517.856	38798
517.926	51473
517.997	66323
518.068	89433
518.138	123161
518.209	196175
518.280	728320
518.350	2362133
518.421	926817
518.492	156691
518.562	91160
518.633	90021
518.703	113739
518.774	235642
518.845	599769
518.915	541835
518.986	161894
519.056	67109
519.127	45339
519.197	41372
519.268	54919
519.338	36928
519.408	17199
519.479	16558
519.549	13026
519.620	12785
519.690	10473
519.760	10422
519.831	8956
519.901	8074
519.971	8883
520.042	7891
520.112	7884
520.182	9018
520.253	8763
520.323	7820
520.393	7393
520.463	11840
520.534	6797
520.604	14726
520.674	9107
520.744	8236
520.814	12433
520.885	12707
520.955	15414
521.025	49857
521.095	18991
521.165	8494
521.235	5612
521.305	6256
521.375	6160
521.445	7477
521.515	5980
521.585	8151
521.655	5063
521.725	7411
521.795	7229
521.865	4170
521.935	9584
522.005	7053
522.075	5602
522.145	7563
522.215	5546
522.285	8561
522.355	9038
522.424	15662
522.494	11811
522.564	8212
522.634	9883
522.704	20798
522.774	8776
522.843	7429
522.913	6979
522.983	7869
523.053	5503
523.122	8083
523.192	6271
523.262	12949
523.331	11271
523.401	8147
523.471	6744
523.540	6474
523.610	5983
523.680	6359
523.749	6926
523.819	7755
523.888	6998
523.958	6802
524.027	7079
524.097	7778
524.166	6854
524.236	5881
524.305	8933
524.375	6548
524.444	6416
524.514	9205
524.583	6853
524.653	7390
524.722	9189
524.791	7312
524.861	9003
524.930	7304
524.999	7306
525.069	9355
525.138	9321
525.207	10235
525.277	10447
525.346	10924
525.415	12822
525.484	14490
525.554	16607
525.623	21824
525.692	26717
525.761	36812
525.830	47620
525.900	65232
525.969	101466
526.038	185156
526.107	405154
526.176	1168734
526.245	889415
526.314	261539
526.383	571954
526.452	754855
526.522	1119527
526.591	986846
526.660	170188
526.729	103059
526.797	108563
526.867	150057
526.935	446700
527.004	1660645
527.073	999456
527.142	134382
527.211	53352
527.280	33679
527.349	24195
527.418	17457
527.487	16389
527.555	12312
527.624	11259
527.693	9404
527.762	11554
527.831	9693
527.899	9303
527.968	9254
528.037	6905
528.106	8376
528.174	9558
528.243	9078
528.312	9410
528.380	10269
528.449	6100
528.518	8300
528.586	4318
528.655	7436
528.723	6492
528.792	6345
528.861	6034
528.929	4701
528.998	6969
529.066	6195
529.135	6707
529.203	5723
529.272	5735
529.340	7748
529.409	7678
529.477	6920
529.545	6605
529.614	10023
529.682	7031
529.751	7861
529.819	11543
529.887	8835
529.956	7221
530.024	8428
530.092	6692
530.161	8476
530.229	7947
530.297	7079
530.365	8273
530.434	8031
530.502	7025
530.570	7397
530.638	5615
530.707	7748
530.775	8729
530.843	7105
530.911	7238
530.979	8171
531.047	6716
531.115	8881
531.183	7924
531.252	8170
531.320	7049
531.388	6732
531.456	8325
531.524	6033
531.592	9268
531.660	10981
531.728	6860
531.796	7459
531.864	7760
531.932	8052
532.000	8205
532.067	7628
532.135	9269
532.203	9743
532.271	9501
532.339	13324
532.407	16085
532.475	13960
532.542	10482
532.610	10627
532.678	10758
532.746	20922
532.814	38247
532.881	15756
532.949	10898
533.017	10246
533.084	9217
533.152	8548
533.220	8596
533.287	8417
533.355	9362
533.423	8634
533.490	8645
533.558	9886
533.625	10226
533.693	10010
533.761	10094
533.828	10811
533.896	9821
533.963	13989
534.031	14645
534.098	17580
534.166	15867
534.233	15272
534.300	19033
534.368	18794
534.435	19011
534.503	20989
534.570	25264
534.637	30784
534.705	38373
534.772	46580
534.840	96097
534.907	499158
534.974	591017
535.041	69028
535.109	26415
535.176	16947
535.243	15573
535.310	14687
535.378	13320
535.445	14023
535.512	13547
535.579	13793
535.646	12693
535.714	14635
535.781	14588
535.848	15597
535.915	14900
535.982	14024
536.049	14873
536.116	15093
536.183	13209
536.250	12980
536.317	13028
536.384	14139
536.451	14522
536.518	13555
536.585	12408
536.652	14880
536.719	15144
536.786	12816
536.853	12558
536.920	15772
536.987	15655
537.053	13615
537.120	26473
537.187	23766
537.254	14396
537.321	12994
537.388	15278
537.454	13310
537.521	13401
537.588	12565
537.654	14010
537.721	14251
537.788	14814
537.855	13468
537.921	13727
537.988	12423
538.055	13616
538.121	12250
538.188	12812
538.254	13006
538.321	13683
538.388	14054
538.454	14888
538.521	15041
538.587	14314
538.654	14349
538.720	13440
538.787	13865
538.853	14131
538.920	14298
538.986	13382
539.053	12743
539.119	13029
539.185	12988
539.252	14998
539.318	14816
539.385	15987
539.451	13189
539.517	14273
539.583	14465
539.650	16676
539.716	21804
539.782	14726
539.849	12908
539.915	13857
539.981	13140
540.047	13033
540.114	13441
540.180	14148
540.246	14269
540.312	15027
540.378	17380
540.444	16882
540.510	17276
540.576	24326
540.643	15396
540.709	12870
540.775	13277
540.841	11954
540.907	14197
540.973	15866
541.039	14040
541.105	15198
541.171	14593
541.237	14302
541.303	15138
541.369	16550
541.435	15066
541.500	16282
541.566	12502
541.632	11913
541.698	13162
541.764	14477
541.830	13442
541.896	13078
541.961	14615
542.027	12849
542.093	14806
542.159	14895
542.224	13437
542.290	15469
542.356	15557
542.421	15724
542.487	14318
542.553	12712
542.618	12989
542.684	11891
542.750	13800
542.815	15124
542.881	14910
542.947	23421
543.012	19148
543.078	13080
543.143	13164
543.209	13752
543.274	12409
543.340	13109
543.405	16808
543.471	17836
543.536	14802
543.602	13713
543.667	12496
543.732	14944
543.798	13636
543.863	14764
543.928	13223
543.994	13276
544.059	13941
544.124	13938
544.190	14608
544.255	15612
544.320	15961
544.386	13742
544.451	16454
544.516	15771
544.581	15353
544.646	20665
544.712	23677
544.777	16444
544.842	16064
544.907	15872
544.972	15689
545.037	16234
545.102	16278
545.168	17075
545.233	18861
545.298	18627
545.363	17707
545.428	19851
545.493	21713
545.558	24426
545.623	19536
545.688	18422
545.753	20053
545.818	18695
545.883	21438
545.947	21719
546.012	22847
546.077	23004
546.142	24694
546.207	23848
546.272	27087
546.337	27112
546.401	28683
546.466	29079
546.531	29248
546.596	32859
546.661	32891
546.725	35654
546.790	37164
546.855	40859
546.919	44346
546.984	49398
547.049	53701
547.113	61196
547.178	67507
547.243	75690
547.307	89764
547.372	98071
547.436	99884
547.501	103393
547.565	111797
547.630	101796
547.695	99443
547.759	99979
547.823	101583
547.888	101179
547.952	104024
548.017	108255
548.081	110384
548.146	110141
548.210	114383
548.274	122679
548.339	119554
548.403	108921
548.468	102740
548.532	100541
548.596	103211
548.660	102286
548.725	112562
548.789	124351
548.853	119198
548.917	113892
548.982	111364
549.046	99613
549.110	90960
549.174	93639
549.238	107369
549.303	119901
549.367	121969
549.431	115663
549.495	109055
549.559	109950
549.623	128826
549.687	140286
549.751	135857
549.815	161541
549.879	164409
549.943	156012
550.007	165194
550.071	161861
550.135	146981
550.199	138397
550.263	136964
550.327	128955
550.391	133299
550.455	147178
550.519	156252
550.582	166342
550.646	190092
550.710	193868
550.774	190840
550.838	196049
550.901	200324
550.965	216958
551.029	231439
551.093	253006
551.156	293211
551.220	358054
551.284	394209
551.347	282932
551.411	229255
551.475	210609
551.538	208633
551.602	190928
551.666	179625
551.729	166681
551.793	160718
551.856	157563
551.920	154981
551.983	154430
552.047	154560
552.110	153821
552.174	154098
552.237	158820
552.301	146900
552.364	141387
552.428	137426
552.491	143107
552.554	146835
552.618	146144
552.681	153795
552.745	152428
552.808	191135
552.871	233039
552.934	179535
552.998	152206
553.061	143542
553.124	135287
553.187	134418
553.251	139421
553.314	139862
553.377	140841
553.440	153955
553.503	171349
553.567	185430
553.630	151519
553.693	146109
553.756	146162
553.819	142100
553.882	135566
553.945	137524
554.008	136209
554.071	138946
554.134	139040
554.197	130019
554.260	125311
554.323	129037
554.386	131342
554.449	138215
554.512	139687
554.575	131966
554.638	131078
554.701	128933
554.764	128922
554.827	123738
554.889	119512
554.952	109761
555.015	109617
555.078	111324
555.141	113971
555.203	110711
555.266	110380
555.329	110158
555.391	103282
555.454	103952
555.517	101053
555.580	99268
555.642	93550
555.705	93535
555.768	92400
555.830	89468
555.893	84577
555.955	82054
556.018	79922
556.080	82636
556.143	83969
556.206	83630
556.268	81032
556.330	79683
556.393	76230
556.455	76024
556.518	74355
556.580	72442
556.643	68191
556.705	67051
556.767	63852
556.830	66186
556.892	64518
556.955	64242
557.017	61551
557.079	61456
557.142	60307
557.204	60942
557.266	64283
557.328	58724
557.391	52801
557.453	52319
557.515	52826
557.577	55014
557.639	55349
557.701	58026
557.764	59965
557.826	63648
557.888	68557
557.950	74582
558.012	80834
558.074	111388
558.136	297315
558.198	705923
558.260	220032
558.322	82342
558.384	80260
558.446	87824
558.508	102114
558.570	118573
558.632	140278
558.694	181145
558.756	306690
558.818	914884
558.880	1817871
558.942	732659
559.003	767919
559.065	339208
559.127	129756
559.189	120611
559.251	133254
559.312	192797
559.374	489433
559.436	1431829
559.498	672068
559.559	159813
559.621	124683
559.683	139731
559.744	235838
559.806	790574
559.868	1060735
559.929	225793
559.991	138641
560.052	237133
560.114	692320
560.176	398278
560.237	398721
560.299	606633
560.360	117120
560.422	46811
560.483	35472
560.545	31634
560.606	27967
560.667	26641
560.729	24631
560.790	23783
560.852	22960
560.913	23380
560.974	21521
561.036	21743
561.097	21622
561.158	20439
561.220	21279
561.281	18171
561.342	18324
561.403	20152
561.465	19062
561.526	22463
561.587	23143
561.648	17455
561.709	17047
561.771	17498
561.832	15954
561.893	16496
561.954	16865
562.015	16683
562.076	16406
562.137	15102
562.198	15490
562.259	16073
562.320	16279
562.381	16273
562.442	16231
562.503	15404
562.564	13977
562.625	14753
562.686	14666
562.747	14141
562.808	15346
562.869	14135
562.930	14926
562.991	14333
563.051	13543
563.112	13669
563.173	13532
563.234	13571
563.294	12924
563.355	12707
563.416	12263
563.477	13551
563.537	12456
563.598	13413
563.659	12500
563.720	12709
563.780	12085
563.841	12237
563.901	12989
563.962	12754
564.023	12243
564.083	12246
564.144	12112
564.204	11635
564.265	12044
564.325	11589
564.386	14827
564.446	13527
564.507	10896
564.567	10750
564.628	11390
564.688	11563
564.749	11633
564.809	12119
564.869	11808
564.930	10716
564.990	10974
565.050	10267
565.111	10883
565.171	9743
565.231	10971
565.292	11719
565.352	10041
565.412	11073
565.472	11405
565.532	10874
565.593	9581
565.653	10999
565.713	10841
565.773	11433
565.833	11668
565.893	12727
565.953	10002
566.013	10109
566.074	10508
566.134	11455
566.194	12510
566.254	12091
566.314	11114
566.374	10025
566.434	9328
566.494	11135
566.554	9627
566.614	10408
566.673	10371
566.733	11250
566.793	10407
566.853	11647
566.913	10251
566.973	10986
567.033	11110
567.092	11496
567.152	11334
567.212	11408
567.272	11388
567.331	12549
567.391	11746
567.451	12425
567.511	12380
567.570	12805
567.630	11142
567.690	10907
567.749	10266
567.809	11737
567.868	11551
567.928	11038
567.988	11183
568.047	10691
568.107	10470
568.166	11536
568.226	11494
568.285	13437
568.345	13178
568.404	12997
568.464	11771
568.523	12384
568.582	12175
568.642	12223
568.701	11331
568.761	11183
568.820	12456
568.879	14211
568.939	12784
568.998	12493
569.057	12014
569.116	11551
569.176	11865
569.235	12062
569.294	11725
569.353	11614
569.413	10875
569.472	9805
569.531	10474
569.590	9435
569.649	9979
569.708	9955
569.767	11343
569.827	11124
569.886	10495
569.945	9792
570.004	9918
570.063	10082
570.122	10532
570.181	12226
570.240	11626
570.299	12233
570.358	10950
570.417	11157
570.475	11701
570.534	11858
570.593	11395
570.652	11305
570.711	11414
570.770	11238
570.829	10725
570.887	11394
570.946	11399
571.005	12161
571.064	13215
571.122	16529
571.181	12775
571.240	12533
571.299	11763
571.357	11385
571.416	10347
571.475	10912
571.533	11331
571.592	13441
571.650	12757
571.709	12433
571.768	15417
571.826	16412
571.885	13607
571.943	10862
572.002	10865
572.060	11435
572.119	10631
572.177	11818
572.236	10748
572.294	11314
572.352	12220
572.411	13378
572.469	11031
572.528	11286
572.586	9645
572.644	11108
572.703	11645
572.761	10493
572.819	9143
572.877	8558
572.936	9738
572.994	10016
573.052	9485
573.110	10633
573.169	11061
573.227	11249
573.285	10290
573.343	10246
573.401	10964
573.459	11449
573.517	10794
573.576	12135
573.634	12467
573.692	12142
573.750	12058
573.808	11752
573.866	10392
573.924	10339
573.982	10898
574.040	10442
574.098	10390
574.155	10439
574.213	11102
574.271	11001
574.329	12050
574.387	10799
574.445	9706
574.503	9160
574.560	8862
574.618	8553
574.676	8812
574.734	9139
574.792	8643
574.849	8473
574.907	7373
574.965	7688
575.022	7894
575.080	8233
575.138	6511
575.195	8375
575.253	7777
575.311	7228
575.368	8278
575.426	7485
575.483	7731
575.541	8479
575.598	7966
575.656	8901
575.713	9166
575.771	9556
575.828	9042
575.886	8297
575.943	8865
576.001	7367
576.058	7105
576.115	8657
576.173	9209
576.230	9053
576.287	8062
576.345	8652
576.402	7928
576.459	9775
576.517	8797
576.574	7605
576.631	8094
576.688	7500
576.746	6374
576.803	6989
576.860	5888
576.917	7732
576.974	8142
577.031	7974
577.089	6742
577.146	6531
577.203	5940
577.260	7633
577.317	6445
577.374	7454
577.431	6761
577.488	6300
577.545	6348
577.602	8041
577.659	7846
577.716	7447
577.773	7452
577.830	6827
577.886	7782
577.943	6181
578.000	6554
578.057	7807
578.114	6879
578.171	8610
578.227	11410
578.284	10106
578.341	8887
578.398	7755
578.454	8243
578.511	7687
578.568	6997
578.625	6610
578.681	7499
578.738	6797
578.794	6997
578.851	7764
578.908	7131
578.964	6703
579.021	7820
579.077	6863
579.134	6898
579.190	7571
579.247	7396
579.303	7023
579.360	6053
579.416	6306
579.473	7106
579.529	7049
579.586	7538
579.642	7685
579.698	7358
579.755	8884
579.811	7693
579.867	8783
579.924	7339
579.980	7730
580.036	9214
580.093	11179
580.149	15073
580.205	15734
580.261	12473
580.317	10610
580.374	9756
580.430	10217
580.486	9418
580.542	8291
580.598	8297
580.619	8342
580.654	8431
580.692	8074
580.710	7901
580.765	7542
580.767	7538
580.823	8942
580.838	8773
580.879	8349
580.911	8226
580.935	8157
580.984	8543
580.991	8600
581.047	9655
581.057	9608
581.103	9469
581.130	9385
581.159	9291
581.203	10226
581.215	10470
581.270	9330
581.276	9273
581.326	8800
581.349	9106
581.382	9572
581.422	9083
581.438	8897
581.494	8119
581.494	8118
581.550	8341
581.567	8257
581.606	7954
581.640	7764
581.661	7723
581.713	8422
581.717	8472
581.773	8860
581.786	8720
581.829	8320
581.859	8270
581.885	8258
581.932	7981
581.940	7915
581.996	8495
582.004	8509
582.052	8616
582.077	8655
582.107	8712
582.150	7994
582.163	7781
582.219	8258
582.223	8240
582.274	8016
582.296	8194
582.330	8541
582.368	8907
582.386	9094
582.441	8798
582.441	8797
582.497	8129
582.514	8144
582.552	8566
582.587	8877
582.608	8991
582.659	9186
582.663	9184
582.719	8643
582.732	8860
582.774	9796
582.805	9496
582.830	9214
582.877	9710
582.885	9794
582.941	9537
582.950	9730
582.996	10876
583.023	10908
583.052	10974
583.095	11436
583.107	11544
583.162	13499
583.168	13616
583.218	14208
583.240	13067
583.273	11340
583.313	11268
583.328	11344
583.384	10027
583.385	10029
583.439	9750
583.458	9518
583.494	9272
583.531	8929
583.549	8883
583.603	9247
583.605	9241
583.660	9377
583.676	9161
583.715	8819
583.748	9286
583.770	9639
583.820	9212
583.825	9160
583.881	9634
583.893	9514
583.936	9165
583.965	9084
583.991	8890
584.038	8958
584.046	9038
584.101	10062
584.110	10060
584.156	9703
584.183	9776
584.211	9911
584.255	9903
584.266	9975
584.321	10388
584.328	10461
584.376	10785
584.400	10687
584.431	10572
584.472	10742
584.486	10826
584.541	11384
584.545	11399
584.596	11486
584.617	11484
584.651	11733
584.689	12278
584.706	12381
584.761	12510
584.762	12508
584.816	13052
584.834	13496
584.871	13838
584.906	14184
584.926	14592
584.978	15654
584.980	15684
585.035	17471
585.051	17966
585.090	19388
585.123	21207
585.145	22358
585.195	24785
585.200	25050
585.254	28819
585.267	30309
585.309	34928
585.340	38281
585.364	40884
585.412	46141
585.419	46961
585.473	55930
585.484	59498
585.528	75162
585.556	94120
585.583	118555
585.628	197466
585.637	217279
585.692	457949
585.700	497684
585.747	672368
585.772	512122
585.801	300122
585.845	119780
585.856	84765
585.910	46979
585.917	44544
585.965	33092
585.989	29965
586.019	26562
586.061	23553
586.074	22652
586.128	20737
586.133	20605
586.183	19712
586.205	19595
586.237	19408
586.277	19148
586.292	19002
586.346	18358
586.349	18367
586.401	18834
586.421	18753
586.455	18551
586.493	18879
586.509	19071
586.564	19107
586.565	19152
586.618	21909
586.637	22384
586.672	23321
586.709	25456
586.727	26208
586.781	27278
586.781	27265
586.835	22135
586.853	21038
586.889	19606
586.925	18717
586.944	18223
586.996	18624
586.998	18650
587.052	18873
587.068	18734
587.106	18459
587.140	18684
587.161	18957
587.212	18949
587.215	18953
587.269	19128
587.284	19203
587.323	19625
587.356	19974
587.377	20164
587.427	20305
587.431	20347
587.485	21001
587.499	21113
587.539	21311
587.571	21422
587.593	21862
587.643	23515
587.648	23668
587.702	24302
587.715	24429
587.755	24456
587.786	24369
587.810	24460
587.858	24583
587.864	24649
587.917	25489
587.930	25720
587.971	26144
588.001	25878
588.025	25908
588.073	26256
588.079	26377
588.133	27004
588.145	27265
588.187	28121
588.217	28890
588.241	29795
588.288	30913
588.295	31172
588.348	33802
588.360	34284
588.402	36332
588.431	37720
588.456	38763
588.503	41417
588.510	42057
588.564	47413
588.575	48540
588.617	53333
588.646	56550
588.671	60006
588.718	67257
588.725	69845
588.778	94119
588.789	100458
588.832	162221
588.861	211749
588.886	295406
588.932	486527
588.939	500172
588.993	572512
589.004	559963
589.047	325518
589.075	193001
589.100	143027
589.147	79979
589.154	77742
589.207	64972
589.218	62556
589.261	61603
589.290	62021
589.314	64710
589.361	71000
589.368	74588
589.421	107488
589.433	116306
589.475	208126
589.504	283032
589.528	355657
589.576	505196
589.582	491898
589.635	264183
589.647	219789
589.689	118391
589.718	62813
589.742	55409
589.790	42530
589.795	42093
589.849	38313
589.861	37565
589.902	35416
589.932	33697
589.955	33282
590.004	32359
590.009	32290
590.062	31043
590.075	30693
590.115	29956
590.146	29498
590.168	29689
590.218	29964
590.222	30026
590.275	30173
590.289	30153
590.328	30894
590.360	31471
590.381	31606
590.431	31501
590.435	31506
590.488	31015
590.503	30741
590.541	31433
590.574	32096
590.594	32079
590.645	31952
590.647	32070
590.700	33651
590.716	34114
590.753	34537
590.787	34818
590.806	35151
590.859	35998
590.859	36079
590.912	37117
590.930	37447
590.965	37433
591.001	37344
591.018	37208
591.071	36315
591.072	36245
591.124	36331
591.143	36268
591.177	36696
591.214	37218
591.230	37216
591.283	36766
591.285	36687
591.336	36930
591.356	36968
591.389	36839
591.427	36456
591.442	36491
591.495	36403
591.498	36336
591.547	36319
591.569	36243
591.600	36876
591.640	37579
591.653	37929
591.706	39042
591.711	39103
591.759	40770
591.782	41495
591.811	42100
591.853	42760
591.864	42778
591.917	42438
591.924	42309
591.969	42545
591.995	42560
592.022	42840
592.066	43165
592.075	43534
592.127	45294
592.137	45537
592.180	45484
592.208	45288
592.233	45875
592.279	46811
592.285	47158
592.338	49334
592.350	49746
592.390	48843
592.421	47980
592.443	48530
592.491	49520
592.495	49688
592.548	50793
592.562	51010
592.600	50509
592.633	49898
592.653	50119
592.704	50180
592.705	50484
592.775	51320
592.846	53449
592.916	54152
592.987	53905
593.058	54201
593.128	55423
593.199	56231
593.270	57697
593.341	58769
593.411	60101
593.482	64102
593.553	65413
593.623	64426
593.694	66153
593.764	66512
593.835	65678
593.906	66490
593.976	66671
594.047	68546
594.117	72301
594.188	71907
594.258	72332
594.329	73451
594.399	74793
594.470	77261
594.540	77539
594.611	79271
594.681	79093
594.751	77759
594.822	83756
594.892	84583
594.963	87222
595.033	89262
595.103	91344
595.174	93180
595.244	94673
595.314	97814
595.384	99880
595.455	101648
595.525	106407
595.595	110099
595.665	109671
595.736	106763
595.806	109706
595.876	111119
595.946	111094
596.016	116050
596.087	119918
596.157	118635
596.227	121622
596.297	127797
596.367	136895
596.437	143579
596.507	143031
596.577	143641
596.647	148809
596.717	156339
596.787	158017
596.857	158291
596.927	158864
596.997	158218
597.067	162053
597.137	162402
597.207	165857
597.277	165125
597.347	159383
597.417	154587
597.487	156391
597.557	158965
597.626	161593
597.696	166918
597.766	164014
597.836	154232
597.906	147696
597.975	145862
598.045	146588
598.115	154551
598.185	167140
598.254	185911
598.324	201690
598.394	205353
598.464	198097
598.533	193818
598.603	181458
598.672	176097
598.742	180211
598.812	181829
598.881	186627
598.951	184669
599.020	188988
599.090	194873
599.159	198252
599.229	192120
599.299	186159
599.368	193236
599.437	189204
599.507	173745
599.576	169646
599.646	168098
599.715	165624
599.785	164134
599.854	160037
599.924	158072
599.993	157874
600.062	162215
600.132	166779
600.201	179161
600.270	206087
600.340	216058
600.409	212660
600.478	210839
600.547	216853
600.617	195957
600.686	157477
600.755	144787
600.824	137770
600.894	136961
600.963	136892
601.032	136825
601.101	131924
601.170	127241
601.239	125113
601.308	125215
601.378	126529
601.447	127569
601.516	126628
601.585	130369
601.654	132497
601.723	133974
601.792	138804
601.861	141728
601.930	147373
601.999	149823
602.068	149217
602.137	150634
602.206	154174
602.275	158349
602.343	156991
602.412	158301
602.481	162155
602.550	162190
602.619	167033
602.688	167358
602.756	170914
602.825	170148
602.894	177602
602.963	179037
603.032	179779
603.100	181447
603.169	179218
603.238	184031
603.307	182685
603.375	185778
603.444	190473
603.513	188152
603.581	191269
603.650	196214
603.719	185111
603.787	187229
603.856	192477
603.924	196644
603.993	203566
604.061	210416
604.130	220438
604.198	222400
604.267	228096
604.335	232680
604.404	235920
604.472	238626
604.541	242119
604.609	245462
604.678	246267
604.746	249461
604.815	260788
604.883	257367
604.951	254602
605.020	261858
605.088	262349
605.156	264756
605.225	269021
605.293	268635
605.361	267055
605.429	269888
605.498	277051
605.566	281106
605.634	296680
605.702	306329
605.771	317424
605.839	316013
605.907	306038
605.975	300999
606.043	292869
606.111	292633
606.180	296785
606.248	288385
606.316	286474
606.384	292541
606.452	281751
606.520	281563
606.588	292662
606.656	294463
606.724	287849
606.792	272153
606.860	243779
606.928	221864
606.996	214170
607.064	209360
607.132	217620
607.200	229505
607.267	239122
607.335	243780
607.403	248291
607.471	238864
607.539	231458
607.607	231474
607.674	203154
607.742	200763
607.810	199305
607.878	199311
607.946	204830
608.013	216464
608.081	218085
608.149	221007
608.216	230772
608.284	237044
608.352	236550
608.419	233104
608.487	229339
608.555	224336
608.622	233758
608.690	247818
608.757	273944
608.825	277211
608.893	270448
608.960	251719
609.028	241686
609.095	243856
609.163	243426
609.230	214452
609.298	196889
609.365	208936
609.432	228821
609.500	249164
609.567	289094
609.635	330152
609.702	344932
609.769	322144
609.837	245631
609.904	212865
609.971	212267
610.039	222325
610.106	248802
610.173	344156
610.241	558962
610.308	366180
610.375	242372
610.442	224260
610.509	217457
610.577	220095
610.644	224523
610.711	232767
610.778	240397
610.845	251187
610.912	266521
610.980	278582
611.047	276510
611.114	269560
611.181	263156
611.248	262457
611.315	279103
611.382	289024
611.449	295221
611.516	298753
611.583	294221
611.650	297152
611.717	301411
611.784	301251
611.851	308218
611.918	314937
611.984	340307
612.051	391304
612.118	538375
612.185	884135
612.252	616976
612.319	373333
612.386	365896
612.452	344068
612.519	332813
612.586	329976
612.653	339416
612.719	353882
612.786	337607
612.853	315259
612.919	311682
612.986	315625
613.053	296001
613.120	278218
613.186	270148
613.253	273029
613.319	271846
613.386	273341
613.453	278888
613.519	280127
613.586	273374
613.652	276449
613.719	273144
613.785	280971
613.852	282739
613.918	278617
613.985	283988
614.051	295435
614.118	293154
614.184	279530
614.250	282483
614.317	287618
614.383	282514
614.449	288333
614.516	287018
614.582	290451
614.648	286247
614.715	282663
614.781	277846
614.847	279078
614.914	277079
614.980	267206
615.046	270707
615.112	279294
615.179	279215
615.245	283536
615.311	279352
615.377	282318
615.443	286577
615.509	285465
615.575	292871
615.642	289625
615.708	296888
615.774	304955
615.840	313182
615.906	316269
615.972	339364
616.038	399566
616.104	587536
616.170	960870
616.236	774171
616.302	413294
616.368	368552
616.434	322111
616.500	315837
616.565	323046
616.631	353059
616.697	330958
616.763	335942
616.829	393958
616.895	521671
616.961	482592
617.026	326261
617.092	296815
617.158	293793
617.224	291359
617.289	273973
617.355	265588
617.421	263435
617.487	264077
617.552	252541
617.618	251929
617.684	254639
617.749	256333
617.815	245196
617.880	243699
617.946	241151
618.012	246719
618.077	249802
618.143	238404
618.208	244356
618.274	260982
618.339	256229
618.405	213771
618.470	215229
618.536	214005
618.601	211017
618.667	194853
618.732	188230
618.798	187268
618.863	188298
618.928	185725
618.994	188623
619.059	187045
619.124	187822
619.190	185297
619.255	184173
619.320	184847
619.386	184920
619.451	182646
619.516	177395
619.581	181910
619.647	188447
619.712	187627
619.777	180715
619.842	182490
619.907	185983
619.972	188963
620.038	186608
620.103	183043
620.168	183159
620.233	189418
620.298	187741
620.363	191510
620.428	197611
620.493	203756
620.558	203697
620.623	206643
620.688	206018
620.753	203418
620.818	207031
620.883	205626
620.948	204704
621.013	199777
621.078	198731
621.143	197465
621.207	200047
621.272	193242
621.337	190106
621.402	189005
621.467	188050
621.532	186721
621.596	187168
621.661	183673
621.726	182124
621.791	186056
621.855	183967
621.920	182104
621.985	186051
622.049	188477
622.114	189598
622.179	191778
622.243	196572
622.308	202125
622.373	207366
622.437	201109
622.502	192769
622.566	192358
622.631	188816
622.695	195176
622.760	191535
622.824	193729
622.889	193060
622.953	194770
623.018	204561
623.082	205146
623.147	205121
623.211	198711
623.276	200358
623.340	192651
623.404	187309
623.469	188215
623.533	190626
623.597	185870
623.662	182759
623.726	169366
623.790	161568
623.854	157668
623.919	159784
623.983	163463
624.047	165683
624.111	166132
624.176	167455
624.240	171146
624.304	175360
624.368	168018
624.432	170132
624.496	173027
624.560	182543
624.625	180985
624.689	180776
624.753	189857
624.817	179554
624.881	176720
624.945	159003
625.009	154758
625.073	157736
625.137	164201
625.201	169400
625.265	169794
625.329	162148
625.393	163412
625.456	164551
625.520	171369
625.584	173174
625.648	177508
625.712	181482
625.776	177750
625.839	169496
625.903	141812
625.967	134569
626.031	145570
626.095	169319
626.158	154883
626.222	123361
626.286	117155
626.349	111396
626.413	106075
626.477	105768
626.540	105685
626.604	103776
626.668	103973
626.731	101167
626.795	101269
626.858	100667
626.922	98930
626.986	100278
627.049	99130
627.113	102895
627.176	97885
627.240	97006
627.303	96281
627.366	95071
627.430	95603
627.493	93913
627.557	92077
627.620	96137
627.684	99743
627.747	99297
627.810	88997
627.874	81541
627.937	78730
628.000	82119
628.064	79772
628.127	71138
628.190	70428
628.253	69348
628.317	65016
628.380	63059
628.443	61194
628.506	60565
628.569	58008
628.632	56052
628.696	56851
628.759	55812
628.822	53340
628.885	53196
628.948	52003
629.011	51278
629.074	49451
629.137	47746
629.200	45751
629.263	47240
629.326	45136
629.389	47172
629.452	45276
629.515	44094
629.578	43412
629.641	45718
629.704	44415
629.767	43139
629.830	43073
629.892	43277
629.955	40592
630.018	43768
630.081	41047
630.144	42412
630.207	39521
630.269	43865
630.332	40474
630.395	40620
630.458	38214
630.520	36879
630.583	38082
630.646	40593
630.708	39577
630.771	39649
630.834	43399
630.896	40356
630.959	39971
631.021	38052
631.084	38552
631.146	39257
631.209	40626
631.272	37974
631.334	39008
631.397	37867
631.459	38077
631.522	38724
631.584	38222
631.646	40432
631.709	40771
631.771	38647
631.834	38750
631.896	38111
631.958	36415
632.021	39357
632.083	35951
632.145	36811
632.208	36243
632.270	37631
632.332	35841
632.395	35221
632.457	37767
632.519	36172
632.581	38101
632.643	34560
632.706	36476
632.768	35631
632.830	37832
632.892	37778
632.954	36916
633.016	38293
633.078	37018
633.141	37623
633.203	36777
633.265	36636
633.327	36427
633.389	36303
633.451	36721
633.513	35676
633.575	36833
633.637	36044
633.698	36471
633.760	38286
633.822	40013
633.884	38865
633.946	39505
634.008	38515
634.070	37901
634.132	38180
634.193	38933
634.255	40846
634.317	40016
634.379	41131
634.441	38551
634.502	36495
634.564	36721
634.626	34176
634.687	34693
634.749	34496
634.811	33292
634.873	32885
634.934	32867
634.996	34829
635.057	33034
635.119	33943
635.181	34274
635.242	34352
635.304	32658
635.365	36620
635.427	33083
635.488	33621
635.550	32317
635.611	32957
635.673	30291
635.734	34446
635.796	34126
635.857	35695
635.918	33341
635.980	37333
636.041	36081
636.102	38245
636.164	36927
636.225	37572
636.286	32958
636.348	32949
636.409	30930
636.470	31316
636.531	32796
636.593	31064
636.654	32246
636.715	30796
636.776	31532
636.838	30801
636.899	31654
636.960	30356
637.021	30851
637.082	29443
637.143	29578
637.204	28820
637.265	27930
637.326	29733
637.387	30585
637.448	28760
637.509	29313
637.570	29633
637.631	30280
637.692	27514
637.753	27067
637.814	29638
637.875	28764
637.936	28702
637.997	28691
638.058	27210
638.119	28949
638.179	27873
638.240	27727
638.301	27996
638.362	26305
638.423	26761
638.483	27955
638.544	25695
638.605	27230
638.666	25277
638.726	27364
638.787	27600
638.848	27105
638.908	26158
638.969	24643
639.030	24935
639.090	25533
639.151	24888
639.211	26185
639.272	26907
639.332	25534
639.393	25424
639.453	25000
639.514	25974
639.574	26328
639.635	22851
639.695	24805
639.756	23502
639.816	24308
639.877	23700
639.937	23878
639.997	24788
640.058	22162
640.118	21716
640.178	24445
640.239	24330
640.299	23990
640.359	23758
640.420	24398
640.480	25747
640.540	25389
640.600	25422
640.661	25437
640.721	23853
640.781	25510
640.841	23072
640.901	24891
640.961	23221
641.021	23258
641.082	23188
641.142	23236
641.202	23677
641.262	21571
641.322	23880
641.382	22763
641.442	22868
641.502	22734
641.562	22900
641.622	23363
641.682	23355
641.742	24063
641.802	23957
641.861	23148
641.921	22424
641.981	22399
642.041	21188
642.101	22153
642.161	19605
642.221	20929
642.280	21817
642.340	20865
642.400	21307
642.460	22610
642.519	22473
642.579	21498
642.639	22244
642.698	19283
642.758	23617
642.818	22199
642.877	21631
642.937	22238
642.997	23875
643.056	22630
643.116	21026
643.175	22460
643.235	22221
643.294	22799
643.354	22880
643.414	23032
643.473	26244
643.532	28548
643.592	33130
643.651	45329
643.711	67656
643.770	111578
643.830	243390
643.889	409832
643.948	114352
644.008	37337
644.067	28147
644.126	23846
644.186	23524
644.245	23308
644.304	20312
644.363	22440
644.423	19616
644.482	20046
644.541	22235
644.600	20586
644.659	25574
644.719	27052
644.778	34003
644.837	49989
644.896	89144
644.955	167604
645.014	60270
645.073	26037
645.132	22283
645.191	21213
645.250	21532
645.309	23382
645.368	22513
645.427	25845
645.486	35263
645.545	48872
645.604	23578
645.663	21045
645.722	20142
645.781	21803
645.840	22027
645.898	25053
645.957	31604
646.016	40354
646.075	63213
646.134	106756
646.192	257270
646.251	309326
646.310	63837
646.369	30220
646.427	26107
646.486	22838
646.545	20095
646.603	19058
646.662	19994
646.721	18760
646.779	17785
646.838	18316
646.896	21433
646.955	24255
647.014	33558
647.072	54618
647.131	119252
647.189	57010
647.248	19821
647.306	17514
647.365	17546
647.423	15021
647.481	17008
647.540	14452
647.598	15915
647.657	15419
647.715	16321
647.773	14504
647.832	15373
647.890	13244
647.948	13876
648.007	14278
648.065	11893
648.123	12867
648.181	14093
648.240	14347
648.298	12332
648.356	12812
648.414	13503
648.472	12957
648.531	12207
648.589	12357
648.647	12820
648.705	13385
648.763	11912
648.821	12363
648.879	12104
648.937	13204
648.995	15195
649.053	16520
649.111	23332
649.169	32608
649.227	50410
649.285	96520
649.343	232419
649.401	103880
649.459	22279
649.516	16321
649.574	12907
649.632	15656
649.690	15998
649.748	17978
649.806	22477
649.863	37881
649.921	87133
649.979	53397
650.037	14667
650.094	9636
650.152	11641
650.210	9001
650.268	11168
650.325	9695
650.383	9544
650.440	8224
650.498	9430
650.556	9211
650.613	7875
650.671	9631
650.728	9583
650.786	8725
650.843	10105
650.901	8484
650.958	8981
651.016	7644
651.073	7627
651.131	7204
651.188	6937
651.246	7939
651.303	7646
651.360	7054
651.418	7770
651.475	7319
651.532	6890
651.590	7955
651.647	7085
651.704	7237
651.762	7703
651.819	6746
651.876	6573
651.933	7558
651.990	8132
652.048	5783
652.105	6342
652.162	7406
652.219	6208
652.276	7212
652.333	6839
652.390	5812
652.448	7133
652.505	6649
652.562	6646
652.619	6346
652.676	6905
652.733	8060
652.790	6182
652.847	5188
652.904	6648
652.961	5006
653.017	5458
653.074	6024
653.131	6152
653.188	4882
653.245	5908
653.302	6339
653.359	6014
653.415	5731
653.472	5771
653.529	6099
653.586	5029
653.642	5289
653.699	6043
653.756	5507
653.813	5314
653.869	6474
653.926	6262
653.983	5177
654.039	5746
654.096	5850
654.152	6450
654.209	4215
654.266	5722
654.322	4891
654.379	6036
654.435	5861
654.492	5348
654.548	5942
654.605	4786
654.661	5964
654.717	5258
654.774	6354
654.830	5473
654.887	4627
654.943	4922
655.000	4865
655.056	5633
655.112	5304
655.168	4777
655.225	4788
655.281	5022
655.337	5321
655.394	5479
655.450	5010
655.506	5486
655.562	5082
655.618	5515
655.675	4626
655.731	5351
655.787	4115
655.843	5733
655.899	4171
655.955	6060
656.011	5677
656.067	4064
656.123	5324
656.179	4734
656.235	6266
656.291	3348
656.347	6625
656.403	4476
656.459	4990
656.515	4532
656.571	4849
656.627	5311
656.683	5113
656.739	6077
656.795	5382
656.850	4491
656.906	5423
656.962	5875
657.018	4439
657.074	6885
657.129	7743
657.185	10977
657.241	22017
657.297	11875
657.352	6197
657.408	4583
657.464	6195
657.519	4082
657.575	4226
657.630	4046
657.686	3937
657.742	4513
657.797	3976
657.853	4259
657.908	5378
657.964	4252
658.019	4738
658.075	4602
658.130	5265
658.186	3329
658.241	5097
658.297	3538
658.352	4147
658.407	5206
658.463	3429
658.518	5158
658.573	4859
658.629	4080
658.684	3991
658.739	5643
658.795	4964
658.850	4413
658.905	3848
658.960	4111
659.016	3523
659.071	4232
659.126	4194
659.181	3330
659.236	4608
659.291	5494
659.346	3870
659.401	4677
659.457	4138
659.512	4053
659.567	5415
659.622	3457
659.677	3754
659.732	2377
659.787	4058
659.842	3763
659.897	4052
659.952	4532
660.007	4449
660.061	4238
660.116	3726
660.171	3309
660.226	4005
660.281	5316
660.336	3404
660.391	5139
660.445	3461
660.500	4622
660.555	3561
660.610	3573
660.664	4089
660.719	3553
660.774	4231
660.828	3739
660.883	3920
660.938	4380
660.992	2332
661.047	4287
661.101	4110
661.156	2794
661.211	2663
661.265	4088
661.320	3471
661.374	3568
661.429	3370
661.483	4512
661.538	1964
661.592	3534
661.647	3340
661.701	3988
661.755	4149
661.810	4140
661.864	3432
661.919	2624
661.973	2747
662.027	3574
662.081	3154
662.136	3649
662.190	3770
662.244	4193
662.299	3365
662.353	4160
662.407	3367
662.461	3492
662.515	3236
662.569	3521
662.624	4519
662.678	3539
662.732	3659
662.786	3206
662.840	2497
662.894	3210
662.948	3120
663.002	3878
663.056	3399
663.110	2859
663.164	3384
663.218	3436
663.272	3677
663.326	3634
663.380	3219
663.434	3583
663.488	2753
663.542	4166
663.595	2791
663.649	3315
663.703	4321
663.757	3426
663.811	2884
663.864	3433
663.918	3293
663.972	3059
664.026	3633
664.079	3301
664.133	3931
664.187	3253
664.240	2912
664.294	4007
664.348	3365
664.401	3295
664.455	3629
664.508	2924
664.562	3018
664.615	3672
664.669	2334
664.722	3173
664.776	2751
664.829	3310
664.883	3756
664.936	3073
664.990	2752
665.043	3762
665.097	3546
665.150	4729
665.203	3457
665.257	3500
665.310	2781
665.363	3052
665.417	3042
665.470	3988
665.523	3185
665.576	3067
665.630	3835
665.683	3133
665.736	2944
665.789	3169
665.842	2111
665.895	2891
665.949	3662
666.002	3460
666.055	3320
666.108	4532
666.161	2405
666.214	3540
666.267	3110
666.320	3887
666.373	3796
666.426	2880
666.479	1861
666.532	3275
666.585	2799
666.638	3981
666.691	3646
666.744	3375
666.796	3164
666.849	3216
666.902	3478
666.955	3244
667.008	3561
667.060	3751
667.113	3474
667.166	3031
667.219	3478
667.271	3972
667.324	3710
667.377	3356
667.430	3383
667.482	3968
667.535	3225
667.587	3538
667.640	3595
667.693	2895
667.745	4480
667.798	3932
667.850	3096
667.903	3394
667.955	3772
668.008	4178
668.060	2846
668.113	3594
668.165	3642
668.218	3445
668.270	3139
668.322	3698
668.375	2664
668.427	4066
668.479	3328
668.532	4222
668.584	3076
668.636	3178
668.689	3182
668.741	2789
668.793	3338
668.845	3528
668.898	3099
668.950	3153
669.002	3776
669.054	3116
669.106	2309
669.158	2464
669.211	3011
669.263	3450
669.315	2657
669.367	3361
669.419	2144
669.471	3974
669.523	3290
669.575	4637
669.627	2751
669.679	3412
669.731	3659
669.783	3294
669.835	2455
669.886	2855
669.938	3647
669.990	3084
670.042	2407
670.094	4039
670.146	2673
670.197	2983
670.249	4137
670.301	3748
670.353	5550
670.404	5391
670.456	7394
670.508	10958
670.560	17891
670.611	29071
670.663	51458
670.715	132467
670.766	176626
670.818	41196
670.869	9085
670.921	6471
670.972	5434
671.024	4192
671.075	3594
671.127	4009
671.178	3019
671.230	4386
671.281	3188
671.333	3496
671.384	4525
671.436	5709
671.487	6876
671.538	9088
671.590	13531
671.641	21686
671.692	38839
671.744	72889
671.795	51571
671.846	17556
671.897	8670
671.949	6266
672.000	4883
672.051	4233
672.102	3765
672.153	3005
672.204	2722
672.256	3845
672.307	2682
672.358	2834
672.409	2138
672.460	2965
672.511	2206
672.562	1643
672.613	2215
672.664	1901
672.715	2775
672.766	1718
672.817	2426
672.868	2338
672.919	2594
672.970	2009
673.021	2380
673.071	1501
673.122	1756
673.173	2839
673.224	1992
673.275	2246
673.326	2150
673.376	2702
673.427	2274
673.478	2200
673.528	2756
673.579	1639
673.630	2683
673.680	3047
673.731	1845
673.782	2413
673.832	2379
673.883	2689
673.934	2102
673.984	2383
674.035	2533
674.085	2421
674.136	2507
674.186	2191
674.237	1486
674.287	2263
674.338	2148
674.388	2804
674.438	2128
674.489	2548
674.539	1613
674.589	1994
674.640	2681
674.690	2597
674.740	1510
674.791	2055
674.841	2443
674.891	2190
674.942	2163
674.992	1794
675.042	1780
675.092	1526
675.142	813
675.193	1447
675.243	1107
675.293	2570
675.343	2138
675.393	2324
675.443	2198
675.493	2494
675.543	1214
675.593	2018
675.643	1750
675.693	1800
675.743	1642
675.793	1464
675.843	1673
675.893	1882
675.943	1495
675.993	1464
676.043	1253
676.093	1705
676.142	1405
676.192	1777
676.242	1180
676.292	1715
676.341	632
676.391	1371
676.441	756
676.491	2091
676.540	1715
676.590	2058
676.640	1823
676.689	1222
676.739	857
676.789	1052
676.838	787
676.888	1306
676.937	1652
676.987	2210
677.037	1192
677.086	1109
677.136	974
677.185	1186
677.235	624
677.284	1274
677.333	2184
677.383	734
677.432	674
677.482	937
677.531	1586
677.580	301
677.630	1029
677.679	1824
677.728	749
677.778	1617
677.827	1322
677.876	1359
677.925	614
677.975	1813
678.024	1315
678.073	1537
678.122	1207
678.171	1533
678.220	1079
678.269	1880
678.319	2836
678.368	1428
678.417	2225
678.466	780
678.515	823
678.564	537
678.613	615
678.662	295
678.711	681
678.760	796
678.809	745
678.857	1030
678.906	1019
678.955	1212
679.004	1166
679.053	963
679.102	965
679.151	1613
679.199	797
679.248	1558
679.297	1379
679.346	675
679.394	408
679.443	1481
679.492	1050
679.540	854
679.589	730
679.638	988
679.686	1180
679.735	1246
679.784	1599
679.832	1479
679.881	1007
679.929	1561
679.978	988
680.026	1007
680.075	909
680.123	620
680.172	974
680.220	541
680.268	1005
680.317	45
680.365	1425
680.414	214
680.462	837
680.510	1086
680.559	964
680.607	1096
680.655	904
680.703	1220
680.752	-347
680.800	992
680.848	882
680.896	307
680.945	406
680.993	8
681.041	446
681.089	1376
681.137	1403
681.185	270
681.233	394
681.258	531
681.281	640
681.329	860
681.377	191
681.380	226
681.425	461
681.473	1111
681.502	1278
681.521	1354
681.569	1003
681.617	998
681.624	1074
681.665	1386
681.713	805
681.745	1363
681.761	1600
681.809	1072
681.857	1204
681.867	1229
681.904	1201
681.952	1682
681.989	1684
682.000	1665
682.048	1295
682.096	1559
682.111	1728
682.143	1998
682.191	1614
682.233	1280
682.239	1212
682.286	1029
682.334	2062
682.354	1739
682.382	1242
682.430	2313
682.476	1885
682.477	1856
682.525	1847
682.572	1444
682.598	1477
682.620	1515
682.667	1951
682.715	2267
682.720	2233
682.763	1675
682.810	2288
682.841	2301
682.857	2270
682.905	2023
682.952	2476
682.963	2339
683.000	1818
683.047	1669
683.085	2548
683.095	2750
683.142	2360
683.190	2356
683.206	2469
683.237	2681
683.284	3339
683.328	2705
683.332	2625
683.379	2301
683.426	2372
683.449	2326
683.473	2343
683.521	2974
683.568	2751
683.571	2796
683.615	2961
683.662	2972
683.693	2612
683.709	2458
683.757	3059
683.804	2641
683.814	2658
683.851	2577
683.898	2906
683.936	3011
683.945	3026
683.992	2892
684.039	3129
684.057	3053
684.086	2879
684.133	3304
684.179	3004
684.180	2980
684.227	3646
684.274	3013
684.300	3139
684.321	3216
684.368	3302
684.415	3330
684.422	3312
684.462	3208
684.509	3315
684.543	3069
684.556	2928
684.603	3263
684.649	3088
684.665	3265
684.696	3699
684.743	4260
684.786	4062
684.790	4022
684.837	3796
684.883	4352
684.908	4398
684.930	4435
684.977	3932
685.023	4069
685.029	4117
685.070	4445
685.117	4312
685.150	4380
685.164	4357
685.210	4009
685.257	3895
685.272	4059
685.303	4455
685.350	3728
685.393	4165
685.396	4186
685.443	4383
685.490	4237
685.514	4240
685.536	4262
685.583	4342
685.629	4693
685.636	4677
685.675	4483
685.722	4327
685.757	4153
685.768	4109
685.815	4322
685.861	4934
685.878	4984
685.908	5023
685.954	4645
686.000	5949
686.000	5965
686.047	4673
686.093	5414
686.121	5430
686.139	5432
686.185	4835
686.232	5444
686.242	5396
686.278	5175
686.324	5476
686.363	4665
686.370	4516
686.416	4767
686.463	6059
686.484	5654
686.509	5227
686.555	5711
686.601	5217
686.606	5270
686.647	5714
686.693	5477
686.727	5658
686.739	5706
686.785	5808
686.831	5602
686.848	5659
686.877	5797
686.923	5773
686.969	6031
686.969	6031
687.015	5696
687.061	5519
687.090	5976
687.107	6258
687.153	6498
687.199	6096
687.211	6134
687.245	6111
687.291	5713
687.332	5951
687.336	5997
687.382	6405
687.428	6244
687.453	6631
687.474	6848
687.520	6788
687.565	6271
687.574	6251
687.611	6356
687.657	6407
687.695	6824
687.702	6859
687.748	7015
687.794	6505
687.816	6641
687.839	6906
687.885	6698
687.931	6449
687.937	6539
687.976	6941
688.022	6621
688.058	6775
688.067	6826
688.113	7099
688.158	6641
688.179	6786
688.204	6981
688.249	7199
688.295	7020
688.300	7072
688.340	7500
688.386	7999
688.421	7367
688.431	7199
688.477	7362
688.522	7721
688.542	7894
688.567	8128
688.613	7855
688.658	8016
688.663	8035
688.703	8129
688.749	7684
688.784	7779
688.794	7845
688.839	7945
688.884	8258
688.905	8130
688.930	7846
688.975	8236
689.020	7633
689.026	7578
689.065	7444
689.110	7803
689.146	7852
689.155	7869
689.201	7773
689.246	8240
689.267	8136
689.291	7974
689.336	7624
689.381	7555
689.388	7511
689.426	7585
689.471	7927
689.509	8193
689.516	8248
689.561	8543
689.606	8377
689.630	8560
689.651	8591
689.696	8010
689.741	8415
689.750	8268
689.785	8060
689.830	8698
689.871	8483
689.875	8418
689.920	8147
689.965	7712
689.992	7522
690.010	7717
690.054	7997
690.099	8316
690.112	8396
690.144	8462
690.189	8209
690.233	8858
690.233	8873
690.278	8809
690.323	8873
690.354	8689
690.367	8669
690.412	9128
690.457	8538
690.474	8698
690.501	9072
690.546	9092
690.590	9284
690.595	9311
690.635	9667
690.680	9579
690.716	9938
690.724	10175
690.769	10962
690.813	12880
690.836	13249
690.857	14714
690.902	17985
690.946	21706
690.957	22700
690.991	29704
691.035	39622
691.077	48270
691.080	48045
691.124	38419
691.168	30634
691.198	25587
691.213	23752
691.257	18966
691.301	14122
691.318	12258
691.346	11897
691.390	10587
691.434	10201
691.439	10074
691.478	9889
691.522	10165
691.559	10186
691.567	10211
691.611	9984
691.655	9932
691.680	9877
691.699	9903
691.743	10008
691.787	10175
691.800	10184
691.831	10127
691.875	10081
691.919	9753
691.921	9727
691.964	9780
692.008	10048
692.041	10057
692.052	10005
692.096	9803
692.139	9808
692.162	9668
692.183	9710
692.227	10100
692.271	9947
692.282	9972
692.315	10078
692.359	9868
692.402	10207
692.403	10229
692.447	9792
692.490	9782
692.523	9676
692.534	9703
692.578	9967
692.622	9696
692.643	9887
692.666	10196
692.709	10304
692.753	10438
692.763	10515
692.797	10734
692.840	10667
692.884	10918
692.884	10942
692.928	10957
692.971	10847
693.004	10674
693.015	10648
693.059	10548
693.102	10797
693.124	10700
693.146	10818
693.189	11189
693.233	11688
693.245	11677
693.276	11750
693.320	12443
693.363	12676
693.365	12657
693.407	13482
693.450	14596
693.485	15375
693.493	15860
693.537	18026
693.580	20548
693.605	21811
693.624	24846
693.667	32600
693.710	40463
693.725	43183
693.753	56467
693.797	78722
693.840	99161
693.845	101087
693.883	84653
693.926	66659
693.966	51215
693.970	50133
694.013	38130
694.056	26340
694.086	18053
694.099	17608
694.142	16125
694.185	14680
694.206	13929
694.229	13666
694.272	13474
694.315	12775
694.326	12545
694.358	12390
694.401	12638
694.444	12648
694.446	12621
694.487	12377
694.530	11978
694.566	11811
694.573	11895
694.616	11909
694.659	12028
694.686	12269
694.702	12326
694.745	12176
694.787	11885
694.806	11849
694.830	11939
694.873	11705
694.916	11816
694.926	11783
694.959	12093
695.002	12430
695.044	12863
695.046	12854
695.087	12946
695.130	12707
695.166	12599
695.172	12648
695.215	12570
695.258	12770
695.286	12747
695.301	12862
695.343	13171
695.386	13535
695.406	13617
695.428	13947
695.471	14772
695.514	15382
695.526	15538
695.556	15992
695.599	16634
695.641	17115
695.646	17144
695.684	16335
695.726	15177
695.766	14156
695.769	14200
695.811	14460
695.854	14460
695.886	14609
695.896	14722
695.938	14722
695.981	15077
696.005	15217
696.023	15711
696.065	16670
696.108	17736
696.125	18071
696.150	18107
696.192	18268
696.235	18274
696.245	18246
696.277	18431
696.319	18554
696.361	18853
696.365	18815
696.404	18292
696.446	17778
696.485	17282
696.488	17342
696.530	17445
696.572	17518
696.604	17692
696.614	17711
696.656	17528
696.698	17285
696.724	17098
696.740	17205
696.783	17347
696.825	17631
696.844	17667
696.867	17685
696.909	17571
696.951	17527
696.964	17480
696.992	17662
697.034	17751
697.076	17901
697.083	17883
697.118	18320
697.160	18683
697.202	19231
697.203	19193
697.244	19044
697.286	19013
697.323	18730
697.327	18772
697.369	18804
697.411	18885
697.442	18877
697.453	18916
697.494	18836
697.536	18739
697.562	18639
697.578	18698
697.620	18797
697.661	18777
697.682	18776
697.703	19045
697.744	19448
697.786	19889
697.801	19944
697.828	20108
697.869	20366
697.911	20645
697.921	20668
697.952	20549
697.994	20259
698.035	19952
698.040	19867
698.077	19971
698.118	20041
698.160	20103
698.160	20052
698.201	20503
698.243	20927
698.279	21215
698.284	21304
698.325	21662
698.367	21980
698.399	22188
698.408	22294
698.449	22505
698.491	22722
698.518	22801
698.532	22785
698.573	22570
698.614	22352
698.638	22157
698.656	22380
698.697	22787
698.738	23177
698.757	23308
698.779	23170
698.820	22793
698.862	22400
698.877	22196
698.903	22396
698.944	22625
698.985	22856
698.996	22861
699.026	22919
699.067	22921
699.116	22866
699.235	24003
699.354	22631
699.474	21736
699.593	21692
699.713	23130
699.832	21446
699.951	23134
700.070	21307
700.190	20915
700.309	20673
700.428	19148
700.547	20390
700.667	20162
700.786	19929
700.905	19594
701.024	19504
701.143	18833
701.262	19829
701.381	20735
701.500	20360
701.619	20244
701.738	20049
701.857	19943
701.976	18446
702.095	20062
702.214	20034
702.333	20047
702.452	19493
702.571	20684
702.690	21084
702.809	19613
702.928	18648
703.047	17983
703.165	18112
703.284	18937
703.403	18496
703.522	18772
703.640	17989
703.759	18526
703.878	16836
703.997	17015
704.115	17572
704.234	17773
704.353	17249
704.471	15883
704.590	16629
704.708	17049
704.827	15816
704.946	16723
705.064	15924
705.183	16898
705.301	16388
705.420	16166
705.538	16995
705.656	16057
705.775	15492
705.893	18323
706.012	16978
706.130	16468
706.249	16441
706.367	15370
706.485	15965
706.604	15254
706.722	14477
706.840	15837
706.958	15655
707.077	14131
707.195	15037
707.313	15676
707.431	13866
707.549	14472
707.668	12956
707.786	15594
707.904	14172
708.022	15394
708.140	13606
708.258	13589
708.376	14789
708.494	13920
708.612	15012
708.730	15268
708.848	14195
708.966	14350
709.084	14138
709.202	14081
709.320	13622
709.438	13516
709.556	13914
709.674	13850
709.791	12489
709.909	12611
710.027	12358
710.145	12517
710.263	13363
710.380	13280
710.498	13525
710.616	13238
710.733	11515
710.851	12971
710.969	12686
711.086	12698
711.204	12000
711.322	12221
711.439	11602
711.557	11256
711.674	11941
711.792	12200
711.909	11827
712.027	11808
712.144	11642
712.262	11250
712.379	11826
712.497	12115
712.614	12489
712.732	12052
712.849	11557
712.966	11286
713.084	12291
713.201	11085
713.318	12056
713.436	12436
713.553	11277
713.670	12155
713.787	12718
713.905	11205
714.022	12183
714.139	11332
714.256	14543
714.373	19148
714.490	32704
714.608	89883
714.725	339361
714.842	213197
714.959	22557
715.076	14087
715.193	12406
715.310	12666
715.427	10769
715.544	12203
715.661	10968
715.778	10880
715.895	10539
716.011	11549
716.128	10447
716.245	11807
716.362	10305
716.479	9798
716.596	10273
716.713	10206
716.829	10299
716.946	9695
717.063	9973
717.180	9506
717.296	9532
717.413	10421
717.530	9715
717.646	9026
717.763	9760
717.880	9245
717.996	9005
718.113	9299
718.229	8939
718.346	8971
718.462	8541
718.579	9715
718.695	9170
718.812	9474
718.928	8439
719.045	8357
719.161	8675
719.277	9349
719.394	9798
719.510	9732
719.626	10212
719.743	11063
719.859	15774
719.975	33874
720.092	129710
720.208	187548
720.324	21048
720.440	10040
720.557	9252
720.673	10457
720.789	9825
720.905	10466
721.021	8259
721.137	8578
721.253	8826
721.369	8665
721.486	8355
721.602	8273
721.718	7992
721.834	7626
721.950	7974
722.066	7917
722.181	7580
722.297	7619
722.413	8535
722.529	8038
722.645	7644
722.761	7256
722.877	6707
722.993	7564
723.108	8407
723.224	7753
723.340	7280
723.456	7300
723.571	7373
723.687	6451
723.803	7475
723.918	7572
724.034	6744
724.150	8073
724.265	7064
724.381	7773
724.497	6686
724.612	7735
724.728	6669
724.843	7345
724.959	7023
725.074	7210
725.190	7662
725.305	7809
725.421	6616
725.536	7296
725.651	7210
725.767	7274
725.882	6929
725.997	6837
726.113	6647
726.228	7353
726.343	5974
726.459	6359
726.574	6306
726.689	6726
726.804	6537
726.920	6911
727.035	6388
727.150	6911
727.265	6821
727.380	6961
727.495	7003
727.610	6279
727.725	6042
727.841	7428
727.956	7427
728.071	7004
728.186	6110
728.301	6050
728.416	7374
728.531	6623
728.645	6136
728.760	6816
728.875	5632
728.990	6718
729.105	5962
729.220	6416
729.335	6435
729.449	7147
729.564	6207
729.679	6234
729.794	6815
729.908	6643
730.023	6315
730.138	6572
730.253	7134
730.367	7343
730.482	5807
730.596	6240
730.711	6905
730.826	8921
730.940	7553
731.055	7797
731.169	7131
731.284	8036
731.398	7624
731.513	7560
731.627	8263
731.742	10742
731.856	10990
731.970	11141
732.085	11054
732.199	16083
732.313	26027
732.428	65518
732.542	167516
732.656	65739
732.771	17656
732.885	14594
732.999	14194
733.113	14728
733.227	15297
733.342	15198
733.456	14568
733.570	13930
733.684	12541
733.798	12841
733.912	13350
734.026	13267
734.140	14006
734.254	12098
734.368	12797
734.482	12322
734.596	12213
734.710	12869
734.824	11655
734.938	12872
735.052	11862
735.166	11952
735.280	11705
735.393	12164
735.507	11416
735.621	11382
735.735	11396
735.849	11468
735.962	11447
736.076	12775
736.190	11240
736.303	11547
736.417	10669
736.531	11004
736.644	11192
736.758	10966
736.872	10817
736.985	11552
737.099	10672
737.212	11264
737.326	11296
737.439	11963
737.553	10114
737.666	11013
737.780	8536
737.893	11528
738.007	10801
738.120	11157
738.233	9189
738.347	10514
738.460	9688
738.573	11053
738.687	9613
738.800	10024
738.913	10101
739.026	9986
739.140	9338
739.253	9499
739.366	9832
739.479	9928
739.592	8581
739.705	8779
739.818	10181
739.932	9511
740.045	9061
740.158	9571
740.271	10010
740.384	8970
740.497	8899
740.610	9929
740.723	8052
740.836	8673
740.949	9126
741.062	9820
741.174	9066
741.287	9856
741.400	8725
741.513	8619
741.626	8617
741.739	8460
741.851	8395
741.964	9000
742.077	8677
742.189	7755
742.302	8778
742.415	8276
742.527	8093
742.640	8570
742.753	7802
742.865	8575
742.978	7869
743.090	8097
743.203	8873
743.316	7260
743.428	7924
743.541	7374
743.653	6644
743.766	8146
743.878	7890
743.990	7331
744.103	7704
744.215	7407
744.327	6453
744.440	8735
744.552	8052
744.664	7422
744.777	7969
744.889	7471
745.001	7167
745.113	8470
745.226	7123
745.338	7102
745.450	8750
745.562	6915
745.674	7227
745.786	7871
745.898	7818
746.010	6833
746.122	7257
746.234	7596
746.347	7507
746.459	7559
746.570	5987
746.682	7991
746.794	7689
746.906	7497
747.018	6810
747.130	7681
747.242	6631
747.354	6555
747.466	7412
747.577	6409
747.689	7425
747.801	7711
747.913	6739
748.024	6720
748.136	6492
748.248	7215
748.359	6172
748.471	6708
748.583	5623
748.694	6650
748.806	7183
748.918	7148
749.029	6326
749.141	6610
749.252	7029
749.364	5924
749.475	5928
749.587	5982
749.698	6307
749.809	6395
749.921	6104
750.032	6804
750.144	6267
750.255	5525
750.366	5431
750.478	5509
750.589	6650
750.700	6172
750.811	5799
750.923	6326
751.034	5419
751.145	7172
751.256	6128
751.367	6403
751.479	6339
751.590	5417
751.701	5768
751.812	5726
751.923	5135
752.034	6079
752.145	5276
752.256	6905
752.367	5965
752.478	6315
752.589	7175
752.700	6521
752.811	4858
752.922	6070
753.032	5662
753.143	5983
753.254	6315
753.365	6774
753.476	6804
753.586	6733
753.697	6203
753.808	5736
753.919	5408
754.029	5849
754.140	5194
754.251	5819
754.361	6273
754.472	6325
754.582	5789
754.693	5664
754.804	6139
754.914	5801
755.025	5279
755.135	5828
755.246	6474
755.356	5765
755.466	5974
755.577	6401
755.687	6186
755.798	6132
755.908	6670
756.018	6596
756.129	5520
756.239	5764
756.349	6478
756.460	6762
756.570	6125
756.680	5705
756.790	6239
756.900	6681
757.011	6101
757.121	6799
757.231	5773
757.341	7056
757.451	5678
757.561	6649
757.671	6328
757.781	6196
757.891	5869
758.001	5733
758.111	6432
758.221	7640
758.331	6596
758.441	7164
758.551	6375
758.661	7564
758.771	7235
758.880	6642
758.990	5508
759.100	6261
759.210	5904
759.320	7106
759.429	7343
759.539	7946
759.649	6779
759.758	8143
759.868	7792
759.978	8608
760.087	7955
760.197	8692
760.307	7755
760.416	6385
760.526	6801
760.635	7833
760.745	8822
760.854	8980
760.964	8916
761.073	9140
761.182	8928
761.292	9087
761.401	9281
761.511	8806
761.620	8783
761.729	9188
761.839	8223
761.948	10106
762.057	8708
762.166	10474
762.276	8413
762.385	11573
762.494	9197
762.603	10118
762.712	11216
762.822	10186
762.931	11798
763.040	11486
763.149	11320
763.258	12645
763.367	13484
763.476	13096
763.585	12399
763.694	14089
763.803	13726
763.912	16020
764.021	15971
764.130	16845
764.238	17142
764.347	19109
764.456	20185
764.565	21907
764.674	23886
764.783	25593
764.891	28096
765.000	31809
765.109	36516
765.217	41543
765.326	49101
765.435	58310
765.543	71731
765.652	89191
765.761	116741
765.869	161888
765.978	236497
766.086	359735
766.195	561549
766.303	748023
766.412	541661
766.520	623509
766.629	670357
766.737	447522
766.846	287145
766.954	198807
767.062	144304
767.171	110104
767.279	85384
767.387	68981
767.496	58650
767.604	51777
767.712	44533
767.820	40556
767.928	37027
768.037	33540
768.145	32032
768.253	31329
768.361	30201
768.469	30266
768.577	30508
768.685	31742
768.793	34023
768.901	37402
769.009	43549
769.117	52927
769.225	68017
769.333	95926
769.441	148745
769.549	252191
769.657	456360
769.765	650757
769.873	531731
769.981	578563
770.088	347941
770.196	200970
770.304	130563
770.412	92541
770.519	70843
770.627	56806
770.735	45982
770.842	40216
770.950	34372
771.058	30541
771.165	28956
771.273	25380
771.380	23774
771.488	24430
771.595	22584
771.703	21181
771.810	19543
771.918	18520
772.025	21463
772.133	20260
772.240	19079
772.348	21189
772.455	17767
772.562	17735
772.670	17803
772.777	16796
772.884	15674
772.991	16219
773.099	15018
773.206	15081
773.313	14643
773.420	14881
773.528	13945
773.635	14038
773.742	12692
773.849	13236
773.956	13591
774.063	12853
774.170	12066
774.277	13294
774.384	11629
774.491	11809
774.598	11820
774.705	11734
774.812	11122
774.919	12418
775.026	11481
775.133	11535
775.239	12032
775.346	11008
775.453	11121
775.560	9975
775.667	10217
775.773	9485
775.880	10995
775.987	9967
776.093	10292
776.200	10615
776.307	8432
776.413	10787
776.520	10899
776.627	9285
776.733	8971
776.840	8699
776.946	11625
777.053	8715
777.159	8646
777.266	7302
777.372	9596
777.478	10133
777.585	9615
777.691	7393
777.798	9683
777.904	8135
778.010	7778
778.117	8004
778.223	7777
778.329	7932
778.435	7152
778.542	8642
778.648	7274
778.754	7881
778.860	7217
778.966	8053
779.072	7181
779.178	7984
779.284	7107
779.391	7540
779.497	7404
779.603	10665
779.708	7972
779.815	15633
779.920	44696
780.026	61301
780.132	11279
780.238	6630
780.344	6554
780.450	9217
780.556	5669
780.661	6444
780.767	6807
780.873	6585
780.979	6527
781.085	6387
781.190	6220
781.296	6507
781.402	6181
781.507	6167
781.613	6421
781.719	5851
781.824	5495
781.930	6270
782.035	6281
782.141	7079
782.246	4396
782.352	5719
782.457	4887
782.563	5844
782.668	5712
782.773	5106
782.879	4430
782.984	6354
783.090	5685
783.195	5618
783.300	6100
783.405	5320
783.511	4810
783.616	5574
783.721	6389
783.826	5235
783.932	5405
784.037	6396
784.142	5949
784.247	4277
784.352	4871
784.457	3980
784.562	5587
784.667	5650
784.772	3947
784.877	3908
784.982	5646
785.087	5175
785.192	5067
785.297	5020
785.402	5068
785.507	3954
785.611	3773
785.716	5011
785.821	4879
785.926	4892
786.031	4070
786.135	4923
786.240	4632
786.345	3669
786.450	3965
786.554	4766
786.659	4178
786.763	3727
786.868	4813
786.973	5915
787.077	3876
787.182	3765
787.286	4595
787.391	5398
787.495	2834
787.600	3904
787.704	4200
787.809	4841
787.913	4056
788.017	4251
788.122	4508
788.226	4439
788.330	2376
788.435	4648
788.539	4439
788.643	4145
788.747	2663
788.852	3360
788.956	3526
789.060	4774
789.164	3998
789.268	3529
789.372	4408
789.476	3948
789.580	2793
789.684	4116
789.788	5076
789.892	3167
789.996	3545
790.100	2835
790.204	3673
790.308	4405
790.412	2796
790.516	3039
790.620	3666
790.724	4710
790.828	3221
790.931	1461
791.035	3958
791.139	2785
791.242	3204
791.346	3745
791.450	3243
791.554	3569
791.657	1333
791.761	3994
791.864	4525
791.968	3700
792.072	3801
792.175	3270
792.279	3026
792.382	2847
792.486	2995
792.589	4002
792.693	2858
792.796	1708
792.899	3388
793.003	3448
793.106	1053
793.209	2815
793.313	3431
793.416	1984
793.519	3574
793.623	3559
793.726	3001
793.829	2647
793.932	3041
794.035	1881
794.138	4039
794.242	4763
794.345	3218
794.448	4229
794.551	6181
794.654	22080
794.757	32866
794.860	4450
794.963	2558
795.066	2469
795.169	3479
795.272	2812
795.375	3444
795.477	2341
795.580	2492
795.683	1123
795.786	2646
795.889	1602
795.991	4232
796.094	3987
796.197	1027
796.300	3672
796.402	2543
796.505	2524
796.608	1226
796.710	3612
796.813	2613
796.915	2324
797.018	2516
797.120	2937
797.223	1555
797.326	4563
797.428	1880
797.530	1576
797.633	1908
797.735	3632
797.838	1885
797.940	4159
798.042	2042
798.145	2092
798.247	2896
798.349	1295
798.452	2368
798.554	2844
798.656	1095
798.758	3425
798.860	2713
798.962	2533
799.065	1180
799.167	1780
799.269	2567
799.371	3470
799.473	3342
799.575	1361
799.677	1338
799.779	3093
799.881	920
799.983	2902
800.085	2600
800.187	2549
800.289	961
800.390	2213
800.492	3150
800.594	3491
800.696	691
800.798	2828
800.899	1799
801.001	1999
801.103	1486
801.205	2138
801.306	2036
801.408	1609
801.509	2085
801.611	1620
801.713	3239
801.814	1116
801.916	1483
802.017	2057
802.119	1032
802.220	1754
802.322	582
802.423	3243
802.525	378
802.626	1595
802.727	2412
802.829	2448
802.930	-747
803.031	2596
803.133	1809
803.234	2126
803.335	2229
803.436	989
803.538	1738
803.639	1229
803.740	2126
803.841	700
803.942	2189
804.043	2069
804.144	1104
804.245	1694
804.346	887
804.447	821
804.548	1906
804.649	2593
804.750	719
804.851	1177
804.952	2110
805.053	2008
805.154	1319
805.255	2858
805.355	1464
805.456	1965
805.557	1160
805.658	880
805.758	2191
805.859	2520
805.960	1284
806.061	1298
806.161	1319
806.262	1465
806.362	399
806.463	1697
806.564	1987
806.664	1835
806.765	1819
806.865	1932
806.966	593
807.066	1193
807.166	2254
807.267	2601
807.367	1171
807.468	2580
807.568	53
807.668	1842
807.769	2345
807.869	2012
807.969	1927
808.069	1514
808.170	2171
808.270	1649
808.370	2070
808.470	1193
808.570	136
808.670	1600
808.770	1845
808.870	1444
808.970	2271
809.070	1407
809.170	477
809.271	2212
809.370	1237
809.470	2014
809.570	355
809.670	806
809.770	377
809.870	2139
809.970	1906
810.070	1871
810.169	1424
810.269	521
810.369	2538
810.469	1698
810.568	977
810.668	1450
810.768	1302
810.867	1064
810.967	929
811.066	1216
811.166	1634
811.265	2142
811.365	1304
811.464	817
811.564	2307
811.663	1589
811.763	322
811.862	2351
811.962	2254
812.061	1162
812.160	847
812.260	1600
812.359	644
812.458	287
812.557	2096
812.657	1270
812.756	907
812.855	1866
812.954	-91
813.053	1557
813.153	1772
813.252	334
813.351	2107
813.450	1743
813.549	923
813.648	1795
813.747	300
813.846	1541
813.945	434
814.044	1972
814.143	1366
814.242	2098
814.341	1323
814.439	2192
814.538	1587
814.637	2162
814.736	661
814.835	1868
814.933	897
815.032	2924
815.131	3974
815.229	6642
815.328	8137
815.427	5403
815.525	5999
815.624	5041
815.722	4422
815.821	5628
815.919	5206
816.018	4574
816.116	5588
816.215	4456
816.313	5304
816.412	6420
816.510	5964
816.609	8452
816.707	7054
816.805	5713
816.904	5598
817.002	6165
817.100	6622
817.198	6905
817.296	6007
817.395	6027
817.493	6686
817.591	4343
817.689	5922
817.787	5918
817.885	6534
817.983	6909
818.081	8126
818.179	10302
818.277	18375
818.375	11880
818.473	5251
818.571	5612
818.669	6023
818.767	7038
818.865	5293
818.963	5749
819.061	5699
819.158	6669
819.256	10592
819.354	15079
819.452	29807
819.549	13523
819.647	6948
819.745	5176
819.842	5560
819.940	6154
820.038	3664
820.135	4067
820.233	6103
820.330	4462
820.428	3593
820.525	5530
820.623	4244
820.720	3967
820.818	5626
820.915	5887
821.012	4764
821.110	3820
821.207	5090
821.304	4200
821.402	4142
821.499	5600
821.596	4709
821.693	4273
821.791	5616
821.888	4087
821.985	4858
822.082	3792
822.179	4681
822.276	4283
822.373	3580
822.470	3790
822.567	4721
822.664	3387
822.761	5407
822.858	4340
822.955	4431
823.052	4037
823.149	3550
823.246	4480
823.343	3172
823.440	3564
823.536	4795
823.633	3288
823.730	3870
823.827	4755
823.923	3681
824.020	4612
824.117	3308
824.213	3490
824.310	3417
824.407	3107
824.503	4489
824.600	3653
824.696	3175
824.793	5233
824.889	3922
824.986	3303
825.082	2625
825.179	3670
825.275	4349
825.371	4055
825.468	2950
825.564	1374
825.660	4132
825.757	4528
825.853	3335
825.949	2714
826.045	2392
826.142	2936
826.238	3566
826.334	4145
826.430	2800
826.526	2901
826.622	2202
826.718	4178
826.814	4043
826.910	4326
827.006	1288
827.102	2260
827.198	3199
827.294	4034
827.390	3517
827.486	3188
827.582	783
827.678	1427
827.774	3384
827.869	1936
827.965	2960
828.061	1982
828.157	3205
828.252	3681
828.348	2187
828.444	2761
828.539	2235
828.635	3239
828.731	2786
828.826	2426
828.922	3669
829.017	2522
829.113	2719
829.208	2241
829.304	2380
829.399	4534
829.495	1516
829.590	2083
829.685	1286
829.781	2870
829.876	2433
829.971	1195
830.066	1262
830.162	2160
830.257	3522
830.352	1813
830.447	2056
830.543	3052
830.638	1725
830.733	3288
830.828	1256
830.923	3047
831.018	2657
831.113	3006
831.208	1486
831.303	1150
831.398	1861
831.493	2283
831.588	3956
831.683	2399
831.778	785
831.873	2578
831.967	2949
832.062	2399
832.157	987
832.252	2743
832.346	1680
832.441	3077
832.536	1601
832.631	2970
832.725	1147
832.820	1612
832.914	1851
833.009	1014
833.104	1354
833.198	792
833.293	1390
833.387	2349
833.482	2242
833.576	1487
833.670	1379
833.765	2274
833.859	1729
833.954	1908
834.048	1803
834.142	1750
834.237	1312
834.331	2326
834.425	2302
834.519	1146
834.613	1905
834.708	1766
834.802	1627
834.896	1939
834.990	786
835.084	1819
835.178	1379
835.272	1945
835.366	1535
835.460	3023
835.554	1385
835.648	1359
835.742	569
835.836	2104
835.930	711
836.024	2195
836.117	2128
836.211	1573
836.305	927
836.399	2261
836.493	493
836.586	2716
836.680	780
836.774	1002
836.867	2098
836.961	722
837.055	209
837.148	1176
837.242	1589
837.335	2287
837.429	1161
837.522	804
837.616	843
837.709	1814
837.803	1055
837.896	1797
837.989	1471
838.083	2002
838.176	1009
838.269	410
838.363	1863
838.456	1731
838.549	1791
838.642	571
838.735	1892
838.829	3239
838.922	119
839.015	1750
839.108	352
839.201	1348
839.294	1716
839.387	1382
839.480	344
839.573	1659
839.666	277
839.759	521
839.852	-62
839.945	2066
840.038	878
840.131	999
840.223	847
840.316	1733
840.409	898
840.502	1420
840.594	1520
840.687	-374
840.780	1098
840.873	1186
840.965	881
841.058	2134
841.150	1688
841.243	885
841.336	1571
841.428	858
841.521	415
841.613	893
841.706	626
841.798	1269
841.890	1348
841.983	-183
842.075	496
842.167	913
842.260	168
842.352	1443
842.444	496
842.537	1017
842.629	686
842.721	1074
842.813	1207
842.905	20
842.997	1072
843.090	1564
843.182	1049
843.274	140
843.366	1042
843.458	1612
843.550	1769
843.642	412
843.734	799
843.826	938
843.918	-172
844.009	1335
844.101	300
844.193	803
844.285	416
844.377	1419
844.469	836
844.560	97
844.652	176
844.744	544
844.835	1141
844.927	1364
845.019	1009
845.110	973
845.202	64
845.293	984
845.385	-519
845.476	1219
845.568	1240
845.659	1070
845.751	1366
845.842	467
845.934	737
846.025	424
846.116	199
846.208	501
846.299	324
846.390	1161
846.482	586
846.573	1379
846.664	804
846.755	388
846.846	691
846.937	-232
847.029	-450
847.120	234
847.211	-259
847.302	1393
847.393	-85
847.484	1835
847.575	-911
847.666	251
847.757	1212
847.847	647
847.938	1110
848.029	284
848.120	-123
848.211	358
848.302	855
848.392	116
848.483	918
848.574	61
848.664	512
848.755	602
848.846	677
848.936	-82
849.027	371
849.118	403
849.208	608
849.299	1515
849.389	2634
849.480	5652
849.570	8841
849.661	19122
849.751	22748
849.841	5902
849.932	792
850.022	348
850.112	1359
850.203	168
850.293	366
850.383	437
850.474	633
850.564	886
850.654	9
850.744	-154
850.834	79
850.924	846
851.014	1096
851.104	266
851.194	41
851.284	548
851.374	330
851.464	280
851.554	391
851.644	130
851.734	437
851.824	891
851.914	251
852.004	1582
852.094	-90
852.183	798
852.273	555
852.363	1042
852.452	698
852.542	484
852.632	51
852.721	863
852.811	-438
852.901	939
852.990	381
853.080	731
853.169	520
853.259	1400
853.348	825
853.438	1847
853.527	1974
853.617	3136
853.706	6216
853.795	11124
853.885	23718
853.974	43461
854.063	82770
854.152	89149
854.242	23888
854.331	5350
854.420	2687
854.509	2731
854.598	1350
854.687	811
854.777	1093
854.866	1096
854.955	1421
855.044	335
855.133	572
855.222	777
855.311	-723
855.400	607
855.488	-5
855.577	257
855.666	1126
855.755	534
855.844	1059
855.933	103
856.021	41
856.110	983
856.199	-500
856.288	6
856.376	-183
856.465	27
856.554	-261
856.642	856
856.731	289
856.819	350
856.908	-199
856.996	1022
857.085	253
857.173	-340
857.262	605
857.350	-107
857.438	25
857.527	376
857.615	-48
857.703	1341
857.792	-65
857.880	549
857.968	310
858.056	600
858.145	336
858.233	317
858.321	435
858.409	659
858.497	644
858.585	1373
858.673	53
858.761	161
858.849	400
858.937	467
859.025	170
859.113	811
859.201	-34
859.289	768
859.377	-832
859.465	767
859.552	-422
859.640	758
859.728	26
859.816	95
859.903	1724
859.991	425
860.079	196
860.166	671
860.254	204
860.342	-1
860.429	820
860.517	710
860.604	-307
860.692	511
860.779	-792
860.867	298
860.954	636
861.042	3
861.129	304
861.216	282
861.304	272
861.391	411
861.478	19
861.565	1120
861.653	1184
861.740	31
861.827	-189
861.914	883
862.001	234
862.089	-11
862.176	122
862.263	963
862.350	50
862.437	-150
862.524	-197
862.611	541
862.698	689
862.785	1049
862.871	882
862.958	369
863.045	309
863.132	766
863.219	876
863.306	-51
863.392	490
863.479	532
863.566	182
863.652	528
863.739	142
863.826	1013
863.912	1148
863.999	-4
864.086	890
864.172	1075
864.259	1290
864.345	1048
864.432	1015
864.518	1149
864.604	562
864.691	576
864.777	896
864.863	2040
864.950	2731
865.036	4416
865.122	6272
865.209	7050
865.295	6357
865.381	6386
865.467	5380
865.553	6358
865.639	6673
865.726	10337
865.812	18149
865.898	27858
865.984	38858
866.070	70583
866.156	51089
866.242	15002
866.328	6573
866.414	5713
866.499	5797
866.585	4609
866.671	4268
866.757	5288
866.843	4694
866.928	5202
867.014	3843
867.100	4613
867.186	4136
867.271	4822
867.357	3629
867.442	4411
867.528	4014
867.614	4123
867.699	4072
867.785	4573
867.870	4414
867.956	3920
868.041	4482
868.127	4456
868.212	3635
868.297	4422
868.383	4754
868.468	4110
868.553	4222
868.639	3709
868.724	3740
868.809	3858
868.894	3212
868.979	4389
869.065	3457
869.150	2879
869.235	3651
869.320	3635
869.405	3007
869.490	2914
869.575	2660
869.660	3559
869.745	4192
869.830	4094
869.915	2494
870.000	3856
870.085	4076
870.169	4406
870.254	4059
870.339	3153
870.424	2633
870.509	3677
870.593	4649
870.678	4026
870.763	3400
870.847	2847
870.932	3230
871.016	3673
871.101	2475
871.186	4090
871.270	3773
871.355	2427
871.439	3086
871.523	3628
871.608	2265
871.692	2974
871.777	4224
871.861	3236
871.945	3099
872.030	3722
872.114	2746
872.198	2713
872.282	3306
872.367	2652
872.451	2275
872.535	2785
872.619	3168
872.703	2976
872.787	2907
872.871	3377
872.955	2213
873.039	1638
873.123	3529
873.207	3540
873.291	1263
873.375	2193
873.459	4015
873.543	2842
873.627	1837
873.711	2039
873.794	3574
873.878	2680
873.962	1331
874.045	2594
874.129	1393
874.137	1430
874.213	1801
874.245	2044
874.296	2440
874.352	2445
874.380	2447
874.460	2870
874.464	2887
874.547	2640
874.568	2562
874.631	2343
874.676	2550
874.714	2714
874.784	2333
874.798	2266
874.881	3426
874.892	3171
874.965	1367
874.999	1851
875.048	2564
875.107	2356
875.131	2251
875.215	1731
875.215	1730
875.298	712
875.323	1164
875.381	2314
875.430	2705
875.465	2936
875.538	2718
875.548	2678
875.631	1364
875.646	1358
875.714	1416
875.753	1331
875.798	1253
875.861	2116
875.881	2387
875.964	1341
875.968	1321
876.047	979
876.076	1333
876.130	1939
876.183	2021
876.213	2099
876.291	2581
876.296	2602
876.379	1608
876.398	1675
876.462	2040
876.506	1735
876.545	1392
876.613	1028
876.628	989
876.711	1824
876.721	1832
876.794	1695
876.828	1714
876.877	1714
876.935	1099
876.960	904
877.043	1471
877.043	1471
877.125	1463
877.150	1710
877.208	2308
877.258	1989
877.291	1759
877.365	1112
877.374	1034
877.456	1266
877.472	1216
877.539	1016
877.579	1428
877.622	1872
877.687	1843
877.704	1844
877.787	1857
877.794	1900
877.869	2270
877.901	2031
877.952	1637
878.008	1079
878.034	790
878.115	1374
878.117	1393
878.199	1805
878.222	1709
878.282	1311
878.329	1848
878.364	2294
878.437	1641
878.447	1508
878.529	1092
878.544	1007
878.611	876
878.651	1044
878.694	1212
878.758	1531
878.776	1640
878.858	2161
878.865	2072
878.941	627
878.972	658
879.023	965
879.078	1404
879.105	1612
879.185	1895
879.187	1900
879.269	1541
879.292	1437
879.351	1031
879.399	860
879.433	725
879.506	1149
879.516	1250
879.598	668
879.613	887
879.680	1671
879.720	1715
879.762	1829
879.827	1792
879.844	1657
879.926	1115
879.933	1120
880.007	1787
880.040	1792
880.089	1769
880.147	2374
880.171	2634
880.253	3257
880.254	3261
880.335	4520
880.360	5135
880.417	8194
880.467	11460
880.499	13762
880.574	16020
880.580	15400
880.662	6424
880.680	4775
880.744	2811
880.787	1657
880.825	1378
880.893	1236
880.907	1253
880.989	1271
881.000	1361
881.070	2032
881.106	1674
881.152	1065
881.213	1190
881.233	1228
881.315	1081
881.319	1070
881.396	1447
881.426	1312
881.478	493
881.532	1011
881.559	1610
881.639	1399
881.641	1371
881.722	1015
881.745	893
881.803	1147
881.852	1111
881.885	852
881.958	524
881.966	558
882.047	1184
882.064	1262
882.129	1174
882.171	991
882.210	802
882.277	873
882.291	889
882.372	916
882.383	887
882.454	1396
882.489	1767
882.535	1863
882.596	1641
882.616	1557
882.697	1241
882.702	1235
882.778	1018
882.808	841
882.859	613
882.914	816
882.940	1106
883.020	1169
883.021	1167
883.102	1494
883.127	1347
883.183	1596
883.233	2031
883.264	1879
883.339	1146
883.345	1089
883.426	507
883.445	367
883.507	720
883.551	1148
883.587	1357
883.657	1517
883.668	1556
883.749	1952
883.763	1905
883.830	1002
883.869	847
883.910	1001
883.975	994
883.991	981
884.072	1338
884.081	1323
884.152	1487
884.187	1626
884.233	1895
884.292	2031
884.314	1799
884.394	975
884.398	940
884.475	404
884.504	189
884.555	467
884.610	915
884.636	1007
884.716	1007
884.716	1011
884.797	1634
884.821	1807
884.877	1907
884.927	1799
884.958	1412
885.033	818
885.038	822
885.118	476
885.139	488
885.199	709
885.244	885
885.279	1119
885.350	1461
885.359	1482
885.439	1878
885.456	1808
885.520	1338
885.561	1283
885.600	1290
885.667	1381
885.680	1342
885.760	990
885.773	907
885.840	609
885.878	533
885.920	681
885.984	816
886.000	857
886.080	1028
886.089	1070
886.160	891
886.195	665
886.240	865
886.300	1364
886.320	1377
886.400	1132
886.406	1117
886.480	922
886.511	853
886.560	947
886.616	944
886.640	947
886.720	1170
886.722	1172
886.800	1156
886.827	1149
886.879	1437
886.932	1714
886.959	1873
887.038	2065
887.039	2062
887.119	1553
887.143	1341
887.198	1130
887.248	1040
887.278	1193
887.354	1215
887.358	1206
887.437	1251
887.459	1245
887.517	1685
887.564	2017
887.596	1571
887.669	495
887.676	495
887.755	542
887.774	546
887.835	813
887.880	1106
887.914	1322
887.985	1605
887.994	1635
888.073	1972
888.090	2031
888.153	1932
888.195	1797
888.232	1321
888.300	429
888.311	456
888.391	753
888.405	818
888.470	882
888.510	843
888.549	824
888.615	919
888.628	1093
888.708	2008
888.720	2160
888.787	1865
888.825	1641
888.866	1187
888.930	504
888.945	619
889.024	1347
889.035	1425
889.103	1231
889.140	1133
889.182	849
889.245	475
889.261	546
889.340	875
889.349	912
889.419	1196
889.454	1345
889.498	1176
889.559	939
889.577	1156
889.656	2120
889.664	2214
889.735	2089
889.768	2022
889.814	2324
889.873	2715
889.978	593
890.083	1506
890.187	967
890.292	1683
890.397	1330
890.501	1296
890.606	776
890.710	1858
890.815	1791
890.919	892
891.024	645
891.128	1833
891.233	738
891.337	1428
891.442	997
891.546	906
891.650	685
891.755	1148
891.859	1412
891.963	2060
892.068	943
892.172	1906
892.276	742
892.380	2073
892.484	1468
892.589	3092
892.693	1760
892.797	1459
892.901	555
893.005	1458
893.109	1907
893.213	1474
893.317	1143
893.421	1044
893.525	-14
893.629	1407
893.733	1444
893.837	926
893.941	709
894.045	689
894.148	684
894.252	1783
894.356	819
894.460	1066
894.564	792
894.667	1004
894.771	666
894.875	254
894.978	777
895.082	483
895.186	1471
895.289	1110
895.393	738
895.496	1171
895.600	377
895.703	193
895.807	696
895.910	1442
896.014	890
896.117	462
896.221	1410
896.324	579
896.427	816
896.531	266
896.634	642
896.737	1958
896.840	259
896.944	511
897.047	894
897.150	1214
897.253	345
897.356	933
897.460	703
897.563	1079
897.666	309
897.769	1052
897.872	299
897.975	341
898.078	573
898.181	3
898.284	419
898.387	1578
898.490	1452
898.593	-85
898.695	162
898.798	334
898.901	307
899.004	1164
899.107	347
899.209	1417
899.312	872
899.415	539
899.518	332
899.620	-21
899.723	671
899.826	384
899.928	224
900.031	1171
900.133	852
900.236	458
900.338	261
900.441	1110
900.543	-192
900.646	615
900.748	333
900.851	1274
900.953	-222
901.055	1150
901.158	762
901.260	504
901.362	157
901.465	-264
901.567	544
901.669	1434
901.771	663
901.873	521
901.976	96
902.078	484
902.180	-243
902.282	738
902.384	-380
902.486	1036
902.588	718
902.690	908
902.792	536
902.894	1026
902.996	319
903.098	1350
903.200	-351
903.302	367
903.404	-44
903.505	-132
903.607	435
903.709	1470
903.811	1166
903.913	605
904.014	-413
904.116	9
904.218	88
904.319	745
904.421	1428
904.523	80
904.624	394
904.726	637
904.827	470
904.929	-168
905.030	656
905.132	1620
905.233	1239
905.335	556
905.436	315
905.537	162
905.639	568
905.740	1055
905.841	896
905.943	706
906.044	422
906.145	1036
906.247	-381
906.348	661
906.449	25
906.550	1422
906.651	1109
906.752	1252
906.854	-1045
906.955	239
907.056	64
907.157	708
907.258	-307
907.359	410
907.460	-199
907.561	-80
907.662	319
907.762	105
907.863	494
907.964	1058
908.065	702
908.166	596
908.267	89
908.367	-74
908.468	483
908.569	261
908.670	783
908.770	1017
908.871	444
908.971	437
909.072	329
909.173	-180
909.273	-308
909.374	837
909.474	-148
909.575	652
909.675	419
909.776	1029
909.876	111
909.977	144
910.077	598
910.177	1051
910.278	763
910.378	120
910.478	-19
910.579	712
910.679	547
910.779	1508
910.879	817
910.980	-572
911.080	1133
911.180	652
911.280	132
911.380	332
911.480	-225
911.580	200
911.680	1038
911.780	1066
911.880	198
911.980	-129
912.080	-581
912.180	-25
912.280	-21
912.380	142
912.480	365
912.580	576
912.679	-196
912.779	1111
912.879	745
912.979	593
913.078	-371
913.178	185
913.278	-739
913.377	-341
913.477	76
913.577	201
913.676	635
913.776	954
913.875	226
913.975	755
914.074	364
914.174	1105
914.273	-85
914.373	1803
914.472	342
914.572	177
914.671	232
914.770	1279
914.870	-456
914.969	382
915.068	-75
915.167	1069
915.267	12
915.366	298
915.465	-62
915.564	476
915.663	471
915.763	500
915.862	810
915.961	926
916.060	603
916.159	522
916.258	-974
916.357	155
916.456	556
916.555	1033
916.654	-327
916.752	1130
916.851	681
916.950	1089
917.049	-427
917.148	274
917.247	168
917.345	1121
917.444	82
917.543	189
917.642	767
917.740	784
917.839	1393
917.937	1188
918.036	144
918.135	1097
918.233	487
918.332	78
918.430	362
918.529	556
918.627	-46
918.726	1145
918.824	500
918.923	504
919.021	70
919.119	114
919.218	435
919.316	997
919.414	725
919.512	702
919.611	464
919.709	883
919.807	1374
919.905	1230
920.003	638
920.102	697
920.200	186
920.298	1376
920.396	795
920.494	708
920.592	1281
920.690	835
920.788	1184
920.886	1147
920.984	390
921.082	586
921.180	1247
921.277	1570
921.375	1589
921.473	2923
921.571	2249
921.669	1955
921.766	1559
921.864	1984
921.962	1820
922.060	1996
922.157	2713
922.255	1703
922.352	1166
922.450	3050
922.548	2212
922.645	2888
922.743	3779
922.840	6186
922.938	6580
923.035	6156
923.133	5459
923.230	6074
923.327	8628
923.425	7332
923.522	7439
923.619	7046
923.717	5689
923.814	5982
923.911	5198
924.008	5881
924.106	5955
924.203	5521
924.300	5595
924.397	5613
924.494	5794
924.591	5843
924.688	5019
924.786	5160
924.883	5195
924.979	5250
925.077	4950
925.173	5693
925.270	5111
925.367	5936
925.464	6480
925.561	7025
925.658	6923
925.755	6808
925.852	6879
925.948	5943
926.045	4908
926.142	5486
926.239	5613
926.335	5097
926.432	5200
926.529	5966
926.625	5443
926.722	4396
926.818	5182
926.915	5404
927.011	5398
927.108	5007
927.204	5682
927.301	4046
927.397	6519
927.494	5486
927.590	3011
927.687	4326
927.783	5253
927.879	5944
927.976	4314
928.072	4174
928.168	4576
928.264	4773
928.361	4926
928.457	4795
928.553	4252
928.649	5007
928.745	4960
928.841	4918
928.937	4288
929.033	4235
929.129	4262
929.225	5653
929.321	4326
929.417	4132
929.513	4930
929.609	4874
929.705	3341
929.801	4745
929.897	2535
929.993	3673
930.089	3894
930.184	3685
930.280	3598
930.376	5331
930.471	3076
930.567	3231
930.663	3731
930.758	3099
930.854	2977
930.950	4176
931.045	2961
931.141	4445
931.236	4788
931.332	4575
931.427	2449
931.523	4406
931.618	3981
931.714	2778
931.809	3241
931.905	4131
932.000	1971
932.095	1050
932.191	3985
932.286	4488
932.381	3565
932.476	3343
932.572	3589
932.667	3549
932.762	2978
932.857	4325
932.952	4574
933.047	3061
933.142	2570
933.237	3412
933.332	3474
933.427	4138
933.522	2196
933.617	2742
933.712	3150
933.807	3741
933.902	3617
933.997	4156
934.092	2687
934.187	3005
934.282	3548
934.376	3819
934.471	3645
934.566	2918
934.661	2227
934.755	3030
934.850	4001
934.945	2242
935.039	2337
935.134	3015
935.228	2507
935.323	5056
935.417	2627
935.512	1580
935.606	1602
935.701	2628
935.795	2918
935.890	3523
935.984	2431
936.079	1794
936.173	1998
936.267	2492
936.362	1314
936.456	3134
936.550	4066
936.644	2186
936.738	1944
936.833	1869
936.927	2013
937.021	2615
937.115	1857
937.209	2558
937.303	2497
937.397	2039
937.491	2766
937.585	2631
937.679	2694
937.773	2139
937.867	1550
937.961	2457
938.055	2957
938.149	3704
938.243	1665
938.337	1267
938.430	1750
938.524	3020
938.618	1584
938.712	1756
938.805	1076
938.899	2909
938.993	3375
939.086	1089
939.180	1198
939.274	1325
939.367	2772
939.461	2660
939.554	1984
939.648	2176
939.741	1631
939.835	2731
939.928	2635
940.022	3483
940.115	1712
940.208	2218
940.302	3332
940.395	3508
940.488	1434
940.582	1829
940.675	1293
940.768	1868
940.861	2162
940.954	2449
941.048	861
941.141	1095
941.234	1271
941.327	1732
941.420	2787
941.513	3022
941.606	1809
941.699	2174
941.792	3637
941.885	2153
941.978	2171
942.071	2290
942.164	521
942.257	1697
942.349	1987
942.442	1688
942.535	306
942.628	1263
942.721	1895
942.813	1518
942.906	1763
942.999	1750
943.091	1043
943.184	1469
943.277	1176
943.369	1471
943.462	390
943.554	1493
943.647	1811
943.739	2725
943.832	1401
943.924	286
944.017	1413
944.109	581
944.201	866
944.294	1118
944.386	1359
944.478	1427
944.571	449
944.663	1640
944.755	1395
944.847	2620
944.940	1734
945.032	-165
945.124	1303
945.216	2154
945.308	1406
945.400	2016
945.492	555
945.584	1379
945.676	2678
945.768	1751
945.860	1874
945.952	2277
946.044	1250
946.136	1462
946.228	906
946.320	1111
946.412	732
946.503	1503
946.595	2149
946.687	263
946.779	770
946.870	959
946.962	296
947.054	1522
947.145	1873
947.237	870
947.329	1215
947.420	1447
947.512	1347
947.603	913
947.695	982
947.786	1240
947.878	691
947.969	1887
948.061	1387
948.152	864
948.243	913
948.335	733
948.426	932
948.517	1283
948.609	1722
948.700	683
948.791	1417
948.882	816
948.973	185
949.065	1756
949.156	1454
949.247	550
949.338	109
949.429	344
949.520	279
949.611	974
949.702	1671
949.793	1359
949.884	892
949.975	867
950.066	839
950.157	187
950.247	550
950.338	420
950.429	618
950.520	666
950.611	371
950.701	625
950.792	2040
950.883	2056
950.973	192
951.064	1297
951.155	856
951.245	1685
951.336	1103
951.427	1380
951.517	1909
951.608	1355
951.698	939
951.788	750
951.879	-226
951.969	948
952.060	230
952.150	661
952.240	1593
952.331	137
952.421	1049
952.511	216
952.602	481
952.692	525
952.782	288
952.872	189
952.962	411
953.052	795
953.143	-296
953.233	927
953.323	950
953.413	430
953.503	706
953.593	1310
953.683	91
953.773	-137
953.863	87
953.953	843
954.042	1634
954.132	1221
954.222	877
954.312	295
954.402	624
954.492	417
954.581	366
954.671	438
954.761	392
954.850	2024
954.940	8
955.030	849
955.119	-147
955.209	1190
955.298	129
955.388	750
955.477	1625
955.567	-168
955.656	1185
955.746	1139
955.835	525
955.925	68
956.014	609
956.103	1190
956.193	1670
956.282	1067
956.371	739
956.461	1220
956.550	335
956.639	870
956.728	37
956.817	754
956.906	614
956.995	1289
957.085	187
957.174	1018
957.263	402
957.352	931
957.441	-399
957.530	57
957.619	795
957.708	520
957.796	251
957.885	751
957.974	918
958.063	1033
958.152	-620
958.241	294
958.329	-291
958.418	66
958.507	472
958.596	1523
958.684	287
958.773	1697
958.861	508
958.950	1152
959.039	11
959.127	570
959.216	813
959.304	786
959.393	143
959.481	1275
959.570	1606
959.658	-301
959.746	196
959.835	1072
959.923	918
960.011	378
960.100	1143
960.188	1302
960.276	-90
960.365	62
960.453	36
960.541	-354
960.629	195
960.717	223
960.805	-805
960.893	415
960.981	48
961.069	1910
961.158	425
961.245	1803
961.333	429
961.421	-388
961.509	276
961.597	-14
961.685	-451
961.773	908
961.861	-309
961.949	786
962.036	-711
962.124	-574
962.212	258
962.299	-733
962.387	414
962.475	548
962.562	-883
962.650	551
962.738	765
962.825	-786
962.913	-759
963.000	-391
963.088	168
963.175	-209
963.263	-267
963.350	-119
963.438	-339
963.525	-285
963.612	495
963.700	860
963.787	1763
963.874	475
963.962	-127
964.049	-211
964.136	160
964.223	-636
964.310	108
964.398	88
964.485	30
964.572	991
964.659	337
964.746	-157
964.833	-954
964.920	-972
965.007	-478
965.094	458
965.181	-160
965.268	-127
965.355	-328
965.441	-96
965.528	-1056
965.615	1481
965.702	-170
965.789	-306
965.875	723
965.962	1228
966.049	-477
966.136	1079
966.222	-69
966.309	1060
966.395	546
966.482	1413
966.569	-1139
966.655	107
966.742	243
966.828	51
966.915	-1105
967.001	-364
967.087	-842
967.174	475
967.260	198
967.347	314
967.433	573
967.519	1881
967.605	-152
967.692	-262
967.778	-54
967.864	-384
967.950	-21
968.036	-152
968.123	-85
968.209	185
968.295	-1799
968.381	1250
968.467	-161
968.553	-1795
968.639	908
968.725	240
968.811	1188
968.897	411
968.983	-303
969.069	-612
969.154	-434
969.240	-258
969.326	-1420
969.412	-611
969.497	-176
969.583	105
969.669	757
969.755	108
969.840	-11
969.926	1382
970.012	1363
970.097	3864
970.183	2095
970.268	1175
970.354	120
970.439	-1152
970.525	1006
970.610	-1065
970.696	-55
970.781	409
970.866	-1369
970.952	-28
971.037	-1323
971.122	19
971.208	-822
971.293	193
971.378	-1318
971.463	-29
971.549	-436
971.634	-298
971.719	-1090
971.804	-743
971.889	-791
971.974	-637
972.059	-253
972.144	196
972.229	34
972.314	-141
972.399	-1345
972.484	-759
972.569	-531
972.654	-1341
972.739	220
972.824	-1023
972.908	-752
972.993	-1152
973.078	-788
973.163	-514
973.247	-1021
973.332	-1523
973.417	-269
973.501	-958
973.586	-961
973.671	-13
973.755	-885
973.840	-81
973.924	128
974.009	319
974.093	-517
974.178	1658
974.262	-445
974.346	-995
974.431	-314
974.515	-374
974.600	-741
974.684	-182
974.768	-973
974.852	258
974.937	-1479
975.021	944
975.105	-523
975.189	-171
975.273	13
975.358	-1529
975.442	-1698
975.526	602
975.610	-441
975.694	-1078
975.778	-363
975.862	100
975.946	-2586
976.030	618
976.114	-1808
976.198	-414
976.281	-802
976.365	-119
976.449	-932
976.533	158
976.617	-1397
976.700	-413
976.784	-499
976.868	-973
976.951	-615
977.035	-304
977.119	-195
977.202	-392
977.286	283
977.369	49
977.453	944
977.536	1448
977.620	-163
977.703	7
977.787	-1908
977.870	225
977.953	808
978.037	-864
978.120	748
978.203	-1087
978.287	166
978.370	-532
978.453	-1404
978.536	-771
978.620	169
978.703	236
978.786	4
978.869	-709
978.952	-1088
979.035	623
979.118	-213
979.201	-488
979.284	130
979.367	-333
979.450	-720
979.533	-213
979.616	-712
979.699	-982
979.782	-1511
979.865	178
979.948	-703
980.030	-769
980.113	-1448
980.196	-1214
980.279	17
980.361	-297
980.444	-893
980.526	-872
980.609	717
980.692	314
980.774	938
980.857	-933
980.939	486
981.022	66
981.104	-967
981.187	-584
981.269	600
981.352	-235
981.434	-1005
981.516	-716
981.599	306
981.681	402
981.763	-365
981.846	568
981.928	-664
982.010	-789
982.092	-1044
982.174	1133
982.256	-1003
982.339	473
982.421	-1252
982.503	53
982.585	-1832
982.667	370
982.749	-814
982.831	-370
982.913	-886
982.995	698
983.077	-1172
983.158	1138
983.240	-1067
983.322	842
983.404	1093
983.486	-613
983.568	-211
983.649	156
983.731	74
983.813	160
983.894	-248
983.976	425
984.058	-1062
984.139	747
984.221	-1327
984.302	804
984.384	-167
984.465	-752
984.547	477
984.628	-484
984.710	560
984.791	138
984.872	678
984.954	18
985.035	451
985.116	-456
985.198	-521
985.279	588
985.360	-461
985.441	33
985.522	613
985.604	-171
985.685	-1650
985.766	587
985.847	1444
985.928	-1009
986.009	-478
986.090	-696
986.171	156
986.252	-397
986.333	-313
986.414	311
986.495	206
986.576	153
986.656	120
986.737	678
986.818	271
986.899	-134
986.980	-177
987.060	163
987.141	-779
987.222	1052
987.302	1
987.383	1480
987.464	77
987.544	1048
987.625	111
987.705	1009
987.786	441
987.866	288
987.947	-43
988.027	1177
988.108	-195
988.188	489
988.268	-209
988.349	120
988.429	-399
988.509	734
988.589	832
988.670	156
988.750	1371
988.830	148
988.910	751
988.990	549
989.070	660
989.151	277
989.231	-1487
989.311	661
989.391	-393
989.471	-12
989.551	155
989.631	-51
989.711	972
989.791	-516
989.870	-1001
989.950	1120
990.030	146
990.110	507
990.190	-1580
990.269	-157
990.349	-402
990.429	935
990.509	-375
990.588	-674
990.668	561
990.747	116
990.827	-346
990.907	132
990.986	-26
991.066	-249
991.145	-1542
991.225	583
991.304	462
991.383	-50
991.463	-148
991.542	637
991.622	-664
991.701	-736
991.780	-922
991.859	456
991.939	-1062
992.018	-135
992.097	-45
992.176	-505
992.256	-604
992.335	-582
992.414	-228
992.493	-1119
992.572	-1294
992.651	-277
992.730	-566
992.809	-189
992.888	-1682
992.967	-909
993.046	-61
993.125	-924
993.203	-957
993.282	673
993.361	-424
993.440	-142
993.519	-805
993.597	-150
993.676	-1176
993.755	575
993.834	-1401
993.912	-1321
993.991	-43
994.069	-1685
994.148	-1629
994.226	-913
994.305	-582
994.384	-991
994.462	201
994.540	-599
994.619	-991
994.697	45
994.776	-1762
994.854	90
994.932	-1330
995.011	-756
995.089	-1104
995.167	-1129
995.245	-284
995.324	-1098
995.402	-654
995.480	-1132
995.558	-1883
995.636	-1065
995.714	-1814
995.792	66
995.870	-1488
995.948	-370
996.026	-1545
996.104	-1680
996.182	-404
996.260	-1341
996.338	-348
996.416	-1910
996.494	-1103
996.572	-71
996.649	-207
996.727	-1036
996.805	-864
996.883	-1217
996.960	-2034
997.038	-340
997.116	-513
997.193	-2140
997.271	-669
997.348	-1301
997.426	-160
997.504	-1437
997.581	-991
997.658	-304
997.736	-1795
997.813	-2066
997.891	-208
997.968	-1660
998.046	-1656
998.123	-794
998.200	-762
998.277	-2015
998.355	-573
998.432	-1677
998.509	-1471
998.586	-704
998.663	-540
998.741	-884
998.818	-1584
998.895	-2140
998.972	-1367
999.049	-914
999.126	-1702
999.203	-636
999.280	-1336
999.357	-1462
999.434	-1970
999.511	-935
999.587	-1864
999.664	-1261
999.741	-680
999.818	-850
999.895	-1256
999.971	-1483
1000.048	-1709
1000.125	-425
1000.202	-2144
1000.278	-1351
1000.355	-1739
1000.431	-1007
1000.508	-2368
1000.584	-400
1000.661	-1343
1000.738	-2112
1000.814	-1678
1000.890	-509
1000.967	-1452
1001.043	-1488
1001.120	-2392
1001.196	-1373
1001.272	-2610
1001.349	-1375
1001.425	-435
1001.501	-1632
1001.577	-2597
1001.654	-1231
1001.730	-1573
1001.806	-1223
1001.882	-1801
1001.958	-838
1002.034	-1526
1002.110	-1603
1002.186	-2717
1002.262	-1213
1002.338	-2086
1002.414	-484
1002.490	-950
1002.566	-1870
1002.642	-2280
1002.718	-836
1002.794	-1769
1002.870	-1661
1002.945	-1762
1003.021	-1681
1003.097	-1662
1003.173	-1822
1003.248	-1878
1003.324	-1276
1003.400	-1291
1003.475	-1868
1003.551	-1684
1003.626	-1539
1003.702	-2623
1003.777	-1370
1003.853	-2911
1003.928	-1695
1004.004	-1657
1004.079	-1117
1004.155	-1297
1004.230	-3066
1004.305	-670
1004.381	-1744
1004.456	-1259
1004.531	-1437
1004.607	-1384
1004.682	-1206
1004.757	-1647
1004.832	-1320
1004.907	-2169
1004.982	-1840
1005.057	-2149
1005.133	-1432
1005.208	-1620
1005.283	-2368
1005.358	-993
1005.433	-1220
1005.508	-1470
1005.583	-3076
1005.657	-2287
1005.732	-1370
1005.807	-2612
1005.882	-1943
1005.957	-1915
1006.032	-1535
1006.106	-1863
1006.181	-1301
1006.256	-2478
1006.331	-1761
1006.405	-1716
1006.480	-1644
1006.554	-1935
1006.629	-1775
1006.704	-1655
1006.778	-1851
1006.853	-876
1006.927	-1655
1007.002	-1939
1007.076	-2128
1007.150	-2094
1007.225	-1543
1007.299	-1517
1007.373	-2404
1007.448	-1900
1007.522	-986
1007.596	-2185
1007.671	-1935
1007.745	-1698
1007.819	-1744
1007.893	-1893
1007.967	-1222
1008.041	-3037
1008.115	-700
1008.190	-1980
1008.264	-1723
1008.338	-2829
1008.412	-1058
1008.486	-2923
1008.560	-2560
1008.633	-1838
1008.707	-2162
1008.781	-1419
1008.855	-2248
1008.929	-1855
1009.003	-2308
1009.076	-1863
1009.150	-1827
1009.224	-2029
1009.298	-1209
1009.371	-2860
1009.445	-1281
1009.519	-2208
1009.592	-2468
1009.666	-1865
1009.739	-1747
1009.813	-3722
1009.886	-1078
1009.960	-2677
1010.033	-2520
1010.107	-1980
1010.180	-1865
1010.253	-2476
1010.327	-2229
1010.400	-2489
1010.473	-2338
1010.547	-923
1010.620	-2601
1010.693	-1611
1010.766	-1670
1010.840	-1491
1010.913	-2122
1010.986	-3247
1011.059	-1882
1011.132	-1975
1011.205	-1260
1011.278	-2454
1011.351	-1835
1011.424	-1512
1011.497	-1979
1011.570	-2470
1011.643	-1812
1011.716	-2200
1011.789	-2114
1011.862	-1942
1011.934	-1875
1012.007	-2474
1012.080	-2094
1012.153	-1980
1012.225	-1162
1012.298	-2911
1012.371	-2283
1012.443	-2302
1012.516	-2295
1012.588	-1981
1012.661	-1307
1012.733	-2455
1012.806	-1715
1012.879	-2342
1012.951	-2048
1013.023	-2078
1013.096	-2365
1013.168	-2279
1013.241	-1604
1013.313	-2073
1013.385	-1358
1013.458	-2736
1013.530	-1211
1013.602	-3122
1013.674	-1496
1013.746	-2329
1013.819	-2304
1013.891	-2069
1013.963	-2325
1014.035	-1528
1014.107	-1964
1014.179	-2088
1014.251	-1825
1014.323	-1930
1014.395	-1208
1014.467	-2333
1014.539	-1443
1014.611	-2437
1014.683	-847
1014.754	-1809
1014.826	-2212
1014.898	-2648
1014.970	-3053
1015.042	-1554
1015.113	-1062
1015.185	-1386
1015.257	-2858
1015.328	-1456
1015.400	-2604
1015.471	-1599
1015.543	-2844
1015.615	-2026
1015.686	-1541
1015.757	-2093
1015.829	-2257
1015.901	-1400
1015.972	-2564
1016.043	-2508
1016.115	-1899
1016.186	-1929
1016.257	-3082
1016.328	-2024
1016.400	-1539
1016.471	-3171
1016.542	-1362
1016.613	-2166
1016.685	-2302
1016.756	-1919
1016.827	-2450
1016.898	-2202
1016.969	-1190
1017.040	-2059
1017.111	-2820
1017.182	-2812
1017.253	-1702
1017.324	-1519
1017.395	-2053
1017.466	-1711
1017.537	-1555
1017.608	-2495
1017.678	-2051
1017.749	-2099
1017.820	-2126
1017.891	-3371
1017.961	-2168
1018.032	-2125
1018.103	-1596
1018.173	-2589
1018.244	-2143
1018.315	-2681
1018.385	-1806
1018.456	-2230
1018.526	-1695
1018.597	-2405
1018.667	-1964
1018.738	-1882
1018.808	-1797
1018.878	-2105
1018.949	-2269
1019.019	-2241
1019.089	-1606
1019.160	-2008
1019.230	-2262
1019.300	-2432
1019.371	-2819
1019.441	-2182
1019.511	-1359
1019.581	-1863
1019.651	-1899
1019.721	-2175
1019.791	-2352
1019.861	-1235
1019.931	-1693
1020.001	-2111
1020.071	-1962
1020.141	-3099
1020.211	-2362
1020.281	-2103
1020.351	-1724
1020.421	-2647
1020.491	-1637
1020.560	-2360
1020.630	-2009
1020.700	-2083
1020.770	-2363
1020.839	-2644
1020.909	-1951
1020.979	-2706
1021.048	-1967
1021.118	-2282
1021.187	-2301
1021.257	-2196
1021.326	-1235
1021.396	-2080
1021.465	-2092
1021.535	-2809
1021.604	-2825
1021.674	-2824
1021.743	-2007
1021.812	-2601
1021.882	-1977
1021.951	-2827
1022.020	-2684
1022.089	-2172
1022.159	-1784
1022.228	-2434
1022.297	-2155
1022.366	-2461
1022.435	-2398
1022.504	-1631
1022.573	-1649
1022.642	-2273
1022.711	-1601
1022.781	-2447
1022.849	-1917
1022.918	-2853
1022.987	-2350
1023.056	-2034
1023.125	-2145
1023.194	-2390
1023.263	-1922
1023.331	-1898
1023.400	-2189
1023.469	-2354
1023.538	-1559
1023.606	-3349
1023.675	-2029
1023.744	-2326
1023.812	-2213
1023.881	-2151
1023.949	-1510
1024.018	-1880
1024.086	-2878
1024.155	-2747
1024.223	-2546
1024.292	-2142
1024.360	-2390
1024.429	-1892
1024.497	-2881
1024.565	-2485
1024.634	-1564
1024.702	-2450
1024.770	-1638
1024.838	-3227
1024.907	-2079
1024.975	-3034
1025.043	-1993
1025.111	-3422
1025.179	-2435
1025.247	-2273
1025.315	-2656
1025.383	-2892
1025.451	-998
1025.519	-2577
1025.587	-1309
1025.655	-3135
1025.723	-2412
1025.791	-2574
1025.859	-1407
1025.927	-2284
1025.995	-2771
1026.062	-2119
1026.130	-1754
1026.198	-2519
1026.266	-2843
1026.333	-2249
1026.401	-2143
1026.469	-2364
1026.536	-2588
1026.604	-2463
1026.671	-2241
1026.739	-2976
1026.806	-2398
1026.874	-2525
1026.941	-2095
1027.009	-2265
1027.076	-2985
1027.144	-2463
1027.211	-2925
1027.278	-2901
1027.345	-2776
1027.413	-2712
1027.480	-1897
1027.547	-2352
1027.614	-2632
1027.682	-2188
1027.749	-2258
1027.816	-3151
1027.883	-2224
1027.950	-2647
1028.017	-3043
1028.084	-2452
1028.151	-3319
1028.218	-2776
1028.285	-2115
1028.352	-2862
1028.419	-3275
1028.486	-2579
1028.553	-1238
1028.619	-2560
1028.686	-2478
1028.753	-2792
1028.820	-2683
1028.886	-2551
1028.953	-2696
1029.020	-2694
1029.086	-2212
1029.153	-2847
1029.220	-3122
1029.286	-2503
1029.353	-2364
1029.419	-2937
1029.486	-2792
1029.552	-3002
1029.619	-1968
1029.685	-2767
1029.751	-2397
1029.818	-1815
1029.884	-2171
1029.951	-2506
1030.017	-2404
1030.083	-2875
1030.149	-2513
1030.216	-2554
1030.282	-2363
1030.348	-2999
1030.414	-2972
1030.480	-3375
1030.546	-2475
1030.612	-2823
1030.678	-2522
1030.744	-3227
1030.810	-2817
1030.876	-3349
1030.942	-2425
1031.008	-3022
1031.074	-2791
1031.140	-2661
1031.206	-1669
1031.272	-2809
1031.337	-2786
1031.403	-2477
1031.469	-2167
1031.534	-3144
1031.600	-1983
1031.666	-3660
1031.731	-3076
1031.797	-2890
1031.863	-2592
1031.928	-3116
1031.994	-2328
1032.059	-3259
1032.125	-2047
1032.190	-2918
1032.256	-2816
1032.321	-2499
1032.386	-2142
1032.452	-2055
1032.517	-1964
1032.582	-2692
1032.647	-3129
1032.713	-2828
1032.778	-2125
1032.843	-2694
1032.908	-2502
1032.974	-2718
1033.039	-3278
1033.104	-2831
1033.169	-2744
1033.234	-3171
1033.299	-1804
1033.364	-1826
1033.429	-2754
1033.494	-2403
1033.559	-3215
1033.624	-2274
1033.688	-2333
1033.753	-2522
1033.818	-1258
1033.883	-2239
1033.948	-1595
1034.013	-2118
1034.077	-908
1034.142	-650
1034.207	419
1034.271	1473
1034.336	3052
1034.400	593
1034.465	-290
1034.530	-1635
1034.594	-1848
1034.658	-2303
1034.723	-2825
1034.787	-2540
1034.852	-2167
1034.916	-2821
1034.981	-3143
1035.045	-1946
1035.109	-2640
1035.173	-2833
1035.238	-2708
1035.302	-2618
1035.366	-2357
1035.430	-2748
1035.495	-2557
1035.559	-2313
1035.623	-2403
1035.687	-2899
1035.751	-3324
1035.815	-3024
1035.879	-2885
1035.943	-3173
1036.007	-2787
1036.071	-3617
1036.135	-2688
1036.198	-2990
1036.262	-2870
1036.326	-2758
1036.390	-2403
1036.454	-2439
1036.517	-1557
1036.581	-2710
1036.645	-2198
1036.709	-2224
1036.772	-1340
1036.836	-3438
1036.900	-2459
1036.963	-2806
1037.026	-2595
1037.090	-2004
1037.154	-2459
1037.217	-2349
1037.280	-2558
1037.344	-2869
1037.407	-2931
1037.471	-2698
1037.534	-2113
1037.597	-2253
1037.661	-2097
1037.724	-2364
1037.787	-2277
1037.850	-2729
1037.913	-2815
1037.977	-2399
1038.040	-2463
1038.103	-2855
1038.166	-3040
1038.229	-2858
1038.292	-3087
1038.355	-3476
1038.418	-2127
1038.481	-2611
1038.544	-2969
1038.607	-3210
1038.670	-2552
1038.732	-3268
1038.795	-2646
1038.858	-3408
1038.921	-2490
1038.984	-2022
1039.046	-2077
1039.109	-3761
1039.172	-3016
1039.234	-2804
1039.297	-3027
1039.360	-3202
1039.422	-2638
1039.485	-2772
1039.547	-2517
1039.610	-2575
1039.672	-2562
1039.734	-3104
1039.797	-3181
1039.859	-2372
1039.922	-3113
1039.984	-3583
1040.046	-2425
1040.109	-3481
1040.171	-2742
1040.233	-3134
1040.295	-3298
1040.358	-2952
1040.420	-3529
1040.482	-3511
1040.544	-2292
1040.606	-2835
1040.668	-2716
1040.730	-2538
1040.792	-2708
1040.854	-3123
1040.916	-3661
1040.978	-4079
1041.040	-3026
1041.102	-2817
1041.164	-2706
1041.225	-3232
1041.287	-2929
1041.349	-3322
1041.411	-2449
1041.472	-3176
1041.534	-2589
1041.596	-3349
1041.657	-3845
1041.719	-3474
1041.781	-2379
1041.842	-2775
1041.904	-2702
1041.965	-3828
1042.027	-2009
1042.088	-2856
1042.150	-3013
1042.211	-2611
1042.272	-2495
1042.334	-2311
1042.395	-2977
1042.456	-3086
1042.518	-1985
1042.579	-3154
1042.640	-3118
1042.701	-2536
1042.763	-2419
1042.824	-3197
1042.885	-3009
1042.946	-2732
1043.007	-2415
1043.068	-2747
1043.129	-2866
1043.190	-2440
1043.251	-2670
1043.312	-2513
1043.373	-1852
1043.434	-2814
1043.495	-3095
1043.556	-2464
1043.616	-2545
1043.677	-3216
1043.738	-3050
1043.799	-2795
1043.859	-1876
1043.920	-3879
1043.981	-2928
1044.041	-2831
1044.102	-2939
1044.162	-2899
1044.223	-3083
1044.284	-3585
1044.344	-2378
1044.405	-2992
1044.465	-2388
1044.525	-2711
1044.586	-1983
1044.646	-3023
1044.707	-1852
1044.767	-2730
1044.827	-1808
1044.887	-2330
1044.948	-2373
1045.008	-2777
1045.068	-2242
1045.128	-3358
1045.188	-2392
1045.249	-2949
1045.309	-2361
1045.369	-2373
1045.429	-1872
1045.489	-3593
1045.549	-2340
1045.609	-1920
1045.669	-2919
1045.729	-2215
1045.789	-2873
1045.848	-2857
1045.908	-1737
1045.968	-2051
1046.028	-2607
1046.088	-2461
1046.147	-1697
1046.207	-2014
1046.267	-2541
1046.326	-1917
1046.386	-2604
1046.446	-2491
1046.505	-1293
1046.565	-1331
1046.624	-1065
1046.684	-741
1046.743	-807
1046.803	-2056
1046.862	-445
1046.922	0
