'Start Wavelength	183.907
'End Wavelength	1046.922
'Gate Delay	5.000
'Gate Width (ms)	1.050
'Laser Output Level	0.000
'X Position	0.000
'Y Position	0.000
'Z Position	0.000
'Grid Point Number	1.000
'Shot Number	100.000
183.907	870.000
183.977	349.000
184.047	-522
184.116	365
184.186	-10
184.256	-219
184.325	-161
184.395	-648
184.465	883
184.534	336
184.604	-230
184.674	564
184.743	-363
184.813	-151
184.883	-157
184.952	351
185.022	113
185.092	-157
185.161	-457
185.231	4
185.301	-401
185.370	145
185.440	-537
185.509	68
185.579	-200
185.649	428
185.718	-8
185.788	1448
185.857	-115
185.927	135
185.996	-347
186.066	-266
186.136	-19
186.205	-562
186.275	392
186.344	816
186.414	-18
186.483	-71
186.553	145
186.622	111
186.692	543
186.761	-62
186.831	1
186.900	665
186.970	470
187.039	502
187.109	52
187.178	316
187.248	85
187.317	215
187.387	178
187.456	662
187.526	-182
187.595	446
187.664	-11
187.734	142
187.803	-233
187.873	660
187.942	-359
188.012	-18
188.081	-370
188.150	152
188.220	171
188.289	860
188.358	-849
188.428	465
188.497	-661
188.567	-88
188.636	-222
188.705	69
188.775	-444
188.844	-136
188.913	491
188.983	822
189.052	-294
189.121	297
189.191	-472
189.260	1083
189.329	-198
189.399	18
189.468	378
189.537	230
189.606	397
189.676	478
189.745	-12
189.814	393
189.883	-36
189.953	139
190.022	-264
190.091	-164
190.161	-396
190.230	327
190.299	-83
190.368	495
190.437	453
190.507	143
190.576	495
190.645	-145
190.714	341
190.783	372
190.853	-20
190.922	365
190.991	-104
191.060	393
191.129	-1164
191.198	375
191.268	-893
191.337	33
191.406	-17
191.475	494
191.544	-262
191.613	721
191.682	28
191.752	-368
191.821	-1172
191.890	-488
191.959	-493
192.028	381
192.097	-137
192.166	269
192.235	-941
192.304	470
192.373	-636
192.442	91
192.511	-591
192.580	446
192.650	-438
192.719	-264
192.788	61
192.857	-246
192.926	-137
192.995	38
193.064	-772
193.133	177
193.202	-481
193.271	927
193.340	-102
193.409	395
193.478	-554
193.547	-306
193.615	-564
193.684	523
193.753	-423
193.822	920
193.891	-734
193.960	-17
194.029	-610
194.098	-7
194.167	-274
194.236	870
194.305	-498
194.374	-119
194.443	-300
194.512	180
194.580	487
194.649	227
194.718	-340
194.787	624
194.856	-64
194.925	731
194.994	-642
195.062	955
195.131	-882
195.200	114
195.269	-376
195.338	55
195.407	42
195.475	-963
195.544	115
195.613	-202
195.682	10
195.751	-233
195.819	-738
195.888	-496
195.957	207
196.026	-25
196.094	61
196.163	608
196.232	83
196.301	-20
196.369	-46
196.438	264
196.507	-431
196.576	166
196.644	-282
196.713	-77
196.782	-48
196.850	678
196.919	61
196.988	360
197.056	-473
197.125	759
197.194	56
197.262	547
197.331	-127
197.400	-113
197.468	-815
197.537	-336
197.606	-138
197.674	624
197.743	-623
197.812	204
197.880	-15
197.949	-68
198.017	-678
198.086	-109
198.155	-109
198.223	225
198.292	-137
198.360	51
198.429	-521
198.497	427
198.566	-530
198.635	67
198.703	47
198.772	139
198.840	-141
198.909	-124
198.977	-911
199.046	-230
199.114	-322
199.183	660
199.251	160
199.320	-21
199.388	-654
199.457	374
199.525	-155
199.594	123
199.662	-522
199.731	466
199.799	-329
199.867	-43
199.936	-361
200.004	175
200.073	-264
200.141	103
200.210	-345
200.278	-44
200.346	-501
200.415	2
200.483	-585
200.552	106
200.620	25
200.688	140
200.757	-399
200.825	222
200.893	-9
200.962	391
201.030	99
201.098	386
201.167	-437
201.235	-136
201.303	-265
201.372	-192
201.440	16
201.508	77
201.577	-668
201.645	143
201.713	175
201.781	-311
201.850	169
201.918	344
201.986	244
202.055	196
202.123	-586
202.191	174
202.259	-102
202.327	284
202.396	176
202.464	-257
202.532	82
202.600	574
202.669	-387
202.737	238
202.805	-406
202.873	484
202.941	319
203.009	-81
203.078	-507
203.146	632
203.214	-795
203.282	-850
203.350	-779
203.418	-314
203.487	218
203.555	-876
203.623	-239
203.691	-639
203.759	-423
203.827	-551
203.895	-927
203.963	62
204.031	-563
204.099	573
204.168	-861
204.236	417
204.304	163
204.372	318
204.440	544
204.508	80
204.576	-1046
204.644	156
204.712	-667
204.780	380
204.848	-350
204.916	-204
204.984	-85
205.052	76
205.120	-618
205.188	-32
205.256	-866
205.324	129
205.392	-175
205.460	604
205.528	-157
205.596	683
205.664	-194
205.732	-341
205.799	-1239
205.867	-312
205.935	-1342
206.003	440
206.071	-337
206.139	-237
206.207	-408
206.275	-427
206.343	-647
206.411	84
206.478	-666
206.546	485
206.614	-947
206.682	-298
206.750	151
206.818	-220
206.885	-74
206.953	-527
207.021	643
207.089	-5
207.157	-493
207.225	363
207.292	-697
207.360	-5
207.428	-1220
207.496	-708
207.563	192
207.631	-292
207.699	-1011
207.767	-295
207.834	-1527
207.902	-297
207.970	-410
208.038	-345
208.105	-814
208.173	409
208.241	-1137
208.309	-418
208.376	-539
208.444	139
208.512	-1048
208.579	-1054
208.647	-677
208.715	647
208.782	-969
208.850	-357
208.918	-634
208.985	-658
209.053	-808
209.120	-421
209.188	-598
209.256	-200
209.323	-1680
209.391	-1199
209.459	1094
209.526	259
209.594	-1098
209.661	-472
209.729	55
209.796	31
209.864	113
209.932	-1361
209.999	771
210.067	512
210.134	-127
210.202	-618
210.269	-134
210.337	255
210.404	-408
210.472	-1018
210.539	-22
210.607	-440
210.674	-963
210.742	107
210.809	-1136
210.877	-36
210.944	-525
211.012	-844
211.079	606
211.146	-87
211.214	-449
211.281	-868
211.349	-68
211.416	-119
211.484	743
211.551	-732
211.618	-803
211.686	114
211.753	-743
211.821	331
211.888	-1147
211.955	-783
212.023	-1148
212.090	-175
212.157	-122
212.225	-442
212.292	-515
212.359	212
212.427	-885
212.494	-643
212.561	-237
212.629	-899
212.696	-604
212.763	-227
212.831	-1152
212.898	-163
212.965	-562
213.032	755
213.100	-1393
213.167	-164
213.234	28
213.301	115
213.369	-1050
213.436	-733
213.503	-722
213.570	369
213.638	-1370
213.705	-849
213.772	-707
213.839	215
213.906	-538
213.973	347
214.041	-1030
214.108	-485
214.175	-374
214.242	-293
214.309	-532
214.376	-590
214.444	-688
214.511	-164
214.578	-971
214.645	-17
214.712	-200
214.779	-549
214.846	-923
214.913	-528
214.980	188
215.048	202
215.115	136
215.182	-512
215.249	-485
215.316	-522
215.383	526
215.450	-193
215.517	-1080
215.584	-620
215.651	-968
215.718	280
215.785	244
215.852	-507
215.919	-380
215.986	653
216.053	-396
216.120	-1086
216.187	-675
216.254	-97
216.321	-969
216.388	-603
216.455	-612
216.522	270
216.589	-407
216.656	219
216.722	-178
216.789	-321
216.856	-589
216.923	-387
216.990	-991
217.057	309
217.124	-408
217.191	-45
217.258	-401
217.324	222
217.391	-237
217.458	-796
217.525	-574
217.592	317
217.659	-1653
217.725	902
217.792	-766
217.859	681
217.926	-1350
217.993	328
218.059	-261
218.126	-222
218.193	-1623
218.260	-615
218.327	-909
218.393	-862
218.460	-825
218.527	-591
218.594	-368
218.660	-251
218.727	-653
218.794	-913
218.860	-559
218.927	-808
218.994	-99
219.061	-381
219.127	-544
219.194	55
219.261	-430
219.327	-705
219.394	-495
219.461	-801
219.527	-813
219.594	197
219.661	-748
219.727	-963
219.794	270
219.860	-1192
219.927	-137
219.994	-423
220.060	137
220.127	1153
220.193	173
220.260	-1104
220.326	-5
220.393	-862
220.460	-1631
220.526	-995
220.593	-341
220.659	1457
220.726	-1312
220.792	-470
220.859	-711
220.925	198
220.992	-747
221.058	631
221.125	68
221.191	-403
221.258	-1872
221.324	147
221.391	-835
221.457	-824
221.524	-970
221.590	105
221.657	337
221.723	-644
221.789	-395
221.856	476
221.922	-1026
221.989	-277
222.055	-364
222.121	-1571
222.188	1220
222.254	-228
222.321	-547
222.387	-671
222.453	-628
222.520	-241
222.586	-1357
222.652	513
222.719	-1806
222.785	258
222.851	-1213
222.918	-369
222.984	-466
223.050	3
223.116	-1926
223.183	231
223.249	-1405
223.315	-994
223.382	-697
223.448	-515
223.514	-759
223.580	-326
223.647	-652
223.713	-1083
223.779	-1123
223.845	-402
223.911	-763
223.978	-729
224.044	-339
224.110	-402
224.176	140
224.242	42
224.309	-1989
224.375	-246
224.441	-549
224.507	-273
224.573	-2082
224.639	-418
224.705	-1079
224.772	-117
224.838	-1059
224.904	371
224.970	-844
225.036	134
225.102	-1794
225.168	47
225.234	-694
225.300	-157
225.366	-1097
225.432	-199
225.499	-1366
225.565	-998
225.631	-1110
225.697	-714
225.763	-1018
225.829	-129
225.895	-998
225.961	-637
226.027	-747
226.093	-1112
226.159	-137
226.225	-230
226.291	-954
226.357	-55
226.423	-936
226.489	-546
226.554	-452
226.620	-196
226.686	-1215
226.752	-200
226.818	-303
226.884	62
226.950	-542
227.016	58
227.082	-570
227.148	-259
227.214	-17
227.279	-88
227.345	-1085
227.411	270
227.477	-383
227.543	1499
227.609	1623
227.674	1492
227.740	-929
227.806	-289
227.872	-1073
227.938	-391
228.003	-154
228.069	-291
228.135	-596
228.201	-127
228.267	-1062
228.332	-106
228.398	-2137
228.464	390
228.530	-1125
228.595	88
228.661	-1716
228.727	-1231
228.792	633
228.858	-454
228.924	-2080
228.990	2291
229.055	-1676
229.121	-124
229.187	-263
229.252	-657
229.318	-762
229.384	-535
229.449	-654
229.515	-1455
229.581	-1714
229.646	946
229.712	-664
229.777	-751
229.843	-1565
229.909	-469
229.974	-198
230.040	-168
230.105	-2123
230.171	-1025
230.236	-502
230.302	-499
230.368	-1002
230.433	-1469
230.499	-353
230.564	373
230.630	-2307
230.695	2
230.761	-57
230.826	-1453
230.892	-462
230.957	-1150
231.023	-974
231.088	-171
231.154	-1022
231.219	-62
231.284	-1020
231.350	-374
231.415	-1576
231.481	-204
231.546	-975
231.612	-18
231.677	-621
231.742	-821
231.808	764
231.873	-856
231.939	-3423
232.004	820
232.069	-577
232.135	-498
232.200	-1235
232.265	205
232.331	-1537
232.396	342
232.461	-1330
232.527	-560
232.592	-1389
232.657	-313
232.723	-972
232.788	-919
232.853	-161
232.918	203
232.984	-1324
233.049	-759
233.114	-1038
233.179	63
233.245	-873
233.310	220
233.375	-1847
233.440	-219
233.506	-354
233.571	-710
233.636	-1034
233.701	-193
233.766	-940
233.832	132
233.897	-1344
233.962	-1880
234.027	298
234.092	-826
234.157	-703
234.222	-869
234.288	-391
234.353	-1394
234.418	-658
234.483	255
234.548	-726
234.613	-256
234.678	-205
234.743	-915
234.808	-255
234.873	-1363
234.938	981
235.004	-674
235.069	-1152
235.134	-960
235.199	-635
235.264	89
235.329	-2128
235.394	-167
235.459	-359
235.524	-1603
235.589	-514
235.654	-938
235.719	-2112
235.784	-240
235.849	-870
235.913	-1087
235.978	-903
236.043	-557
236.108	-1549
236.173	-1266
236.238	-436
236.303	-435
236.368	-2071
236.433	306
236.498	-1534
236.563	40
236.627	-1116
236.692	396
236.757	-1239
236.822	-73
236.887	-1591
236.952	-26
237.017	-2830
237.081	962
237.146	-2720
237.211	-799
237.276	-723
237.341	174
237.405	-1240
237.470	-810
237.535	7
237.600	-120
237.664	-172
237.729	-1001
237.794	-2444
237.859	245
237.923	-750
237.988	-492
238.053	-375
238.118	-653
238.182	-1612
238.247	1090
238.312	-2022
238.376	-490
238.441	-2586
238.506	454
238.570	-1999
238.635	612
238.700	-1382
238.764	-1099
238.829	-648
238.893	-876
238.958	-490
239.023	-705
239.087	-1437
239.152	-11
239.216	-1011
239.281	-774
239.346	-1052
239.410	-571
239.475	-1033
239.539	-46
239.604	-2059
239.668	622
239.733	-222
239.797	963
239.862	3787
239.926	1811
239.991	598
240.055	681
240.120	-497
240.184	381
240.249	-1879
240.313	47
240.378	-616
240.442	-590
240.507	-604
240.571	-1508
240.635	-1691
240.700	-584
240.764	-488
240.829	-769
240.893	-1432
240.957	-53
241.022	-999
241.086	880
241.151	-1659
241.215	-1003
241.279	4
241.344	-1056
241.408	-720
241.472	-995
241.537	197
241.601	-654
241.665	-2049
241.730	-1601
241.794	860
241.858	-1262
241.922	-1084
241.987	-435
242.051	-1116
242.115	-1583
242.179	-561
242.244	-1199
242.308	45
242.372	-344
242.436	-2019
242.501	-247
242.565	-2117
242.629	-731
242.693	-421
242.757	-930
242.822	-1344
242.886	-732
242.950	136
243.014	-409
243.078	-653
243.142	-1249
243.206	-993
243.271	232
243.335	-1078
243.399	592
243.463	-1017
243.527	536
243.591	-985
243.655	-132
243.719	-1065
243.783	40
243.847	-337
243.911	373
243.975	-2514
244.040	-1573
244.104	695
244.168	-444
244.232	-2004
244.296	-474
244.360	-1093
244.424	-1300
244.488	-480
244.552	-158
244.615	-2147
244.679	-34
244.743	-1778
244.807	-1044
244.871	-808
244.935	351
244.999	-1860
245.063	-1384
245.127	-270
245.191	-656
245.255	-1640
245.319	295
245.383	-2381
245.446	135
245.510	-1429
245.574	-621
245.638	-472
245.702	-1722
245.766	-1026
245.829	335
245.893	-541
245.957	-1270
246.021	134
246.085	-1005
246.149	-1135
246.212	350
246.276	-833
246.340	-942
246.404	-805
246.467	485
246.531	-2480
246.595	-193
246.659	-623
246.722	-1746
246.786	-898
246.850	-338
246.913	-1463
246.977	-1515
247.041	-716
247.104	-356
247.168	-314
247.232	-1072
247.295	-284
247.359	247
247.423	-1296
247.486	-375
247.550	180
247.614	-795
247.677	-671
247.741	-582
247.804	-1374
247.868	-113
247.932	-1537
247.995	729
248.059	-1263
248.122	-783
248.186	410
248.249	-704
248.313	-54
248.376	1636
248.440	-921
248.503	-1772
248.567	418
248.630	-1975
248.694	-337
248.757	280
248.821	387
248.884	1384
248.948	-1490
249.011	-12
249.075	-153
249.138	1241
249.202	-800
249.265	-537
249.328	-420
249.392	-1932
249.455	-373
249.519	-269
249.582	-1334
249.645	-254
249.709	-936
249.772	-49
249.835	-1768
249.899	-443
249.962	-627
250.025	-791
250.089	-918
250.152	357
250.215	-831
250.279	-928
250.342	-141
250.405	-250
250.468	-1636
250.532	-384
250.595	393
250.658	-289
250.721	194
250.785	-233
250.848	-419
250.911	-1260
250.974	-375
251.038	-1618
251.101	-162
251.164	-930
251.227	-201
251.290	-88
251.354	-1001
251.417	190
251.480	-90
251.543	47
251.606	1139
251.669	1217
251.732	-885
251.795	-794
251.859	131
251.922	752
251.985	760
252.048	-16
252.111	-607
252.174	-1693
252.237	225
252.300	1577
252.363	-457
252.426	2248
252.489	-1199
252.552	-446
252.615	-1494
252.678	-797
252.741	-466
252.804	-544
252.867	799
252.930	719
252.993	-168
253.056	-548
253.119	-903
253.182	-1626
253.245	-227
253.308	440
253.371	-1235
253.434	-546
253.497	-566
253.559	398
253.622	-356
253.685	-1075
253.748	-1285
253.811	-326
253.874	-529
253.937	-1032
254.000	-647
254.062	-467
254.125	-673
254.188	171
254.251	-1081
254.314	-928
254.376	-1967
254.439	-616
254.502	-43
254.565	-741
254.628	-280
254.690	-326
254.753	-1540
254.816	-1396
254.878	-1257
254.941	18
255.004	-827
255.067	-274
255.129	-1330
255.192	619
255.255	-1973
255.317	-510
255.380	-1058
255.443	-143
255.505	-1264
255.568	-2057
255.631	-1075
255.693	-506
255.756	-2017
255.819	160
255.881	-1406
255.944	-409
256.006	-919
256.069	-1416
256.132	-452
256.194	-1323
256.257	-572
256.319	-285
256.382	-856
256.444	754
256.507	-291
256.569	-571
256.632	-1052
256.694	-1537
256.757	-190
256.819	-313
256.882	-1685
256.944	-408
257.007	-173
257.069	-419
257.132	-999
257.194	22
257.257	-1329
257.319	-1369
257.381	-1994
257.444	127
257.506	-532
257.569	483
257.631	-935
257.693	-236
257.756	-1592
257.818	-729
257.880	-1421
257.943	-652
258.005	-1769
258.067	-725
258.130	-954
258.192	-576
258.254	-1673
258.317	-657
258.379	-1267
258.441	-1103
258.503	-472
258.566	-686
258.628	-591
258.690	-1505
258.753	-623
258.815	67
258.877	-1944
258.939	22
259.001	-571
259.064	-1001
259.126	-1760
259.188	-573
259.250	-738
259.312	-469
259.375	-1011
259.437	-755
259.499	-841
259.561	-850
259.623	231
259.685	-970
259.747	-1526
259.809	-563
259.872	-768
259.934	172
259.996	-1273
260.058	58
260.120	-1468
260.182	-789
260.244	-660
260.306	-688
260.368	-927
260.430	-1100
260.492	-575
260.554	-7
260.616	-1828
260.678	-1124
260.740	-1191
260.802	-1332
260.864	-231
260.926	-1012
260.988	-231
261.050	-692
261.112	-1639
261.174	57
261.236	-1347
261.298	-829
261.359	-729
261.421	-501
261.483	-1823
261.545	725
261.607	-1269
261.669	-429
261.731	-1089
261.793	299
261.854	-1898
261.916	-333
261.978	-1379
262.040	-462
262.102	-491
262.164	-521
262.225	-870
262.287	-158
262.349	-1158
262.411	-1490
262.472	-1182
262.534	-1705
262.596	-1296
262.658	43
262.719	-1099
262.781	583
262.843	-1229
262.904	-95
262.966	-919
263.028	-1081
263.090	-497
263.151	-633
263.213	-448
263.275	-1019
263.336	-1099
263.398	165
263.459	-1185
263.521	-881
263.583	-843
263.644	-506
263.706	-646
263.767	-1005
263.829	-971
263.891	-748
263.952	-835
264.014	-366
264.075	-2151
264.137	-722
264.198	-409
264.260	-1157
264.321	-983
264.383	-583
264.444	-1301
264.506	-1379
264.567	-1102
264.629	-165
264.690	-1785
264.752	-480
264.813	-153
264.875	-1349
264.936	-569
264.998	-662
265.059	-736
265.120	-163
265.182	-1590
265.243	-917
265.305	-671
265.366	-910
265.427	-726
265.489	710
265.550	-1872
265.611	-1603
265.673	-1664
265.734	-333
265.795	-703
265.857	-849
265.918	-1404
265.979	-127
266.040	-1285
266.102	-1101
266.163	-813
266.224	-385
266.286	-2028
266.347	-1128
266.408	-1768
266.469	-377
266.530	-1085
266.592	-468
266.653	-1203
266.714	-1285
266.775	-630
266.836	-640
266.898	-809
266.959	-600
267.020	-905
267.081	20
267.142	-1225
267.203	-902
267.264	-848
267.326	613
267.387	-1077
267.448	-376
267.509	-327
267.570	-159
267.631	-1426
267.692	-1280
267.753	-1262
267.814	-942
267.875	-1116
267.936	-829
267.997	-1165
268.058	-995
268.119	-1297
268.180	-484
268.241	-649
268.302	-165
268.363	-1044
268.424	-534
268.485	-1778
268.546	-10
268.607	-813
268.668	-347
268.729	-1384
268.790	-787
268.851	-1553
268.912	-643
268.972	-1491
269.033	-844
269.094	-2072
269.155	-153
269.216	-539
269.277	-594
269.338	-934
269.398	-158
269.459	-2041
269.520	-500
269.581	-959
269.642	-699
269.702	-1575
269.763	-1332
269.824	-1302
269.885	-587
269.945	-1144
270.006	-1040
270.067	-885
270.128	-1657
270.188	-957
270.249	-1170
270.310	-1851
270.370	-260
270.431	-1374
270.492	-953
270.553	-924
270.613	-745
270.674	-424
270.734	-1306
270.795	-1148
270.856	-645
270.916	-2064
270.977	-903
271.038	-830
271.098	-184
271.159	-1304
271.219	-673
271.280	-1733
271.340	-411
271.401	-1095
271.462	-1572
271.522	-956
271.583	-958
271.643	-1269
271.704	-484
271.764	-929
271.825	-31
271.885	-57
271.946	762
272.006	-1062
272.066	-43
272.127	456
272.187	2390
272.248	-233
272.308	-540
272.369	-316
272.429	-103
272.489	-1320
272.550	-610
272.610	-830
272.671	-892
272.731	-1351
272.791	-1176
272.852	-1468
272.912	162
272.972	-224
273.033	-291
273.093	-1150
273.153	913
273.214	-310
273.274	-582
273.334	-550
273.394	417
273.455	131
273.515	391
273.575	-869
273.635	871
273.696	451
273.756	1299
273.816	7
273.876	447
273.936	-900
273.997	505
274.057	-508
274.117	-687
274.177	-167
274.237	78
274.297	927
274.358	-938
274.418	-897
274.478	-538
274.538	-1066
274.598	-1473
274.658	-860
274.718	-206
274.778	-1236
274.838	-986
274.898	-655
274.958	-9
275.018	-805
275.078	303
275.138	-1383
275.198	-153
275.258	-1406
275.318	-707
275.378	-842
275.438	-320
275.498	-1237
275.558	-375
275.618	-941
275.678	-312
275.738	-854
275.798	-426
275.858	-1219
275.918	-785
275.978	-949
276.038	-149
276.098	-216
276.157	-887
276.217	-962
276.277	-132
276.337	-1638
276.397	-553
276.457	-1219
276.517	-311
276.576	-232
276.636	-1359
276.696	-1302
276.756	-1019
276.815	-1239
276.875	228
276.935	-1222
276.995	322
277.055	-1256
277.114	318
277.174	-844
277.234	-82
277.293	380
277.353	-221
277.413	342
277.472	9
277.532	46
277.592	1325
277.651	3966
277.711	11630
277.771	3570
277.830	9436
277.890	10714
277.950	5717
278.009	19650
278.069	9658
278.128	7327
278.188	14001
278.248	4886
278.307	12300
278.367	9317
278.426	2321
278.486	1011
278.545	901
278.605	175
278.664	586
278.724	181
278.783	1276
278.843	1456
278.902	844
278.962	168
279.021	1049
279.081	3900
279.140	4789
279.199	63
279.259	2098
279.318	2643
279.378	3841
279.437	6499
279.496	17308
279.556	61175
279.615	59104
279.675	19327
279.734	9348
279.793	8888
279.853	13869
279.912	4565
279.971	3894
280.031	2285
280.090	4300
280.149	7063
280.208	9924
280.268	41493
280.327	53054
280.386	14487
280.445	6910
280.505	3251
280.564	3293
280.623	2011
280.682	1639
280.742	878
280.801	876
280.860	603
280.919	896
280.978	526
281.037	492
281.097	161
281.156	1259
281.215	238
281.274	331
281.333	411
281.392	286
281.451	70
281.510	562
281.569	412
281.628	546
281.688	-262
281.747	580
281.806	-288
281.865	957
281.924	-680
281.983	37
282.042	-756
282.101	616
282.160	-281
282.219	41
282.278	-283
282.337	286
282.396	-724
282.454	156
282.513	-43
282.572	195
282.631	-695
282.690	447
282.749	206
282.808	-186
282.867	-197
282.926	-267
282.985	-217
283.043	-221
283.102	-839
283.161	-224
283.220	-57
283.279	1364
283.338	-346
283.396	-373
283.455	219
283.514	650
283.573	-68
283.631	676
283.690	-238
283.749	510
283.808	1070
283.866	730
283.925	392
283.984	1083
284.043	504
284.101	1142
284.160	433
284.219	1166
284.277	938
284.336	1193
284.395	1127
284.453	2708
284.512	2547
284.570	3158
284.629	3533
284.688	4651
284.746	6420
284.805	7595
284.863	10194
284.922	13162
284.981	15759
285.039	24013
285.098	35979
285.156	61709
285.215	73189
285.273	64904
285.332	70137
285.390	46995
285.449	30057
285.507	21237
285.566	14395
285.624	12097
285.683	8846
285.741	7009
285.799	5337
285.858	4550
285.916	2742
285.975	3667
286.033	2253
286.091	2479
286.150	1146
286.208	2155
286.267	1409
286.325	1720
286.383	1146
286.442	975
286.500	503
286.558	1368
286.616	-245
286.675	521
286.733	0
286.791	429
286.850	-265
286.908	563
286.966	-844
287.024	-27
287.083	279
287.141	311
287.199	590
287.257	-267
287.315	24
287.374	446
287.432	-604
287.490	-91
287.548	-735
287.606	-17
287.664	-956
287.723	341
287.781	-344
287.839	573
287.897	-751
287.955	335
288.013	-1105
288.071	1143
288.129	975
288.187	7224
288.245	3902
288.303	557
288.361	-681
288.419	-2
288.477	-414
288.535	-113
288.593	198
288.651	-213
288.709	-970
288.767	350
288.825	-1974
288.883	-88
288.941	-208
288.999	-7
289.057	-620
289.115	-1334
289.173	-921
289.231	-150
289.289	-1579
289.346	-351
289.404	-661
289.462	-52
289.520	-936
289.578	223
289.636	-88
289.694	-853
289.751	-1314
289.809	-1549
289.867	-693
289.925	558
289.983	-274
290.040	-1085
290.098	-802
290.156	273
290.214	-1273
290.271	-1062
290.329	-173
290.387	-357
290.444	-763
290.502	-411
290.560	-1174
290.617	81
290.675	-1346
290.733	-752
290.790	-380
290.848	585
290.906	-679
290.963	-690
291.021	-698
291.078	-280
291.136	-841
291.194	-441
291.251	-1090
291.309	-9
291.366	-399
291.424	-452
291.481	-1841
291.539	-185
291.596	269
291.654	-681
291.711	-832
291.769	21
291.826	-1302
291.884	-245
291.941	-1128
291.999	-1219
292.056	-688
292.114	-126
292.171	-1000
292.228	-147
292.286	-516
292.343	-264
292.401	-570
292.458	-216
292.515	-691
292.573	-625
292.630	-869
292.687	-551
292.745	-1131
292.802	-603
292.859	314
292.917	1927
292.974	-58
293.031	427
293.089	-982
293.146	-154
293.203	-576
293.260	-612
293.318	-854
293.375	-1383
293.432	-1710
293.489	52
293.546	-499
293.604	493
293.661	1842
293.718	4307
293.775	1430
293.832	370
293.889	690
293.947	1589
294.004	-299
294.061	73
294.118	-720
294.175	389
294.232	2366
294.289	2270
294.346	188
294.403	545
294.460	-1006
294.517	-379
294.574	-737
294.631	-444
294.688	-31
294.745	-65
294.802	289
294.859	168
294.916	-633
294.973	13
295.030	-656
295.087	-285
295.144	-326
295.201	-526
295.258	-886
295.315	86
295.372	-554
295.429	-123
295.486	-242
295.542	-195
295.599	-1064
295.656	-444
295.713	-799
295.770	754
295.827	-1401
295.883	-221
295.940	-933
295.997	-361
296.054	-1428
296.111	-1004
296.167	-337
296.224	-77
296.281	-1547
296.338	-1233
296.394	-1606
296.451	-901
296.508	-1112
296.564	295
296.621	-659
296.678	798
296.734	1649
296.791	-218
296.848	-384
296.904	-773
296.961	-611
297.018	-179
297.074	-498
297.131	-503
297.187	-446
297.244	267
297.301	378
297.357	2026
297.414	-887
297.470	-112
297.527	-1084
297.583	-535
297.640	-1102
297.696	-749
297.753	-1106
297.809	-614
297.866	-1187
297.922	-647
297.979	-1499
298.035	-1072
298.092	-2049
298.148	29
298.204	-268
298.261	438
298.317	-304
298.374	1525
298.430	554
298.486	202
298.543	-1732
298.599	-403
298.656	-1175
298.712	-1077
298.768	-1547
298.824	-891
298.881	-1243
298.937	566
298.993	-612
299.050	-719
299.106	-1533
299.162	-914
299.218	-746
299.275	-572
299.331	-743
299.387	1335
299.443	1837
299.500	7404
299.556	6282
299.612	2588
299.668	1049
299.724	4787
299.780	8666
299.837	3276
299.893	1130
299.949	4118
300.005	7407
300.061	5369
300.117	9585
300.173	5716
300.229	1174
300.285	1151
300.341	84
300.397	95
300.453	-990
300.510	404
300.566	270
300.622	2704
300.678	8888
300.734	15278
300.790	6864
300.845	3868
300.901	4844
300.957	8822
301.013	3771
301.069	1654
301.125	864
301.181	651
301.237	288
301.293	-282
301.349	-490
301.405	-802
301.461	-510
301.516	17
301.572	-901
301.628	-200
301.684	-616
301.740	-721
301.796	-1090
301.851	37
301.907	-189
301.963	819
302.019	307
302.074	5967
302.130	8265
302.186	3631
302.242	-470
302.297	-361
302.353	-229
302.409	539
302.464	-223
302.520	71
302.576	-418
302.631	1371
302.687	-691
302.743	-372
302.798	-1206
302.854	-545
302.910	-1190
302.965	-1289
303.021	-917
303.076	240
303.132	-1515
303.187	-928
303.243	-1857
303.299	-949
303.354	-969
303.410	-461
303.465	-668
303.521	-625
303.576	-693
303.632	114
303.687	-1219
303.743	115
303.798	1102
303.853	-57
303.909	-369
303.964	-123
304.020	-1000
304.075	-275
304.130	-1439
304.186	-194
304.241	67
304.297	27
304.352	-773
304.358	-739
304.407	-467
304.449	-122
304.463	-5
304.518	-284
304.539	-644
304.573	-1235
304.629	-632
304.630	-641
304.684	-1036
304.720	-217
304.739	197
304.794	1548
304.811	1339
304.850	829
304.902	-1254
304.905	-1393
304.960	-1217
304.992	-1200
305.015	-1190
305.071	-524
305.083	-608
305.126	-890
305.173	-570
305.181	-513
305.236	-1457
305.264	-643
305.292	129
305.347	-514
305.354	-449
305.402	78
305.445	-45
305.457	-114
305.512	-38
305.535	-381
305.567	-837
305.622	-757
305.626	-777
305.678	-958
305.716	-161
305.733	157
305.788	182
305.807	93
305.843	-24
305.897	235
305.898	236
305.953	762
305.988	205
306.008	-49
306.063	-132
306.078	-298
306.118	-722
306.168	-165
306.173	-113
306.228	-932
306.259	-501
306.283	-173
306.338	-365
306.349	-355
306.393	-392
306.440	-513
306.448	-485
306.503	30
306.530	-192
306.558	-600
306.613	267
306.620	155
306.668	-312
306.711	68
306.723	110
306.778	-154
306.801	219
306.833	828
306.888	-292
306.892	-268
306.943	53
306.982	13
306.997	-9
307.052	9
307.072	-145
307.107	-405
307.162	-398
307.163	-401
307.217	-370
307.253	-89
307.272	62
307.327	-446
307.343	-70
307.381	696
307.434	229
307.436	213
307.491	461
307.524	560
307.546	523
307.600	335
307.614	148
307.655	-312
307.704	153
307.710	239
307.765	-293
307.795	104
307.819	322
307.874	454
307.885	514
307.929	784
307.975	277
307.984	218
308.038	854
308.065	990
308.093	1482
308.148	2955
308.156	3292
308.202	5036
308.246	7017
308.257	7158
308.312	3984
308.336	3092
308.366	2436
308.421	1441
308.426	1388
308.475	1206
308.517	912
308.530	793
308.585	1094
308.607	1055
308.639	1281
308.694	1463
308.697	1495
308.748	2075
308.787	2191
308.803	2171
308.857	2108
308.877	2073
308.912	2326
308.967	3454
308.967	3478
309.021	6193
309.058	8009
309.076	8972
309.130	13066
309.148	14096
309.185	18098
309.238	24448
309.239	24527
309.293	31120
309.328	33764
309.348	32589
309.402	23121
309.418	20335
309.457	15969
309.508	11528
309.511	11481
309.566	13671
309.598	16021
309.620	19596
309.674	30922
309.688	34359
309.729	36065
309.778	31947
309.783	31237
309.837	19989
309.868	14315
309.892	11714
309.946	7553
309.959	6886
310.001	5804
310.049	4828
310.055	4656
310.109	3845
310.139	3136
310.163	2610
310.218	1813
310.229	1656
310.272	1857
310.319	2293
310.326	2265
310.381	2016
310.409	1872
310.435	1728
310.489	1188
310.499	1162
310.543	1433
310.589	1607
310.598	1627
310.652	1744
310.679	1737
310.706	1584
310.760	1293
310.769	1236
310.814	1096
310.859	1209
310.868	1276
310.923	1326
310.948	1355
310.977	1503
311.031	1766
311.038	1837
311.085	1564
311.128	879
311.139	826
311.193	943
311.218	879
311.247	1011
311.301	1344
311.308	1374
311.356	1322
311.398	1387
311.410	1354
311.464	950
311.488	852
311.518	981
311.572	1070
311.578	1083
311.626	1000
311.668	918
311.680	959
311.734	1149
311.758	1186
311.788	1289
311.842	1554
311.847	1569
311.896	1606
311.937	1698
311.950	1671
312.004	1463
312.027	1395
312.058	1280
312.112	1034
312.117	1009
312.165	1273
312.207	1495
312.297	1517
312.386	813
312.476	828
312.566	901
312.656	1329
312.745	1007
312.835	1788
312.925	1234
313.015	1188
313.104	606
313.194	1765
313.284	995
313.374	1680
313.463	1946
313.553	1011
313.643	1352
313.732	2211
313.822	1675
313.912	2362
314.001	2065
314.091	2690
314.180	2071
314.270	1952
314.360	1507
314.449	2207
314.539	1879
314.628	1174
314.718	1600
314.808	2259
314.897	2198
314.987	3025
315.076	2641
315.166	2111
315.255	2280
315.345	2830
315.434	1980
315.524	2474
315.613	2777
315.703	3025
315.792	6503
315.881	18558
315.971	6001
316.060	3035
316.150	2822
316.239	2671
316.328	1924
316.418	2134
316.507	2182
316.597	3065
316.686	2718
316.775	2112
316.865	2453
316.954	2197
317.043	1985
317.133	1551
317.222	1718
317.311	1599
317.400	456
317.490	2668
317.579	2086
317.668	2155
317.757	3730
317.847	10963
317.936	28795
318.025	9346
318.114	7213
318.203	3214
318.293	2846
318.382	2764
318.471	3564
318.560	3733
318.649	3219
318.738	1856
318.828	1735
318.917	651
319.006	966
319.095	1492
319.184	1944
319.273	1134
319.362	1180
319.451	1978
319.540	1550
319.629	1263
319.718	1441
319.807	1853
319.896	1685
319.985	2322
320.074	1979
320.163	1819
320.252	1457
320.341	1475
320.430	1131
320.519	2135
320.608	2300
320.697	2470
320.786	2787
320.875	2732
320.964	3093
321.053	3919
321.142	3956
321.230	4322
321.319	4133
321.408	5480
321.497	4671
321.586	4243
321.675	3696
321.764	3361
321.852	3195
321.941	3131
322.030	3199
322.119	2854
322.207	5396
322.296	5398
322.385	5981
322.474	6816
322.562	7468
322.651	5737
322.740	3815
322.829	4512
322.917	3150
323.006	3228
323.095	2693
323.183	2749
323.272	2709
323.361	2638
323.449	2690
323.538	1250
323.626	2199
323.715	2186
323.804	1779
323.892	2101
323.981	1859
324.069	2837
324.158	2384
324.246	2255
324.335	2128
324.424	2246
324.512	1977
324.601	1564
324.689	1458
324.778	1210
324.866	1922
324.954	1475
325.043	1112
325.131	863
325.220	2040
325.308	2251
325.397	1548
325.485	1535
325.574	1362
325.662	2124
325.750	60
325.839	2068
325.927	1628
326.015	756
326.104	1238
326.192	522
326.280	1274
326.369	1650
326.457	1605
326.545	1334
326.634	1475
326.722	1919
326.810	1773
326.898	1691
326.987	2111
327.075	935
327.163	1910
327.251	1083
327.340	1526
327.428	2649
327.516	2702
327.604	2350
327.692	1690
327.781	1492
327.869	1621
327.957	840
328.045	1025
328.133	1812
328.221	965
328.309	1682
328.397	962
328.485	2450
328.574	2700
328.662	3546
328.750	1810
328.838	1606
328.926	1611
329.014	1000
329.102	1762
329.190	1684
329.278	982
329.366	1331
329.454	1564
329.542	1798
329.630	790
329.718	1944
329.806	1052
329.893	1186
329.981	890
330.069	1471
330.157	1892
330.245	2017
330.333	1385
330.421	1351
330.509	1201
330.597	1860
330.684	1067
330.772	1574
330.860	860
330.948	1586
331.036	1333
331.123	1709
331.211	1899
331.299	1413
331.387	2007
331.475	1520
331.562	898
331.650	1352
331.738	791
331.825	1914
331.913	1751
332.001	1099
332.089	1349
332.176	1447
332.264	1639
332.352	963
332.439	1265
332.527	1667
332.614	1297
332.702	1413
332.790	1001
332.877	1875
332.965	4630
333.052	4173
333.140	4820
333.228	11596
333.315	3727
333.403	2685
333.490	3390
333.578	4763
333.665	16958
333.753	6790
333.840	2144
333.928	3162
334.015	3414
334.103	3486
334.190	4695
334.278	5068
334.365	8073
334.452	7696
334.540	5067
334.627	5024
334.715	6365
334.802	8852
334.889	13302
334.977	18770
335.064	12384
335.151	5978
335.239	4095
335.326	3515
335.413	3541
335.501	4404
335.588	4172
335.675	5150
335.762	5004
335.850	7782
335.937	10151
336.024	17054
336.111	25670
336.199	25112
336.286	12322
336.373	5849
336.460	4994
336.547	3517
336.635	2854
336.722	2263
336.809	2537
336.896	2209
336.983	2693
337.070	3138
337.157	2232
337.245	1777
337.332	2328
337.419	2213
337.506	1686
337.593	2591
337.680	1981
337.767	2244
337.854	1356
337.941	1444
338.028	1611
338.115	981
338.202	1595
338.289	1033
338.376	1457
338.463	2391
338.550	1880
338.637	1915
338.724	1701
338.811	1793
338.898	1869
338.984	1531
339.071	486
339.158	2362
339.245	1685
339.332	2537
339.419	1640
339.506	1781
339.593	-39
339.679	1558
339.766	1148
339.853	1273
339.940	1570
340.027	865
340.113	1394
340.200	956
340.287	1479
340.374	1168
340.460	1366
340.547	318
340.634	1609
340.720	2061
340.807	477
340.894	1774
340.980	588
341.067	1311
341.154	1553
341.240	921
341.327	1625
341.414	2022
341.500	1163
341.587	2862
341.674	1426
341.760	1796
341.847	1465
341.933	1157
342.020	1008
342.106	1618
342.193	1683
342.279	1478
342.366	1019
342.452	1633
342.539	1824
342.625	1783
342.712	1078
342.798	1237
342.885	874
342.971	846
343.058	892
343.144	1089
343.230	991
343.317	1649
343.403	901
343.490	1085
343.576	777
343.662	1959
343.749	1148
343.835	1071
343.921	1639
344.008	4127
344.094	7045
344.180	1626
344.267	802
344.353	1598
344.439	675
344.525	1032
344.612	2266
344.698	1559
344.784	454
344.870	1972
344.957	884
345.043	1681
345.129	196
345.215	1163
345.301	1445
345.387	810
345.474	1149
345.560	514
345.646	-118
345.732	1002
345.818	1469
345.904	1123
345.990	393
346.076	1857
346.162	414
346.249	1687
346.335	770
346.421	858
346.507	907
346.593	2688
346.679	73
346.765	2874
346.851	2214
346.937	1789
347.023	2521
347.108	1193
347.194	1093
347.280	1344
347.366	2415
347.452	5059
347.538	5757
347.624	4595
347.710	2438
347.796	1379
347.882	1038
347.967	1346
348.053	386
348.139	1410
348.225	1636
348.311	-70
348.397	1767
348.482	1810
348.568	1726
348.654	2371
348.740	7533
348.825	6816
348.911	4180
348.997	2771
349.083	3147
349.168	1163
349.254	1127
349.340	1310
349.425	1366
349.511	916
349.597	342
349.682	1042
349.768	2620
349.854	2258
349.939	1922
350.025	1190
350.110	1499
350.196	1488
350.282	1122
350.367	1902
350.453	1691
350.538	1262
350.624	402
350.709	2170
350.795	868
350.880	1098
350.966	2256
351.051	1745
351.137	1581
351.222	1381
351.308	1168
351.393	1537
351.479	1617
351.564	972
351.649	1081
351.735	1242
351.820	977
351.906	1288
351.991	680
352.076	1664
352.162	1757
352.247	1251
352.332	936
352.418	468
352.503	407
352.588	2417
352.673	1053
352.759	1274
352.844	709
352.929	715
353.014	616
353.100	2269
353.185	1970
353.270	536
353.355	1417
353.441	2224
353.526	809
353.611	929
353.696	610
353.781	2131
353.866	35
353.952	2259
354.037	644
354.122	1351
354.207	1421
354.292	1583
354.377	1227
354.462	1057
354.547	552
354.632	963
354.717	1317
354.802	-244
354.887	619
354.972	742
355.057	1738
355.142	982
355.227	1861
355.312	1090
355.397	524
355.482	1260
355.567	441
355.652	1790
355.737	813
355.822	1861
355.907	226
355.991	2872
356.076	691
356.161	1435
356.246	1509
356.331	1252
356.416	976
356.501	4424
356.585	2273
356.670	792
356.755	3385
356.840	2183
356.924	2975
357.009	6911
357.094	3730
357.179	1270
357.263	653
357.348	2355
357.433	1952
357.517	1226
357.602	1048
357.687	1156
357.771	2231
357.856	1957
357.941	2095
358.025	3193
358.110	9530
358.195	4937
358.279	1150
358.364	1765
358.448	1866
358.533	3892
358.617	2074
358.702	2512
358.787	1132
358.871	1686
358.956	1314
359.040	1243
359.125	1537
359.209	2031
359.294	1807
359.378	2401
359.462	2116
359.547	1620
359.631	138
359.716	601
359.800	1594
359.885	2514
359.969	-18
360.053	1772
360.138	1524
360.222	1291
360.306	952
360.391	2236
360.475	1382
360.559	1190
360.644	2221
360.728	684
360.812	2977
360.896	4807
360.981	2012
361.065	865
361.149	2429
361.233	1310
361.318	1274
361.402	2049
361.486	2414
361.570	2031
361.654	2297
361.739	1742
361.823	3228
361.907	6004
361.991	2583
362.075	3139
362.159	4179
362.243	9256
362.327	19988
362.411	30460
362.495	11472
362.580	5220
362.664	6116
362.748	5892
362.832	9837
362.916	18466
363.000	54905
363.084	70768
363.168	26674
363.252	9046
363.336	4619
363.420	4949
363.503	3667
363.587	3648
363.671	3108
363.755	2521
363.839	4542
363.923	3973
364.007	5202
364.091	7033
364.175	10194
364.258	26191
364.342	59653
364.426	103652
364.510	53237
364.594	17012
364.677	8660
364.761	6492
364.845	5030
364.929	3183
365.013	2813
365.096	2907
365.180	2022
365.264	2667
365.347	2772
365.431	1079
365.515	862
365.598	1106
365.682	3685
365.766	1271
365.849	1936
365.933	1601
366.017	4002
366.100	1201
366.184	1265
366.267	2946
366.351	3175
366.435	1747
366.518	1767
366.602	2677
366.685	1755
366.769	1675
366.852	1980
366.936	1671
367.019	2402
367.103	106
367.186	2876
367.270	1965
367.353	1714
367.436	2230
367.520	2943
367.603	3467
367.687	949
367.770	1668
367.853	3156
367.937	3137
368.020	2913
368.104	786
368.187	2637
368.270	2280
368.353	1430
368.437	1666
368.520	1641
368.603	1678
368.687	946
368.770	2402
368.853	1454
368.936	1790
369.020	2300
369.103	1745
369.186	1141
369.269	804
369.352	1581
369.436	1183
369.519	2060
369.602	381
369.685	2620
369.768	554
369.851	2740
369.934	928
370.018	1043
370.101	935
370.184	3743
370.267	2345
370.350	1988
370.433	2562
370.516	4825
370.599	10853
370.682	3395
370.765	4234
370.848	4177
370.931	2811
371.014	3652
371.097	1236
371.180	2279
371.263	3034
371.346	777
371.429	3866
371.511	1608
371.594	3396
371.677	3646
371.760	4804
371.843	4070
371.926	8075
372.009	13024
372.091	10672
372.174	4940
372.257	6003
372.340	4467
372.423	5653
372.505	5896
372.588	3681
372.671	4861
372.754	3892
372.836	3647
372.919	4405
373.002	4337
373.085	3166
373.167	4628
373.250	3291
373.332	4065
373.415	8639
373.498	10835
373.580	6676
373.663	18325
373.746	16137
373.828	4117
373.911	3926
373.993	1836
374.076	3645
374.159	2764
374.241	2253
374.324	2286
374.406	3440
374.489	4227
374.571	8372
374.654	3231
374.736	3276
374.819	5588
374.901	8795
374.983	6820
375.066	3654
375.148	3108
375.231	2579
375.313	3317
375.395	2531
375.478	2429
375.560	3764
375.643	3480
375.725	2949
375.807	4906
375.890	5598
375.972	1357
376.054	2887
376.136	2108
376.219	2598
376.301	3437
376.383	3362
376.465	3508
376.548	1963
376.630	1829
376.712	4508
376.794	2291
376.877	2260
376.959	1288
377.041	1425
377.123	1462
377.205	2571
377.287	955
377.369	1501
377.452	1408
377.534	2044
377.616	1881
377.698	2356
377.780	629
377.862	2275
377.944	2783
378.026	543
378.108	2123
378.190	1346
378.272	2849
378.354	1664
378.436	1508
378.518	1244
378.600	1581
378.682	1693
378.764	1663
378.846	2524
378.928	1493
379.010	929
379.091	2473
379.173	1965
379.255	1402
379.337	1367
379.419	1551
379.501	2840
379.583	2152
379.664	2034
379.746	744
379.828	3902
379.910	2001
379.991	2653
380.073	979
380.155	2263
380.237	2015
380.318	2053
380.400	2184
380.482	2085
380.564	1912
380.645	2615
380.727	2641
380.809	2960
380.890	2464
380.972	2050
381.053	2620
381.135	3898
381.217	1585
381.298	4140
381.380	2278
381.461	3115
381.543	4535
381.624	4824
381.706	2592
381.787	3073
381.869	3532
381.951	4258
382.032	7869
382.113	8664
382.195	2802
382.276	5678
382.358	5210
382.439	5975
382.521	8969
382.602	12224
382.684	11780
382.765	19951
382.846	54273
382.928	111738
383.009	63474
383.090	57548
383.172	141331
383.253	161454
383.334	59314
383.416	25872
383.497	20468
383.578	25012
383.659	49637
383.741	130614
383.822	209737
383.903	112450
383.984	36897
384.066	20217
384.147	12201
384.228	9577
384.309	8362
384.390	7410
384.471	5948
384.553	5406
384.634	6354
384.715	5506
384.796	5254
384.877	5297
384.958	6698
385.039	4322
385.120	3947
385.201	5165
385.282	5087
385.363	5276
385.444	6104
385.525	5548
385.606	6102
385.687	5995
385.768	4060
385.849	3924
385.930	7088
386.011	9986
386.092	5002
386.173	4031
386.254	3888
386.335	4220
386.416	3339
386.496	3188
386.577	3765
386.658	2319
386.739	2493
386.820	4372
386.901	2999
386.981	3989
387.062	4616
387.143	4259
387.224	4910
387.304	6953
387.385	6535
387.466	3909
387.547	6593
387.627	5090
387.708	6332
387.789	7062
387.869	5437
387.950	6313
388.031	3161
388.111	1518
388.192	4365
388.273	5722
388.353	3774
388.434	2596
388.514	2576
388.595	4279
388.676	4629
388.756	3044
388.837	3297
388.917	2252
388.998	1038
389.078	3329
389.159	2715
389.239	419
389.320	3429
389.400	529
389.480	2864
389.561	2517
389.641	3244
389.722	2185
389.802	1116
389.883	2419
389.963	3867
390.043	1765
390.124	1079
390.204	2855
390.284	1993
390.365	1251
390.445	2526
390.525	1830
390.605	2611
390.686	1223
390.766	3229
390.846	3148
390.927	1810
391.007	1645
391.087	2981
391.167	2264
391.247	912
391.328	3138
391.408	2202
391.488	3479
391.568	584
391.648	2939
391.728	3149
391.808	4371
391.888	2201
391.969	3810
392.049	2597
392.129	3436
392.209	4640
392.289	6063
392.369	4887
392.449	4433
392.529	4570
392.609	7279
392.689	7680
392.769	8314
392.849	10070
392.929	14520
393.009	19084
393.089	27791
393.169	53897
393.248	127153
393.328	238543
393.408	218553
393.488	109647
393.568	47681
393.648	24759
393.728	15027
393.807	10621
393.887	9467
393.967	7549
394.047	6464
394.127	5640
394.206	5573
394.286	5688
394.366	14312
394.446	15076
394.525	5474
394.605	3148
394.685	3844
394.764	4349
394.844	7341
394.924	9120
395.003	3823
395.083	3373
395.163	2582
395.242	3131
395.322	2828
395.402	1503
395.481	4866
395.561	3807
395.640	13560
395.720	24931
395.799	11407
395.879	4600
395.958	4036
396.038	6407
396.117	22198
396.197	21772
396.276	8156
396.356	5615
396.435	7948
396.515	11840
396.594	18411
396.673	42185
396.753	117392
396.832	212207
396.912	148578
396.991	52543
397.070	23999
397.150	12224
397.229	13065
397.308	22222
397.388	40037
397.467	18006
397.546	7416
397.625	3039
397.705	5401
397.784	3215
397.863	3318
397.942	3525
398.022	2573
398.101	2096
398.180	3676
398.259	1537
398.338	3384
398.417	1628
398.497	1602
398.576	1971
398.655	911
398.734	1398
398.813	1758
398.892	1605
398.971	2482
399.050	1156
399.129	1107
399.208	1948
399.287	1578
399.366	421
399.445	1031
399.524	1798
399.603	-355
399.682	1821
399.761	792
399.840	2107
399.919	1811
399.998	529
400.077	444
400.156	-623
400.235	3297
400.313	116
400.392	279
400.471	1985
400.550	1793
400.629	-187
400.708	1270
400.786	37
400.865	1162
400.944	-501
401.023	2294
401.102	145
401.180	781
401.259	977
401.338	-336
401.416	1105
401.495	200
401.574	607
401.652	-142
401.731	802
401.810	-831
401.888	171
401.967	-190
402.046	211
402.124	810
402.203	-371
402.281	797
402.360	139
402.438	57
402.517	-823
402.596	139
402.674	-570
402.753	371
402.831	702
402.910	1188
402.988	238
403.066	2595
403.145	3015
403.223	1919
403.302	2496
403.380	2601
403.459	1753
403.537	1168
403.615	394
403.694	-1096
403.772	793
403.850	901
403.929	-438
404.007	558
404.085	1194
404.164	144
404.242	-91
404.320	1620
404.398	1290
404.477	1438
404.555	3770
404.633	3196
404.711	1386
404.789	1431
404.868	374
404.946	-499
405.024	586
405.102	50
405.180	-457
405.258	-1436
405.336	360
405.415	-445
405.493	918
405.571	745
405.649	-573
405.727	-439
405.805	1720
405.883	1584
405.961	574
406.039	-74
406.117	-723
406.195	497
406.273	-325
406.351	2358
406.429	1393
406.507	-433
406.585	-679
406.663	257
406.740	-516
406.818	-1314
406.896	111
406.974	542
407.052	-1349
407.130	1400
407.208	1505
407.285	1011
407.363	-743
407.441	261
407.519	-380
407.596	29
407.674	448
407.752	2696
407.830	1682
407.907	1315
407.985	-356
408.063	9
408.141	-1049
408.218	1566
408.296	-334
408.373	24
408.451	1078
408.529	647
408.606	515
408.684	1258
408.762	804
408.839	251
408.917	938
408.994	1192
409.072	640
409.149	1980
409.227	3824
409.304	6216
409.382	6964
409.459	8064
409.537	11568
409.614	8851
409.692	6545
409.769	6889
409.846	11291
409.924	14938
410.001	7178
410.079	5859
410.156	4647
410.233	3123
410.311	2282
410.388	2550
410.465	2438
410.543	1370
410.620	1917
410.697	1856
410.775	1728
410.852	642
410.929	2199
411.006	3182
411.083	747
411.161	1182
411.238	1641
411.315	821
411.392	1356
411.469	1469
411.547	1657
411.624	-513
411.701	112
411.778	758
411.855	-86
411.932	99
412.009	214
412.086	777
412.163	224
412.240	238
412.317	740
412.394	132
412.471	209
412.548	949
412.625	364
412.702	16
412.779	438
412.856	563
412.933	-38
413.010	968
413.087	539
413.164	292
413.241	423
413.318	-327
413.395	1006
413.471	-349
413.548	478
413.625	531
413.702	-819
413.779	643
413.855	458
413.932	198
414.009	-168
414.086	-202
414.162	460
414.239	421
414.316	-407
414.393	1737
414.469	-510
414.546	579
414.623	-149
414.699	464
414.776	-153
414.853	-644
414.929	458
415.006	-492
415.082	-33
415.159	-374
415.236	-198
415.312	123
415.389	395
415.465	-599
415.542	-390
415.618	-823
415.695	196
415.771	-460
415.848	331
415.924	539
416.000	226
416.077	655
416.153	-806
416.230	-632
416.306	-751
416.383	-322
416.459	1003
416.535	-731
416.612	101
416.688	-17
416.764	-490
416.841	-54
416.917	-235
416.993	908
417.069	408
417.146	-883
417.222	-486
417.298	506
417.374	-954
417.451	384
417.527	-17
417.603	175
417.679	-409
417.755	-62
417.831	-516
417.908	-272
417.984	-385
418.060	-950
418.136	-144
418.212	-116
418.288	-436
418.364	1178
418.440	-912
418.516	861
418.592	-109
418.668	130
418.744	-723
418.820	570
418.896	109
418.972	-576
419.048	-148
419.124	1244
419.200	-860
419.276	339
419.352	-480
419.428	675
419.504	-38
419.579	27
419.655	6
419.731	694
419.807	111
419.883	597
419.959	483
420.034	1288
420.110	393
420.186	429
420.262	1700
420.337	936
420.413	647
420.489	1719
420.565	2146
420.640	1431
420.716	1969
420.792	455
420.867	2869
420.943	1207
421.019	3025
421.094	2055
421.170	2654
421.245	3053
421.321	3598
421.397	3220
421.472	5515
421.548	5711
421.623	5744
421.699	6703
421.774	7845
421.850	8362
421.925	9845
422.001	12803
422.076	15505
422.152	18253
422.227	25329
422.302	35980
422.378	54609
422.453	87681
422.529	141305
422.604	162868
422.679	128175
422.755	150502
422.830	135346
422.905	90154
422.981	58158
423.056	40724
423.131	30471
423.207	21579
423.282	16835
423.357	14520
423.432	11629
423.508	10804
423.583	7691
423.658	6938
423.733	6668
423.808	5406
423.883	5489
423.959	6721
424.034	7127
424.109	7460
424.184	4336
424.259	3479
424.334	3809
424.409	3247
424.484	2843
424.559	3365
424.634	1671
424.709	1342
424.784	2124
424.859	2007
424.934	652
425.009	2001
425.084	985
425.159	1001
425.234	1690
425.309	809
425.384	1459
425.459	1349
425.534	1344
425.609	1043
425.683	1136
425.758	1483
425.833	542
425.908	1636
425.983	-18
426.058	1389
426.132	1205
426.207	580
426.282	1147
426.357	-43
426.431	-72
426.506	1194
426.581	803
426.655	937
426.730	315
426.805	697
426.879	1342
426.954	-180
427.029	275
427.103	757
427.178	1096
427.253	878
427.327	1286
427.402	443
427.476	306
427.551	230
427.625	26
427.700	1401
427.774	-220
427.849	866
427.923	-103
427.998	212
428.072	1603
428.147	4085
428.221	19861
428.296	56331
428.370	27684
428.444	4174
428.519	1178
428.593	899
428.667	785
428.742	2143
428.816	8145
428.890	35567
428.965	49144
429.039	11457
429.113	1747
429.188	860
429.262	504
429.336	877
429.410	575
429.485	836
429.559	557
429.633	1172
429.707	1106
429.781	7216
429.855	32490
429.930	42874
430.004	11160
430.078	6015
430.152	24306
430.226	77025
430.300	69918
430.374	14463
430.448	4717
430.522	2366
430.596	2460
430.670	11232
430.744	45819
430.818	43464
430.892	7982
430.966	1652
431.040	358
431.114	20
431.188	297
431.262	345
431.336	109
431.410	511
431.484	-395
431.557	586
431.631	3
431.705	2887
431.779	15781
431.853	55831
431.927	34036
432.000	5235
432.074	1339
432.148	454
432.222	-896
432.295	-307
432.369	-716
432.443	-208
432.516	-665
432.590	1523
432.664	801
432.737	-978
432.811	-1308
432.885	-15
432.958	402
433.032	-512
433.106	-1519
433.179	-109
433.253	-759
433.326	118
433.400	-210
433.473	-352
433.547	-1632
433.620	-346
433.694	-1337
433.767	-272
433.841	-900
433.914	-62
433.988	-743
434.061	-532
434.134	-273
434.208	-883
434.281	-1550
434.355	25
434.428	-366
434.501	-574
434.575	-1261
434.648	-718
434.721	-811
434.795	-1285
434.868	-1110
434.941	159
435.014	-14
435.088	107
435.161	339
435.234	1010
435.307	1346
435.381	2014
435.454	3469
435.527	6963
435.600	5648
435.673	4820
435.746	3422
435.819	2000
435.892	1363
435.966	470
436.039	224
436.112	246
436.185	279
436.258	338
436.331	-1384
436.404	-372
436.477	-321
436.550	-604
436.623	-122
436.696	-65
436.769	-175
436.842	-272
436.915	-534
436.987	-923
437.060	-658
437.133	-773
437.206	-1047
437.279	-977
437.352	-954
437.425	-410
437.498	-1420
437.570	-474
437.643	-951
437.716	-161
437.789	-1052
437.861	-320
437.934	-81
438.007	-725
438.080	-1470
438.152	-488
438.225	-451
438.298	256
438.370	2642
438.443	432
438.516	-594
438.588	-572
438.661	-1623
438.734	-1037
438.806	-173
438.879	-491
438.951	158
439.024	-1455
439.096	-128
439.169	-304
439.241	-1264
439.314	-95
439.386	-1093
439.459	-387
439.531	-1079
439.604	1
439.676	-123
439.749	-1391
439.821	-1305
439.893	-660
439.966	-55
440.038	-1269
440.110	-929
440.183	-1358
440.255	-1374
440.327	57
440.400	-118
440.472	874
440.544	406
440.617	-806
440.689	534
440.761	-174
440.833	-640
440.905	-321
440.978	-1058
441.050	-1055
441.122	195
441.194	-596
441.266	-547
441.338	-658
441.411	-387
441.483	401
441.555	85
441.627	192
441.699	-888
441.771	-1111
441.843	166
441.915	-402
441.987	295
442.059	780
442.131	300
442.203	1304
442.275	1937
442.347	4068
442.419	10475
442.491	50353
442.563	99781
442.635	43189
442.706	8091
442.778	3670
442.850	1793
442.922	1445
442.994	906
443.066	1800
443.137	2474
443.209	3879
443.281	5988
443.353	16678
443.425	61029
443.496	156764
443.568	163769
443.640	70786
443.711	16329
443.783	6181
443.855	3656
443.926	2782
443.998	1180
444.070	1136
444.141	588
444.213	730
444.285	575
444.356	171
444.428	521
444.499	236
444.571	485
444.642	1195
444.714	-136
444.785	1299
444.857	1575
444.928	1848
445.000	877
445.071	2446
445.143	4090
445.214	6299
445.285	13376
445.357	34686
445.428	112353
445.500	189793
445.571	158456
445.642	104110
445.714	35841
445.785	11810
445.856	3816
445.928	2717
445.999	2066
446.070	973
446.141	1081
446.213	374
446.284	-127
446.355	866
446.426	-291
446.497	628
446.569	337
446.640	-259
446.711	-201
446.782	-380
446.853	23
446.924	76
446.995	-1059
447.066	-105
447.138	-1009
447.209	185
447.280	-1549
447.351	-844
447.422	-845
447.493	-1102
447.564	-1171
447.635	-1145
447.706	-1597
447.777	-582
447.847	-1915
447.918	-1361
447.989	-1296
448.060	-695
448.131	-992
448.202	-710
448.273	-616
448.344	-667
448.414	-887
448.485	-655
448.556	-196
448.627	-838
448.698	-920
448.768	-1026
448.839	-455
448.910	-875
448.981	-301
449.051	-127
449.122	-1080
449.193	-1358
449.263	-504
449.334	-723
449.405	-577
449.475	-798
449.546	-225
449.616	-464
449.687	-190
449.758	-588
449.828	-1356
449.899	-747
449.969	-1186
450.040	-735
450.110	-646
450.181	-265
450.251	-208
450.322	-710
450.392	-846
450.463	-1075
450.533	-894
450.604	-594
450.674	-942
450.744	-213
450.815	-856
450.885	401
450.955	600
451.026	-344
451.096	-735
451.166	-793
451.237	81
451.307	-251
451.377	1153
451.447	-391
451.518	-755
451.588	-775
451.658	-328
451.728	-961
451.799	-812
451.869	-402
451.939	-1056
452.009	-533
452.079	-685
452.149	110
452.219	-288
452.289	-711
452.360	-137
452.430	519
452.500	926
452.570	1520
452.640	7259
452.710	17795
452.780	19108
452.850	9788
452.920	2797
452.990	1638
453.060	933
453.129	254
453.199	-722
453.269	-500
453.339	-683
453.409	-872
453.479	668
453.549	355
453.619	-408
453.688	-618
453.758	180
453.828	-964
453.898	-856
453.968	-1295
454.037	-1010
454.087	-792
454.107	-710
454.168	-946
454.177	-991
454.247	-717
454.249	-717
454.316	-994
454.330	-926
454.386	-677
454.411	-787
454.456	-1044
454.492	-933
454.525	-830
454.574	-485
454.595	-346
454.655	-740
454.665	-820
454.734	-1043
454.736	-1016
454.804	-486
454.817	-387
454.873	-10
454.898	-291
454.943	-850
454.979	-719
455.013	-593
455.060	-258
455.082	-138
455.141	-628
455.152	-717
455.221	387
455.222	381
455.291	-1026
455.303	-882
455.360	-262
455.384	-167
455.430	-181
455.465	-160
455.499	-133
455.546	-504
455.569	-678
455.627	453
455.638	639
455.707	-602
455.708	-593
455.777	-333
455.789	-290
455.846	-148
455.869	-274
455.916	-553
455.950	-473
455.985	-507
456.031	-776
456.054	-844
456.112	-546
456.124	-517
456.193	258
456.193	251
456.262	53
456.274	66
456.332	-21
456.355	-77
456.401	-163
456.436	-253
456.470	-364
456.516	-420
456.540	-468
456.597	-170
456.609	-133
456.678	853
456.678	847
456.747	-443
456.759	-297
456.817	555
456.840	370
456.886	-110
456.920	167
456.955	504
457.001	441
457.024	277
457.082	440
457.093	521
457.162	1134
457.163	1147
457.232	563
457.243	571
457.301	1074
457.324	977
457.370	547
457.405	1265
457.439	2082
457.485	1959
457.508	1870
457.566	2743
457.577	3079
457.646	4393
457.647	4442
457.715	14054
457.727	16272
457.784	31360
457.808	41298
457.853	51696
457.889	58908
457.922	55327
457.969	35782
457.991	38066
458.050	49476
458.060	51786
458.129	90470
458.130	91600
458.198	82278
458.211	73648
458.267	40570
458.292	26499
458.336	16106
458.372	14559
458.405	22687
458.453	38140
458.474	50206
458.533	94533
458.543	97639
458.611	141302
458.614	142146
458.680	80945
458.694	61815
458.749	26871
458.775	17652
458.818	9463
458.855	7005
458.887	5613
458.936	4485
458.955	4096
459.016	2964
459.024	2885
459.093	3094
459.097	3074
459.162	1743
459.177	1718
459.230	2369
459.257	2399
459.299	2130
459.338	2186
459.368	2303
459.418	2256
459.437	2094
459.499	1412
459.505	1414
459.574	1715
459.579	1760
459.643	1600
459.659	1523
459.711	1650
459.740	1643
459.780	1522
459.820	1604
459.849	1790
459.900	1477
459.917	1237
459.981	1309
459.986	1338
460.054	1730
460.061	1724
460.123	1178
460.141	1168
460.191	1468
460.222	1282
460.260	1126
460.302	1290
460.328	1254
460.382	1656
460.397	1783
460.462	1367
460.465	1361
460.534	2112
460.543	2182
460.602	5814
460.623	7332
460.671	10943
460.703	14199
460.739	13173
460.783	10190
460.808	8627
460.864	2992
460.876	2462
460.944	1350
460.945	1340
461.013	1627
461.024	1694
461.081	1937
461.104	1872
461.150	1730
461.184	1829
461.218	2070
461.264	2057
461.286	1804
461.345	1428
461.355	1417
461.423	1776
461.425	1764
461.491	1408
461.505	1529
461.559	2007
461.585	1750
461.628	1015
461.665	986
461.696	1330
461.745	1779
461.764	1926
461.825	2035
461.832	1990
461.901	1933
461.905	1913
461.969	1424
461.985	1335
462.037	2311
462.065	2798
462.105	2180
462.145	1648
462.173	1671
462.225	1521
462.241	1468
462.305	1584
462.310	1629
462.378	1747
462.385	1812
462.446	2383
462.465	2621
462.514	2521
462.545	2256
462.582	2073
462.625	2022
462.650	1947
462.705	1753
462.718	1831
462.785	2070
462.786	2059
462.854	1320
462.865	1184
462.922	1433
462.945	1680
462.990	1604
463.025	1473
463.058	1876
463.104	2131
463.126	1813
463.184	1499
463.194	1632
463.262	2042
463.264	2063
463.330	2072
463.344	2069
463.398	2449
463.424	2542
463.466	1828
463.504	1402
463.533	1763
463.583	2254
463.601	2254
463.663	1926
463.669	1831
463.737	1118
463.743	1035
463.805	1828
463.823	2066
463.873	2449
463.903	2750
463.940	2513
463.982	2116
464.008	2124
464.062	2094
464.076	1927
464.142	1376
464.144	1412
464.211	2287
464.221	2443
464.279	2158
464.301	2080
464.347	2255
464.381	2364
464.414	1944
464.461	1248
464.482	1512
464.540	2307
464.550	2197
464.617	1553
464.620	1523
464.685	2038
464.699	2123
464.753	2096
464.779	2156
464.820	2179
464.859	2086
464.888	1829
464.938	1489
464.956	1902
465.018	3412
465.023	3316
465.091	1684
465.098	1552
465.158	1903
465.177	1963
465.226	2017
465.257	2065
465.293	2015
465.336	1806
465.361	1863
465.416	2112
465.428	2282
465.495	3171
465.496	3171
465.563	2162
465.575	1963
465.631	2212
465.654	2377
465.698	2404
465.734	2341
465.765	2168
465.813	1851
465.833	1781
465.893	1669
465.900	1760
465.968	2415
465.972	2463
466.035	2242
466.052	2159
466.102	2233
466.131	2269
466.170	1928
466.210	1583
466.237	1915
466.290	2556
466.304	2438
466.369	1825
466.372	1860
466.439	2828
466.449	2951
466.506	2412
466.528	2231
466.573	3005
466.607	3516
466.641	3170
466.687	2749
466.708	2683
466.766	2426
466.775	2470
466.842	2788
466.845	2797
466.909	2356
466.925	2253
466.977	2789
467.004	3067
467.044	2737
467.083	2402
467.111	2659
467.163	3117
467.178	2908
467.242	2012
467.245	2055
467.312	2912
467.321	3022
467.379	2731
467.400	2616
467.446	3129
467.480	3494
467.559	4321
467.638	2792
467.717	3734
467.796	3504
467.875	3866
467.955	4342
468.034	5688
468.113	6276
468.192	9157
468.271	10974
468.350	16565
468.429	24819
468.508	27818
468.588	15977
468.667	7413
468.746	6037
468.825	5141
468.904	4804
468.983	4847
469.062	4393
469.141	4313
469.220	3899
469.299	3686
469.378	2623
469.456	4176
469.535	3582
469.614	3094
469.693	3861
469.772	3884
469.851	4713
469.930	5023
470.009	5977
470.088	8611
470.166	16799
470.245	35922
470.324	47167
470.403	26500
470.482	11430
470.560	7062
470.639	4978
470.718	4642
470.797	4357
470.875	3427
470.954	2541
471.033	4071
471.111	3881
471.190	3259
471.269	2629
471.347	2967
471.426	2538
471.505	3030
471.583	2592
471.662	3342
471.740	3276
471.819	3112
471.898	2193
471.976	3183
472.055	2847
472.133	2769
472.212	3539
472.290	2333
472.369	1611
472.447	3182
472.526	2034
472.604	3829
472.683	2962
472.761	3186
472.839	2419
472.918	2836
472.996	2817
473.075	4566
473.153	3354
473.231	2951
473.310	3206
473.388	3232
473.466	3573
473.545	2924
473.623	2638
473.701	3397
473.780	3790
473.858	1770
473.936	4325
474.014	2954
474.093	2753
474.171	3939
474.249	3456
474.327	2688
474.405	2247
474.484	3552
474.562	2621
474.640	3592
474.718	3086
474.796	2885
474.874	3347
474.952	2994
475.030	3203
475.108	2948
475.187	2463
475.265	3518
475.343	3683
475.421	3556
475.499	2553
475.577	3126
475.655	3137
475.733	2874
475.811	3162
475.889	2710
475.966	3449
476.044	2869
476.122	2255
476.200	2330
476.278	2298
476.356	3513
476.434	2639
476.512	3090
476.590	2974
476.667	3232
476.745	2983
476.823	4245
476.901	2940
476.979	2389
477.056	3154
477.134	2535
477.212	2484
477.290	2879
477.367	2278
477.445	2465
477.523	1469
477.601	1921
477.678	2676
477.756	3687
477.834	2416
477.911	2565
477.989	2108
478.066	3106
478.144	2246
478.222	2748
478.299	2712
478.377	3307
478.454	2854
478.532	2637
478.609	2389
478.687	2976
478.764	2102
478.842	2377
478.919	2312
478.997	3215
479.074	3152
479.152	2509
479.229	2571
479.307	1717
479.384	2252
479.461	3260
479.539	1728
479.616	2217
479.694	2498
479.771	2326
479.848	1616
479.926	1802
480.003	3139
480.080	2327
480.157	2467
480.235	3067
480.312	2763
480.389	2940
480.467	2992
480.544	3460
480.621	4939
480.698	4925
480.775	3758
480.853	3389
480.930	2675
481.007	2441
481.084	3698
481.161	3151
481.238	3344
481.315	3535
481.392	2519
481.470	3134
481.547	3176
481.624	3780
481.701	4486
481.778	3299
481.855	3920
481.932	5202
482.009	5843
482.086	6329
482.163	7232
482.240	8909
482.317	9476
482.393	7845
482.470	6391
482.547	5664
482.624	5273
482.701	5203
482.778	4664
482.855	5216
482.932	4496
483.009	5873
483.085	7241
483.162	7338
483.239	8254
483.316	7857
483.393	8997
483.469	7503
483.546	6701
483.623	5634
483.699	3443
483.776	3549
483.853	4021
483.930	3622
484.006	3016
484.083	5891
484.160	4809
484.236	4052
484.313	3779
484.389	4688
484.466	6027
484.543	8175
484.619	11802
484.696	14195
484.772	7364
484.849	5522
484.925	4888
485.002	4190
485.078	4174
485.155	3263
485.231	2811
485.308	3277
485.384	2119
485.461	4134
485.537	2596
485.614	4205
485.690	3058
485.766	3372
485.843	2338
485.919	3054
485.995	2751
486.072	3491
486.148	2422
486.224	2752
486.301	2519
486.377	3558
486.453	2230
486.530	3180
486.606	3376
486.682	2996
486.758	3639
486.835	3299
486.911	2902
486.987	6425
487.063	5731
487.139	5837
487.215	7822
487.292	9160
487.368	11815
487.444	16040
487.520	23632
487.596	35852
487.672	91098
487.748	309633
487.824	464399
487.900	129569
487.976	30013
488.052	15888
488.128	10399
488.204	6615
488.280	6869
488.356	5952
488.432	5736
488.508	5769
488.584	4159
488.660	4536
488.736	3827
488.812	2785
488.888	3214
488.964	4007
489.039	4595
489.115	4982
489.191	4853
489.267	3567
489.343	2427
489.418	3183
489.494	3214
489.570	2813
489.646	4861
489.722	3483
489.797	2747
489.873	3806
489.949	3770
490.024	3781
490.100	3384
490.176	3484
490.251	4072
490.327	4066
490.403	3455
490.478	3826
490.554	4045
490.629	4124
490.705	3165
490.781	3528
490.856	3185
490.932	2946
491.007	2546
491.083	2484
491.158	2322
491.234	3176
491.309	3085
491.385	1783
491.460	2807
491.536	3525
491.611	2338
491.686	3550
491.762	2223
491.837	3298
491.913	3106
491.988	4168
492.063	3468
492.139	3570
492.214	2722
492.289	3665
492.365	2536
492.440	3457
492.515	1408
492.590	2757
492.666	1985
492.741	3105
492.816	2439
492.891	1892
492.967	2828
493.042	3431
493.117	1774
493.192	3630
493.267	3418
493.342	4355
493.418	4803
493.493	2630
493.568	2271
493.643	2789
493.718	1917
493.793	3042
493.868	2311
493.943	3167
494.018	2989
494.093	2621
494.168	3176
494.243	2847
494.318	2539
494.393	4045
494.468	2301
494.543	3539
494.618	2934
494.693	2838
494.768	2163
494.842	2922
494.917	3836
494.992	2637
495.067	1748
495.142	2810
495.217	2803
495.292	2820
495.366	2798
495.441	1871
495.516	3233
495.591	3086
495.665	4648
495.740	7784
495.815	4598
495.890	2564
495.964	1073
496.039	4575
496.114	2959
496.188	4020
496.263	3720
496.338	3287
496.412	2473
496.487	3246
496.561	2525
496.636	3466
496.710	2659
496.785	2684
496.860	2455
496.934	3026
497.009	3727
497.083	2508
497.158	2592
497.232	3612
497.307	3866
497.381	4331
497.455	3791
497.530	2682
497.604	2782
497.679	4033
497.753	3120
497.827	2937
497.902	2596
497.976	3724
498.050	4494
498.125	6504
498.199	6021
498.273	3725
498.348	3342
498.422	4449
498.496	5096
498.570	5497
498.645	3686
498.719	1079
498.793	3127
498.867	2975
498.941	2801
499.016	3883
499.090	5658
499.164	3782
499.238	3480
499.312	3898
499.386	3833
499.460	4973
499.534	4702
499.609	5848
499.683	3712
499.757	3578
499.831	2362
499.905	4107
499.979	4111
500.053	2840
500.127	3192
500.201	3343
500.275	4330
500.349	4221
500.422	3933
500.496	4959
500.570	4861
500.644	8266
500.718	7084
500.792	3587
500.866	3250
500.940	2284
501.013	2738
501.087	3237
501.161	3051
501.235	815
501.309	4982
501.382	3798
501.456	4719
501.530	3255
501.603	2068
501.677	1538
501.751	1236
501.825	4264
501.898	2255
501.972	2941
502.046	2705
502.119	2361
502.193	3333
502.266	2395
502.340	2170
502.413	2952
502.487	2885
502.561	1720
502.634	3384
502.708	3105
502.781	2630
502.855	4191
502.928	1476
503.002	3399
503.075	1719
503.149	2231
503.222	3119
503.295	2199
503.369	3438
503.442	2576
503.516	4618
503.589	5735
503.662	6210
503.736	7818
503.809	11969
503.882	14794
503.956	22572
504.029	49813
504.102	159185
504.175	227248
504.249	73971
504.322	23558
504.395	12787
504.468	8113
504.542	5440
504.615	3795
504.688	3451
504.761	1717
504.834	3951
504.907	2016
504.980	3148
505.053	2241
505.127	-820
505.200	4845
505.273	1369
505.346	1014
505.419	973
505.492	2494
505.565	1985
505.638	2596
505.711	1036
505.784	958
505.857	897
505.930	2417
506.003	20
506.076	3702
506.149	941
506.221	380
506.294	3253
506.367	291
506.440	1607
506.513	2215
506.586	1562
506.659	1774
506.731	639
506.804	1189
506.877	757
506.950	1946
507.022	1485
507.095	381
507.168	990
507.241	3089
507.313	985
507.386	817
507.459	1752
507.531	819
507.604	1567
507.677	1985
507.749	-649
507.822	2588
507.894	598
507.967	2082
508.040	616
508.112	2294
508.185	1716
508.257	-43
508.330	2129
508.402	1229
508.475	1366
508.547	2055
508.620	1519
508.692	1444
508.765	1715
508.837	616
508.909	1157
508.982	1527
509.054	998
509.127	1120
509.199	1121
509.271	381
509.344	873
509.416	1049
509.488	488
509.560	2091
509.633	1151
509.705	1468
509.777	609
509.849	1577
509.922	-1204
509.994	389
510.066	1832
510.138	-402
510.210	3389
510.283	446
510.355	819
510.427	1869
510.499	524
510.571	574
510.643	705
510.715	2273
510.787	-321
510.859	2565
510.931	44
511.003	1406
511.076	1960
511.148	690
511.219	323
511.291	1750
511.363	1381
511.435	1428
511.507	179
511.579	2448
511.651	1964
511.723	934
511.795	725
511.867	1386
511.939	1440
512.010	590
512.082	2171
512.154	-273
512.226	975
512.298	2335
512.369	1362
512.441	2358
512.513	1834
512.585	393
512.656	2592
512.728	2212
512.800	622
512.871	2136
512.943	1358
513.015	9
513.086	2142
513.158	1847
513.230	553
513.301	509
513.373	3068
513.444	610
513.516	1303
513.588	1361
513.659	2558
513.731	929
513.802	510
513.874	4002
513.945	2632
514.016	727
514.088	1774
514.159	-517
514.231	1081
514.302	2334
514.374	1476
514.445	30
514.516	3601
514.588	1165
514.659	1613
514.730	1125
514.802	4009
514.873	-445
514.944	3530
515.016	1975
515.087	2035
515.158	1501
515.229	2933
515.301	988
515.372	3120
515.443	1530
515.514	2630
515.585	1323
515.656	2843
515.728	3925
515.799	2255
515.870	4216
515.941	4094
516.012	3317
516.083	4852
516.154	5325
516.225	9394
516.296	12954
516.367	15523
516.438	20684
516.509	26502
516.580	44802
516.651	180327
516.722	609287
516.793	169201
516.864	37225
516.935	37868
517.006	49265
517.077	62239
517.148	146647
517.219	756556
517.289	968157
517.360	108613
517.431	30513
517.502	16552
517.573	15056
517.643	12063
517.714	13391
517.785	16298
517.856	19474
517.926	29775
517.997	39218
518.068	53875
518.138	74347
518.209	118854
518.280	475355
518.350	1523508
518.421	466014
518.492	74982
518.562	42604
518.633	41943
518.703	50351
518.774	108944
518.845	299668
518.915	257051
518.986	62673
519.056	26396
519.127	18051
519.197	13033
519.268	8277
519.338	8095
519.408	5053
519.479	4881
519.549	4454
519.620	5688
519.690	3982
519.760	3857
519.831	2896
519.901	2398
519.971	3204
520.042	1814
520.112	2016
520.182	2886
520.253	2311
520.323	1815
520.393	1729
520.463	4095
520.534	-131
520.604	4159
520.674	2316
520.744	791
520.814	467
520.885	2727
520.955	1354
521.025	1733
521.095	1981
521.165	2962
521.235	1323
521.305	1108
521.375	2088
521.445	2647
521.515	1223
521.585	2197
521.655	150
521.725	1863
521.795	2397
521.865	-836
521.935	3933
522.005	993
522.075	2260
522.145	3227
522.215	657
522.285	1741
522.355	1322
522.424	1866
522.494	279
522.564	2083
522.634	2212
522.704	4733
522.774	866
522.843	2452
522.913	1510
522.983	1185
523.053	633
523.122	2838
523.192	1711
523.262	1717
523.331	1540
523.401	2953
523.471	1780
523.540	2809
523.610	1410
523.680	3019
523.749	1836
523.819	2026
523.888	1625
523.958	1256
524.027	2438
524.097	2082
524.166	1732
524.236	1209
524.305	4077
524.375	1355
524.444	537
524.514	3202
524.583	1779
524.653	505
524.722	3058
524.791	1111
524.861	4236
524.930	1811
524.999	2387
525.069	3714
525.138	3299
525.207	3034
525.277	4415
525.346	3083
525.415	5690
525.484	4397
525.554	6542
525.623	8168
525.692	11980
525.761	14806
525.830	20923
525.900	29174
525.969	46272
526.038	85662
526.107	194642
526.176	561125
526.245	391344
526.314	112145
526.383	278053
526.452	340410
526.522	562280
526.591	439597
526.660	66112
526.729	45118
526.797	52275
526.867	67403
526.935	209748
527.004	867729
527.073	444241
527.142	52275
527.211	21961
527.280	13587
527.349	9549
527.418	5819
527.487	6458
527.555	4308
527.624	4366
527.693	2668
527.762	4824
527.831	2552
527.899	3916
527.968	3173
528.037	891
528.106	3451
528.174	3266
528.243	1975
528.312	1736
528.380	1354
528.449	1524
528.518	3031
528.586	138
528.655	2350
528.723	1420
528.792	1239
528.861	848
528.929	1105
528.998	2697
529.066	2436
529.135	2213
529.203	993
529.272	46
529.340	1743
529.409	3726
529.477	682
529.545	421
529.614	3414
529.682	-131
529.751	1075
529.819	4493
529.887	1105
529.956	367
530.024	2510
530.092	1608
530.161	2599
530.229	1417
530.297	650
530.365	2778
530.434	1620
530.502	1430
530.570	2167
530.638	160
530.707	1721
530.775	3022
530.843	885
530.911	1915
530.979	2107
531.047	1092
531.115	2541
531.183	1249
531.252	2995
531.320	1545
531.388	517
531.456	2080
531.524	472
531.592	2945
531.660	3423
531.728	445
531.796	273
531.864	2073
531.932	1760
532.000	726
532.067	1928
532.135	1638
532.203	2976
532.271	1181
532.339	3222
532.407	3506
532.475	3034
532.542	2479
532.610	2351
532.678	972
532.746	5464
532.814	5434
532.881	2657
532.949	2831
533.017	2564
533.084	1674
533.152	2172
533.220	2699
533.287	1231
533.355	2338
533.423	2788
533.490	1721
533.558	2316
533.625	2918
533.693	1649
533.761	2871
533.828	1659
533.896	2082
533.963	4330
534.031	4191
534.098	4932
534.166	5032
534.233	4462
534.300	6383
534.368	7330
534.435	6541
534.503	8367
534.570	10599
534.637	12940
534.705	15879
534.772	20440
534.840	45270
534.907	246708
534.974	256306
535.041	24677
535.109	10398
535.176	6185
535.243	5887
535.310	5164
535.378	4843
535.445	5328
535.512	5494
535.579	5119
535.646	4950
535.714	4954
535.781	6643
535.848	5175
535.915	6855
535.982	3405
536.049	4753
536.116	5926
536.183	4476
536.250	4694
536.317	4454
536.384	5724
536.451	5566
536.518	5318
536.585	2818
536.652	6756
536.719	6562
536.786	3281
536.853	5260
536.920	6040
536.987	5998
537.053	4207
537.120	7304
537.187	7249
537.254	5014
537.321	6284
537.388	8101
537.454	5635
537.521	6198
537.588	5164
537.654	7199
537.721	6482
537.788	6574
537.855	4913
537.921	5730
537.988	5667
538.055	6446
538.121	3763
538.188	5538
538.254	4646
538.321	5170
538.388	6249
538.454	6405
538.521	7052
538.587	5988
538.654	5604
538.720	6279
538.787	5517
538.853	6266
538.920	6052
538.986	4862
539.053	5266
539.119	4484
539.185	5045
539.252	7008
539.318	5007
539.385	7970
539.451	4302
539.517	6597
539.583	6480
539.650	5583
539.716	5715
539.782	5849
539.849	4490
539.915	6615
539.981	4515
540.047	4947
540.114	5614
540.180	6779
540.246	5328
540.312	6888
540.378	5948
540.444	6737
540.510	6569
540.576	7282
540.643	5886
540.709	4430
540.775	5820
540.841	5843
540.907	5711
540.973	6364
541.039	5477
541.105	5491
541.171	5713
541.237	6245
541.303	7326
541.369	7798
541.435	5977
541.500	6179
541.566	4828
541.632	4976
541.698	6050
541.764	7332
541.830	5872
541.896	5749
541.961	6894
542.027	5626
542.093	7070
542.159	6271
542.224	5717
542.290	6415
542.356	5768
542.421	6356
542.487	6397
542.553	5336
542.618	5102
542.684	6002
542.750	5256
542.815	6785
542.881	4521
542.947	6823
543.012	7501
543.078	5527
543.143	4454
543.209	5864
543.274	5417
543.340	5511
543.405	6281
543.471	6188
543.536	7008
543.602	6691
543.667	4808
543.732	8017
543.798	5684
543.863	7099
543.928	5481
543.994	5826
544.059	7327
544.124	7057
544.190	6507
544.255	6533
544.320	6502
544.386	6713
544.451	7409
544.516	7228
544.581	6370
544.646	6897
544.712	8835
544.777	7545
544.842	7150
544.907	7185
544.972	7826
545.037	7754
545.102	7461
545.168	8055
545.233	8722
545.298	8837
545.363	7869
545.428	8938
545.493	10021
545.558	8840
545.623	8918
545.688	8310
545.753	9866
545.818	9632
545.883	9827
545.947	10172
546.012	11028
546.077	10696
546.142	13250
546.207	11543
546.272	13906
546.337	13618
546.401	13930
546.466	14848
546.531	13317
546.596	17555
546.661	17329
546.725	18584
546.790	18497
546.855	21148
546.919	22363
546.984	25689
547.049	28201
547.113	32957
547.178	34657
547.243	41386
547.307	47582
547.372	53244
547.436	51209
547.501	55427
547.565	58961
547.630	53895
547.695	52393
547.759	51930
547.823	52304
547.888	54546
547.952	55142
548.017	56653
548.081	58104
548.146	59623
548.210	59823
548.274	64665
548.339	64204
548.403	58660
548.468	54094
548.532	53368
548.596	55671
548.660	54169
548.725	61098
548.789	66463
548.853	63676
548.917	61037
548.982	58822
549.046	53824
549.110	48151
549.174	50435
549.238	57272
549.303	64157
549.367	65369
549.431	63445
549.495	58233
549.559	58901
549.623	67363
549.687	74487
549.751	72426
549.815	89635
549.879	87286
549.943	84188
550.007	89832
550.071	87477
550.135	78631
550.199	74506
550.263	73170
550.327	69537
550.391	70380
550.455	79934
550.519	83801
550.582	90199
550.646	101865
550.710	103326
550.774	102229
550.838	104959
550.901	107927
550.965	113968
551.029	121909
551.093	132612
551.156	148272
551.220	178246
551.284	204544
551.347	143508
551.411	114836
551.475	106837
551.538	110904
551.602	102624
551.666	96762
551.729	90928
551.793	86901
551.856	86944
551.920	86063
551.983	85169
552.047	83706
552.110	84313
552.174	84169
552.237	89324
552.301	81512
552.364	79789
552.428	75709
552.491	79315
552.554	81755
552.618	81329
552.681	84947
552.745	86536
552.808	113887
552.871	131853
552.934	96409
552.998	83636
553.061	79664
553.124	75404
553.187	74426
553.251	77064
553.314	77076
553.377	77300
553.440	83195
553.503	82382
553.567	82217
553.630	82906
553.693	81948
553.756	83880
553.819	79984
553.882	76467
553.945	77783
554.008	77094
554.071	78739
554.134	80067
554.197	74667
554.260	73728
554.323	74544
554.386	75125
554.449	79308
554.512	78235
554.575	73913
554.638	74594
554.701	73445
554.764	72600
554.827	69982
554.889	67938
554.952	64400
555.015	63205
555.078	63353
555.141	65333
555.203	63923
555.266	63317
555.329	60412
555.391	60498
555.454	58773
555.517	58334
555.580	54910
555.642	53849
555.705	52130
555.768	53450
555.830	52171
555.893	48407
555.955	46433
556.018	46430
556.080	46019
556.143	48845
556.206	46637
556.268	46303
556.330	44921
556.393	43751
556.455	42716
556.518	42051
556.580	41049
556.643	38328
556.705	38118
556.767	36219
556.830	36725
556.892	36334
556.955	35629
557.017	35174
557.079	35807
557.142	34830
557.204	33635
557.266	35037
557.328	32066
557.391	28879
557.453	28279
557.515	30878
557.577	30388
557.639	31108
557.701	32037
557.764	31132
557.826	33458
557.888	37104
557.950	38475
558.012	42966
558.074	57988
558.136	152142
558.198	332906
558.260	92184
558.322	42283
558.384	43481
558.446	46608
558.508	54219
558.570	62570
558.632	73672
558.694	94967
558.756	158598
558.818	497113
558.880	947798
558.942	318990
559.003	366045
559.065	142706
559.127	64298
559.189	62123
559.251	68631
559.312	99788
559.374	262082
559.436	748569
559.498	289507
559.559	73277
559.621	62490
559.683	70994
559.744	121633
559.806	416965
559.868	501968
559.929	94470
559.991	69544
560.052	118879
560.114	337508
560.176	173078
560.237	199089
560.299	275249
560.360	47486
560.422	22833
560.483	18410
560.545	16841
560.606	15857
560.667	14573
560.729	12909
560.790	12693
560.852	12353
560.913	12446
560.974	11571
561.036	11314
561.097	11830
561.158	11676
561.220	11572
561.281	10568
561.342	10193
561.403	10522
561.465	10088
561.526	11195
561.587	11534
561.648	8720
561.709	9108
561.771	8939
561.832	9287
561.893	9210
561.954	8518
562.015	8334
562.076	9136
562.137	8879
562.198	8870
562.259	8792
562.320	8918
562.381	8074
562.442	8900
562.503	8730
562.564	7840
562.625	8147
562.686	7859
562.747	7505
562.808	8262
562.869	7781
562.930	8436
562.991	7271
563.051	7591
563.112	7318
563.173	6601
563.234	5899
563.294	6925
563.355	6060
563.416	7446
563.477	7370
563.537	7176
563.598	7113
563.659	7787
563.720	6451
563.780	6870
563.841	6095
563.901	6298
563.962	6398
564.023	6451
564.083	6974
564.144	7051
564.204	6257
564.265	6097
564.325	5464
564.386	7214
564.446	6625
564.507	6886
564.567	5769
564.628	6401
564.688	6284
564.749	5439
564.809	6212
564.869	6818
564.930	6536
564.990	6883
565.050	5726
565.111	6103
565.171	5915
565.231	5497
565.292	7823
565.352	5608
565.412	6901
565.472	5665
565.532	6369
565.593	5793
565.653	5576
565.713	6501
565.773	5425
565.833	6610
565.893	6770
565.953	6228
566.013	5677
566.074	6958
566.134	6170
566.194	5742
566.254	5480
566.314	5157
566.374	4909
566.434	5975
566.494	4875
566.554	5701
566.614	5783
566.673	6057
566.733	6981
566.793	6158
566.853	6694
566.913	5784
566.973	6348
567.033	6182
567.092	5487
567.152	6352
567.212	7122
567.272	6883
567.331	6366
567.391	7590
567.451	6267
567.511	6589
567.570	7159
567.630	7259
567.690	6372
567.749	6287
567.809	6223
567.868	5790
567.928	5205
567.988	6012
568.047	5925
568.107	6343
568.166	6992
568.226	6295
568.285	6589
568.345	7224
568.404	7066
568.464	6868
568.523	6589
568.582	5868
568.642	6575
568.701	5434
568.761	5803
568.820	7111
568.879	5972
568.939	7594
568.998	5930
569.057	6074
569.116	6405
569.176	7394
569.235	6301
569.294	6463
569.353	5926
569.413	6282
569.472	5601
569.531	5618
569.590	5643
569.649	6052
569.708	6430
569.767	6959
569.827	6044
569.886	6080
569.945	5366
570.004	6031
570.063	6090
570.122	6048
570.181	6249
570.240	6625
570.299	6852
570.358	6628
570.417	6654
570.475	7666
570.534	7438
570.593	6832
570.652	6849
570.711	6013
570.770	6679
570.829	6680
570.887	6634
570.946	7559
571.005	7239
571.064	8954
571.122	9517
571.181	7938
571.240	6498
571.299	7491
571.357	6647
571.416	6778
571.475	7003
571.533	7859
571.592	7663
571.650	6617
571.709	8414
571.768	9736
571.826	9623
571.885	8964
571.943	7264
572.002	6691
572.060	5722
572.119	6451
572.177	6596
572.236	7472
572.294	6722
572.352	8822
572.411	8195
572.469	7795
572.528	6603
572.586	7596
572.644	6194
572.703	6648
572.761	6687
572.819	6384
572.877	5710
572.936	6514
572.994	5730
573.052	6243
573.110	5935
573.169	6886
573.227	6799
573.285	7506
573.343	7167
573.401	6629
573.459	6932
573.517	6998
573.576	6810
573.634	7672
573.692	5904
573.750	6809
573.808	6498
573.866	6003
573.924	6314
573.982	6821
574.040	5616
574.098	6668
574.155	6143
574.213	6805
574.271	6823
574.329	7333
574.387	6166
574.445	5510
574.503	5805
574.560	6507
574.618	5832
574.676	6062
574.734	5689
574.792	5771
574.849	5952
574.907	5404
574.965	5063
575.022	5871
575.080	4785
575.138	5037
575.195	4216
575.253	4861
575.311	5340
575.368	5774
575.426	3907
575.483	5845
575.541	4754
575.598	5494
575.656	5166
575.713	4941
575.771	5665
575.828	6707
575.886	4959
575.943	5743
576.001	4247
576.058	3839
576.115	4571
576.173	4293
576.230	4625
576.287	5661
576.345	4706
576.402	5304
576.459	5044
576.517	4696
576.574	4650
576.631	4340
576.688	3923
576.746	5255
576.803	4551
576.860	4539
576.917	5292
576.974	5019
577.031	4740
577.089	4591
577.146	3849
577.203	3624
577.260	4259
577.317	4580
577.374	4287
577.431	3348
577.488	4587
577.545	3558
577.602	4194
577.659	4195
577.716	4200
577.773	4604
577.830	4319
577.886	4734
577.943	4532
578.000	4569
578.057	3698
578.114	4180
578.171	4890
578.227	4550
578.284	3810
578.341	3829
578.398	3361
578.454	4980
578.511	4097
578.568	5043
578.625	3410
578.681	5305
578.738	4582
578.794	4055
578.851	4585
578.908	4678
578.964	4957
579.021	4634
579.077	3967
579.134	4652
579.190	4299
579.247	4894
579.303	4509
579.360	3890
579.416	4780
579.473	4550
579.529	4457
579.586	4633
579.642	4796
579.698	4234
579.755	4599
579.811	5316
579.867	4455
579.924	3894
579.980	5014
580.036	5053
580.093	4681
580.149	4706
580.205	5507
580.261	4859
580.317	4138
580.374	5393
580.430	5848
580.486	5271
580.542	5004
580.598	5323
580.619	5326
580.654	5329
580.692	4805
580.710	4545
580.765	5535
580.767	5563
580.823	5515
580.838	5671
580.879	6080
580.911	6137
580.935	6179
580.984	6029
580.991	6006
581.047	6333
581.057	6170
581.103	5426
581.130	5398
581.159	5333
581.203	5185
581.215	5162
581.270	5606
581.276	5541
581.326	4809
581.349	5162
581.382	5652
581.422	5260
581.438	5111
581.494	5631
581.494	5633
581.550	5415
581.567	5476
581.606	5615
581.640	5481
581.661	5366
581.713	6242
581.717	6317
581.773	6374
581.786	6312
581.829	5954
581.859	6181
581.885	6498
581.932	6996
581.940	7036
581.996	6180
582.004	6206
582.052	6435
582.077	6209
582.107	5839
582.150	5790
582.163	5825
582.219	7024
582.223	7025
582.274	6877
582.296	6379
582.330	5571
582.368	6523
582.386	6998
582.441	6776
582.441	6771
582.497	6430
582.514	6314
582.552	6124
582.587	6293
582.608	6402
582.659	6655
582.663	6661
582.719	6846
582.732	6928
582.774	7438
582.805	7364
582.830	7160
582.877	7367
582.885	7405
582.941	7161
582.950	7169
582.996	7149
583.023	7151
583.052	7455
583.095	7251
583.107	7052
583.162	7568
583.168	7511
583.218	7156
583.240	7493
583.273	7922
583.313	6927
583.328	6612
583.384	7926
583.385	7910
583.439	7122
583.458	7156
583.494	7432
583.531	8035
583.549	8321
583.603	7907
583.605	7895
583.660	7847
583.676	8068
583.715	8655
583.748	8645
583.770	8684
583.820	8868
583.825	8839
583.881	8826
583.893	8599
583.936	8227
583.965	8340
583.991	8398
584.038	9225
584.046	9378
584.101	9517
584.110	9407
584.156	8787
584.183	8756
584.211	8754
584.255	9246
584.266	9427
584.321	9533
584.328	9572
584.376	9947
584.400	10051
584.431	10130
584.472	10469
584.486	10569
584.541	10457
584.545	10489
584.596	11294
584.617	11234
584.651	11338
584.689	12155
584.706	12390
584.761	11819
584.762	11817
584.816	13276
584.834	13423
584.871	13549
584.906	13837
584.926	14182
584.978	15173
584.980	15213
585.035	16621
585.051	17061
585.090	18662
585.123	19869
585.145	20603
585.195	22334
585.200	22584
585.254	26076
585.267	27166
585.309	30804
585.340	33815
585.364	36404
585.412	41833
585.419	42745
585.473	51664
585.484	53871
585.528	67350
585.556	82341
585.583	109702
585.628	179561
585.637	202045
585.692	415379
585.700	446863
585.747	551066
585.772	455234
585.801	281331
585.845	112929
585.856	89542
585.910	48481
585.917	44582
585.965	34924
585.989	31346
586.019	28498
586.061	25392
586.074	24906
586.128	24514
586.133	24402
586.183	23401
586.205	22972
586.237	22686
586.277	22258
586.292	22151
586.346	22172
586.349	22132
586.401	22823
586.421	23063
586.455	23027
586.493	22927
586.509	23224
586.564	23759
586.565	23742
586.618	25329
586.637	25915
586.672	28152
586.709	31056
586.727	32250
586.781	35176
586.781	35224
586.835	28673
586.853	27514
586.889	26540
586.925	25283
586.944	25029
586.996	25737
586.998	25812
587.052	26010
587.068	25807
587.106	26028
587.140	26439
587.161	26534
587.212	26427
587.215	26509
587.269	26555
587.284	26891
587.323	28532
587.356	28875
587.377	28843
587.427	29305
587.431	29449
587.485	30384
587.499	30660
587.539	32000
587.571	32484
587.593	33031
587.643	34619
587.648	34817
587.702	35059
587.715	35282
587.755	35928
587.786	36154
587.810	36624
587.858	36851
587.864	36926
587.917	36229
587.930	36236
587.971	37374
588.001	37615
588.025	37586
588.073	37792
588.079	38014
588.133	38641
588.145	38692
588.187	38829
588.217	38858
588.241	39564
588.288	40757
588.295	41076
588.348	42813
588.360	43023
588.402	43425
588.431	43742
588.456	45024
588.503	47470
588.510	47995
588.564	50960
588.575	51653
588.617	55001
588.646	56583
588.671	58317
588.718	61798
588.725	63381
588.778	76014
588.789	79233
588.832	119443
588.861	149595
588.886	213630
588.932	351126
588.939	361609
588.993	426225
589.004	422982
589.047	236843
589.075	128832
589.100	102879
589.147	66827
589.154	66154
589.207	60518
589.218	59363
589.261	60117
589.290	60476
589.314	62004
589.361	65638
589.368	68325
589.421	90691
589.433	95969
589.475	163065
589.504	214164
589.528	274366
589.576	397858
589.582	384554
589.635	202716
589.647	166104
589.689	101407
589.718	62103
589.742	59044
589.790	52777
589.795	52669
589.849	50191
589.861	49617
589.902	49783
589.932	49423
589.955	49271
590.004	48701
590.009	48791
590.062	47800
590.075	47411
590.115	48246
590.146	48731
590.168	48585
590.218	47589
590.222	47888
590.275	49763
590.289	50050
590.328	50910
590.360	51363
590.381	51967
590.431	52680
590.435	52888
590.488	53370
590.503	53271
590.541	54408
590.574	55159
590.594	55898
590.645	57169
590.647	57431
590.700	58769
590.716	59014
590.753	60640
590.787	61763
590.806	62625
590.859	64091
590.859	64341
590.912	65441
590.930	65615
590.965	66806
591.001	67475
591.018	67348
591.071	66120
591.072	65868
591.124	65767
591.143	65442
591.177	66631
591.214	67494
591.230	68227
591.283	69838
591.285	69641
591.336	69247
591.356	68732
591.389	68509
591.427	67648
591.442	67665
591.495	66840
591.498	66526
591.547	68593
591.569	69289
591.600	70278
591.640	70775
591.653	71294
591.706	72473
591.711	72323
591.759	74319
591.782	74969
591.811	76544
591.853	78095
591.864	78512
591.917	79053
591.924	78822
591.969	79772
591.995	79914
592.022	81170
592.066	82371
592.075	82982
592.127	84824
592.137	84830
592.180	85830
592.208	85945
592.233	87582
592.279	89772
592.285	90466
592.338	93338
592.350	93627
592.390	93535
592.421	92853
592.443	94023
592.491	95418
592.495	95937
592.548	97922
592.562	98087
592.600	97956
592.633	97142
592.653	97908
592.704	98366
592.705	98977
592.775	101096
592.846	105434
592.916	104721
592.987	107502
593.058	108228
593.128	110929
593.199	109445
593.270	112678
593.341	116038
593.411	121992
593.482	125659
593.553	127361
593.623	126782
593.694	130845
593.764	133017
593.835	128164
593.906	131597
593.976	133486
594.047	136296
594.117	142474
594.188	142808
594.258	145896
594.329	145123
594.399	150279
594.470	150145
594.540	157609
594.611	159712
594.681	161049
594.751	158017
594.822	166397
594.892	169633
594.963	175816
595.033	180307
595.103	187368
595.174	187578
595.244	190459
595.314	197840
595.384	204513
595.455	207532
595.525	215312
595.595	221808
595.665	223392
595.736	214956
595.806	224487
595.876	223789
595.946	225906
596.016	234757
596.087	243987
596.157	243793
596.227	245585
596.297	259366
596.367	278552
596.437	291852
596.507	287514
596.577	287232
596.647	300610
596.717	314256
596.787	320127
596.857	316998
596.927	319116
596.997	318999
597.067	323171
597.137	327659
597.207	330341
597.277	332266
597.347	319248
597.417	310525
597.487	310313
597.557	320784
597.626	328221
597.696	333127
597.766	328925
597.836	308521
597.906	294500
597.975	289115
598.045	294551
598.115	305542
598.185	331427
598.254	371878
598.324	398704
598.394	403842
598.464	391139
598.533	386678
598.603	357774
598.672	344175
598.742	355919
598.812	356157
598.881	367380
598.951	363814
599.020	375310
599.090	383584
599.159	388533
599.229	373658
599.299	368138
599.368	379920
599.437	370958
599.507	339462
599.576	329889
599.646	324882
599.715	320739
599.785	317813
599.854	310171
599.924	304957
599.993	302082
600.062	312516
600.132	318961
600.201	340416
600.270	394798
600.340	415595
600.409	403806
600.478	401239
600.547	415356
600.617	366942
600.686	292628
600.755	266944
600.824	251859
600.894	245855
600.963	248899
601.032	243086
601.101	233192
601.170	223212
601.239	214818
601.308	214724
601.378	215578
601.447	217738
601.516	217620
601.585	220567
601.654	222791
601.723	223804
601.792	230125
601.861	237722
601.930	245367
601.999	247137
602.068	245962
602.137	250552
602.206	253278
602.275	255482
602.343	260172
602.412	261059
602.481	265700
602.550	268067
602.619	274468
602.688	276069
602.756	280855
602.825	281598
602.894	290547
602.963	296526
603.032	300733
603.100	300469
603.169	303710
603.238	306780
603.307	306391
603.375	311201
603.444	317852
603.513	322286
603.581	324695
603.650	330581
603.719	326390
603.787	336222
603.856	345401
603.924	354753
603.993	366045
604.061	380703
604.130	395632
604.198	400939
604.267	410799
604.335	415022
604.404	422255
604.472	428277
604.541	433002
604.609	439366
604.678	434927
604.746	436327
604.815	453435
604.883	457729
604.951	458425
605.020	469413
605.088	474335
605.156	487285
605.225	493817
605.293	489987
605.361	490431
605.429	497649
605.498	508554
605.566	519894
605.634	545914
605.702	565368
605.771	581927
605.839	580712
605.907	571783
605.975	550474
606.043	544921
606.111	545797
606.180	543663
606.248	539745
606.316	536596
606.384	534406
606.452	539931
606.520	558180
606.588	575187
606.656	580796
606.724	567901
606.792	536696
606.860	485267
606.928	445244
606.996	428810
607.064	418463
607.132	433106
607.200	460354
607.267	473962
607.335	487206
607.403	492954
607.471	477257
607.539	464890
607.607	462974
607.674	409602
607.742	404258
607.810	402258
607.878	404015
607.946	414879
608.013	433894
608.081	437138
608.149	441967
608.216	462118
608.284	474195
608.352	481362
608.419	469941
608.487	459825
608.555	454752
608.622	469145
608.690	500684
608.757	544154
608.825	553244
608.893	539013
608.960	503685
609.028	489023
609.095	493944
609.163	491442
609.230	433816
609.298	406387
609.365	428165
609.432	460152
609.500	496918
609.567	571946
609.635	645982
609.702	669209
609.769	632737
609.837	488482
609.904	429379
609.971	434413
610.039	448042
610.106	498151
610.173	676281
610.241	1051503
610.308	734161
610.375	492722
610.442	458101
610.509	445458
610.577	450353
610.644	461040
610.711	472629
610.778	482752
610.845	507289
610.912	532843
610.980	554417
611.047	550258
611.114	545534
611.181	527688
611.248	528515
611.315	558325
611.382	571362
611.449	588215
611.516	595368
611.583	588775
611.650	590514
611.717	596132
611.784	602038
611.851	613722
611.918	620068
611.984	665180
612.051	751625
612.118	993986
612.185	1466857
612.252	1147642
612.319	759289
612.386	719029
612.452	681699
612.519	654232
612.586	652255
612.653	667800
612.719	688511
612.786	664162
612.853	623164
612.919	617677
612.986	626351
613.053	592688
613.120	557147
613.186	541029
613.253	542485
613.319	545559
613.386	550356
613.453	557705
613.519	556969
613.586	547691
613.652	556249
613.719	546926
613.785	559463
613.852	566103
613.918	563989
613.985	568944
614.051	588294
614.118	577236
614.184	557173
614.250	565172
614.317	572744
614.383	566941
614.449	580853
614.516	576473
614.582	578092
614.648	568703
614.715	565699
614.781	553253
614.847	559755
614.914	555665
614.980	538360
615.046	540576
615.112	558744
615.179	562848
615.245	565428
615.311	556651
615.377	564111
615.443	571154
615.509	572877
615.575	584942
615.642	578693
615.708	590873
615.774	608144
615.840	623901
615.906	626381
615.972	664198
616.038	777913
616.104	1098939
616.170	1566478
616.236	1368266
616.302	866116
616.368	770755
616.434	663417
616.500	636046
616.565	660981
616.631	731157
616.697	674610
616.763	680820
616.829	812717
616.895	1104111
616.961	1027560
617.026	689038
617.092	604985
617.158	597219
617.224	587166
617.289	549529
617.355	532168
617.421	531647
617.487	529310
617.552	506197
617.618	504952
617.684	509002
617.749	511171
617.815	491060
617.880	487831
617.946	489019
618.012	497258
618.077	503281
618.143	481796
618.208	490586
618.274	522744
618.339	520972
618.405	437788
618.470	439952
618.536	437174
618.601	430968
618.667	404358
618.732	384791
618.798	383699
618.863	384536
618.928	380455
618.994	384476
619.059	379419
619.124	381333
619.190	378114
619.255	378925
619.320	380177
619.386	381415
619.451	376664
619.516	367533
619.581	373719
619.647	387271
619.712	386047
619.777	370409
619.842	374784
619.907	383319
619.972	390264
620.038	383615
620.103	376778
620.168	380780
620.233	384107
620.298	388107
620.363	391156
620.428	403440
620.493	414507
620.558	420595
620.623	421474
620.688	417351
620.753	413786
620.818	422506
620.883	423599
620.948	418785
621.013	412396
621.078	405520
621.143	411014
621.207	410813
621.272	403679
621.337	392591
621.402	392321
621.467	387208
621.532	388309
621.596	389695
621.661	379068
621.726	376808
621.791	383084
621.855	380848
621.920	379216
621.985	383450
622.049	390812
622.114	390585
622.179	395035
622.243	404835
622.308	416780
622.373	430318
622.437	419792
622.502	398658
622.566	395321
622.631	396566
622.695	403659
622.760	399744
622.824	398910
622.889	403726
622.953	403526
623.018	425367
623.082	426952
623.147	423270
623.211	411193
623.276	411935
623.340	400426
623.404	394625
623.469	391578
623.533	397222
623.597	389053
623.662	386082
623.726	358859
623.790	340368
623.854	333331
623.919	339939
623.983	344905
624.047	350105
624.111	351499
624.176	356474
624.240	359046
624.304	368080
624.368	355392
624.432	358562
624.496	365034
624.560	383749
624.625	383424
624.689	381004
624.753	398898
624.817	380405
624.881	371529
624.945	339045
625.009	331502
625.073	337029
625.137	347573
625.201	358704
625.265	360643
625.329	347051
625.393	349919
625.456	354129
625.520	361584
625.584	365942
625.648	373349
625.712	383918
625.776	377942
625.839	355601
625.903	304860
625.967	288834
626.031	310150
626.095	360637
626.158	328921
626.222	267822
626.286	256309
626.349	246012
626.413	228973
626.477	228729
626.540	231088
626.604	228189
626.668	221572
626.731	222295
626.795	221057
626.858	221209
626.922	218563
626.986	214590
627.049	217472
627.113	224733
627.176	217022
627.240	212233
627.303	211516
627.366	208431
627.430	213973
627.493	207088
627.557	203937
627.620	208241
627.684	216794
627.747	214566
627.810	194723
627.874	177349
627.937	171432
628.000	178017
628.064	172337
628.127	157804
628.190	154356
628.253	150824
628.317	144638
628.380	138544
628.443	136351
628.506	135383
628.569	130670
628.632	124880
628.696	124073
628.759	123632
628.822	118222
628.885	116685
628.948	114422
629.011	112241
629.074	109530
629.137	106288
629.200	101298
629.263	103662
629.326	101140
629.389	100713
629.452	99772
629.515	96245
629.578	96141
629.641	98984
629.704	98874
629.767	97201
629.830	92965
629.892	91278
629.955	90690
630.018	94736
630.081	90820
630.144	91287
630.207	88328
630.269	92251
630.332	85708
630.395	88070
630.458	84873
630.520	80871
630.583	83515
630.646	85415
630.708	85244
630.771	86958
630.834	89832
630.896	88340
630.959	86574
631.021	84179
631.084	85101
631.146	83741
631.209	85237
631.272	84025
631.334	84947
631.397	85082
631.459	83516
631.522	86338
631.584	85086
631.646	88328
631.709	87037
631.771	87395
631.834	84970
631.896	83778
631.958	81003
632.021	81699
632.083	79717
632.145	79678
632.208	79141
632.270	80097
632.332	79790
632.395	78576
632.457	80935
632.519	77356
632.581	79396
632.643	78393
632.706	76914
632.768	76720
632.830	78925
632.892	81438
632.954	79192
633.016	81747
633.078	79869
633.141	79628
633.203	78252
633.265	79028
633.327	78016
633.389	78396
633.451	78727
633.513	76834
633.575	79282
633.637	77277
633.698	79190
633.760	83110
633.822	84534
633.884	85235
633.946	85446
634.008	84937
634.070	84510
634.132	84929
634.193	88112
634.255	91527
634.317	91536
634.379	91711
634.441	86951
634.502	82159
634.564	79705
634.626	75552
634.687	74288
634.749	72929
634.811	73053
634.873	72847
634.934	72870
634.996	73763
635.057	72666
635.119	72969
635.181	73843
635.242	74634
635.304	73154
635.365	78488
635.427	73741
635.488	73736
635.550	72777
635.611	73408
635.673	70171
635.734	74938
635.796	74492
635.857	78554
635.918	79234
635.980	83954
636.041	84603
636.102	87087
636.164	86199
636.225	86502
636.286	76515
636.348	73615
636.409	72203
636.470	70766
636.531	72532
636.593	71639
636.654	70185
636.715	68878
636.776	68769
636.838	67925
636.899	66337
636.960	67240
637.021	66029
637.082	65340
637.143	64880
637.204	63036
637.265	64208
637.326	65429
637.387	65817
637.448	64320
637.509	65451
637.570	65214
637.631	64106
637.692	62685
637.753	60465
637.814	62700
637.875	61251
637.936	62709
637.997	62065
638.058	60723
638.119	61314
638.179	63723
638.240	62167
638.301	62714
638.362	59912
638.423	59590
638.483	59912
638.544	56858
638.605	59270
638.666	58250
638.726	58355
638.787	60039
638.848	58834
638.908	57468
638.969	55840
639.030	56873
639.090	54711
639.151	57021
639.211	57396
639.272	57313
639.332	56991
639.393	57327
639.453	58129
639.514	57219
639.574	55234
639.635	55037
639.695	54549
639.756	53236
639.816	53758
639.877	52239
639.937	53374
639.997	53303
640.058	50435
640.118	52496
640.178	53776
640.239	52550
640.299	51327
640.359	52112
640.420	53939
640.480	56584
640.540	58575
640.600	57047
640.661	56620
640.721	54462
640.781	54656
640.841	49811
640.901	52203
640.961	53811
641.021	54030
641.082	54525
641.142	53081
641.202	52493
641.262	49978
641.322	52478
641.382	51096
641.442	51817
641.502	50965
641.562	51310
641.622	52015
641.682	53031
641.742	54819
641.802	53760
641.861	49519
641.921	47929
641.981	48360
642.041	45886
642.101	45835
642.161	45452
642.221	45989
642.280	46726
642.340	46993
642.400	46705
642.460	48804
642.519	48314
642.579	47401
642.639	49700
642.698	45813
642.758	51834
642.818	49355
642.877	48301
642.937	47594
642.997	49733
643.056	48005
643.116	47466
643.175	49580
643.235	50183
643.294	49834
643.354	51558
643.414	51936
643.473	54073
643.532	58165
643.592	67286
643.651	84613
643.711	123803
643.770	208458
643.830	439976
643.889	665570
643.948	223849
644.008	84543
644.067	62896
644.126	53809
644.186	50387
644.245	47848
644.304	45187
644.363	47412
644.423	43271
644.482	44843
644.541	46749
644.600	45976
644.659	53603
644.719	57719
644.778	70750
644.837	103691
644.896	186481
644.955	340904
645.014	120839
645.073	56476
645.132	50168
645.191	48603
645.250	47832
645.309	49103
645.368	50017
645.427	59032
645.486	85165
645.545	118904
645.604	51475
645.663	45659
645.722	43974
645.781	46442
645.840	48764
645.898	51535
645.957	61365
646.016	77676
646.075	116363
646.134	197342
646.192	452119
646.251	511368
646.310	128753
646.369	64319
646.427	59583
646.486	49500
646.545	46715
646.603	42013
646.662	42689
646.721	39638
646.779	39513
646.838	39439
646.896	44472
646.955	50634
647.014	71367
647.072	115389
647.131	257140
647.189	113629
647.248	43106
647.306	39104
647.365	37473
647.423	33813
647.481	37102
647.540	33699
647.598	35532
647.657	35596
647.715	36188
647.773	32859
647.832	34559
647.890	30692
647.948	31778
648.007	30985
648.065	30143
648.123	29944
648.181	29969
648.240	30061
648.298	27379
648.356	29275
648.414	30361
648.472	28668
648.531	28128
648.589	27134
648.647	27003
648.705	27897
648.763	28063
648.821	27920
648.879	28036
648.937	28374
648.995	31546
649.053	33937
649.111	42872
649.169	58978
649.227	93208
649.285	180268
649.343	411408
649.401	179072
649.459	45733
649.516	34042
649.574	29700
649.632	29248
649.690	32415
649.748	37053
649.806	47094
649.863	79255
649.921	193996
649.979	109011
650.037	31638
650.094	24475
650.152	24614
650.210	22253
650.268	22767
650.325	22285
650.383	21247
650.440	20038
650.498	20930
650.556	20492
650.613	20451
650.671	20028
650.728	20090
650.786	20768
650.843	24837
650.901	19931
650.958	19656
651.016	19147
651.073	19029
651.131	18422
651.188	18030
651.246	17753
651.303	17206
651.360	17275
651.418	17368
651.475	17291
651.532	16729
651.590	17557
651.647	16229
651.704	16507
651.762	16750
651.819	15915
651.876	15594
651.933	15524
651.990	17717
652.048	14839
652.105	15082
652.162	16167
652.219	15481
652.276	15038
652.333	16275
652.390	13950
652.448	15936
652.505	14738
652.562	14575
652.619	14395
652.676	14354
652.733	16515
652.790	14487
652.847	12977
652.904	14471
652.961	12772
653.017	14082
653.074	13998
653.131	14316
653.188	13788
653.245	14137
653.302	13785
653.359	13285
653.415	13844
653.472	13009
653.529	13746
653.586	12801
653.642	12897
653.699	13917
653.756	12451
653.813	13108
653.869	14189
653.926	13527
653.983	12954
654.039	14281
654.096	12555
654.152	13253
654.209	12867
654.266	13458
654.322	12433
654.379	14155
654.435	13874
654.492	13014
654.548	12845
654.605	12236
654.661	13685
654.717	13597
654.774	12891
654.830	12212
654.887	11582
654.943	12306
655.000	12908
655.056	13280
655.112	11908
655.168	12041
655.225	12624
655.281	13439
655.337	12588
655.394	12436
655.450	11088
655.506	13150
655.562	11406
655.618	12739
655.675	11750
655.731	12240
655.787	11520
655.843	13307
655.899	11175
655.955	12745
656.011	12219
656.067	11708
656.123	11661
656.179	12732
656.235	12624
656.291	11437
656.347	13340
656.403	11276
656.459	12104
656.515	11756
656.571	10601
656.627	11825
656.683	11215
656.739	12975
656.795	11624
656.850	11736
656.906	11862
656.962	13171
657.018	12855
657.074	14412
657.129	17909
657.185	26028
657.241	51990
657.297	25546
657.352	12954
657.408	11694
657.464	11756
657.519	11319
657.575	9880
657.630	11311
657.686	10525
657.742	10733
657.797	9921
657.853	10724
657.908	11277
657.964	10597
658.019	10335
658.075	11476
658.130	10057
658.186	9092
658.241	10595
658.297	9781
658.352	10340
658.407	10744
658.463	9430
658.518	10988
658.573	10464
658.629	10479
658.684	10238
658.739	10738
658.795	8920
658.850	10678
658.905	8918
658.960	11050
659.016	8760
659.071	10796
659.126	10020
659.181	9507
659.236	10435
659.291	11236
659.346	9154
659.401	9732
659.457	9389
659.512	9555
659.567	10026
659.622	9596
659.677	9429
659.732	8973
659.787	9104
659.842	9290
659.897	8908
659.952	9571
660.007	8961
660.061	10049
660.116	8546
660.171	8769
660.226	8734
660.281	10047
660.336	8152
660.391	10530
660.445	7889
660.500	9783
660.555	9587
660.610	9106
660.664	9019
660.719	8854
660.774	8996
660.828	9522
660.883	8210
660.938	9896
660.992	8576
661.047	9592
661.101	9275
661.156	8548
661.211	7413
661.265	8476
661.320	8723
661.374	8857
661.429	7879
661.483	9368
661.538	8423
661.592	8571
661.647	8140
661.701	8684
661.755	8473
661.810	8952
661.864	7610
661.919	8084
661.973	8342
662.027	8736
662.081	8200
662.136	8521
662.190	8592
662.244	9067
662.299	7519
662.353	9265
662.407	7633
662.461	8872
662.515	8221
662.569	8643
662.624	7627
662.678	7176
662.732	7666
662.786	7775
662.840	8108
662.894	8466
662.948	8100
663.002	8549
663.056	7986
663.110	8092
663.164	8218
663.218	8441
663.272	7498
663.326	8446
663.380	7682
663.434	8234
663.488	8486
663.542	7870
663.595	8558
663.649	8224
663.703	8012
663.757	8151
663.811	7459
663.864	8410
663.918	7705
663.972	8263
664.026	7196
664.079	7735
664.133	8253
664.187	8426
664.240	8010
664.294	8049
664.348	7221
664.401	8616
664.455	7260
664.508	8419
664.562	8373
664.615	8063
664.669	6820
664.722	7783
664.776	6658
664.829	8975
664.883	7212
664.936	8312
664.990	7953
665.043	7855
665.097	7296
665.150	8113
665.203	7718
665.257	8491
665.310	8156
665.363	8033
665.417	8041
665.470	8297
665.523	7825
665.576	8151
665.630	7867
665.683	7759
665.736	7625
665.789	8666
665.842	7079
665.895	8583
665.949	8085
666.002	9026
666.055	7437
666.108	9983
666.161	8374
666.214	9098
666.267	8424
666.320	9265
666.373	8785
666.426	8976
666.479	8461
666.532	8794
666.585	9196
666.638	10176
666.691	8266
666.744	8931
666.796	8756
666.849	9011
666.902	8782
666.955	8710
667.008	8924
667.060	8561
667.113	8885
667.166	10018
667.219	9778
667.271	9869
667.324	9340
667.377	9600
667.430	9219
667.482	9342
667.535	8809
667.587	9619
667.640	8280
667.693	9160
667.745	8388
667.798	9450
667.850	9104
667.903	9864
667.955	9992
668.008	8616
668.060	9029
668.113	8843
668.165	8403
668.218	9688
668.270	8571
668.322	8443
668.375	8675
668.427	8921
668.479	7766
668.532	9463
668.584	7654
668.636	8941
668.689	8741
668.741	9077
668.793	8264
668.845	8706
668.898	8333
668.950	8951
669.002	9852
669.054	8657
669.106	8720
669.158	8643
669.211	7359
669.263	7988
669.315	7779
669.367	7902
669.419	7482
669.471	8695
669.523	7767
669.575	8911
669.627	7741
669.679	8135
669.731	8807
669.783	8262
669.835	8892
669.886	8260
669.938	7911
669.990	8058
670.042	7260
670.094	7148
670.146	8160
670.197	7239
670.249	7481
670.301	8200
670.353	8588
670.404	8207
670.456	8064
670.508	10736
670.560	13548
670.611	17701
670.663	26013
670.715	61946
670.766	75274
670.818	19353
670.869	8906
670.921	9210
670.972	8315
671.024	7820
671.075	6731
671.127	8193
671.178	7310
671.230	8184
671.281	8404
671.333	8582
671.384	8957
671.436	11993
671.487	14627
671.538	19111
671.590	28492
671.641	45557
671.692	81219
671.744	140704
671.795	86201
671.846	33539
671.897	18017
671.949	14983
672.000	11336
672.051	10505
672.102	8420
672.153	8459
672.204	7421
672.256	8385
672.307	6972
672.358	7668
672.409	6097
672.460	7079
672.511	6825
672.562	6184
672.613	5285
672.664	6285
672.715	6529
672.766	6323
672.817	5578
672.868	6435
672.919	5380
672.970	5719
673.021	5213
673.071	5543
673.122	5079
673.173	5605
673.224	5857
673.275	5328
673.326	5434
673.376	5914
673.427	4951
673.478	6578
673.528	5222
673.579	5824
673.630	4951
673.680	6184
673.731	5052
673.782	5593
673.832	5259
673.883	6169
673.934	4087
673.984	4863
674.035	4863
674.085	5540
674.136	5204
674.186	6210
674.237	4762
674.287	5821
674.338	5160
674.388	5974
674.438	4235
674.489	5614
674.539	5887
674.589	6275
674.640	5244
674.690	5618
674.740	5169
674.791	6051
674.841	4326
674.891	5093
674.942	4379
674.992	4630
675.042	3892
675.092	4207
675.142	4540
675.193	4106
675.243	4209
675.293	5478
675.343	4176
675.393	5124
675.443	5332
675.493	5601
675.543	4878
675.593	4917
675.643	4063
675.693	4963
675.743	4848
675.793	4544
675.843	4432
675.893	4702
675.943	4436
675.993	4609
676.043	3934
676.093	5617
676.142	4469
676.192	4461
676.242	4028
676.292	3981
676.341	3668
676.391	4231
676.441	3208
676.491	4328
676.540	4146
676.590	4280
676.640	3902
676.689	3550
676.739	3992
676.789	3634
676.838	2743
676.888	3958
676.937	3527
676.987	3393
677.037	3548
677.086	4204
677.136	2896
677.185	4352
677.235	3512
677.284	4116
677.333	3971
677.383	4225
677.432	3025
677.482	3436
677.531	3237
677.580	3355
677.630	3113
677.679	3391
677.728	3090
677.778	3199
677.827	3280
677.876	3383
677.925	3505
677.975	4015
678.024	4715
678.073	4163
678.122	3368
678.171	3808
678.220	3677
678.269	4187
678.319	4158
678.368	4495
678.417	3825
678.466	4660
678.515	3547
678.564	3132
678.613	3262
678.662	3361
678.711	2669
678.760	3195
678.809	3813
678.857	3107
678.906	3589
678.955	3110
679.004	3664
679.053	2704
679.102	2810
679.151	3255
679.199	3209
679.248	3400
679.297	3628
679.346	3014
679.394	1602
679.443	3529
679.492	2960
679.540	3195
679.589	2508
679.638	2834
679.686	3428
679.735	4575
679.784	3363
679.832	4016
679.881	3144
679.929	4327
679.978	2282
680.026	3510
680.075	3021
680.123	2518
680.172	2434
680.220	3588
680.268	3313
680.317	3149
680.365	1853
680.414	3036
680.462	1904
680.510	3018
680.559	2384
680.607	2840
680.655	3125
680.703	3621
680.752	2853
680.800	3152
680.848	2195
680.896	2865
680.945	2801
680.993	2461
681.041	2684
681.089	2751
681.137	2210
681.185	3411
681.233	2228
681.258	2536
681.281	2802
681.329	2631
681.377	2187
681.380	2241
681.425	2749
681.473	3169
681.502	3110
681.521	3015
681.569	3577
681.617	3215
681.624	3211
681.665	2970
681.713	2770
681.745	3923
681.761	4441
681.809	3569
681.857	4614
681.867	4318
681.904	3149
681.952	3287
681.989	3197
682.000	3140
682.048	3311
682.096	3628
682.111	3528
682.143	3192
682.191	3183
682.233	4384
682.239	4542
682.286	3326
682.334	3622
682.354	3465
682.382	3188
682.430	4659
682.476	3818
682.477	3774
682.525	4255
682.572	4060
682.598	4004
682.620	3930
682.667	3678
682.715	4989
682.720	4903
682.763	3867
682.810	4539
682.841	4734
682.857	4791
682.905	4576
682.952	3962
682.963	4075
683.000	4408
683.047	3948
683.085	5828
683.095	6298
683.142	4831
683.190	5218
683.206	4852
683.237	4155
683.284	5451
683.328	4356
683.332	4240
683.379	5312
683.426	4293
683.449	4484
683.473	4713
683.521	4476
683.568	5839
683.571	5787
683.615	4632
683.662	5365
683.693	4687
683.709	4313
683.757	5135
683.804	5138
683.814	5045
683.851	4682
683.898	5564
683.936	5474
683.945	5436
683.992	5951
684.039	5699
684.057	5578
684.086	5249
684.133	5698
684.179	5439
684.180	5419
684.227	5751
684.274	5070
684.300	5753
684.321	6246
684.368	5207
684.415	6615
684.422	6506
684.462	5813
684.509	5274
684.543	5699
684.556	5822
684.603	6534
684.649	5737
684.665	5889
684.696	6229
684.743	6358
684.786	6886
684.790	6898
684.837	6181
684.883	6413
684.908	5952
684.930	5627
684.977	6623
685.023	6352
685.029	6479
685.070	7142
685.117	6360
685.150	6303
685.164	6326
685.210	6677
685.257	7488
685.272	7511
685.303	7392
685.350	7865
685.393	6966
685.396	6879
685.443	6899
685.490	6834
685.514	7010
685.536	7203
685.583	6801
685.629	6219
685.636	6241
685.675	6453
685.722	7898
685.757	7400
685.768	7137
685.815	7096
685.861	6161
685.878	6493
685.908	7317
685.954	7441
686.000	8515
686.000	8523
686.047	7615
686.093	8361
686.121	8139
686.139	7930
686.185	7436
686.232	7549
686.242	7618
686.278	7903
686.324	7011
686.363	7319
686.370	7392
686.416	7570
686.463	8728
686.484	8610
686.509	8399
686.555	7990
686.601	7966
686.606	8075
686.647	8937
686.693	8148
686.727	7953
686.739	7891
686.785	7486
686.831	8751
686.848	8402
686.877	7893
686.923	8666
686.969	8156
686.969	8152
687.015	9030
687.061	8348
687.090	8792
687.107	9068
687.153	9825
687.199	9074
687.211	9009
687.245	8606
687.291	8409
687.332	8226
687.336	8245
687.382	9012
687.428	8598
687.453	9352
687.474	9833
687.520	8746
687.565	9556
687.574	9368
687.611	8797
687.657	9140
687.695	9543
687.702	9609
687.748	9944
687.794	9153
687.816	9472
687.839	9854
687.885	10057
687.931	9797
687.937	9873
687.976	9974
688.022	9844
688.058	9488
688.067	9506
688.113	9996
688.158	9697
688.179	9927
688.204	9988
688.249	9591
688.295	10169
688.300	10102
688.340	9801
688.386	10009
688.421	9776
688.431	9734
688.477	10201
688.522	9875
688.542	10202
688.567	10691
688.613	10080
688.658	10977
688.663	10986
688.703	10916
688.749	10893
688.784	10861
688.794	10883
688.839	11094
688.884	10590
688.905	11110
688.930	11653
688.975	10733
689.020	10933
689.026	10884
689.065	10749
689.110	10631
689.146	10960
689.155	11039
689.201	11326
689.246	10938
689.267	10883
689.291	10895
689.336	11350
689.381	11288
689.388	11283
689.426	11161
689.471	11104
689.509	10914
689.516	10934
689.561	11140
689.606	11381
689.630	11328
689.651	11267
689.696	11060
689.741	11834
689.750	11648
689.785	11085
689.830	11949
689.871	11709
689.875	11649
689.920	11600
689.965	10801
689.992	10430
690.010	10423
690.054	10336
690.099	10691
690.112	10658
690.144	10634
690.189	11201
690.233	10932
690.233	10945
690.278	11428
690.323	11469
690.354	11701
690.367	11827
690.412	11840
690.457	11846
690.474	11854
690.501	11657
690.546	11320
690.590	10934
690.595	10902
690.635	11051
690.680	10476
690.716	10865
690.724	10994
690.769	10577
690.813	11317
690.836	11284
690.857	11417
690.902	11974
690.946	12440
690.957	12491
690.991	12969
691.035	13473
691.077	14547
691.080	14561
691.124	13634
691.168	13092
691.198	12441
691.213	12299
691.257	12657
691.301	12202
691.318	12218
691.346	12427
691.390	12539
691.434	12395
691.439	12345
691.478	12022
691.522	12159
691.559	12348
691.567	12447
691.611	12794
691.655	12501
691.680	12829
691.699	12972
691.743	12644
691.787	12818
691.800	12664
691.831	12427
691.875	12507
691.919	12313
691.921	12296
691.964	12715
692.008	12575
692.041	12941
692.052	13058
692.096	12829
692.139	13127
692.162	13109
692.183	12957
692.227	13192
692.271	12529
692.282	12508
692.315	12783
692.359	12189
692.402	12490
692.403	12517
692.447	12650
692.490	13071
692.523	13161
692.534	13105
692.578	12819
692.622	12141
692.643	12192
692.666	12667
692.709	12790
692.753	13365
692.763	13354
692.797	12818
692.840	12676
692.884	12405
692.884	12435
692.928	13192
692.971	13402
693.004	13884
693.015	13807
693.059	13352
693.102	13134
693.124	12679
693.146	12722
693.189	13116
693.233	13466
693.245	13616
693.276	13777
693.320	13361
693.363	13421
693.365	13383
693.407	13502
693.450	14154
693.485	14037
693.493	13962
693.537	14239
693.580	13730
693.605	13782
693.624	14132
693.667	14172
693.710	14733
693.725	14949
693.753	15752
693.797	16896
693.840	17805
693.845	17873
693.883	17039
693.926	15904
693.966	15461
693.970	15480
694.013	14582
694.056	14281
694.086	13681
694.099	13613
694.142	13844
694.185	13506
694.206	13548
694.229	13814
694.272	13844
694.315	14293
694.326	14329
694.358	14422
694.401	14569
694.444	14535
694.446	14506
694.487	14251
694.530	13867
694.566	13541
694.573	13634
694.616	14001
694.659	14758
694.686	14941
694.702	14916
694.745	15034
694.787	14855
694.806	14809
694.830	14860
694.873	14720
694.916	14932
694.926	14917
694.959	15162
695.002	15207
695.044	15561
695.046	15532
695.087	15462
695.130	15491
695.166	15402
695.172	15500
695.215	15787
695.258	16372
695.286	16689
695.301	16866
695.343	17234
695.386	17457
695.406	17612
695.428	18257
695.471	19283
695.514	20663
695.526	20959
695.556	22123
695.599	23735
695.641	25017
695.646	25128
695.684	23765
695.726	21851
695.766	20450
695.769	20494
695.811	20307
695.854	20055
695.886	19808
695.896	19957
695.938	20643
695.981	20859
696.005	21231
696.023	22030
696.065	23571
696.108	25270
696.125	25833
696.150	25970
696.192	26203
696.235	26410
696.245	26424
696.277	26483
696.319	26338
696.361	26369
696.365	26292
696.404	25875
696.446	25481
696.485	25106
696.488	25185
696.530	25359
696.572	25511
696.604	25606
696.614	25570
696.656	25127
696.698	24790
696.724	24460
696.740	24707
696.783	25346
696.825	25851
696.844	26063
696.867	26102
696.909	25836
696.951	25749
696.964	25665
696.992	25972
697.034	26298
697.076	26638
697.083	26639
697.118	27527
697.160	28470
697.202	29381
697.203	29336
697.244	28986
697.286	28582
697.323	28070
697.327	28120
697.369	28068
697.411	27864
697.442	27810
697.453	27959
697.494	27986
697.536	28348
697.562	28325
697.578	28373
697.620	28551
697.661	28585
697.682	28580
697.703	29041
697.744	29779
697.786	30584
697.801	30729
697.828	30653
697.869	30480
697.911	30357
697.921	30268
697.952	30117
697.994	29721
698.035	29388
698.040	29270
698.077	29445
698.118	29589
698.160	29703
698.160	29630
698.201	31057
698.243	32346
698.279	33491
698.284	33617
698.325	33950
698.367	34325
698.399	34542
698.408	34740
698.449	35216
698.491	35716
698.518	35983
698.532	36050
698.573	35964
698.614	35892
698.638	35750
698.656	35700
698.697	35363
698.738	35039
698.757	34812
698.779	35102
698.820	35467
698.862	35837
698.877	35883
698.903	36066
698.944	36228
698.985	36375
698.996	36330
699.026	36158
699.067	35793
699.116	35271
699.235	35406
699.354	35082
699.474	32784
699.593	32604
699.713	32868
699.832	33303
699.951	34919
700.070	32364
700.190	31985
700.309	30082
700.428	31339
700.547	28860
700.667	29779
700.786	29563
700.905	28970
701.024	29263
701.143	28309
701.262	30924
701.381	30295
701.500	30004
701.619	30880
701.738	29706
701.857	30515
701.976	27380
702.095	29666
702.214	29427
702.333	29031
702.452	29930
702.571	29980
702.690	29123
702.809	30709
702.928	27416
703.047	27236
703.165	27688
703.284	27462
703.403	27301
703.522	26873
703.640	25719
703.759	25163
703.878	24631
703.997	26279
704.115	25948
704.234	25573
704.353	26400
704.471	24576
704.590	23655
704.708	23799
704.827	23663
704.946	22968
705.064	22863
705.183	23482
705.301	24171
705.420	22762
705.538	22049
705.656	20416
705.775	21552
705.893	21623
706.012	22142
706.130	22540
706.249	22384
706.367	20729
706.485	21229
706.604	20507
706.722	20704
706.840	23171
706.958	21168
707.077	20005
707.195	19839
707.313	20942
707.431	19118
707.549	19936
707.668	17275
707.786	21716
707.904	18638
708.022	19422
708.140	18378
708.258	18944
708.376	20049
708.494	18439
708.612	18591
708.730	18645
708.848	17996
708.966	18212
709.084	19128
709.202	18266
709.320	16076
709.438	17679
709.556	16420
709.674	16344
709.791	16049
709.909	17245
710.027	16306
710.145	16552
710.263	16908
710.380	16797
710.498	16105
710.616	16152
710.733	15365
710.851	17101
710.969	15592
711.086	15948
711.204	15394
711.322	15579
711.439	15492
711.557	14284
711.674	14666
711.792	14897
711.909	13989
712.027	14134
712.144	13499
712.262	15009
712.379	13961
712.497	14400
712.614	14119
712.732	15088
712.849	13742
712.966	15780
713.084	14782
713.201	13239
713.318	14385
713.436	15865
713.553	12929
713.670	15214
713.787	15218
713.905	13542
714.022	15145
714.139	15457
714.256	16406
714.373	22888
714.490	39108
714.608	103625
714.725	389785
714.842	283421
714.959	31616
715.076	17952
715.193	15821
715.310	15620
715.427	13165
715.544	13986
715.661	13135
715.778	12734
715.895	12532
716.011	13106
716.128	12365
716.245	12726
716.362	12710
716.479	10796
716.596	11050
716.713	12314
716.829	11243
716.946	11088
717.063	10622
717.180	11422
717.296	11006
717.413	12532
717.530	10648
717.646	10032
717.763	10547
717.880	10803
717.996	9128
718.113	10314
718.229	10008
718.346	9544
718.462	9339
718.579	10822
718.695	10074
718.812	10381
718.928	9989
719.045	9844
719.161	9835
719.277	10689
719.394	10432
719.510	10799
719.626	11167
719.743	13642
719.859	18801
719.975	38665
720.092	148513
720.208	251149
720.324	28012
720.440	13014
720.557	10253
720.673	10732
720.789	8800
720.905	10139
721.021	9682
721.137	9471
721.253	7815
721.369	9251
721.486	8244
721.602	8755
721.718	8707
721.834	8667
721.950	8383
722.066	8391
722.181	7927
722.297	9825
722.413	9191
722.529	8979
722.645	8654
722.761	8747
722.877	7722
722.993	8884
723.108	10989
723.224	7789
723.340	7977
723.456	7981
723.571	7147
723.687	7294
723.803	9171
723.918	7838
724.034	7092
724.150	7865
724.265	7245
724.381	7758
724.497	6721
724.612	8099
724.728	7329
724.843	7965
724.959	7925
725.074	7743
725.190	7762
725.305	7913
725.421	7256
725.536	7983
725.651	8105
725.767	8294
725.882	7578
725.997	7723
726.113	8261
726.228	8568
726.343	8141
726.459	7968
726.574	7065
726.689	7055
726.804	6618
726.920	7747
727.035	7455
727.150	8729
727.265	7500
727.380	7761
727.495	7303
727.610	7175
727.725	6560
727.841	7241
727.956	6142
728.071	6920
728.186	6267
728.301	6117
728.416	7000
728.531	7267
728.645	6866
728.760	7879
728.875	6615
728.990	6862
729.105	6768
729.220	6853
729.335	7059
729.449	7065
729.564	6899
729.679	6616
729.794	6576
729.908	6581
730.023	7141
730.138	7740
730.253	7366
730.367	6601
730.482	6888
730.596	7069
730.711	8495
730.826	12102
730.940	9407
731.055	9015
731.169	8346
731.284	9712
731.398	8797
731.513	9691
731.627	10570
731.742	14765
731.856	16516
731.970	15950
732.085	17549
732.199	21964
732.313	34278
732.428	88921
732.542	239630
732.656	112379
732.771	28370
732.885	20479
732.999	20623
733.113	22764
733.227	22611
733.342	22231
733.456	22431
733.570	21715
733.684	20087
733.798	19548
733.912	19431
734.026	19998
734.140	18827
734.254	18893
734.368	19034
734.482	19613
734.596	18967
734.710	19181
734.824	18311
734.938	18135
735.052	17485
735.166	18960
735.280	17682
735.393	17850
735.507	18031
735.621	16661
735.735	16431
735.849	17475
735.962	16168
736.076	17735
736.190	16195
736.303	16584
736.417	16617
736.531	15412
736.644	16124
736.758	15569
736.872	15439
736.985	15905
737.099	15529
737.212	15316
737.326	13205
737.439	16093
737.553	13863
737.666	16044
737.780	14386
737.893	15380
738.007	14894
738.120	15476
738.233	13064
738.347	15449
738.460	13562
738.573	15869
738.687	12959
738.800	14183
738.913	14365
739.026	13984
739.140	14531
739.253	13773
739.366	13006
739.479	13752
739.592	13163
739.705	12746
739.818	15105
739.932	12355
740.045	13504
740.158	12508
740.271	12934
740.384	12602
740.497	11673
740.610	13571
740.723	11927
740.836	12692
740.949	11429
741.062	14564
741.174	10909
741.287	12152
741.400	11669
741.513	11106
741.626	12761
741.739	11119
741.851	11469
741.964	11914
742.077	9851
742.189	10249
742.302	11624
742.415	11289
742.527	10369
742.640	10938
742.753	8532
742.865	11791
742.978	10168
743.090	10780
743.203	10922
743.316	10268
743.428	9799
743.541	10386
743.653	9516
743.766	10748
743.878	10342
743.990	8478
744.103	10856
744.215	10367
744.327	8434
744.440	12522
744.552	9243
744.664	8915
744.777	10813
744.889	8693
745.001	8445
745.113	10707
745.226	9510
745.338	8789
745.450	9949
745.562	9465
745.674	7760
745.786	10359
745.898	8776
746.010	8487
746.122	8947
746.234	9460
746.347	9091
746.459	9195
746.570	6627
746.682	9484
746.794	9791
746.906	7807
747.018	7597
747.130	9386
747.242	7114
747.354	8801
747.466	8853
747.577	8007
747.689	7840
747.801	9003
747.913	7873
748.024	8192
748.136	7322
748.248	7881
748.359	8372
748.471	8810
748.583	6393
748.694	7357
748.806	7957
748.918	7563
749.029	7292
749.141	7720
749.252	9131
749.364	7435
749.475	6158
749.587	6234
749.698	6008
749.809	8711
749.921	6220
750.032	6876
750.144	6124
750.255	7195
750.366	7211
750.478	6299
750.589	7158
750.700	6081
750.811	7815
750.923	6365
751.034	5063
751.145	8630
751.256	6378
751.367	7047
751.479	6656
751.590	5612
751.701	6669
751.812	5804
751.923	5647
752.034	7664
752.145	6594
752.256	6778
752.367	6629
752.478	6883
752.589	6000
752.700	7000
752.811	5552
752.922	6186
753.032	6160
753.143	6419
753.254	5449
753.365	7520
753.476	7505
753.586	6458
753.697	5970
753.808	6639
753.919	5705
754.029	6257
754.140	5427
754.251	6243
754.361	6038
754.472	6910
754.582	4935
754.693	5916
754.804	6370
754.914	5860
755.025	3967
755.135	5682
755.246	6538
755.356	5745
755.466	4307
755.577	5816
755.687	5570
755.798	5619
755.908	5349
756.018	5648
756.129	5879
756.239	6205
756.349	5696
756.460	5282
756.570	5217
756.680	5641
756.790	5760
756.900	6216
757.011	5695
757.121	4671
757.231	5463
757.341	5902
757.451	4860
757.561	5333
757.671	5417
757.781	5283
757.891	4906
758.001	5335
758.111	5384
758.221	6809
758.331	4992
758.441	5601
758.551	4619
758.661	5961
758.771	5365
758.880	5516
758.990	4235
759.100	5286
759.210	5183
759.320	5944
759.429	5551
759.539	6076
759.649	5186
759.758	6898
759.868	6686
759.978	6719
760.087	6948
760.197	6338
760.307	6110
760.416	6335
760.526	5248
760.635	6118
760.745	7020
760.854	6648
760.964	6279
761.073	7778
761.182	7211
761.292	5932
761.401	5055
761.511	5140
761.620	4902
761.729	5504
761.839	3754
761.948	5768
762.057	3707
762.166	4898
762.276	4041
762.385	5284
762.494	3475
762.603	4777
762.712	3638
762.822	5420
762.931	4523
763.040	4301
763.149	4594
763.258	4253
763.367	4156
763.476	5545
763.585	4074
763.694	4466
763.803	3690
763.912	4760
764.021	4407
764.130	5088
764.238	4845
764.347	4957
764.456	4052
764.565	5373
764.674	4664
764.783	4538
764.891	4506
765.000	6579
765.109	4605
765.217	5588
765.326	5465
765.435	6138
765.543	7561
765.652	7639
765.761	8512
765.869	11634
765.978	16718
766.086	30369
766.195	58964
766.303	155231
766.412	364756
766.520	276993
766.629	80170
766.737	32853
766.846	19959
766.954	13947
767.062	11914
767.171	8579
767.279	8446
767.387	6930
767.496	6524
767.604	6165
767.712	5437
767.820	5676
767.928	5570
768.037	5187
768.145	4607
768.253	5968
768.361	4582
768.469	4764
768.577	4101
768.685	5552
768.793	5906
768.901	5316
769.009	5846
769.117	6724
769.225	7605
769.333	9316
769.441	14550
769.549	25757
769.657	57174
769.765	180403
769.873	297738
769.981	100614
770.088	27456
770.196	14883
770.304	11328
770.412	9757
770.519	9196
770.627	8173
770.735	6892
770.842	6934
770.950	6914
771.058	7389
771.165	8547
771.273	9384
771.380	9231
771.488	13949
771.595	13972
771.703	12539
771.810	11203
771.918	13369
772.025	15063
772.133	17030
772.240	15862
772.348	18945
772.455	16442
772.562	15382
772.670	14861
772.777	15994
772.884	14652
772.991	14696
773.099	15930
773.206	14515
773.313	14752
773.420	14458
773.528	14206
773.635	13881
773.742	15431
773.849	13715
773.956	14161
774.063	12965
774.170	13337
774.277	14468
774.384	12707
774.491	12274
774.598	13052
774.705	13419
774.812	12641
774.919	13889
775.026	12103
775.133	13635
775.239	11699
775.346	12146
775.453	12413
775.560	11522
775.667	12877
775.773	11139
775.880	11958
775.987	11002
776.093	12270
776.200	13106
776.307	8595
776.413	11195
776.520	13081
776.627	10602
776.733	10725
776.840	10332
776.946	14437
777.053	11241
777.159	10552
777.266	9738
777.372	10323
777.478	12099
777.585	10629
777.691	9506
777.798	11601
777.904	9612
778.010	9516
778.117	11333
778.223	9873
778.329	11210
778.435	8654
778.542	11883
778.648	9294
778.754	8554
778.860	10596
778.966	9410
779.072	8875
779.178	9474
779.284	7326
779.391	8999
779.497	9697
779.603	10896
779.708	8451
779.815	8706
779.920	10856
780.026	12496
780.132	9745
780.238	8386
780.344	7745
780.450	11029
780.556	6448
780.661	8047
780.767	9600
780.873	7073
780.979	7699
781.085	9423
781.190	7898
781.296	8057
781.402	8596
781.507	8219
781.613	6609
781.719	8221
781.824	7914
781.930	8705
782.035	7593
782.141	9604
782.246	4983
782.352	6864
782.457	6424
782.563	7619
782.668	7308
782.773	6353
782.879	6009
782.984	7809
783.090	7470
783.195	7976
783.300	7863
783.405	5754
783.511	5284
783.616	6693
783.721	6770
783.826	6800
783.932	5181
784.037	7184
784.142	6988
784.247	6695
784.352	6615
784.457	5523
784.562	7399
784.667	6832
784.772	5189
784.877	4915
784.982	7087
785.087	6952
785.192	5603
785.297	6094
785.402	5418
785.507	7128
785.611	5581
785.716	4259
785.821	6173
785.926	6297
786.031	5287
786.135	5865
786.240	6161
786.345	3821
786.450	5693
786.554	6073
786.659	4862
786.763	5650
786.868	5789
786.973	6990
787.077	4035
787.182	4589
787.286	5244
787.391	7322
787.495	4147
787.600	3796
787.704	5173
787.809	6234
787.913	5072
788.017	5958
788.122	5806
788.226	4903
788.330	3621
788.435	6209
788.539	5861
788.643	3937
788.747	3079
788.852	5189
788.956	4760
789.060	5888
789.164	4241
789.268	4287
789.372	5142
789.476	4469
789.580	3519
789.684	4746
789.788	5701
789.892	4665
789.996	3818
790.100	3624
790.204	4159
790.308	6022
790.412	3177
790.516	3864
790.620	3740
790.724	7008
790.828	4067
790.931	2843
791.035	5227
791.139	4301
791.242	4074
791.346	5626
791.450	4265
791.554	4204
791.657	2865
791.761	5311
791.864	4105
791.968	4825
792.072	5741
792.175	3261
792.279	3449
792.382	4170
792.486	3995
792.589	3409
792.693	4714
792.796	3140
792.899	3973
793.003	4798
793.106	2770
793.209	3286
793.313	4026
793.416	1251
793.519	4004
793.623	5528
793.726	3665
793.829	2971
793.932	2774
794.035	2271
794.138	5304
794.242	5581
794.345	3147
794.448	2713
794.551	1549
794.654	6244
794.757	6103
794.860	3411
794.963	3235
795.066	2474
795.169	3775
795.272	3729
795.375	3579
795.477	2524
795.580	2741
795.683	3104
795.786	3565
795.889	1923
795.991	3391
796.094	3552
796.197	863
796.300	4843
796.402	2896
796.505	1984
796.608	2217
796.710	3624
796.813	3623
796.915	3758
797.018	3391
797.120	4143
797.223	2198
797.326	4466
797.428	1847
797.530	1811
797.633	1978
797.735	4308
797.838	2851
797.940	4394
798.042	2816
798.145	2399
798.247	2680
798.349	1542
798.452	3757
798.554	3369
798.656	2119
798.758	3958
798.860	2301
798.962	2175
799.065	1810
799.167	1614
799.269	3672
799.371	3925
799.473	4371
799.575	3124
799.677	1373
799.779	4000
799.881	2227
799.983	3932
800.085	2087
800.187	3093
800.289	1195
800.390	2617
800.492	4039
800.594	4649
800.696	1669
800.798	2936
800.899	2154
801.001	2910
801.103	2347
801.205	2677
801.306	2349
801.408	2094
801.509	2676
801.611	3002
801.713	1546
801.814	1111
801.916	1907
802.017	1862
802.119	1708
802.220	3228
802.322	818
802.423	3913
802.525	888
802.626	2491
802.727	2895
802.829	3449
802.930	-421
803.031	2824
803.133	2142
803.234	2460
803.335	2608
803.436	1430
803.538	3110
803.639	1364
803.740	2880
803.841	2672
803.942	1771
804.043	2454
804.144	868
804.245	2465
804.346	1038
804.447	670
804.548	1555
804.649	3578
804.750	1637
804.851	2420
804.952	1723
805.053	2008
805.154	1447
805.255	2850
805.355	1526
805.456	2450
805.557	1127
805.658	1553
805.758	1809
805.859	3257
805.960	1661
806.061	2093
806.161	962
806.262	1787
806.362	1701
806.463	1847
806.564	3311
806.664	2469
806.765	1259
806.865	1247
806.966	966
807.066	1520
807.166	3154
807.267	2738
807.367	1204
807.468	2440
807.568	71
807.668	3068
807.769	3428
807.869	2004
807.969	1548
808.069	1831
808.170	1761
808.270	1811
808.370	2016
808.470	1685
808.570	1035
808.670	1130
808.770	1691
808.870	973
808.970	579
809.070	1609
809.170	964
809.271	3556
809.370	460
809.470	1713
809.570	679
809.670	1493
809.770	1030
809.870	2831
809.970	1075
810.070	2202
810.169	2207
810.269	198
810.369	2510
810.469	1862
810.568	2156
810.668	1725
810.768	1423
810.867	2169
810.967	1469
811.066	1941
811.166	1232
811.265	3245
811.365	692
811.464	1536
811.564	1070
811.663	1792
811.763	-254
811.862	2458
811.962	2480
812.061	1285
812.160	765
812.260	1351
812.359	937
812.458	1742
812.557	2229
812.657	880
812.756	2151
812.855	1582
812.954	1694
813.053	2338
813.153	1181
813.252	1223
813.351	1458
813.450	1801
813.549	1042
813.648	1429
813.747	1314
813.846	2427
813.945	1119
814.044	2189
814.143	1697
814.242	2102
814.341	584
814.439	2624
814.538	2859
814.637	2886
814.736	2155
814.835	3594
814.933	1870
815.032	4724
815.131	4815
815.229	10586
815.328	14218
815.427	10544
815.525	9073
815.624	8863
815.722	7540
815.821	9852
815.919	9796
816.018	9698
816.116	8437
816.215	9808
816.313	9625
816.412	12970
816.510	10870
816.609	13086
816.707	13404
816.805	11253
816.904	11182
817.002	12024
817.100	11545
817.198	13612
817.296	10010
817.395	11397
817.493	10923
817.591	9966
817.689	9986
817.787	11148
817.885	9921
817.983	10072
818.081	10292
818.179	12089
818.277	15918
818.375	12069
818.473	9782
818.571	9164
818.669	10263
818.767	11560
818.865	9221
818.963	8360
819.061	9775
819.158	9283
819.256	12893
819.354	12197
819.452	18445
819.549	12047
819.647	10952
819.745	9767
819.842	9024
819.940	9422
820.038	7648
820.135	8183
820.233	9533
820.330	8177
820.428	7323
820.525	10442
820.623	8300
820.720	7453
820.818	8367
820.915	9299
821.012	8062
821.110	7962
821.207	8732
821.304	7855
821.402	8614
821.499	8551
821.596	6491
821.693	7507
821.791	8974
821.888	8177
821.985	9048
822.082	6015
822.179	7692
822.276	8244
822.373	5752
822.470	7196
822.567	7215
822.664	6218
822.761	7698
822.858	8017
822.955	7204
823.052	6750
823.149	7270
823.246	7750
823.343	5436
823.440	5742
823.536	8701
823.633	7056
823.730	5237
823.827	7600
823.923	6878
824.020	5785
824.117	8112
824.213	7588
824.310	5984
824.407	5801
824.503	7612
824.600	6349
824.696	5280
824.793	8381
824.889	6669
824.986	5553
825.082	4151
825.179	5553
825.275	7572
825.371	8165
825.468	3841
825.564	3673
825.660	7544
825.757	8597
825.853	5580
825.949	4326
826.045	5491
826.142	5753
826.238	6665
826.334	7157
826.430	5400
826.526	4750
826.622	3363
826.718	6706
826.814	7132
826.910	6078
827.006	2535
827.102	4414
827.198	5961
827.294	7405
827.390	6082
827.486	4199
827.582	2445
827.678	3722
827.774	7370
827.869	4015
827.965	3934
828.061	3371
828.157	6119
828.252	6822
828.348	4294
828.444	5011
828.539	3426
828.635	5514
828.731	4849
828.826	3661
828.922	4601
829.017	5496
829.113	5610
829.208	2159
829.304	3754
829.399	6991
829.495	4469
829.590	4051
829.685	3977
829.781	6015
829.876	4434
829.971	2553
830.066	2113
830.162	4010
830.257	6843
830.352	3757
830.447	2350
830.543	3151
830.638	3403
830.733	6105
830.828	3487
830.923	4532
831.018	4314
831.113	6042
831.208	2284
831.303	2285
831.398	3099
831.493	4712
831.588	6897
831.683	3168
831.778	2321
831.873	3227
831.967	5178
832.062	4081
832.157	2851
832.252	3099
832.346	3043
832.441	4087
832.536	3831
832.631	4391
832.725	3547
832.820	3504
832.914	3263
833.009	2168
833.104	2072
833.198	2862
833.293	3255
833.387	5216
833.482	3050
833.576	3171
833.670	2805
833.765	3364
833.859	3534
833.954	4489
834.048	3541
834.142	2931
834.237	1299
834.331	3334
834.425	3897
834.519	3591
834.613	2725
834.708	2891
834.802	2381
834.896	3788
834.990	2945
835.084	3110
835.178	1117
835.272	3016
835.366	3314
835.460	5175
835.554	2949
835.648	2315
835.742	1526
835.836	3137
835.930	2368
836.024	4465
836.117	3706
836.211	2800
836.305	2205
836.399	2656
836.493	1933
836.586	3883
836.680	2794
836.774	2453
836.867	2377
836.961	1730
837.055	1565
837.148	2054
837.242	2470
837.335	3084
837.429	1391
837.522	2225
837.616	1120
837.709	2304
837.803	1690
837.896	3777
837.989	2710
838.083	2586
838.176	1898
838.269	1399
838.363	2395
838.456	1437
838.549	3340
838.642	2007
838.735	2239
838.829	2725
838.922	1763
839.015	2445
839.108	1313
839.201	2330
839.294	3489
839.387	2584
839.480	1030
839.573	2366
839.666	1263
839.759	1868
839.852	1946
839.945	2624
840.038	1123
840.131	1661
840.223	1016
840.316	2868
840.409	2760
840.502	2868
840.594	3668
840.687	1485
840.780	1327
840.873	340
840.965	211
841.058	2415
841.150	2029
841.243	744
841.336	1631
841.428	1502
841.521	1041
841.613	2008
841.706	1972
841.798	1593
841.890	1821
841.983	732
842.075	1550
842.167	2600
842.260	873
842.352	3720
842.444	1616
842.537	1079
842.629	1717
842.721	1122
842.813	1934
842.905	653
842.997	2461
843.090	2423
843.182	1642
843.274	392
843.366	1619
843.458	2102
843.550	2886
843.642	1046
843.734	1785
843.826	725
843.918	1202
844.009	1919
844.101	738
844.193	1718
844.285	1738
844.377	3019
844.469	1863
844.560	419
844.652	962
844.744	1071
844.835	1060
844.927	2101
845.019	1968
845.110	2320
845.202	1512
845.293	1040
845.385	-105
845.476	1437
845.568	1903
845.659	1448
845.751	1358
845.842	1310
845.934	701
846.025	861
846.116	816
846.208	1873
846.299	250
846.390	1410
846.482	966
846.573	2330
846.664	978
846.755	1193
846.846	786
846.937	746
847.029	384
847.120	1047
847.211	690
847.302	1945
847.393	736
847.484	1134
847.575	276
847.666	1040
847.757	410
847.847	1776
847.938	1760
848.029	2124
848.120	649
848.211	1045
848.302	400
848.392	519
848.483	626
848.574	1643
848.664	1299
848.755	1178
848.846	963
848.936	783
849.027	1106
849.118	2114
849.208	397
849.299	2484
849.389	3494
849.480	5973
849.570	11530
849.661	22735
849.751	31683
849.841	10067
849.932	1999
850.022	1711
850.112	1826
850.203	1250
850.293	539
850.383	1531
850.474	-476
850.564	1014
850.654	763
850.744	1181
850.834	853
850.924	1831
851.014	1613
851.104	1716
851.194	163
851.284	843
851.374	153
851.464	1533
851.554	987
851.644	150
851.734	1387
851.824	1350
851.914	843
852.004	1407
852.094	938
852.183	374
852.273	879
852.363	658
852.452	821
852.542	1340
852.632	573
852.721	616
852.811	1022
852.901	1745
852.990	2011
853.080	1120
853.169	1029
853.259	1851
853.348	182
853.438	1809
853.527	3007
853.617	3828
853.706	6359
853.795	12014
853.885	25926
853.974	45849
854.063	84077
854.152	101354
854.242	35503
854.331	9965
854.420	4104
854.509	2800
854.598	2496
854.687	3470
854.777	1677
854.866	1169
854.955	1752
855.044	1331
855.133	729
855.222	1245
855.311	485
855.400	679
855.488	147
855.577	1327
855.666	289
855.755	962
855.844	751
855.933	1229
856.021	1518
856.110	1045
856.199	-465
856.288	295
856.376	371
856.465	1214
856.554	1056
856.642	1215
856.731	1720
856.819	888
856.908	119
856.996	1079
857.085	157
857.173	774
857.262	-387
857.350	1107
857.438	797
857.527	461
857.615	187
857.703	1218
857.792	123
857.880	731
857.968	129
858.056	583
858.145	671
858.233	1448
858.321	-341
858.409	1358
858.497	-316
858.585	91
858.673	1471
858.761	593
858.849	-25
858.937	72
859.025	512
859.113	712
859.201	1165
859.289	1715
859.377	716
859.465	1755
859.552	861
859.640	114
859.728	819
859.816	-173
859.903	940
859.991	-323
860.079	1237
860.166	442
860.254	-183
860.342	512
860.429	811
860.517	325
860.604	1148
860.692	888
860.779	149
860.867	1374
860.954	844
861.042	1426
861.129	870
861.216	1194
861.304	1177
861.391	1095
861.478	1171
861.565	779
861.653	1449
861.740	167
861.827	531
861.914	1615
862.001	435
862.089	561
862.176	1107
862.263	1198
862.350	916
862.437	815
862.524	377
862.611	424
862.698	553
862.785	1389
862.871	1371
862.958	1452
863.045	891
863.132	1917
863.219	348
863.306	692
863.392	1642
863.479	1949
863.566	1057
863.652	1513
863.739	577
863.826	1381
863.912	571
863.999	1211
864.086	1237
864.172	1760
864.259	1530
864.345	1387
864.432	1482
864.518	1899
864.604	1077
864.691	2019
864.777	2352
864.863	3330
864.950	5383
865.036	7485
865.122	13605
865.209	14122
865.295	12164
865.381	10894
865.467	10024
865.553	11228
865.639	11893
865.726	14897
865.812	21681
865.898	33927
865.984	44943
866.070	77032
866.156	66452
866.242	24291
866.328	12741
866.414	10484
866.499	10073
866.585	9268
866.671	9550
866.757	10104
866.843	9183
866.928	9350
867.014	8386
867.100	9820
867.186	9008
867.271	8534
867.357	9433
867.442	7403
867.528	8076
867.614	8280
867.699	8560
867.785	9425
867.870	7167
867.956	8368
868.041	8812
868.127	8147
868.212	8204
868.297	8073
868.383	7411
868.468	8616
868.553	9595
868.639	7796
868.724	8192
868.809	9003
868.894	9015
868.979	7674
869.065	7731
869.150	7263
869.235	7764
869.320	7752
869.405	6241
869.490	7792
869.575	7274
869.660	5656
869.745	8312
869.830	8167
869.915	5694
870.000	6543
870.085	7013
870.169	9420
870.254	7205
870.339	5031
870.424	5359
870.509	8652
870.593	7801
870.678	7437
870.763	6224
870.847	5667
870.932	7257
871.016	6339
871.101	4701
871.186	8484
871.270	8073
871.355	4407
871.439	5967
871.523	7648
871.608	5187
871.692	5176
871.777	7299
871.861	7340
871.945	5911
872.030	6759
872.114	6679
872.198	5895
872.282	5466
872.367	5732
872.451	5189
872.535	6215
872.619	6387
872.703	5349
872.787	5687
872.871	6522
872.955	3751
873.039	3936
873.123	6019
873.207	6643
873.291	2496
873.375	4886
873.459	5721
873.543	5194
873.627	3982
873.711	4766
873.794	6928
873.878	5327
873.962	3358
874.045	4767
874.129	5300
874.137	5311
874.213	5420
874.245	4799
874.296	3797
874.352	3886
874.380	3931
874.460	4278
874.464	4294
874.547	5526
874.568	5503
874.631	5433
874.676	4979
874.714	4604
874.784	5278
874.798	5410
874.881	4813
874.892	4577
874.965	3015
874.999	4235
875.048	5887
875.107	4729
875.131	4263
875.215	3781
875.215	3779
875.298	2175
875.323	3011
875.381	5015
875.430	5719
875.465	6210
875.538	4896
875.548	4714
875.631	3224
875.646	3100
875.714	2539
875.753	2732
875.798	3000
875.861	5038
875.881	5634
875.964	4017
875.968	3967
876.047	3300
876.076	3484
876.130	3689
876.183	4074
876.213	4336
876.291	4527
876.296	4530
876.379	3522
876.398	3139
876.462	1894
876.506	2214
876.545	2613
876.613	3133
876.628	3205
876.711	3435
876.721	3516
876.794	4238
876.828	4300
876.877	4325
876.935	2786
876.960	2174
877.043	3168
877.043	3171
877.125	3734
877.150	4129
877.208	4877
877.258	3099
877.291	2068
877.365	2548
877.374	2583
877.456	2716
877.472	2761
877.539	3050
877.579	3421
877.622	3676
877.687	3610
877.704	3633
877.787	3069
877.794	3136
877.869	3750
877.901	3338
877.952	2674
878.008	1977
878.034	1675
878.115	2407
878.117	2420
878.199	3040
878.222	2963
878.282	2848
878.329	3702
878.364	4265
878.437	2856
878.447	2645
878.529	2208
878.544	2068
878.611	1489
878.651	2293
878.694	3337
878.758	2978
878.776	2792
878.858	3563
878.865	3479
878.941	2237
878.972	1768
879.023	1281
879.078	2038
879.105	2371
879.185	2859
879.187	2868
879.269	2303
879.292	2512
879.351	2791
879.399	1944
879.433	1475
879.506	2088
879.516	2153
879.598	2281
879.613	2135
879.680	1541
879.720	2233
879.762	2870
879.827	1987
879.844	1788
879.926	2213
879.933	2232
880.007	2426
880.040	2182
880.089	1785
880.147	2825
880.171	3326
880.253	4327
880.254	4337
880.335	5271
880.360	5746
880.417	7684
880.467	10217
880.499	11898
880.574	12016
880.580	11644
880.662	5807
880.680	4613
880.744	2186
880.787	1985
880.825	2292
880.893	2130
880.907	1982
880.989	1652
881.000	1639
881.070	2033
881.106	2376
881.152	2760
881.213	2142
881.233	1864
881.315	2136
881.319	2106
881.396	2027
881.426	2153
881.478	1887
881.532	2069
881.559	2543
881.639	2616
881.641	2586
881.722	1616
881.745	1565
881.803	2178
881.852	2130
881.885	1678
881.958	956
881.966	956
882.047	1603
882.064	1675
882.129	1623
882.171	1030
882.210	421
882.277	944
882.291	1140
882.372	1699
882.383	1792
882.454	2181
882.489	2033
882.535	1932
882.596	2294
882.616	2317
882.697	1673
882.702	1650
882.778	1573
882.808	1601
882.859	1380
882.914	1472
882.940	1535
883.020	790
883.021	789
883.102	1960
883.127	2132
883.183	1972
883.233	1636
883.264	1512
883.339	773
883.345	672
883.426	647
883.445	614
883.507	1499
883.551	2022
883.587	2028
883.657	1714
883.668	1704
883.749	2362
883.763	2201
883.830	874
883.869	847
883.910	1286
883.975	1483
883.991	1367
884.072	1244
884.081	1185
884.152	1411
884.187	1727
884.233	1928
884.292	1439
884.314	1245
884.394	1027
884.398	1017
884.475	426
884.504	292
884.555	674
884.610	1154
884.636	1133
884.716	1097
884.716	1097
884.797	1705
884.821	1704
884.877	1155
884.927	815
884.958	666
885.033	329
885.038	314
885.118	323
885.139	384
885.199	695
885.244	713
885.279	794
885.350	1342
885.359	1449
885.439	2180
885.456	2232
885.520	1520
885.561	1163
885.600	940
885.667	1019
885.680	1065
885.760	862
885.773	849
885.840	1017
885.878	1119
885.920	1043
885.984	1192
886.000	1230
886.080	1192
886.089	1180
886.160	901
886.195	720
886.240	826
886.300	1057
886.320	1066
886.400	1206
886.406	1212
886.480	924
886.511	816
886.560	788
886.616	627
886.640	776
886.720	1432
886.722	1448
886.800	595
886.827	254
886.879	704
886.932	1287
886.959	1369
887.038	1487
887.039	1484
887.119	1198
887.143	1109
887.198	1025
887.248	970
887.278	984
887.354	1038
887.358	1042
887.437	1080
887.459	1105
887.517	1320
887.564	1541
887.596	1546
887.669	1196
887.676	1139
887.755	725
887.774	653
887.835	568
887.880	453
887.914	679
887.985	1066
887.994	1112
888.073	1782
888.090	1829
888.153	1965
888.195	2167
888.232	1650
888.300	675
888.311	832
888.391	2012
888.405	2218
888.470	1460
888.510	976
888.549	1147
888.615	1571
888.628	1498
888.708	931
888.720	838
888.787	962
888.825	1041
888.866	679
888.930	159
888.945	248
889.024	769
889.035	836
889.103	1061
889.140	1172
889.182	1281
889.245	1494
889.261	1424
889.340	1095
889.349	1058
889.419	1064
889.454	1072
889.498	675
889.559	152
889.577	330
889.656	1132
889.664	1215
889.735	1447
889.768	1557
889.814	1563
889.873	1568
889.978	926
890.083	1051
890.187	1004
890.292	1292
890.397	607
890.501	1302
890.606	680
890.710	1684
890.815	1393
890.919	1182
891.024	757
891.128	675
891.233	1329
891.337	805
891.442	651
891.546	1437
891.650	481
891.755	643
891.859	1419
891.963	1318
892.068	977
892.172	1419
892.276	427
892.380	1485
892.484	1690
892.589	1030
892.693	1566
892.797	1440
892.901	218
893.005	-49
893.109	655
893.213	1552
893.317	1113
893.421	1614
893.525	167
893.629	508
893.733	170
893.837	1592
893.941	80
894.045	1366
894.148	96
894.252	1265
894.356	806
894.460	1160
894.564	909
894.667	1466
894.771	373
894.875	627
894.978	1183
895.082	510
895.186	1108
895.289	843
895.393	1061
895.496	988
895.600	-314
895.703	843
895.807	865
895.910	865
896.014	908
896.117	493
896.221	1474
896.324	1490
896.427	106
896.531	595
896.634	180
896.737	920
896.840	918
896.944	1532
897.047	1061
897.150	1458
897.253	-389
897.356	1047
897.460	261
897.563	590
897.666	655
897.769	1102
897.872	-277
897.975	1476
898.078	535
898.181	253
898.284	321
898.387	1620
898.490	683
898.593	530
898.695	-277
898.798	723
898.901	76
899.004	1092
899.107	763
899.209	554
899.312	431
899.415	6
899.518	-121
899.620	670
899.723	-11
899.826	1105
899.928	984
900.031	-113
900.133	1235
900.236	971
900.338	-549
900.441	854
900.543	187
900.646	959
900.748	460
900.851	941
900.953	-37
901.055	990
901.158	992
901.260	769
901.362	1184
901.465	148
901.567	781
901.669	1263
901.771	329
901.873	895
901.976	-559
902.078	568
902.180	-368
902.282	-152
902.384	-280
902.486	1111
902.588	662
902.690	449
902.792	-378
902.894	550
902.996	132
903.098	602
903.200	368
903.302	894
903.404	-161
903.505	628
903.607	-246
903.709	962
903.811	-334
903.913	329
904.014	-319
904.116	604
904.218	-720
904.319	657
904.421	553
904.523	1025
904.624	116
904.726	-163
904.827	20
904.929	-43
905.030	61
905.132	910
905.233	239
905.335	384
905.436	-564
905.537	-390
905.639	447
905.740	-458
905.841	-308
905.943	1355
906.044	-204
906.145	209
906.247	-369
906.348	686
906.449	237
906.550	448
906.651	569
906.752	159
906.854	137
906.955	406
907.056	-53
907.157	755
907.258	-110
907.359	-478
907.460	-136
907.561	-115
907.662	-144
907.762	449
907.863	-663
907.964	132
908.065	256
908.166	472
908.267	-146
908.367	-299
908.468	-724
908.569	446
908.670	402
908.770	813
908.871	-395
908.971	86
909.072	-399
909.173	-25
909.273	-1030
909.374	136
909.474	-368
909.575	-27
909.675	-39
909.776	239
909.876	-716
909.977	1001
910.077	552
910.177	732
910.278	165
910.378	-779
910.478	316
910.579	-161
910.679	208
910.779	698
910.879	177
910.980	189
911.080	-453
911.180	-222
911.280	-520
911.380	558
911.480	302
911.580	-235
911.680	-1143
911.780	725
911.880	79
911.980	219
912.080	189
912.180	884
912.280	45
912.380	14
912.480	264
912.580	767
912.679	-166
912.779	62
912.879	29
912.979	342
913.078	-632
913.178	693
913.278	-213
913.377	85
913.477	-319
913.577	-265
913.676	164
913.776	55
913.875	555
913.975	861
914.074	-256
914.174	356
914.273	-534
914.373	1209
914.472	-64
914.572	471
914.671	-286
914.770	122
914.870	-132
914.969	-392
915.068	-176
915.167	112
915.267	-464
915.366	640
915.465	-839
915.564	605
915.663	348
915.763	142
915.862	789
915.961	12
916.060	-514
916.159	703
916.258	-401
916.357	87
916.456	267
916.555	119
916.654	-578
916.752	87
916.851	509
916.950	488
917.049	-261
917.148	432
917.247	350
917.345	-280
917.444	-1104
917.543	-68
917.642	35
917.740	461
917.839	-408
917.937	799
918.036	148
918.135	708
918.233	-1072
918.332	-590
918.430	-79
918.529	1681
918.627	-108
918.726	414
918.824	33
918.923	-166
919.021	22
919.119	-10
919.218	84
919.316	417
919.414	-240
919.512	219
919.611	-96
919.709	636
919.807	19
919.905	977
920.003	508
920.102	606
920.200	-235
920.298	374
920.396	289
920.494	128
920.592	-385
920.690	643
920.788	288
920.886	-259
920.984	552
921.082	252
921.180	626
921.277	763
921.375	1224
921.473	555
921.571	1160
921.669	2041
921.766	1639
921.864	1184
921.962	984
922.060	1263
922.157	126
922.255	2049
922.352	860
922.450	2240
922.548	1335
922.645	2039
922.743	1745
922.840	3660
922.938	3564
923.035	4082
923.133	3347
923.230	4560
923.327	4287
923.425	4723
923.522	3864
923.619	4123
923.717	2597
923.814	3991
923.911	2084
924.008	4548
924.106	2929
924.203	3164
924.300	3336
924.397	3937
924.494	3651
924.591	4048
924.688	2570
924.786	3467
924.883	3385
924.979	3467
925.077	3209
925.173	3887
925.270	3721
925.367	2446
925.464	3955
925.561	3650
925.658	3948
925.755	3648
925.852	3952
925.948	3777
926.045	3463
926.142	3985
926.239	3702
926.335	2190
926.432	2500
926.529	3730
926.625	3901
926.722	3156
926.818	2719
926.915	3502
927.011	2177
927.108	1919
927.204	3178
927.301	3536
927.397	3674
927.494	3657
927.590	2524
927.687	2247
927.783	4064
927.879	2669
927.976	2616
928.072	2467
928.168	2657
928.264	3981
928.361	2533
928.457	3791
928.553	3317
928.649	2360
928.745	2749
928.841	2006
928.937	2741
929.033	2999
929.129	2221
929.225	3924
929.321	2792
929.417	2199
929.513	2995
929.609	2089
929.705	2430
929.801	3669
929.897	2023
929.993	2911
930.089	2235
930.184	2563
930.280	2124
930.376	4251
930.471	1810
930.567	1852
930.663	2522
930.758	1939
930.854	1840
930.950	2299
931.045	2233
931.141	2710
931.236	2847
931.332	2869
931.427	1661
931.523	3078
931.618	2489
931.714	1011
931.809	2803
931.905	3548
932.000	1616
932.095	1435
932.191	2436
932.286	3154
932.381	2277
932.476	2208
932.572	1891
932.667	1850
932.762	1693
932.857	2125
932.952	3138
933.047	2491
933.142	1294
933.237	1948
933.332	2246
933.427	2940
933.522	2149
933.617	2525
933.712	1754
933.807	2628
933.902	3195
933.997	2875
934.092	1819
934.187	2238
934.282	1496
934.376	2136
934.471	2450
934.566	1916
934.661	1985
934.755	2521
934.850	1867
934.945	2508
935.039	1000
935.134	1930
935.228	1419
935.323	2956
935.417	1461
935.512	1476
935.606	1823
935.701	2615
935.795	1686
935.890	2383
935.984	2136
936.079	1241
936.173	1773
936.267	2507
936.362	1327
936.456	2123
936.550	2646
936.644	2128
936.738	1663
936.833	1527
936.927	1475
937.021	1915
937.115	2523
937.209	1377
937.303	3107
937.397	1402
937.491	1251
937.585	2467
937.679	1343
937.773	2068
937.867	1380
937.961	1724
938.055	1667
938.149	2277
938.243	1176
938.337	995
938.430	896
938.524	1740
938.618	1723
938.712	963
938.805	1632
938.899	2401
938.993	2083
939.086	2164
939.180	588
939.274	1320
939.367	1628
939.461	1567
939.554	2272
939.648	1202
939.741	771
939.835	1821
939.928	2821
940.022	1557
940.115	989
940.208	2289
940.302	2282
940.395	3074
940.488	619
940.582	2278
940.675	830
940.768	1251
940.861	1982
940.954	3048
941.048	1208
941.141	1048
941.234	519
941.327	1483
941.420	1746
941.513	1829
941.606	762
941.699	1656
941.792	1286
941.885	1869
941.978	1505
942.071	1342
942.164	164
942.257	1052
942.349	1215
942.442	1781
942.535	658
942.628	1850
942.721	814
942.813	1116
942.906	1404
942.999	768
943.091	837
943.184	296
943.277	795
943.369	1745
943.462	596
943.554	854
943.647	1399
943.739	1636
943.832	1373
943.924	1047
944.017	1033
944.109	866
944.201	371
944.294	929
944.386	1089
944.478	945
944.571	1194
944.663	1519
944.755	1007
944.847	1910
944.940	1556
945.032	444
945.124	927
945.216	1878
945.308	511
945.400	1550
945.492	1328
945.584	1175
945.676	1504
945.768	1754
945.860	1549
945.952	1172
946.044	1517
946.136	1027
946.228	656
946.320	948
946.412	1129
946.503	1188
946.595	1859
946.687	556
946.779	328
946.870	1006
946.962	749
947.054	1125
947.145	1407
947.237	750
947.329	581
947.420	1289
947.512	156
947.603	142
947.695	422
947.786	490
947.878	652
947.969	1488
948.061	369
948.152	574
948.243	-382
948.335	579
948.426	-208
948.517	328
948.609	827
948.700	1753
948.791	660
948.882	911
948.973	-325
949.065	309
949.156	381
949.247	33
949.338	402
949.429	972
949.520	708
949.611	87
949.702	1303
949.793	756
949.884	500
949.975	732
950.066	-141
950.157	742
950.247	560
950.338	-514
950.429	252
950.520	638
950.611	508
950.701	621
950.792	938
950.883	1910
950.973	648
951.064	1585
951.155	988
951.245	1594
951.336	549
951.427	1393
951.517	1043
951.608	1465
951.698	817
951.788	650
951.879	723
951.969	957
952.060	295
952.150	1054
952.240	1724
952.331	-1081
952.421	1316
952.511	-92
952.602	902
952.692	-257
952.782	192
952.872	480
952.962	457
953.052	947
953.143	614
953.233	1466
953.323	862
953.413	159
953.503	27
953.593	1450
953.683	434
953.773	-353
953.863	472
953.953	526
954.042	199
954.132	883
954.222	1069
954.312	408
954.402	-70
954.492	1072
954.581	133
954.671	155
954.761	-410
954.850	1634
954.940	-810
955.030	781
955.119	192
955.209	357
955.298	-87
955.388	939
955.477	889
955.567	-318
955.656	519
955.746	1426
955.835	-288
955.925	412
956.014	-154
956.103	1167
956.193	621
956.282	1379
956.371	627
956.461	-363
956.550	7
956.639	699
956.728	422
956.817	721
956.906	373
956.995	941
957.085	-706
957.174	451
957.263	464
957.352	423
957.441	-216
957.530	619
957.619	318
957.708	7
957.796	-18
957.885	415
957.974	522
958.063	821
958.152	-851
958.241	207
958.329	22
958.418	24
958.507	-642
958.596	486
958.684	-255
958.773	1096
958.861	-590
958.950	541
959.039	-117
959.127	104
959.216	465
959.304	357
959.393	-81
959.481	889
959.570	-303
959.658	-401
959.746	-239
959.835	771
959.923	129
960.011	89
960.100	560
960.188	301
960.276	-541
960.365	613
960.453	-347
960.541	-794
960.629	187
960.717	68
960.805	-778
960.893	470
960.981	-561
961.069	1272
961.158	574
961.245	1590
961.333	-273
961.421	-426
961.509	856
961.597	-50
961.685	484
961.773	-32
961.861	-630
961.949	1344
962.036	-1059
962.124	114
962.212	-952
962.299	-187
962.387	112
962.475	-343
962.562	-818
962.650	153
962.738	262
962.825	161
962.913	387
963.000	62
963.088	624
963.175	577
963.263	-225
963.350	-426
963.438	286
963.525	-103
963.612	544
963.700	-22
963.787	-150
963.874	22
963.962	-89
964.049	-292
964.136	-148
964.223	-376
964.310	-298
964.398	129
964.485	-617
964.572	681
964.659	889
964.746	123
964.833	-440
964.920	-92
965.007	-3
965.094	166
965.181	-419
965.268	546
965.355	-707
965.441	328
965.528	-1170
965.615	508
965.702	-337
965.789	-106
965.875	-379
965.962	874
966.049	-826
966.136	877
966.222	-426
966.309	933
966.395	-33
966.482	1185
966.569	-426
966.655	764
966.742	-331
966.828	475
966.915	-610
967.001	22
967.087	-929
967.174	155
967.260	143
967.347	-215
967.433	-770
967.519	541
967.605	-683
967.692	-474
967.778	-659
967.864	-445
967.950	6
968.036	102
968.123	-606
968.209	-51
968.295	-876
968.381	2245
968.467	307
968.553	-1395
968.639	388
968.725	-757
968.811	604
968.897	299
968.983	326
969.069	-687
969.154	-443
969.240	768
969.326	-1249
969.412	-728
969.497	-800
969.583	-66
969.669	748
969.755	708
969.840	-284
969.926	1359
970.012	1349
970.097	2239
970.183	690
970.268	417
970.354	716
970.439	-963
970.525	631
970.610	-850
970.696	423
970.781	241
970.866	19
970.952	623
971.037	-136
971.122	-126
971.208	-300
971.293	-277
971.378	-794
971.463	-529
971.549	158
971.634	-538
971.719	-478
971.804	-621
971.889	-385
971.974	-53
972.059	-271
972.144	312
972.229	-295
972.314	-299
972.399	86
972.484	-12
972.569	-310
972.654	-548
972.739	437
972.824	-28
972.908	31
972.993	-127
973.078	-667
973.163	-221
973.247	70
973.332	-1251
973.417	953
973.501	-268
973.586	-57
973.671	833
973.755	-1075
973.840	887
973.924	220
974.009	1369
974.093	764
974.178	526
974.262	-222
974.346	-839
974.431	-699
974.515	-526
974.600	273
974.684	-228
974.768	105
974.852	1302
974.937	-1497
975.021	816
975.105	-757
975.189	250
975.273	-256
975.358	-458
975.442	-1016
975.526	320
975.610	-983
975.694	-102
975.778	859
975.862	666
975.946	-2031
976.030	1264
976.114	-1025
976.198	469
976.281	139
976.365	624
976.449	-534
976.533	63
976.617	-1141
976.700	-213
976.784	345
976.868	-7
976.951	-947
977.035	-523
977.119	-416
977.202	-289
977.286	-110
977.369	168
977.453	761
977.536	1628
977.620	155
977.703	685
977.787	-857
977.870	723
977.953	659
978.037	-946
978.120	847
978.203	-517
978.287	29
978.370	-686
978.453	289
978.536	-229
978.620	994
978.703	1298
978.786	-770
978.869	-622
978.952	-1143
979.035	1082
979.118	-101
979.201	62
979.284	242
979.367	360
979.450	427
979.533	-1426
979.616	-441
979.699	-274
979.782	-886
979.865	191
979.948	-234
980.030	170
980.113	27
980.196	-265
980.279	266
980.361	-268
980.444	-724
980.526	349
980.609	115
980.692	1538
980.774	679
980.857	-930
980.939	753
981.022	391
981.104	-270
981.187	385
981.269	-527
981.352	-450
981.434	-1391
981.516	-235
981.599	1488
981.681	452
981.763	-596
981.846	-60
981.928	140
982.010	-227
982.092	-632
982.174	769
982.256	-671
982.339	-321
982.421	-345
982.503	506
982.585	-226
982.667	265
982.749	-295
982.831	-316
982.913	-1854
982.995	574
983.077	-1272
983.158	1134
983.240	-1290
983.322	890
983.404	710
983.486	-613
983.568	77
983.649	-68
983.731	1194
983.813	77
983.894	740
983.976	-377
984.058	-26
984.139	1259
984.221	-912
984.302	565
984.384	-273
984.465	-906
984.547	-445
984.628	168
984.710	847
984.791	-273
984.872	-6
984.954	310
985.035	306
985.116	-270
985.198	-204
985.279	1907
985.360	-143
985.441	-34
985.522	925
985.604	-392
985.685	-2170
985.766	973
985.847	633
985.928	-127
986.009	381
986.090	121
986.171	996
986.252	-644
986.333	184
986.414	469
986.495	19
986.576	938
986.656	-362
986.737	1189
986.818	489
986.899	680
986.980	-288
987.060	1513
987.141	-741
987.222	950
987.302	1234
987.383	803
987.464	1276
987.544	928
987.625	427
987.705	821
987.786	1074
987.866	982
987.947	1029
988.027	839
988.108	191
988.188	1153
988.268	627
988.349	1478
988.429	-577
988.509	806
988.589	-469
988.670	-944
988.750	1889
988.830	794
988.910	909
988.990	1018
989.070	407
989.151	-178
989.231	-306
989.311	1098
989.391	-86
989.471	1185
989.551	-326
989.631	-271
989.711	-218
989.791	187
989.870	169
989.950	2442
990.030	-996
990.110	547
990.190	-668
990.269	265
990.349	-241
990.429	1017
990.509	1277
990.588	101
990.668	615
990.747	137
990.827	-577
990.907	343
990.986	-512
991.066	633
991.145	-728
991.225	1683
991.304	-204
991.383	789
991.463	-593
991.542	1317
991.622	-150
991.701	-348
991.780	77
991.859	374
991.939	202
992.018	1339
992.097	836
992.176	323
992.256	-316
992.335	-764
992.414	702
992.493	372
992.572	-410
992.651	860
992.730	-31
992.809	-18
992.888	-553
992.967	-267
993.046	-181
993.125	-1149
993.203	438
993.282	885
993.361	23
993.440	625
993.519	-1106
993.597	28
993.676	-804
993.755	958
993.834	-28
993.912	59
993.991	69
994.069	-510
994.148	-107
994.226	372
994.305	52
994.384	274
994.462	903
994.540	-222
994.619	-753
994.697	430
994.776	-319
994.854	436
994.932	-705
995.011	-270
995.089	242
995.167	747
995.245	-267
995.324	145
995.402	-241
995.480	-524
995.558	274
995.636	-821
995.714	-285
995.792	814
995.870	-388
995.948	-797
996.026	1020
996.104	-739
996.182	507
996.260	-358
996.338	-157
996.416	-1159
996.494	-1305
996.572	107
996.649	-47
996.727	-205
996.805	-194
996.883	-208
996.960	-145
997.038	345
997.116	-490
997.193	-879
997.271	993
997.348	-718
997.426	-293
997.504	136
997.581	361
997.658	566
997.736	-1708
997.813	-459
997.891	230
997.968	-1160
998.046	-840
998.123	-4
998.200	-743
998.277	-1208
998.355	-56
998.432	-628
998.509	-1123
998.586	335
998.663	334
998.741	-193
998.818	-1000
998.895	-312
998.972	-284
999.049	604
999.126	-1274
999.203	-273
999.280	-317
999.357	-569
999.434	-744
999.511	-422
999.587	406
999.664	-670
999.741	-265
999.818	146
999.895	-1551
999.971	-986
1000.048	-1426
1000.125	1267
1000.202	-1157
1000.278	-421
1000.355	-260
1000.431	-1018
1000.508	-1423
1000.584	-472
1000.661	-781
1000.738	-1348
1000.814	-974
1000.890	-359
1000.967	-1097
1001.043	-7
1001.120	-1423
1001.196	65
1001.272	-1771
1001.349	-700
1001.425	297
1001.501	-1186
1001.577	-1519
1001.654	685
1001.730	-1486
1001.806	-258
1001.882	-1531
1001.958	167
1002.034	-533
1002.110	-129
1002.186	-1202
1002.262	-632
1002.338	-1643
1002.414	-71
1002.490	-372
1002.566	-838
1002.642	-1213
1002.718	-469
1002.794	-692
1002.870	-152
1002.945	-1212
1003.021	-133
1003.097	-1430
1003.173	-67
1003.248	-1429
1003.324	-824
1003.400	-1206
1003.475	-1605
1003.551	-1088
1003.626	-991
1003.702	-1319
1003.777	-2
1003.853	-941
1003.928	-1323
1004.004	-1606
1004.079	-933
1004.155	-494
1004.230	-2023
1004.305	-496
1004.381	-939
1004.456	-1576
1004.531	-1257
1004.607	-765
1004.682	-1469
1004.757	-1008
1004.832	-501
1004.907	-1268
1004.982	-10
1005.057	-1033
1005.133	-776
1005.208	-964
1005.283	-563
1005.358	-520
1005.433	-1036
1005.508	-494
1005.583	-1094
1005.657	-1810
1005.732	-628
1005.807	-2027
1005.882	-471
1005.957	-1297
1006.032	-345
1006.106	-1687
1006.181	-465
1006.256	-1534
1006.331	-1319
1006.405	-2031
1006.480	-976
1006.554	-1119
1006.629	-900
1006.704	-1398
1006.778	-714
1006.853	-1394
1006.927	-1174
1007.002	-1862
1007.076	-414
1007.150	-909
1007.225	-294
1007.299	-1014
1007.373	-1604
1007.448	-1469
1007.522	-1047
1007.596	-1065
1007.671	-1760
1007.745	-866
1007.819	-2574
1007.893	-1735
1007.967	-964
1008.041	-2284
1008.115	-668
1008.190	-2180
1008.264	-491
1008.338	-1874
1008.412	-1575
1008.486	-1274
1008.560	-1054
1008.633	-2122
1008.707	-732
1008.781	-1397
1008.855	-1864
1008.929	-1292
1009.003	-1605
1009.076	-1733
1009.150	-1189
1009.224	-1193
1009.298	-849
1009.371	-2203
1009.445	-289
1009.519	-1501
1009.592	-782
1009.666	-1274
1009.739	-1169
1009.813	-2844
1009.886	-263
1009.960	-1638
1010.033	-1121
1010.107	-1489
1010.180	-1832
1010.253	-1465
1010.327	-1910
1010.400	-1421
1010.473	-884
1010.547	-518
1010.620	-862
1010.693	-835
1010.766	-1689
1010.840	-1784
1010.913	-1052
1010.986	-2694
1011.059	-1208
1011.132	-1604
1011.205	-843
1011.278	-1511
1011.351	-1170
1011.424	-1730
1011.497	-543
1011.570	-1227
1011.643	-2369
1011.716	-2546
1011.789	-670
1011.862	-1398
1011.934	-1759
1012.007	-2021
1012.080	-1301
1012.153	-1682
1012.225	-883
1012.298	-2085
1012.371	-1399
1012.443	-1506
1012.516	-1819
1012.588	-2085
1012.661	-1004
1012.733	-2048
1012.806	-1639
1012.879	-1769
1012.951	-2118
1013.023	-1813
1013.096	-1160
1013.168	-2429
1013.241	-641
1013.313	-1171
1013.385	-1777
1013.458	-2079
1013.530	-853
1013.602	-2185
1013.674	-1067
1013.746	-2149
1013.819	-1568
1013.891	-1454
1013.963	-2045
1014.035	-1615
1014.107	-1648
1014.179	-1298
1014.251	-1680
1014.323	-1665
1014.395	-1184
1014.467	-2233
1014.539	76
1014.611	-2134
1014.683	-1007
1014.754	-1601
1014.826	-1898
1014.898	-1827
1014.970	-2134
1015.042	-1424
1015.113	-1582
1015.185	-1906
1015.257	-1968
1015.328	-802
1015.400	-1867
1015.471	-1355
1015.543	-1890
1015.615	-2277
1015.686	-1518
1015.757	-1533
1015.829	-663
1015.901	-2715
1015.972	-1370
1016.043	-1993
1016.115	-1621
1016.186	-1020
1016.257	-1578
1016.328	-1047
1016.400	-962
1016.471	-2434
1016.542	-2079
1016.613	-1412
1016.685	-1637
1016.756	-1950
1016.827	-378
1016.898	-1712
1016.969	-1575
1017.040	-2043
1017.111	-2076
1017.182	-2446
1017.253	-1657
1017.324	-2157
1017.395	-1798
1017.466	-1275
1017.537	-1629
1017.608	-1308
1017.678	-1828
1017.749	-2210
1017.820	-1651
1017.891	-1620
1017.961	-1964
1018.032	-1662
1018.103	-1200
1018.173	-1826
1018.244	-1613
1018.315	-1635
1018.385	-1450
1018.456	-1685
1018.526	-2079
1018.597	-2079
1018.667	-1550
1018.738	-1427
1018.808	-1534
1018.878	-1913
1018.949	-852
1019.019	-1810
1019.089	-1224
1019.160	-2390
1019.230	-1901
1019.300	-1399
1019.371	-1897
1019.441	-1686
1019.511	-802
1019.581	-1889
1019.651	-1874
1019.721	-1136
1019.791	-1617
1019.861	-693
1019.931	-1454
1020.001	-2112
1020.071	-1976
1020.141	-1757
1020.211	-1603
1020.281	-1502
1020.351	-1655
1020.421	-1843
1020.491	-711
1020.560	-1398
1020.630	-1825
1020.700	-1870
1020.770	-1559
1020.839	-2107
1020.909	-1749
1020.979	-2273
1021.048	-2291
1021.118	-2474
1021.187	-2210
1021.257	-1544
1021.326	-1140
1021.396	-2367
1021.465	-1484
1021.535	-1453
1021.604	-2811
1021.674	-1221
1021.743	-1363
1021.812	-1902
1021.882	-1630
1021.951	-2210
1022.020	-1713
1022.089	-1263
1022.159	-2026
1022.228	-1355
1022.297	-2027
1022.366	-1894
1022.435	-1507
1022.504	-2300
1022.573	-1706
1022.642	-2143
1022.711	-821
1022.781	-1623
1022.849	-1062
1022.918	-2109
1022.987	-1748
1023.056	-1495
1023.125	-1458
1023.194	-2343
1023.263	-1206
1023.331	-1625
1023.400	-1855
1023.469	-2229
1023.538	-1059
1023.606	-1645
1023.675	-1564
1023.744	-1986
1023.812	-1932
1023.881	-2112
1023.949	-2022
1024.018	-2131
1024.086	-2142
1024.155	-2104
1024.223	-2299
1024.292	-1857
1024.360	-953
1024.429	-2638
1024.497	-2031
1024.565	-1467
1024.634	-2249
1024.702	-1817
1024.770	-1847
1024.838	-2295
1024.907	-1708
1024.975	-2715
1025.043	-2072
1025.111	-1406
1025.179	-1677
1025.247	-2421
1025.315	-1585
1025.383	-1922
1025.451	-1990
1025.519	-2205
1025.587	-2790
1025.655	-1510
1025.723	-1422
1025.791	-2037
1025.859	-1607
1025.927	-2353
1025.995	-2108
1026.062	-1608
1026.130	-1613
1026.198	-2430
1026.266	-1808
1026.333	-1570
1026.401	-1065
1026.469	-2088
1026.536	-2325
1026.604	-1752
1026.671	-2496
1026.739	-1571
1026.806	-1809
1026.874	-2525
1026.941	-1169
1027.009	-1906
1027.076	-2068
1027.144	-1588
1027.211	-2817
1027.278	-2977
1027.345	-1759
1027.413	-1801
1027.480	-1461
1027.547	-2271
1027.614	-2112
1027.682	-2166
1027.749	-1374
1027.816	-1937
1027.883	-1807
1027.950	-1950
1028.017	-2275
1028.084	-1547
1028.151	-1828
1028.218	-2472
1028.285	-1543
1028.352	-1975
1028.419	-1914
1028.486	-2555
1028.553	-1005
1028.619	-2127
1028.686	-1389
1028.753	-2447
1028.820	-1547
1028.886	-2108
1028.953	-1092
1029.020	-2498
1029.086	-1787
1029.153	-3063
1029.220	-1881
1029.286	-1883
1029.353	-1395
1029.419	-2238
1029.486	-1512
1029.552	-2194
1029.619	-1610
1029.685	-2141
1029.751	-2016
1029.818	-1237
1029.884	-2188
1029.951	-1356
1030.017	-880
1030.083	-1715
1030.149	-1988
1030.216	-1938
1030.282	-2102
1030.348	-2231
1030.414	-1997
1030.480	-2239
1030.546	-1921
1030.612	-1901
1030.678	-2471
1030.744	-2574
1030.810	-1786
1030.876	-1645
1030.942	-3053
1031.008	-1585
1031.074	-2254
1031.140	-2949
1031.206	-1632
1031.272	-2649
1031.337	-889
1031.403	-1802
1031.469	-1647
1031.534	-2693
1031.600	-1390
1031.666	-2206
1031.731	-1889
1031.797	-2103
1031.863	-1945
1031.928	-2845
1031.994	-1998
1032.059	-2036
1032.125	-1032
1032.190	-1977
1032.256	-2099
1032.321	-2434
1032.386	-1245
1032.452	-1505
1032.517	-2283
1032.582	-1884
1032.647	-2005
1032.713	-2387
1032.778	-2420
1032.843	-1940
1032.908	-1928
1032.974	-2096
1033.039	-1314
1033.104	-1755
1033.169	-1966
1033.234	-1999
1033.299	-1227
1033.364	-1082
1033.429	-1621
1033.494	-2179
1033.559	-2015
1033.624	-2591
1033.688	-1383
1033.753	-2444
1033.818	-2454
1033.883	-1760
1033.948	-1977
1034.013	-1829
1034.077	-1310
1034.142	-1046
1034.207	-1042
1034.271	879
1034.336	705
1034.400	-1272
1034.465	-1416
1034.530	-1773
1034.594	-2054
1034.658	-2351
1034.723	-1618
1034.787	-2066
1034.852	-2184
1034.916	-2380
1034.981	-1503
1035.045	-2484
1035.109	-2320
1035.173	-1717
1035.238	-2545
1035.302	-2909
1035.366	-2287
1035.430	-2343
1035.495	-2802
1035.559	-2521
1035.623	-2091
1035.687	-2189
1035.751	-1543
1035.815	-2626
1035.879	-2513
1035.943	-2804
1036.007	-1816
1036.071	-2439
1036.135	-2507
1036.198	-2766
1036.262	-2307
1036.326	-1776
1036.390	-1831
1036.454	-2176
1036.517	-2254
1036.581	-2046
1036.645	-1195
1036.709	-1577
1036.772	-1506
1036.836	-1832
1036.900	-2355
1036.963	-2836
1037.026	-2536
1037.090	-3065
1037.154	-1540
1037.217	-2773
1037.280	-2554
1037.344	-2285
1037.407	-2246
1037.471	-2742
1037.534	-2677
1037.597	-2612
1037.661	-2126
1037.724	-3379
1037.787	-2843
1037.850	-2717
1037.913	-2604
1037.977	-1995
1038.040	-1677
1038.103	-1635
1038.166	-2546
1038.229	-2493
1038.292	-3032
1038.355	-2864
1038.418	-2188
1038.481	-1754
1038.544	-2838
1038.607	-2193
1038.670	-2481
1038.732	-2721
1038.795	-2643
1038.858	-2312
1038.921	-2376
1038.984	-2468
1039.046	-2458
1039.109	-3608
1039.172	-2633
1039.234	-3369
1039.297	-3173
1039.360	-2176
1039.422	-1870
1039.485	-2113
1039.547	-2879
1039.610	-2576
1039.672	-2127
1039.734	-2612
1039.797	-1993
1039.859	-2850
1039.922	-2494
1039.984	-3109
1040.046	-1241
1040.109	-2913
1040.171	-2454
1040.233	-2251
1040.295	-1393
1040.358	-2955
1040.420	-2504
1040.482	-2226
1040.544	-3045
1040.606	-3025
1040.668	-2383
1040.730	-2761
1040.792	-1537
1040.854	-2952
1040.916	-2009
1040.978	-2310
1041.040	-1570
1041.102	-2451
1041.164	-2893
1041.225	-3039
1041.287	-2788
1041.349	-2336
1041.411	-2657
1041.472	-2743
1041.534	-2123
1041.596	-3018
1041.657	-2342
1041.719	-1865
1041.781	-2593
1041.842	-2675
1041.904	-3036
1041.965	-2221
1042.027	-2085
1042.088	-3192
1042.150	-2498
1042.211	-1929
1042.272	-2312
1042.334	-3187
1042.395	-1946
1042.456	-2488
1042.518	-2691
1042.579	-2723
1042.640	-2383
1042.701	-2245
1042.763	-2122
1042.824	-2679
1042.885	-2381
1042.946	-2133
1043.007	-2403
1043.068	-2852
1043.129	-1717
1043.190	-3395
1043.251	-1657
1043.312	-2980
1043.373	-1954
1043.434	-3186
1043.495	-1935
1043.556	-2410
1043.616	-2324
1043.677	-2425
1043.738	-1607
1043.799	-2470
1043.859	-2268
1043.920	-2893
1043.981	-2331
1044.041	-2812
1044.102	-2139
1044.162	-2446
1044.223	-2290
1044.284	-2945
1044.344	-2168
1044.405	-2395
1044.465	-2658
1044.525	-2760
1044.586	-2697
1044.646	-2819
1044.707	-1567
1044.767	-1693
1044.827	-1703
1044.887	-2282
1044.948	-1262
1045.008	-2516
1045.068	-2331
1045.128	-1404
1045.188	-1379
1045.249	-1532
1045.309	-2279
1045.369	-2012
1045.429	-1812
1045.489	-2811
1045.549	-1686
1045.609	-1858
1045.669	-1240
1045.729	-2421
1045.789	-2591
1045.848	-1604
1045.908	-1724
1045.968	-2127
1046.028	-1407
1046.088	-2018
1046.147	-1258
1046.207	-1883
1046.267	-2097
1046.326	-1867
1046.386	-947
1046.446	-2000
1046.505	-1077
1046.565	-1439
1046.624	-1433
1046.684	-1637
1046.743	-840
1046.803	-282
1046.862	48
1046.922	0
