'Start Wavelength	183.907
'End Wavelength	1046.922
'Gate Delay	5.000
'Gate Width (ms)	1.050
'Laser Output Level	0.000
'X Position	0.000
'Y Position	0.000
'Z Position	0.000
'Grid Point Number	1.000
'Shot Number	100.000
183.907	1074.000
183.977	103.000
184.047	792
184.116	578
184.186	-26
184.256	-329
184.325	-119
184.395	-351
184.465	1455
184.534	307
184.604	328
184.674	278
184.743	-414
184.813	173
184.883	463
184.952	1017
185.022	578
185.092	349
185.161	285
185.231	248
185.301	-317
185.370	469
185.440	34
185.509	-535
185.579	572
185.649	533
185.718	399
185.788	996
185.857	-395
185.927	-418
185.996	188
186.066	-101
186.136	-153
186.205	916
186.275	1201
186.344	152
186.414	-61
186.483	614
186.553	865
186.622	1429
186.692	346
186.761	269
186.831	66
186.900	-239
186.970	330
187.039	197
187.109	1025
187.178	1076
187.248	694
187.317	395
187.387	-674
187.456	472
187.526	250
187.595	-123
187.664	629
187.734	289
187.803	158
187.873	446
187.942	317
188.012	1280
188.081	-137
188.150	131
188.220	592
188.289	49
188.358	203
188.428	580
188.497	149
188.567	886
188.636	56
188.705	-245
188.775	3
188.844	-555
188.913	774
188.983	-135
189.052	-47
189.121	488
189.191	491
189.260	314
189.329	213
189.399	186
189.468	548
189.537	581
189.606	653
189.676	347
189.745	354
189.814	213
189.883	404
189.953	549
190.022	1228
190.091	948
190.161	254
190.230	49
190.299	211
190.368	818
190.437	-643
190.507	-333
190.576	1258
190.645	507
190.714	-328
190.783	-796
190.853	601
190.922	254
190.991	270
191.060	909
191.129	-639
191.198	296
191.268	-173
191.337	933
191.406	543
191.475	40
191.544	317
191.613	837
191.682	-213
191.752	60
191.821	541
191.890	-221
191.959	34
192.028	-41
192.097	400
192.166	-215
192.235	-347
192.304	447
192.373	-280
192.442	987
192.511	-336
192.580	375
192.650	597
192.719	263
192.788	260
192.857	213
192.926	131
192.995	12
193.064	-4
193.133	817
193.202	-483
193.271	1082
193.340	1048
193.409	-249
193.478	812
193.547	575
193.615	635
193.684	1310
193.753	424
193.822	916
193.891	-141
193.960	91
194.029	-117
194.098	490
194.167	568
194.236	762
194.305	67
194.374	45
194.443	518
194.512	515
194.580	-253
194.649	589
194.718	787
194.787	781
194.856	507
194.925	749
194.994	302
195.062	762
195.131	-606
195.200	435
195.269	283
195.338	-224
195.407	27
195.475	698
195.544	1145
195.613	316
195.682	551
195.751	332
195.819	-729
195.888	876
195.957	1438
196.026	-59
196.094	672
196.163	154
196.232	558
196.301	205
196.369	484
196.438	347
196.507	303
196.576	804
196.644	481
196.713	-270
196.782	363
196.850	217
196.919	130
196.988	930
197.056	-629
197.125	1026
197.194	-239
197.262	106
197.331	55
197.400	956
197.468	-196
197.537	-43
197.606	-152
197.674	565
197.743	553
197.812	606
197.880	312
197.949	586
198.017	460
198.086	539
198.155	184
198.223	474
198.292	939
198.360	-245
198.429	84
198.497	-434
198.566	366
198.635	1263
198.703	749
198.772	1012
198.840	843
198.909	994
198.977	276
199.046	641
199.114	1192
199.183	418
199.251	-326
199.320	-131
199.388	201
199.457	-346
199.525	636
199.594	-184
199.662	382
199.731	221
199.799	-868
199.867	652
199.936	-378
200.004	516
200.073	237
200.141	224
200.210	445
200.278	-507
200.346	600
200.415	390
200.483	862
200.552	927
200.620	1338
200.688	741
200.757	305
200.825	578
200.893	309
200.962	-455
201.030	641
201.098	140
201.167	466
201.235	-28
201.303	432
201.372	1371
201.440	751
201.508	979
201.577	203
201.645	277
201.713	399
201.781	377
201.850	912
201.918	1232
201.986	-403
202.055	1134
202.123	174
202.191	248
202.259	482
202.327	479
202.396	370
202.464	811
202.532	745
202.600	2408
202.669	2517
202.737	868
202.805	814
202.873	422
202.941	949
203.009	244
203.078	400
203.146	801
203.214	386
203.282	175
203.350	1321
203.418	722
203.487	314
203.555	-323
203.623	422
203.691	108
203.759	112
203.827	402
203.895	194
203.963	282
204.031	-352
204.099	1001
204.168	412
204.236	1042
204.304	964
204.372	-240
204.440	531
204.508	-361
204.576	-1118
204.644	261
204.712	96
204.780	50
204.848	526
204.916	427
204.984	-81
205.052	-171
205.120	-62
205.188	363
205.256	515
205.324	467
205.392	154
205.460	955
205.528	-24
205.596	838
205.664	-70
205.732	-109
205.799	1195
205.867	2155
205.935	855
206.003	1296
206.071	-28
206.139	-201
206.207	161
206.275	-11
206.343	89
206.411	658
206.478	621
206.546	148
206.614	195
206.682	587
206.750	84
206.818	894
206.885	1167
206.953	-725
207.021	1797
207.089	673
207.157	-327
207.225	-294
207.292	-651
207.360	-10
207.428	366
207.496	734
207.563	113
207.631	193
207.699	53
207.767	228
207.834	40
207.902	10
207.970	298
208.038	842
208.105	57
208.173	291
208.241	588
208.309	1140
208.376	796
208.444	988
208.512	839
208.579	393
208.647	1194
208.715	1582
208.782	52
208.850	448
208.918	70
208.985	-68
209.053	881
209.120	270
209.188	141
209.256	-42
209.323	-619
209.391	222
209.459	1670
209.526	285
209.594	175
209.661	-480
209.729	1112
209.796	736
209.864	809
209.932	-143
209.999	1855
210.067	690
210.134	1338
210.202	-90
210.269	887
210.337	1857
210.404	756
210.472	573
210.539	1177
210.607	29
210.674	181
210.742	790
210.809	1201
210.877	352
210.944	1270
211.012	259
211.079	1631
211.146	313
211.214	719
211.281	940
211.349	1079
211.416	550
211.484	683
211.551	332
211.618	381
211.686	810
211.753	-301
211.821	586
211.888	556
211.955	339
212.023	636
212.090	622
212.157	470
212.225	1364
212.292	1304
212.359	1330
212.427	5274
212.494	2141
212.561	725
212.629	670
212.696	978
212.763	1132
212.831	-576
212.898	824
212.965	849
213.032	816
213.100	85
213.167	336
213.234	1529
213.301	384
213.369	1492
213.436	253
213.503	-348
213.570	581
213.638	433
213.705	-303
213.772	352
213.839	51
213.906	934
213.973	1000
214.041	473
214.108	689
214.175	227
214.242	1618
214.309	308
214.376	553
214.444	419
214.511	383
214.578	323
214.645	818
214.712	597
214.779	340
214.846	420
214.913	1183
214.980	1062
215.048	1100
215.115	1658
215.182	1530
215.249	659
215.316	173
215.383	1613
215.450	885
215.517	608
215.584	546
215.651	729
215.718	1084
215.785	1053
215.852	89
215.919	981
215.986	656
216.053	408
216.120	354
216.187	878
216.254	448
216.321	250
216.388	775
216.455	812
216.522	585
216.589	67
216.656	985
216.722	977
216.789	694
216.856	889
216.923	587
216.990	557
217.057	-154
217.124	944
217.191	751
217.258	843
217.324	1157
217.391	1491
217.458	616
217.525	1077
217.592	960
217.659	-338
217.725	1165
217.792	434
217.859	1834
217.926	-2
217.993	962
218.059	848
218.126	852
218.193	142
218.260	156
218.327	120
218.393	303
218.460	-53
218.527	330
218.594	949
218.660	1149
218.727	959
218.794	258
218.860	674
218.927	826
218.994	458
219.061	-66
219.127	568
219.194	1213
219.261	684
219.327	-89
219.394	585
219.461	469
219.527	978
219.594	1815
219.661	650
219.727	407
219.794	1036
219.860	592
219.927	473
219.994	1573
220.060	1994
220.127	4087
220.193	1847
220.260	994
220.326	1127
220.393	1462
220.460	1738
220.526	1295
220.593	450
220.659	2418
220.726	938
220.792	3282
220.859	2400
220.925	3086
220.992	3267
221.058	4319
221.125	3939
221.191	2926
221.258	571
221.324	895
221.391	1000
221.457	-170
221.524	754
221.590	1701
221.657	3210
221.723	1255
221.789	1430
221.856	1744
221.922	420
221.989	1129
222.055	14
222.121	-659
222.188	2121
222.254	999
222.321	-236
222.387	459
222.453	485
222.520	-48
222.586	-933
222.652	622
222.719	-108
222.785	671
222.851	-472
222.918	142
222.984	277
223.050	16
223.116	-1242
223.183	1034
223.249	-621
223.315	87
223.382	581
223.448	94
223.514	176
223.580	302
223.647	228
223.713	-1016
223.779	203
223.845	-67
223.911	762
223.978	-683
224.044	596
224.110	-36
224.176	-76
224.242	705
224.309	-578
224.375	621
224.441	262
224.507	215
224.573	-1128
224.639	554
224.705	-467
224.772	700
224.838	129
224.904	306
224.970	-285
225.036	514
225.102	-958
225.168	887
225.234	867
225.300	-20
225.366	48
225.432	449
225.499	19
225.565	577
225.631	523
225.697	590
225.763	458
225.829	352
225.895	777
225.961	1166
226.027	1151
226.093	457
226.159	1806
226.225	2089
226.291	4555
226.357	7070
226.423	3379
226.489	1976
226.554	1128
226.620	1423
226.686	833
226.752	2455
226.818	4065
226.884	11109
226.950	9395
227.016	3606
227.082	2052
227.148	1282
227.214	1105
227.279	1086
227.345	889
227.411	1471
227.477	2877
227.543	6813
227.609	6840
227.674	3715
227.740	1454
227.806	1233
227.872	934
227.938	870
228.003	1354
228.069	1005
228.135	597
228.201	784
228.267	-106
228.332	299
228.398	-334
228.464	1310
228.530	639
228.595	996
228.661	-161
228.727	-17
228.792	1467
228.858	671
228.924	-677
228.990	1291
229.055	-725
229.121	991
229.187	421
229.252	-48
229.318	-79
229.384	701
229.449	929
229.515	-1246
229.581	-551
229.646	2159
229.712	21
229.777	1111
229.843	544
229.909	1055
229.974	688
230.040	787
230.105	531
230.171	-423
230.236	1443
230.302	1281
230.368	400
230.433	-571
230.499	-348
230.564	1467
230.630	-694
230.695	-222
230.761	880
230.826	-881
230.892	2069
230.957	-550
231.023	242
231.088	17
231.154	1239
231.219	705
231.284	397
231.350	1419
231.415	271
231.481	524
231.546	318
231.612	948
231.677	-136
231.742	-601
231.808	1749
231.873	-311
231.939	-1363
232.004	1582
232.069	1067
232.135	-969
232.200	-121
232.265	1560
232.331	-393
232.396	395
232.461	-219
232.527	-237
232.592	-397
232.657	812
232.723	810
232.788	887
232.853	1206
232.918	192
232.984	-455
233.049	360
233.114	-62
233.179	804
233.245	2265
233.310	1288
233.375	-680
233.440	542
233.506	270
233.571	-77
233.636	331
233.701	-166
233.766	900
233.832	1035
233.897	657
233.962	-1377
234.027	1534
234.092	-106
234.157	-383
234.222	-105
234.288	596
234.353	2267
234.418	1548
234.483	2129
234.548	68
234.613	266
234.678	1029
234.743	-83
234.808	2866
234.873	764
234.938	1872
235.004	508
235.069	643
235.134	-349
235.199	757
235.264	193
235.329	-1171
235.394	980
235.459	1401
235.524	-394
235.589	460
235.654	262
235.719	-548
235.784	153
235.849	193
235.913	1394
235.978	723
236.043	923
236.108	240
236.173	330
236.238	1418
236.303	378
236.368	-219
236.433	193
236.498	1501
236.563	932
236.627	2771
236.692	13447
236.757	11954
236.822	3292
236.887	1642
236.952	2214
237.017	340
237.081	2114
237.146	1852
237.211	4866
237.276	11949
237.341	24477
237.405	9528
237.470	3743
237.535	2112
237.600	1906
237.664	2215
237.729	-101
237.794	-499
237.859	3120
237.923	2083
237.988	1138
238.053	1666
238.118	1045
238.182	3606
238.247	5482
238.312	763
238.376	827
238.441	-38
238.506	1621
238.570	-384
238.635	1899
238.700	635
238.764	-74
238.829	906
238.893	357
238.958	1209
239.023	-121
239.087	408
239.152	1390
239.216	-233
239.281	310
239.346	940
239.410	522
239.475	78
239.539	4023
239.604	2766
239.668	2103
239.733	1480
239.797	4898
239.862	13420
239.926	10001
239.991	3911
240.055	2020
240.120	852
240.184	1465
240.249	-507
240.313	881
240.378	377
240.442	998
240.507	4069
240.571	80
240.635	-28
240.700	1655
240.764	1044
240.829	24
240.893	20
240.957	640
241.022	1434
241.086	3452
241.151	309
241.215	-309
241.279	1023
241.344	990
241.408	369
241.472	-193
241.537	1527
241.601	1379
241.665	-349
241.730	68
241.794	2078
241.858	-272
241.922	234
241.987	822
242.051	-106
242.115	-1259
242.179	664
242.244	31
242.308	897
242.372	673
242.436	548
242.501	461
242.565	-441
242.629	-134
242.693	957
242.757	-486
242.822	276
242.886	623
242.950	1213
243.014	111
243.078	918
243.142	460
243.206	95
243.271	14
243.335	24
243.399	1849
243.463	4784
243.527	19582
243.591	5904
243.655	1324
243.719	430
243.783	1730
243.847	1701
243.911	2761
243.975	1260
244.040	-595
244.104	1718
244.168	740
244.232	248
244.296	1371
244.360	1903
244.424	130
244.488	1005
244.552	880
244.615	-206
244.679	817
244.743	432
244.807	-135
244.871	554
244.935	793
244.999	-759
245.063	229
245.127	1204
245.191	1349
245.255	1195
245.319	712
245.383	-146
245.446	1859
245.510	-597
245.574	257
245.638	1309
245.702	-470
245.766	2565
245.829	2265
245.893	-256
245.957	-152
246.021	750
246.085	1151
246.149	464
246.212	3348
246.276	4555
246.340	1670
246.404	1082
246.467	2800
246.531	629
246.595	2459
246.659	2460
246.722	129
246.786	911
246.850	1649
246.913	1295
246.977	-640
247.041	754
247.104	280
247.168	1264
247.232	1941
247.295	6368
247.359	2830
247.423	1461
247.486	2366
247.550	1590
247.614	709
247.677	1216
247.741	565
247.804	546
247.868	2822
247.932	1239
247.995	6144
248.059	2250
248.122	93
248.186	1576
248.249	2564
248.313	9410
248.376	10392
248.440	5173
248.503	736
248.567	2364
248.630	1848
248.694	3642
248.757	4765
248.821	10420
248.884	5421
248.948	4100
249.011	7775
249.075	12414
249.138	11678
249.202	2933
249.265	1905
249.328	2438
249.392	1403
249.455	1654
249.519	1561
249.582	1602
249.645	2841
249.709	1701
249.772	1129
249.835	2189
249.899	813
249.962	2200
250.025	1388
250.089	2856
250.152	5590
250.215	1828
250.279	1344
250.342	2097
250.405	2070
250.468	935
250.532	2791
250.595	4794
250.658	15148
250.721	31444
250.785	8595
250.848	5393
250.911	1704
250.974	2871
251.038	2854
251.101	6882
251.164	2096
251.227	2870
251.290	3501
251.354	4723
251.417	23212
251.480	24685
251.543	13347
251.606	44946
251.669	34197
251.732	10853
251.795	10369
251.859	10561
251.922	27675
251.985	17100
252.048	6282
252.111	3317
252.174	2218
252.237	5845
252.300	13403
252.363	13562
252.426	38324
252.489	13580
252.552	5618
252.615	3026
252.678	4298
252.741	10635
252.804	14239
252.867	37042
252.930	19009
252.993	8282
253.056	5761
253.119	3288
253.182	2004
253.245	4342
253.308	3645
253.371	1849
253.434	1288
253.497	3066
253.559	5629
253.622	3123
253.685	3043
253.748	3082
253.811	1030
253.874	2881
253.937	1061
254.000	1914
254.062	2765
254.125	5225
254.188	4694
254.251	2784
254.314	1133
254.376	1819
254.439	3208
254.502	2623
254.565	3183
254.628	6753
254.690	2388
254.753	1625
254.816	1563
254.878	2361
254.941	4249
255.004	4757
255.067	1456
255.129	839
255.192	668
255.255	-412
255.317	1528
255.380	1280
255.443	1093
255.505	-138
255.568	-643
255.631	933
255.693	923
255.756	-65
255.819	965
255.881	556
255.944	1267
256.006	1039
256.069	994
256.132	448
256.194	1033
256.257	2765
256.319	1691
256.382	1672
256.444	2750
256.507	1080
256.569	1204
256.632	632
256.694	1876
256.757	6362
256.819	22562
256.882	8040
256.944	2910
257.007	2562
257.069	1056
257.132	1528
257.194	2515
257.257	641
257.319	727
257.381	1306
257.444	5029
257.506	25431
257.569	26533
257.631	9059
257.693	4438
257.756	2149
257.818	914
257.880	1649
257.943	2055
258.005	290
258.067	1017
258.130	1332
258.192	1753
258.254	1624
258.317	1511
258.379	1080
258.441	3135
258.503	3370
258.566	2628
258.628	5379
258.690	932
258.753	1569
258.815	1719
258.877	1130
258.939	1562
259.001	1594
259.064	1458
259.126	772
259.188	1418
259.250	969
259.312	457
259.375	1798
259.437	1363
259.499	1043
259.561	1358
259.623	1493
259.685	792
259.747	963
259.809	3204
259.872	6855
259.934	10713
259.996	10090
260.058	3105
260.120	35
260.182	1843
260.244	894
260.306	606
260.368	1733
260.430	557
260.492	1532
260.554	3917
260.616	1353
260.678	4020
260.740	6494
260.802	973
260.864	1658
260.926	591
260.988	2196
261.050	334
261.112	1361
261.174	7702
261.236	5087
261.298	1697
261.359	2922
261.421	4963
261.483	1064
261.545	2022
261.607	-411
261.669	1198
261.731	1946
261.793	3470
261.854	1010
261.916	1867
261.978	990
262.040	983
262.102	1627
262.164	327
262.225	1698
262.287	1604
262.349	1853
262.411	2029
262.472	1978
262.534	1251
262.596	3245
262.658	1843
262.719	922
262.781	1981
262.843	1201
262.904	2189
262.966	2056
263.028	2661
263.090	6868
263.151	22816
263.213	6714
263.275	3156
263.336	1546
263.398	2236
263.459	716
263.521	1446
263.583	2425
263.644	2862
263.706	1040
263.767	-98
263.829	1284
263.891	557
263.952	142
264.014	320
264.075	607
264.137	2097
264.198	1514
264.260	252
264.321	993
264.383	667
264.444	3787
264.506	1419
264.567	843
264.629	2987
264.690	2408
264.752	685
264.813	1082
264.875	821
264.936	1689
264.998	1191
265.059	1256
265.120	990
265.182	1314
265.243	8502
265.305	10738
265.366	3149
265.427	1326
265.489	2436
265.550	102
265.611	1306
265.673	740
265.734	1442
265.795	1111
265.857	1251
265.918	878
265.979	3051
266.040	16695
266.102	15515
266.163	4695
266.224	2642
266.286	1324
266.347	756
266.408	761
266.469	1888
266.530	1189
266.592	993
266.653	1816
266.714	2928
266.775	1294
266.836	1559
266.898	433
266.959	1881
267.020	2102
267.081	2615
267.142	575
267.203	1190
267.264	780
267.326	2127
267.387	1170
267.448	970
267.509	1420
267.570	1404
267.631	659
267.692	474
267.753	1379
267.814	377
267.875	1731
267.936	3125
267.997	914
268.058	1780
268.119	709
268.180	312
268.241	115
268.302	1294
268.363	437
268.424	499
268.485	1274
268.546	-19
268.607	475
268.668	359
268.729	94
268.790	1021
268.851	769
268.912	1239
268.972	1933
269.033	691
269.094	419
269.155	921
269.216	455
269.277	1273
269.338	967
269.398	434
269.459	30
269.520	1297
269.581	1217
269.642	1522
269.702	1149
269.763	1143
269.824	1106
269.885	707
269.945	2056
270.006	728
270.067	757
270.128	1141
270.188	-22
270.249	78
270.310	848
270.370	2317
270.431	50
270.492	297
270.553	1200
270.613	1109
270.674	2748
270.734	750
270.795	831
270.856	457
270.916	863
270.977	487
271.038	1732
271.098	1413
271.159	870
271.219	1335
271.280	911
271.340	869
271.401	32
271.462	1082
271.522	1172
271.583	1496
271.643	723
271.704	1412
271.764	1652
271.825	2210
271.885	8827
271.946	13078
272.006	4489
272.066	6399
272.127	11898
272.187	6926
272.248	3961
272.308	2073
272.369	7781
272.429	5061
272.489	2863
272.550	2870
272.610	3660
272.671	1842
272.731	2617
272.791	2446
272.852	2417
272.912	1931
272.972	2135
273.033	1741
273.093	2260
273.153	2542
273.214	2479
273.274	2513
273.334	7105
273.394	11731
273.455	5058
273.515	5096
273.575	9994
273.635	5992
273.696	7211
273.756	12969
273.816	8060
273.876	4970
273.936	5387
273.997	7732
274.057	2653
274.117	3171
274.177	3747
274.237	12277
274.297	10079
274.358	5451
274.418	7231
274.478	5110
274.538	1546
274.598	2306
274.658	4255
274.718	5889
274.778	2367
274.838	2968
274.898	2411
274.958	7861
275.018	9655
275.078	7038
275.138	2366
275.198	888
275.258	782
275.318	1903
275.378	1875
275.438	2429
275.498	2071
275.558	3971
275.618	8966
275.678	7049
275.738	2770
275.798	3030
275.858	931
275.918	1530
275.978	1919
276.038	2274
276.098	993
276.157	2192
276.217	5328
276.277	2489
276.337	2285
276.397	1560
276.457	1899
276.517	1564
276.576	1522
276.636	736
276.696	2697
276.756	2564
276.815	3492
276.875	2539
276.935	1925
276.995	2303
277.055	1543
277.114	2915
277.174	1814
277.234	4447
277.293	2635
277.353	1808
277.413	1627
277.472	1654
277.532	2322
277.592	4437
277.651	14715
277.711	31337
277.771	11772
277.830	29326
277.890	27166
277.950	19738
278.009	54459
278.069	25269
278.128	22318
278.188	33821
278.248	15627
278.307	35412
278.367	22516
278.426	7349
278.486	4519
278.545	3831
278.605	3500
278.664	3397
278.724	3134
278.783	5686
278.843	13286
278.902	5991
278.962	4427
279.021	4384
279.081	9783
279.140	10204
279.199	7115
279.259	5935
279.318	9039
279.378	11662
279.437	19084
279.496	49609
279.556	138192
279.615	125773
279.675	46059
279.734	25889
279.793	26011
279.853	31388
279.912	15267
279.971	9993
280.031	9625
280.090	12253
280.149	19517
280.208	27440
280.268	96761
280.327	109415
280.386	34836
280.445	18594
280.505	13373
280.564	8803
280.623	7547
280.682	6764
280.742	8273
280.801	4743
280.860	3570
280.919	3534
280.978	4086
281.037	3886
281.097	3218
281.156	4548
281.215	3612
281.274	3171
281.333	7193
281.392	6209
281.451	2110
281.510	2732
281.569	2770
281.628	3433
281.688	2710
281.747	3242
281.806	2488
281.865	2744
281.924	1537
281.983	2042
282.042	2334
282.101	2133
282.160	2056
282.219	1730
282.278	2607
282.337	4207
282.396	3366
282.454	1959
282.513	3080
282.572	4118
282.631	3687
282.690	2410
282.749	1721
282.808	2874
282.867	2643
282.926	2836
282.985	2354
283.043	2161
283.102	2431
283.161	3231
283.220	3931
283.279	7709
283.338	4722
283.396	2843
283.455	3534
283.514	4177
283.573	4520
283.631	3818
283.690	3654
283.749	3535
283.808	4785
283.866	5069
283.925	3690
283.984	4653
284.043	4373
284.101	5670
284.160	5541
284.219	5440
284.277	6986
284.336	6959
284.395	11153
284.453	11094
284.512	9650
284.570	11053
284.629	13637
284.688	15327
284.746	19107
284.805	22646
284.863	28453
284.922	36537
284.981	45617
285.039	61224
285.098	86689
285.156	115496
285.215	94985
285.273	84043
285.332	109596
285.390	96945
285.449	71444
285.507	52276
285.566	39086
285.624	31059
285.683	24515
285.741	20529
285.799	16181
285.858	14899
285.916	12417
285.975	11262
286.033	9204
286.091	8354
286.150	7184
286.208	7363
286.267	6963
286.325	6068
286.383	6126
286.442	5360
286.500	5205
286.558	4511
286.616	3626
286.675	5065
286.733	3803
286.791	3471
286.850	4327
286.908	4082
286.966	4877
287.024	3048
287.083	3668
287.141	3145
287.199	4188
287.257	3618
287.315	2805
287.374	2124
287.432	3964
287.490	3878
287.548	2869
287.606	3087
287.664	3797
287.723	3630
287.781	3587
287.839	2774
287.897	2676
287.955	2911
288.013	5404
288.071	10630
288.129	32938
288.187	96702
288.245	45952
288.303	15138
288.361	8468
288.419	6619
288.477	4656
288.535	4243
288.593	3840
288.651	2601
288.709	2064
288.767	1422
288.825	1911
288.883	2244
288.941	1617
288.999	2856
289.057	2096
289.115	1554
289.173	1380
289.231	1891
289.289	1598
289.346	1469
289.404	1997
289.462	1933
289.520	2474
289.578	1757
289.636	1706
289.694	1594
289.751	1482
289.809	2014
289.867	1311
289.925	2198
289.983	1921
290.040	1889
290.098	1008
290.156	1677
290.214	1811
290.271	1762
290.329	2358
290.387	1798
290.444	1104
290.502	1594
290.560	938
290.617	1660
290.675	1504
290.733	1330
290.790	1275
290.848	1383
290.906	1297
290.963	797
291.021	977
291.078	1859
291.136	1595
291.194	2281
291.251	5641
291.309	2799
291.366	1706
291.424	1681
291.481	1834
291.539	2139
291.596	3209
291.654	1650
291.711	1818
291.769	1853
291.826	1288
291.884	1809
291.941	1164
291.999	1613
292.056	809
292.114	1392
292.171	1103
292.228	1737
292.286	1526
292.343	1769
292.401	1674
292.458	1739
292.515	1130
292.573	2941
292.630	1813
292.687	1607
292.745	855
292.802	2496
292.859	3610
292.917	7159
292.974	4047
293.031	2341
293.089	1540
293.146	1056
293.203	1163
293.260	1690
293.318	1752
293.375	1617
293.432	1218
293.489	1723
293.546	2216
293.604	2745
293.661	6359
293.718	15208
293.775	7473
293.832	5038
293.889	6508
293.947	5318
294.004	3652
294.061	2152
294.118	3453
294.175	7045
294.232	11481
294.289	7038
294.346	4003
294.403	3700
294.460	1840
294.517	2397
294.574	1520
294.631	1843
294.688	2376
294.745	4194
294.802	11483
294.859	12072
294.916	4594
294.973	2009
295.030	1770
295.087	2078
295.144	1094
295.201	1744
295.258	1256
295.315	2193
295.372	4765
295.429	9048
295.486	4661
295.542	2884
295.599	4088
295.656	9038
295.713	5676
295.770	8347
295.827	3852
295.883	2700
295.940	1071
295.997	2135
296.054	1896
296.111	2007
296.167	1618
296.224	1039
296.281	560
296.338	1355
296.394	1259
296.451	1679
296.508	3706
296.564	7004
296.621	5651
296.678	9345
296.734	15924
296.791	5722
296.848	3114
296.904	3258
296.961	4770
297.018	8840
297.074	7364
297.131	3293
297.187	2754
297.244	3804
297.301	9220
297.357	20009
297.414	7701
297.470	3292
297.527	1513
297.583	2794
297.640	2220
297.696	1208
297.753	1775
297.809	896
297.866	934
297.922	1110
297.979	1110
298.035	2186
298.092	2381
298.148	5757
298.204	5614
298.261	3107
298.317	4840
298.374	13010
298.430	8266
298.486	3645
298.543	2527
298.599	2760
298.656	2557
298.712	3001
298.768	8156
298.824	8110
298.881	2694
298.937	2244
298.993	2001
299.050	1783
299.106	1812
299.162	1386
299.218	2834
299.275	2837
299.331	3267
299.387	4772
299.443	12616
299.500	22771
299.556	16271
299.612	6975
299.668	6527
299.724	13688
299.780	19235
299.837	7759
299.893	6934
299.949	14987
300.005	22610
300.061	17808
300.117	29483
300.173	14215
300.229	6173
300.285	3802
300.341	4554
300.397	3316
300.453	2631
300.510	3484
300.566	4545
300.622	6957
300.678	22385
300.734	32587
300.790	18287
300.845	16250
300.901	15722
300.957	23388
301.013	12982
301.069	6641
301.125	4220
301.181	2929
301.237	2647
301.293	2115
301.349	2812
301.405	2458
301.461	1135
301.516	2880
301.572	2017
301.628	2342
301.684	2635
301.740	3785
301.796	5025
301.851	4077
301.907	5443
301.963	7285
302.019	11142
302.074	30320
302.130	30769
302.186	13278
302.242	6362
302.297	4810
302.353	3874
302.409	5228
302.464	5204
302.520	4904
302.576	9495
302.631	12646
302.687	6632
302.743	3337
302.798	2371
302.854	2224
302.910	1807
302.965	1929
303.021	3449
303.076	2887
303.132	2740
303.187	3917
303.243	3161
303.299	1942
303.354	1572
303.410	1263
303.465	1476
303.521	850
303.576	2174
303.632	1865
303.687	3708
303.743	9593
303.798	9235
303.853	4337
303.909	2860
303.964	2199
304.020	2191
304.075	3211
304.130	2742
304.186	3419
304.241	5505
304.297	4365
304.352	2597
304.358	2543
304.407	2100
304.449	2071
304.463	2067
304.518	2031
304.539	1847
304.573	1527
304.629	2164
304.630	2173
304.684	2754
304.720	5702
304.739	7138
304.794	11918
304.811	10266
304.850	6393
304.902	3355
304.905	3157
304.960	2697
304.992	2956
305.015	3147
305.071	2149
305.083	2067
305.126	1812
305.173	1293
305.181	1207
305.236	1250
305.264	1757
305.292	2259
305.347	1694
305.354	1721
305.402	1892
305.445	1637
305.457	1549
305.512	2634
305.535	2295
305.567	1923
305.622	2159
305.626	2220
305.678	3594
305.716	7475
305.733	8897
305.788	11442
305.807	10089
305.843	7949
305.897	9947
305.898	9957
305.953	10506
305.988	7300
306.008	5683
306.063	2701
306.078	2594
306.118	2438
306.168	1695
306.173	1612
306.228	1431
306.259	1147
306.283	1008
306.338	1721
306.349	1736
306.393	1695
306.440	1808
306.448	1866
306.503	2083
306.530	1956
306.558	1914
306.613	3397
306.620	3626
306.668	5186
306.711	6997
306.723	7181
306.778	6053
306.801	4845
306.833	3789
306.888	2235
306.892	2207
306.943	1785
306.982	1618
306.997	1585
307.052	1264
307.072	1548
307.107	2111
307.162	1751
307.163	1758
307.217	2458
307.253	3158
307.272	3459
307.327	3206
307.343	3107
307.381	2837
307.434	3039
307.436	3087
307.491	4241
307.524	5367
307.546	5680
307.600	6336
307.614	5833
307.655	4070
307.704	3040
307.710	3049
307.765	3006
307.795	3350
307.819	3377
307.874	5257
307.885	5220
307.929	5127
307.975	5358
307.984	5595
308.038	7940
308.065	10100
308.093	17630
308.148	36417
308.156	41112
308.202	62179
308.246	77746
308.257	77139
308.312	40365
308.336	26882
308.366	18642
308.421	11367
308.426	10918
308.475	7813
308.517	6428
308.530	6215
308.585	6249
308.607	6169
308.639	6128
308.694	6300
308.697	6342
308.748	7639
308.787	8723
308.803	8748
308.857	8737
308.877	8381
308.912	8470
308.967	10248
308.967	10288
309.021	15834
309.058	20945
309.076	24519
309.130	38296
309.148	43078
309.185	69140
309.238	112803
309.239	113073
309.293	130404
309.328	124362
309.348	111630
309.402	62613
309.418	50432
309.457	37811
309.508	27037
309.511	26910
309.566	30711
309.598	34767
309.620	41776
309.674	64183
309.688	70427
309.729	69216
309.778	58063
309.783	56696
309.837	36843
309.868	26778
309.892	23370
309.946	18377
309.959	17839
310.001	15999
310.049	14029
310.055	13576
310.109	9989
310.139	7571
310.163	6449
310.218	4796
310.229	4599
310.272	4436
310.319	4382
310.326	4236
310.381	3390
310.409	2923
310.435	2857
310.489	2599
310.499	2663
310.543	2631
310.589	2369
310.598	2383
310.652	2536
310.679	2652
310.706	2496
310.760	2139
310.769	2070
310.814	2070
310.859	2226
310.868	2193
310.923	1918
310.948	1792
310.977	1818
311.031	1959
311.038	1981
311.085	1794
311.128	1542
311.139	1625
311.193	2238
311.218	2424
311.247	2531
311.301	2830
311.308	2865
311.356	2471
311.398	2075
311.410	1995
311.464	1633
311.488	1487
311.518	1540
311.572	1599
311.578	1615
311.626	1691
311.668	1731
311.680	1728
311.734	1746
311.758	1736
311.788	2123
311.842	2849
311.847	2923
311.896	2606
311.937	2355
311.950	2268
312.004	1884
312.027	1724
312.058	1552
312.112	1252
312.117	1230
312.165	1483
312.207	1714
312.297	1106
312.386	2377
312.476	2038
312.566	3378
312.656	2063
312.745	1894
312.835	1660
312.925	1884
313.015	1869
313.104	2161
313.194	1460
313.284	1810
313.374	1743
313.463	1978
313.553	2548
313.643	1902
313.732	2398
313.822	1711
313.912	3027
314.001	2653
314.091	2564
314.180	1949
314.270	4105
314.360	3112
314.449	2901
314.539	1997
314.628	2435
314.718	2985
314.808	2951
314.897	3636
314.987	3114
315.076	4090
315.166	3795
315.255	3694
315.345	3589
315.434	3413
315.524	3869
315.613	4868
315.703	7517
315.792	22176
315.881	78316
315.971	20450
316.060	6206
316.150	5281
316.239	4587
316.328	3311
316.418	3775
316.507	2829
316.597	4380
316.686	5045
316.775	4313
316.865	4534
316.954	2800
317.043	2450
317.133	2306
317.222	2431
317.311	2630
317.400	1925
317.490	4950
317.579	3982
317.668	6197
317.757	11276
317.847	39265
317.936	118982
318.025	31037
318.114	26084
318.203	9250
318.293	4436
318.382	6257
318.471	6741
318.560	7108
318.649	8879
318.738	3185
318.828	1911
318.917	1856
319.006	3426
319.095	4267
319.184	10884
319.273	5559
319.362	3560
319.451	1718
319.540	2337
319.629	2941
319.718	3757
319.807	3190
319.896	4714
319.985	14776
320.074	4964
320.163	2495
320.252	2316
320.341	3132
320.430	2866
320.519	2151
320.608	2455
320.697	3261
320.786	3454
320.875	5082
320.964	4544
321.053	5053
321.142	5919
321.230	7202
321.319	7132
321.408	9461
321.497	6929
321.586	6732
321.675	5962
321.764	5568
321.852	4460
321.941	6078
322.030	5401
322.119	6624
322.207	9281
322.296	9219
322.385	8574
322.474	9790
322.562	12632
322.651	7880
322.740	5916
322.829	7416
322.917	6014
323.006	4014
323.095	4236
323.183	3585
323.272	4374
323.361	7095
323.449	13674
323.538	5235
323.626	8558
323.715	5980
323.804	2953
323.892	7331
323.981	4180
324.069	2959
324.158	5418
324.246	4651
324.335	2351
324.424	3258
324.512	2062
324.601	2151
324.689	3429
324.778	4385
324.866	3583
324.954	1887
325.043	2537
325.131	2218
325.220	4701
325.308	3774
325.397	2756
325.485	2138
325.574	1540
325.662	1241
325.750	1205
325.839	1510
325.927	1605
326.015	2037
326.104	2380
326.192	2856
326.280	1827
326.369	1959
326.457	2040
326.545	2135
326.634	952
326.722	2158
326.810	1753
326.898	2359
326.987	2747
327.075	1492
327.163	2943
327.251	1978
327.340	2733
327.428	3740
327.516	2807
327.604	2784
327.692	1766
327.781	1951
327.869	1885
327.957	1179
328.045	1379
328.133	1966
328.221	985
328.309	1770
328.397	1015
328.485	1409
328.574	3586
328.662	6153
328.750	3537
328.838	1752
328.926	1648
329.014	2346
329.102	777
329.190	2950
329.278	1532
329.366	1172
329.454	842
329.542	1288
329.630	993
329.718	1023
329.806	1742
329.893	2346
329.981	825
330.069	1818
330.157	1383
330.245	2896
330.333	2458
330.421	1785
330.509	1019
330.597	3921
330.684	2179
330.772	1613
330.860	1904
330.948	2014
331.036	1074
331.123	1509
331.211	1635
331.299	1706
331.387	1827
331.475	3111
331.562	1752
331.650	2066
331.738	1579
331.825	2494
331.913	657
332.001	1497
332.089	1338
332.176	2308
332.264	3721
332.352	2887
332.439	1136
332.527	588
332.614	1151
332.702	2581
332.790	1668
332.877	3486
332.965	8762
333.052	6454
333.140	8390
333.228	20251
333.315	4961
333.403	2951
333.490	4625
333.578	10604
333.665	28803
333.753	11943
333.840	2404
333.928	3387
334.015	4397
334.103	7568
334.190	16807
334.278	9314
334.365	10189
334.452	10216
334.540	5879
334.627	6048
334.715	8677
334.802	14898
334.889	31336
334.977	35655
335.064	16481
335.151	7202
335.239	5728
335.326	5886
335.413	10589
335.501	11324
335.588	5043
335.675	5055
335.762	7401
335.850	9617
335.937	14613
336.024	27015
336.111	48173
336.199	33984
336.286	14482
336.373	7754
336.460	4764
336.547	4038
336.635	2918
336.722	3028
336.809	2241
336.896	3129
336.983	5328
337.070	11301
337.157	16150
337.245	10970
337.332	7282
337.419	3001
337.506	2138
337.593	3227
337.680	4714
337.767	8517
337.854	2945
337.941	3087
338.028	2751
338.115	1496
338.202	2448
338.289	4220
338.376	8899
338.463	3871
338.550	5469
338.637	4935
338.724	2628
338.811	3494
338.898	1039
338.984	1207
339.071	810
339.158	1805
339.245	2820
339.332	2214
339.419	3303
339.506	2708
339.593	364
339.679	1652
339.766	1315
339.853	2286
339.940	1979
340.027	802
340.113	1602
340.200	1016
340.287	1672
340.374	1430
340.460	2282
340.547	-223
340.634	3068
340.720	4882
340.807	2369
340.894	1636
340.980	1175
341.067	1079
341.154	1502
341.240	2103
341.327	2529
341.414	1817
341.500	1141
341.587	2000
341.674	1678
341.760	1911
341.847	1700
341.933	1718
342.020	25
342.106	1288
342.193	1345
342.279	1901
342.366	1291
342.452	1944
342.539	1431
342.625	2877
342.712	4487
342.798	2737
342.885	1204
342.971	527
343.058	1077
343.144	1379
343.230	1571
343.317	1974
343.403	1349
343.490	2152
343.576	900
343.662	925
343.749	1181
343.835	2211
343.921	4489
344.008	23667
344.094	35310
344.180	6651
344.267	3428
344.353	8026
344.439	6179
344.525	1999
344.612	2782
344.698	2529
344.784	1648
344.870	2103
344.957	955
345.043	2244
345.129	1695
345.215	2608
345.301	865
345.387	1280
345.474	897
345.560	1353
345.646	618
345.732	2076
345.818	1475
345.904	1955
345.990	1550
346.076	1947
346.162	1532
346.249	1939
346.335	721
346.421	1680
346.507	5115
346.593	10233
346.679	1818
346.765	3220
346.851	2883
346.937	1939
347.023	3015
347.108	2248
347.194	1854
347.280	1592
347.366	2832
347.452	10377
347.538	18875
347.624	11846
347.710	6309
347.796	2226
347.882	1417
347.967	2639
348.053	246
348.139	1600
348.225	1587
348.311	627
348.397	707
348.482	2181
348.568	1941
348.654	2012
348.740	9489
348.825	8684
348.911	5374
348.997	10944
349.083	13344
349.168	2646
349.254	1569
349.340	1578
349.425	1306
349.511	1531
349.597	1273
349.682	2510
349.768	6680
349.854	2885
349.939	1269
350.025	1278
350.110	1585
350.196	1510
350.282	212
350.367	1961
350.453	859
350.538	1746
350.624	851
350.709	1628
350.795	355
350.880	650
350.966	1859
351.051	1289
351.137	1840
351.222	1493
351.308	2695
351.393	4921
351.479	1228
351.564	1467
351.649	1124
351.735	1303
351.820	494
351.906	1253
351.991	1233
352.076	3992
352.162	3715
352.247	1119
352.332	1462
352.418	1075
352.503	1797
352.588	7358
352.673	3772
352.759	2056
352.844	1406
352.929	1629
353.014	839
353.100	2191
353.185	2017
353.270	2474
353.355	1680
353.441	2237
353.526	1740
353.611	2086
353.696	1694
353.781	2458
353.866	473
353.952	2175
354.037	2089
354.122	4413
354.207	3395
354.292	1821
354.377	1347
354.462	1593
354.547	754
354.632	2684
354.717	2027
354.802	1078
354.887	814
354.972	1558
355.057	1229
355.142	1556
355.227	1274
355.312	1737
355.397	2319
355.482	5475
355.567	2206
355.652	3487
355.737	2984
355.822	8304
355.907	4338
355.991	3149
356.076	835
356.161	2193
356.246	1369
356.331	1545
356.416	3440
356.501	19232
356.585	12979
356.670	1857
356.755	3541
356.840	3268
356.924	17110
357.009	41945
357.094	12039
357.179	2901
357.263	1758
357.348	2178
357.433	1854
357.517	2501
357.602	1780
357.687	1313
357.771	2394
357.856	5152
357.941	4200
358.025	16908
358.110	52527
358.195	18423
358.279	3550
358.364	3454
358.448	7167
358.533	12938
358.617	8104
358.702	8486
358.787	3172
358.871	2419
358.956	2560
359.040	1958
359.125	1470
359.209	2094
359.294	2788
359.378	5330
359.462	3153
359.547	1438
359.631	780
359.716	1551
359.800	670
359.885	2735
359.969	686
360.053	2542
360.138	1693
360.222	2294
360.306	2207
360.391	2355
360.475	3301
360.559	4558
360.644	5353
360.728	3046
360.812	12909
360.896	24857
360.981	7280
361.065	2833
361.149	3135
361.233	1533
361.318	1466
361.402	1887
361.486	2903
361.570	2801
361.654	2547
361.739	5272
361.823	20736
361.907	25679
361.991	5723
362.075	4989
362.159	5438
362.243	13335
362.327	28412
362.411	40132
362.495	15073
362.580	7678
362.664	5862
362.748	7273
362.832	12295
362.916	26225
363.000	81937
363.084	115014
363.168	56000
363.252	14669
363.336	8251
363.420	7686
363.503	13923
363.587	13808
363.671	5258
363.755	3103
363.839	6660
363.923	4378
364.007	7290
364.091	10061
364.175	17892
364.258	49515
364.342	94919
364.426	160865
364.510	76301
364.594	24591
364.677	15776
364.761	26836
364.845	16281
364.929	5646
365.013	4398
365.096	4719
365.180	3520
365.264	7719
365.347	19769
365.431	6868
365.515	2215
365.598	1517
365.682	2267
365.766	2447
365.849	2108
365.933	1918
366.017	3939
366.100	1530
366.184	1083
366.267	2874
366.351	2537
366.435	1447
366.518	1654
366.602	1842
366.685	2261
366.769	1177
366.852	2031
366.936	3179
367.019	2573
367.103	930
367.186	3967
367.270	1697
367.353	1045
367.436	3701
367.520	1906
367.603	2605
367.687	1340
367.770	2960
367.853	3149
367.937	8317
368.020	8434
368.104	1650
368.187	2608
368.270	3249
368.353	2645
368.437	3372
368.520	5947
368.603	4124
368.687	6014
368.770	8055
368.853	2721
368.936	3058
369.020	3247
369.103	1703
369.186	798
369.269	1153
369.352	2506
369.436	1213
369.519	1472
369.602	393
369.685	1985
369.768	390
369.851	1045
369.934	1118
370.018	1178
370.101	1404
370.184	3888
370.267	2725
370.350	2969
370.433	6294
370.516	20745
370.599	41225
370.682	13826
370.765	7343
370.848	10385
370.931	12623
371.014	6419
371.097	1565
371.180	2232
371.263	2238
371.346	1028
371.429	2822
371.511	1287
371.594	3095
371.677	3441
371.760	4644
371.843	4735
371.926	25060
372.009	39927
372.091	14030
372.174	9120
372.257	17277
372.340	7347
372.423	5585
372.505	5545
372.588	4157
372.671	7623
372.754	12898
372.836	6251
372.919	6527
373.002	10352
373.085	4010
373.167	5326
373.250	8317
373.332	16434
373.415	33066
373.498	54860
373.580	26818
373.663	76119
373.746	64898
373.828	10778
373.911	5976
373.993	4203
374.076	9801
374.159	8184
374.241	5968
374.324	11409
374.406	8357
374.489	20681
374.571	39984
374.654	11789
374.736	11611
374.819	28057
374.901	42430
374.983	34618
375.066	7396
375.148	5239
375.231	11087
375.313	14882
375.395	5703
375.478	3582
375.560	4883
375.643	3839
375.725	12866
375.807	33698
375.890	19738
375.972	5199
376.054	5416
376.136	5835
376.219	3404
376.301	11214
376.383	21930
376.465	8013
376.548	4687
376.630	7510
376.712	18514
376.794	6258
376.877	2928
376.959	1620
377.041	2378
377.123	2207
377.205	2459
377.287	222
377.369	3602
377.452	1999
377.534	1997
377.616	1050
377.698	2040
377.780	1006
377.862	1853
377.944	2606
378.026	148
378.108	2243
378.190	1996
378.272	1828
378.354	1710
378.436	1185
378.518	1622
378.600	3974
378.682	4325
378.764	7093
378.846	5351
378.928	1866
379.010	1748
379.091	2609
379.173	2278
379.255	1237
379.337	2060
379.419	5053
379.501	10444
379.583	4008
379.664	2592
379.746	2651
379.828	9947
379.910	8399
379.991	7509
380.073	2309
380.155	2146
380.237	1740
380.318	2031
380.400	1759
380.482	3585
380.564	2912
380.645	2990
380.727	2522
380.809	3026
380.890	2087
380.972	2149
381.053	2794
381.135	3630
381.217	3750
381.298	8766
381.380	4813
381.461	7204
381.543	22502
381.624	19882
381.706	5432
381.787	4865
381.869	6153
381.951	18814
382.032	46456
382.113	24059
382.195	5010
382.276	8812
382.358	11638
382.439	23342
382.521	31652
382.602	43775
382.684	25692
382.765	46564
382.846	112145
382.928	228076
383.009	117306
383.090	108961
383.172	324870
383.253	379913
383.334	118243
383.416	58240
383.497	37299
383.578	41342
383.659	88734
383.741	291191
383.822	530894
383.903	248793
383.984	71555
384.066	50025
384.147	25910
384.228	14711
384.309	12625
384.390	10966
384.471	9083
384.553	9037
384.634	8041
384.715	8979
384.796	7161
384.877	7967
384.958	13645
385.039	10564
385.120	7271
385.201	7465
385.282	6843
385.363	8434
385.444	9293
385.525	12623
385.606	19805
385.687	14632
385.768	7543
385.849	8622
385.930	28420
386.011	35697
386.092	9953
386.173	7023
386.254	5489
386.335	6267
386.416	4410
386.496	7915
386.577	9023
386.658	5065
386.739	4517
386.820	6442
386.901	4755
386.981	6843
387.062	7410
387.143	8204
387.224	11751
387.304	11387
387.385	9682
387.466	5868
387.547	8721
387.627	7024
387.708	10911
387.789	21209
387.869	18898
387.950	9848
388.031	6311
388.111	4943
388.192	7682
388.273	10461
388.353	7585
388.434	3630
388.514	7273
388.595	21892
388.676	18073
388.756	8341
388.837	7129
388.917	3874
388.998	1409
389.078	3984
389.159	3825
389.239	2404
389.320	4731
389.400	1613
389.480	5500
389.561	9829
389.641	5995
389.722	3952
389.802	3209
389.883	6438
389.963	11845
390.043	6793
390.124	2509
390.204	5249
390.284	8275
390.365	4580
390.445	8724
390.525	22531
390.605	18692
390.686	4594
390.766	4135
390.846	4158
390.927	2884
391.007	1804
391.087	3806
391.167	3481
391.247	2087
391.328	4645
391.408	5151
391.488	4721
391.568	2561
391.648	4944
391.728	5996
391.808	6265
391.888	5358
391.969	9587
392.049	9749
392.129	8618
392.209	10652
392.289	16265
392.369	11365
392.449	10595
392.529	10351
392.609	13181
392.689	15911
392.769	24400
392.849	26167
392.929	31822
393.009	48904
393.089	66650
393.169	129479
393.248	340751
393.328	701509
393.408	632648
393.488	272806
393.568	106183
393.648	54621
393.728	34610
393.807	24031
393.887	20041
393.967	15394
394.047	13389
394.127	11530
394.206	15740
394.286	39135
394.366	142393
394.446	123251
394.525	24632
394.605	9283
394.685	8956
394.764	11559
394.844	18638
394.924	17236
395.003	7978
395.083	5954
395.163	5410
395.242	5228
395.322	5725
395.402	4120
395.481	7399
395.561	9501
395.640	26709
395.720	40307
395.799	26473
395.879	14996
395.958	14287
396.038	49153
396.117	179016
396.197	160858
396.276	41580
396.356	19115
396.435	20200
396.515	27094
396.594	42372
396.673	100339
396.753	314750
396.832	612157
396.912	405995
396.991	125089
397.070	49260
397.150	26289
397.229	22138
397.308	37907
397.388	58126
397.467	27081
397.546	11539
397.625	5674
397.705	8185
397.784	6779
397.863	4757
397.942	4890
398.022	5122
398.101	6386
398.180	11483
398.259	6219
398.338	4586
398.417	2644
398.497	2863
398.576	3458
398.655	2071
398.734	2590
398.813	3220
398.892	5901
398.971	12372
399.050	4158
399.129	1336
399.208	1886
399.287	2723
399.366	955
399.445	1285
399.524	1353
399.603	-168
399.682	2314
399.761	3778
399.840	12850
399.919	8714
399.998	1554
400.077	37
400.156	-500
400.235	3455
400.313	123
400.392	400
400.471	4184
400.550	4913
400.629	1171
400.708	2363
400.786	-509
400.865	1744
400.944	933
401.023	2738
401.102	-344
401.180	908
401.259	429
401.338	1134
401.416	1770
401.495	678
401.574	1011
401.652	285
401.731	1387
401.810	176
401.888	741
401.967	1220
402.046	479
402.124	1029
402.203	-30
402.281	1369
402.360	376
402.438	2710
402.517	7
402.596	484
402.674	273
402.753	1160
402.831	403
402.910	1938
402.988	1998
403.066	6629
403.145	3841
403.223	3894
403.302	4542
403.380	4282
403.459	3878
403.537	2024
403.615	1631
403.694	678
403.772	1672
403.850	871
403.929	107
404.007	469
404.085	2524
404.164	893
404.242	1243
404.320	5969
404.398	13542
404.477	14500
404.555	28720
404.633	20032
404.711	9675
404.789	5475
404.868	914
404.946	379
405.024	530
405.102	380
405.180	-329
405.258	-637
405.336	1290
405.415	-173
405.493	1521
405.571	1763
405.649	442
405.727	-98
405.805	1738
405.883	1115
405.961	1101
406.039	908
406.117	-542
406.195	1318
406.273	5642
406.351	17023
406.429	6848
406.507	810
406.585	-213
406.663	1173
406.740	302
406.818	-851
406.896	-693
406.974	1504
407.052	187
407.130	10953
407.208	10481
407.285	2318
407.363	-388
407.441	1012
407.519	844
407.596	818
407.674	3198
407.752	6339
407.830	4454
407.907	1978
407.985	-151
408.063	230
408.141	-621
408.218	1183
408.296	-537
408.373	574
408.451	795
408.529	883
408.606	-1
408.684	523
408.762	861
408.839	747
408.917	802
408.994	1736
409.072	340
409.149	2192
409.227	6055
409.304	8903
409.382	9165
409.459	10702
409.537	13789
409.614	11909
409.692	9617
409.769	9239
409.846	15738
409.924	18027
410.001	10618
410.079	7148
410.156	6069
410.233	4189
410.311	2518
410.388	2187
410.465	2977
410.543	2605
410.620	2122
410.697	3126
410.775	1396
410.852	1247
410.929	2956
411.006	2922
411.083	1770
411.161	1552
411.238	1879
411.315	1457
411.392	1244
411.469	2169
411.547	1152
411.624	-651
411.701	568
411.778	545
411.855	1019
411.932	322
412.009	213
412.086	539
412.163	595
412.240	156
412.317	58
412.394	1044
412.471	198
412.548	-14
412.625	843
412.702	103
412.779	670
412.856	601
412.933	352
413.010	398
413.087	803
413.164	2357
413.241	2574
413.318	126
413.395	716
413.471	506
413.548	-151
413.625	413
413.702	-1569
413.779	227
413.855	-12
413.932	-84
414.009	-338
414.086	384
414.162	53
414.239	1163
414.316	3228
414.393	6512
414.469	299
414.546	167
414.623	-138
414.699	-479
414.776	-655
414.853	-20
414.929	253
415.006	-522
415.082	-1162
415.159	165
415.236	252
415.312	852
415.389	838
415.465	-309
415.542	-482
415.618	-208
415.695	832
415.771	-497
415.848	-434
415.924	586
416.000	-227
416.077	1464
416.153	-291
416.230	-870
416.306	-389
416.383	49
416.459	535
416.535	605
416.612	-105
416.688	64
416.764	609
416.841	-231
416.917	91
416.993	907
417.069	790
417.146	-136
417.222	121
417.298	845
417.374	-360
417.451	512
417.527	-1109
417.603	-295
417.679	77
417.755	293
417.831	-118
417.908	394
417.984	92
418.060	-809
418.136	22
418.212	343
418.288	147
418.364	832
418.440	-1177
418.516	553
418.592	74
418.668	675
418.744	402
418.820	1150
418.896	371
418.972	-1102
419.048	503
419.124	1320
419.200	-527
419.276	460
419.352	-1256
419.428	449
419.504	222
419.579	986
419.655	564
419.731	1024
419.807	617
419.883	1220
419.959	987
420.034	1125
420.110	1789
420.186	3189
420.262	2465
420.337	1025
420.413	1168
420.489	713
420.565	2153
420.640	545
420.716	1196
420.792	476
420.867	2100
420.943	1064
421.019	1709
421.094	805
421.170	2625
421.245	2501
421.321	2430
421.397	3381
421.472	4650
421.548	5935
421.623	6352
421.699	5319
421.774	6062
421.850	6173
421.925	8627
422.001	10205
422.076	12202
422.152	15339
422.227	21153
422.302	32230
422.378	49926
422.453	88532
422.529	172144
422.604	261951
422.679	253182
422.755	243610
422.830	157612
422.905	83799
422.981	50912
423.056	32859
423.131	24908
423.207	17752
423.282	13520
423.357	11544
423.432	8276
423.508	8456
423.583	7561
423.658	6286
423.733	4924
423.808	5095
423.883	5319
423.959	5477
424.034	6786
424.109	5918
424.184	4159
424.259	2722
424.334	2097
424.409	2009
424.484	906
424.559	1878
424.634	1051
424.709	1572
424.784	1076
424.859	1473
424.934	452
425.009	3497
425.084	4087
425.159	225
425.234	1254
425.309	1171
425.384	1919
425.459	1371
425.534	1086
425.609	298
425.683	138
425.758	608
425.833	443
425.908	1341
425.983	986
426.058	4385
426.132	829
426.207	-488
426.282	1509
426.357	-339
426.431	585
426.506	869
426.581	117
426.655	590
426.730	109
426.805	-538
426.879	338
426.954	-167
427.029	743
427.103	6826
427.178	12186
427.253	3300
427.327	320
427.402	751
427.476	1070
427.551	530
427.625	-61
427.700	63
427.774	-217
427.849	-215
427.923	-3
427.998	-139
428.072	790
428.147	6371
428.221	35885
428.296	98532
428.370	42905
428.444	5524
428.519	1377
428.593	2413
428.667	2102
428.742	3667
428.816	12864
428.890	64036
428.965	83187
429.039	17026
429.113	3285
429.188	1029
429.262	303
429.336	1560
429.410	1530
429.485	1157
429.559	411
429.633	1645
429.707	2176
429.781	11035
429.855	60419
429.930	74389
430.004	18565
430.078	15974
430.152	41394
430.226	133165
430.300	109385
430.374	19049
430.448	5460
430.522	5509
430.596	10891
430.670	23027
430.744	86364
430.818	76143
430.892	11684
430.966	1460
431.040	1152
431.114	-1051
431.188	-62
431.262	-372
431.336	-520
431.410	1597
431.484	1699
431.557	1516
431.631	395
431.705	4234
431.779	27744
431.853	95657
431.927	52138
432.000	6264
432.074	1184
432.148	317
432.222	-863
432.295	-102
432.369	-732
432.443	643
432.516	6464
432.590	12541
432.664	2374
432.737	-222
432.811	-1873
432.885	-453
432.958	-620
433.032	-950
433.106	-1506
433.179	-903
433.253	-533
433.326	-478
433.400	-923
433.473	-69
433.547	-547
433.620	171
433.694	-870
433.767	-864
433.841	-1180
433.914	-913
433.988	-1012
434.061	-959
434.134	-1281
434.208	-508
434.281	-948
434.355	-697
434.428	-325
434.501	-912
434.575	-797
434.648	-620
434.721	-214
434.795	-738
434.868	-1476
434.941	-131
435.014	-731
435.088	-255
435.161	492
435.234	2649
435.307	2214
435.381	1658
435.454	3628
435.527	6942
435.600	7043
435.673	5930
435.746	3177
435.819	2023
435.892	1778
435.966	1593
436.039	-538
436.112	99
436.185	-531
436.258	-486
436.331	-795
436.404	-404
436.477	-909
436.550	-1112
436.623	-580
436.696	-326
436.769	-558
436.842	-887
436.915	-1102
436.987	-1259
437.060	-158
437.133	-637
437.206	-1634
437.279	-271
437.352	-140
437.425	-673
437.498	-659
437.570	-829
437.643	-936
437.716	-628
437.789	-1357
437.861	-355
437.934	-219
438.007	-1008
438.080	-1360
438.152	-1290
438.225	1011
438.298	12010
438.370	23267
438.443	5448
438.516	-161
438.588	-186
438.661	-400
438.734	-418
438.806	-670
438.879	-696
438.951	-904
439.024	-1262
439.096	-1317
439.169	-536
439.241	-920
439.314	-960
439.386	-771
439.459	-434
439.531	-596
439.604	-682
439.676	-152
439.749	-1030
439.821	-1272
439.893	-449
439.966	-1088
440.038	-366
440.110	-498
440.183	-1120
440.255	-1061
440.327	658
440.400	3291
440.472	11265
440.544	5125
440.617	-617
440.689	154
440.761	-251
440.833	579
440.905	86
440.978	-1602
441.050	-809
441.122	-427
441.194	-1216
441.266	-617
441.338	-1399
441.411	-107
441.483	2760
441.555	2509
441.627	-639
441.699	-568
441.771	481
441.843	-688
441.915	-81
441.987	-250
442.059	199
442.131	168
442.203	1561
442.275	2370
442.347	4737
442.419	14137
442.491	76253
442.563	140990
442.635	46403
442.706	8896
442.778	4087
442.850	1811
442.922	1813
442.994	962
443.066	1640
443.137	2787
443.209	4139
443.281	7973
443.353	21649
443.425	87642
443.496	238888
443.568	217018
443.640	78676
443.711	15348
443.783	6002
443.855	2666
443.926	1882
443.998	1293
444.070	1528
444.141	544
444.213	821
444.285	1214
444.356	870
444.428	621
444.499	-324
444.571	1006
444.642	1128
444.714	-37
444.785	754
444.857	828
444.928	2251
445.000	2000
445.071	3034
445.143	4346
445.214	7549
445.285	15221
445.357	45205
445.428	165725
445.500	277485
445.571	196172
445.642	117947
445.714	34477
445.785	11519
445.856	4151
445.928	3237
445.999	2035
446.070	1163
446.141	1633
446.213	168
446.284	-312
446.355	135
446.426	-205
446.497	-143
446.569	-477
446.640	267
446.711	-476
446.782	-368
446.853	-600
446.924	-188
446.995	-1777
447.066	-93
447.138	-1036
447.209	523
447.280	-1115
447.351	-108
447.422	-1247
447.493	-1013
447.564	-1049
447.635	-1187
447.706	-893
447.777	-448
447.847	-1348
447.918	-889
447.989	-1138
448.060	-552
448.131	129
448.202	-491
448.273	-994
448.344	-1076
448.414	-654
448.485	-671
448.556	-1194
448.627	-1672
448.698	-595
448.768	-1475
448.839	-1905
448.910	-667
448.981	-587
449.051	-137
449.122	-958
449.193	-413
449.263	-1169
449.334	-1622
449.405	-696
449.475	-697
449.546	-485
449.616	481
449.687	-763
449.758	-650
449.828	-1393
449.899	-1158
449.969	-988
450.040	-1160
450.110	-1801
450.181	-727
450.251	-905
450.322	-1418
450.392	-342
450.463	-715
450.533	-1539
450.604	-319
450.674	-1344
450.744	-747
450.815	-501
450.885	-111
450.955	40
451.026	-341
451.096	-534
451.166	-8
451.237	-449
451.307	1230
451.377	-209
451.447	-1240
451.518	-351
451.588	-914
451.658	-1474
451.728	-722
451.799	-288
451.869	516
451.939	-504
452.009	-845
452.079	-960
452.149	-284
452.219	-1260
452.289	919
452.360	199
452.430	-436
452.500	-156
452.570	1827
452.640	6132
452.710	17405
452.780	17539
452.850	8385
452.920	2924
452.990	1168
453.060	156
453.129	-300
453.199	-517
453.269	3148
453.339	4257
453.409	5387
453.479	6583
453.549	9528
453.619	7929
453.688	1891
453.758	-60
453.828	-896
453.898	-540
453.968	-1421
454.037	-528
454.087	-780
454.107	-911
454.168	-1305
454.177	-1392
454.247	-792
454.249	-765
454.316	-828
454.330	-718
454.386	-502
454.411	-358
454.456	-437
454.492	100
454.525	546
454.574	97
454.595	-127
454.655	-992
454.665	-1124
454.734	-254
454.736	-173
454.804	560
454.817	922
454.873	1514
454.898	1617
454.943	1559
454.979	638
455.013	-40
455.060	38
455.082	206
455.141	762
455.152	762
455.221	3184
455.222	3286
455.291	4278
455.303	4768
455.360	6230
455.384	8146
455.430	10365
455.465	7464
455.499	4731
455.546	3091
455.569	2169
455.627	1323
455.638	1227
455.707	494
455.708	524
455.777	155
455.789	272
455.846	612
455.869	546
455.916	283
455.950	469
455.985	727
456.031	662
456.054	482
456.112	621
456.124	646
456.193	1097
456.193	1067
456.262	608
456.274	823
456.332	1487
456.355	1511
456.401	1327
456.436	1290
456.470	1202
456.516	1167
456.540	1205
456.597	571
456.609	385
456.678	1672
456.678	1646
456.747	1497
456.759	1403
456.817	944
456.840	1081
456.886	1145
456.920	1495
456.955	1992
457.001	2204
457.024	2235
457.082	2944
457.093	3000
457.162	3193
457.163	3234
457.232	3614
457.243	3450
457.301	2658
457.324	2730
457.370	3035
457.405	3327
457.439	3608
457.485	3886
457.508	4093
457.566	5650
457.577	6160
457.646	9092
457.647	9174
457.715	21829
457.727	24726
457.784	45634
457.808	58560
457.853	71569
457.889	78797
457.922	69568
457.969	45565
457.991	49877
458.050	68996
458.060	73156
458.129	122240
458.130	123699
458.198	104002
458.211	94195
458.267	47878
458.292	30337
458.336	22776
458.372	21853
458.405	34372
458.453	55495
458.474	72613
458.533	130207
458.543	134340
458.611	188059
458.614	189234
458.680	96529
458.694	73741
458.749	34187
458.775	22003
458.818	14450
458.855	11302
458.887	9917
458.936	8129
458.955	7675
459.016	6821
459.024	6759
459.093	6749
459.097	6740
459.162	5692
459.177	5613
459.230	5909
459.257	5999
459.299	5751
459.338	5721
459.368	5820
459.418	5930
459.437	5794
459.499	5342
459.505	5321
459.574	5620
459.579	5620
459.643	5346
459.659	5340
459.711	5334
459.740	5464
459.780	5615
459.820	5393
459.849	5188
459.900	5493
459.917	5475
459.981	5223
459.986	5206
460.054	5373
460.061	5367
460.123	5218
460.141	5229
460.191	5467
460.222	5563
460.260	5688
460.302	5879
460.328	5807
460.382	5909
460.397	6012
460.462	6389
460.465	6436
460.534	7774
460.543	7945
460.602	15304
460.623	18075
460.671	25310
460.703	31132
460.739	27019
460.783	20532
460.808	17052
460.864	7195
460.876	6790
460.944	6056
460.945	6036
461.013	5303
461.024	5225
461.081	5267
461.104	5488
461.150	5859
461.184	5829
461.218	5887
461.264	6099
461.286	6099
461.345	6068
461.355	6029
461.423	5851
461.425	5846
461.491	6545
461.505	6783
461.559	8927
461.585	9884
461.628	13481
461.665	16517
461.696	16971
461.745	18190
461.764	15697
461.825	6783
461.832	6807
461.901	7026
461.905	7060
461.969	5775
461.985	5562
462.037	6665
462.065	7046
462.105	7002
462.145	7145
462.173	8622
462.225	11399
462.241	12141
462.305	15135
462.310	14805
462.378	9263
462.385	8649
462.446	8062
462.465	7973
462.514	7801
462.545	7461
462.582	7293
462.625	7495
462.650	7546
462.705	7015
462.718	6988
462.785	7359
462.786	7391
462.854	8756
462.865	9017
462.922	9680
462.945	9959
462.990	8316
463.025	6785
463.058	6849
463.104	7013
463.126	6871
463.184	6847
463.194	6999
463.262	7510
463.264	7529
463.330	7261
463.344	7215
463.398	8159
463.424	8518
463.466	8086
463.504	7824
463.533	8142
463.583	8336
463.601	8311
463.663	8473
463.669	8524
463.737	8989
463.743	9024
463.805	12056
463.823	12937
463.873	17352
463.903	19989
463.940	19983
463.982	20004
464.008	16715
464.062	9327
464.076	9172
464.142	8710
464.144	8715
464.211	8382
464.221	8312
464.279	7973
464.301	7801
464.347	8522
464.381	9101
464.414	9316
464.461	9650
464.482	9683
464.540	9623
464.550	9508
464.617	8514
464.620	8470
464.685	9207
464.699	9327
464.753	9764
464.779	9989
464.820	10702
464.859	11338
464.888	10979
464.938	10220
464.956	10586
465.018	12000
465.023	11923
465.091	10536
465.098	10357
465.158	9677
465.177	9544
465.226	10119
465.257	10349
465.293	10609
465.336	10996
465.361	11305
465.416	11753
465.428	12252
465.495	14954
465.496	15022
465.563	21026
465.575	22092
465.631	25465
465.654	26859
465.698	18354
465.734	11114
465.765	10859
465.813	10406
465.833	10247
465.893	9872
465.900	9924
465.968	10099
465.972	10096
466.035	10338
466.052	10361
466.102	10248
466.131	10128
466.170	9600
466.210	8993
466.237	9590
466.290	10805
466.304	10821
466.369	10645
466.372	10708
466.439	11968
466.449	12113
466.506	12355
466.528	12412
466.573	14527
466.607	16050
466.641	21539
466.687	29140
466.708	31091
466.766	36274
466.775	33893
466.842	15363
466.845	14451
466.909	12523
466.925	12024
466.977	12371
467.004	12525
467.044	12871
467.083	13182
467.111	14227
467.163	16089
467.178	16094
467.242	15921
467.245	15894
467.312	14603
467.321	14401
467.379	15560
467.400	15930
467.446	16309
467.480	16521
467.559	15759
467.638	15184
467.717	14774
467.796	17570
467.875	17216
467.955	19224
468.034	23712
468.113	40593
468.192	54486
468.271	30310
468.350	35236
468.429	44873
468.508	45819
468.588	32775
468.667	22606
468.746	19566
468.825	18486
468.904	15554
468.983	16464
469.062	20247
469.141	21253
469.220	14252
469.299	15388
469.378	15272
469.456	17558
469.535	16243
469.614	15225
469.693	15894
469.772	19057
469.851	21963
469.930	18149
470.009	17656
470.088	21036
470.166	28249
470.245	48676
470.324	63337
470.403	44820
470.482	26637
470.560	19202
470.639	16468
470.718	15975
470.797	15379
470.875	16002
470.954	17146
471.033	18750
471.111	13997
471.190	14075
471.269	13401
471.347	14074
471.426	13418
471.505	14549
471.583	15066
471.662	14536
471.740	13835
471.819	13046
471.898	13090
471.976	13945
472.055	12299
472.133	13720
472.212	16375
472.290	16644
472.369	13204
472.447	13675
472.526	13177
472.604	14343
472.683	13595
472.761	13716
472.839	13103
472.918	13836
472.996	12887
473.075	16148
473.153	15433
473.231	13159
473.310	14212
473.388	14375
473.466	14268
473.545	15077
473.623	15582
473.701	15623
473.780	13611
473.858	13105
473.936	15862
474.014	13622
474.093	14684
474.171	17307
474.249	20579
474.327	15464
474.405	13550
474.484	13870
474.562	12624
474.640	12732
474.718	13849
474.796	13066
474.874	13045
474.952	12301
475.030	12300
475.108	13503
475.187	12279
475.265	12988
475.343	15117
475.421	14784
475.499	13160
475.577	14830
475.655	15635
475.733	22042
475.811	30041
475.889	27336
475.966	20807
476.044	13197
476.122	12939
476.200	14804
476.278	12400
476.356	12503
476.434	13651
476.512	13407
476.590	14639
476.667	14189
476.745	12974
476.823	14277
476.901	13482
476.979	13289
477.056	13466
477.134	12256
477.212	13270
477.290	12904
477.367	12485
477.445	12559
477.523	11767
477.601	12548
477.678	12373
477.756	14153
477.834	13881
477.911	11378
477.989	12923
478.066	12217
478.144	13235
478.222	13068
478.299	14528
478.377	14719
478.454	11681
478.532	12501
478.609	12441
478.687	13228
478.764	12249
478.842	12527
478.919	12139
478.997	12865
479.074	12185
479.152	13220
479.229	14265
479.307	11980
479.384	11280
479.461	12459
479.539	12389
479.616	13868
479.694	12044
479.771	12843
479.848	13165
479.926	13034
480.003	15527
480.080	11995
480.157	12501
480.235	13012
480.312	13148
480.389	14222
480.467	16400
480.544	18041
480.621	14635
480.698	14975
480.775	15914
480.853	14316
480.930	13766
481.007	13692
481.084	13508
481.161	14899
481.238	14991
481.315	12273
481.392	13077
481.470	13681
481.547	13353
481.624	12883
481.701	14286
481.778	14115
481.855	15271
481.932	19296
482.009	23677
482.086	19998
482.163	17642
482.240	20826
482.317	21547
482.393	19892
482.470	16555
482.547	17642
482.624	15759
482.701	15945
482.778	14266
482.855	14262
482.932	14261
483.009	15112
483.085	16866
483.162	18413
483.239	20578
483.316	19805
483.393	20025
483.469	18523
483.546	17862
483.623	17347
483.699	14558
483.776	14186
483.853	14766
483.930	16902
484.006	29193
484.083	43789
484.160	27357
484.236	34356
484.313	28267
484.389	24281
484.466	25926
484.543	27126
484.619	32544
484.696	34047
484.772	27088
484.849	25821
484.925	21188
485.002	20702
485.078	20580
485.155	20080
485.231	18339
485.308	18699
485.384	18439
485.461	21889
485.537	28269
485.614	31601
485.690	18773
485.766	18352
485.843	17971
485.919	19324
485.995	19652
486.072	18719
486.148	17572
486.224	17344
486.301	17743
486.377	19598
486.453	17920
486.530	20674
486.606	23215
486.682	24611
486.758	26531
486.835	29411
486.911	25069
486.987	34892
487.063	31215
487.139	32129
487.215	28944
487.292	28727
487.368	32372
487.444	39634
487.520	52424
487.596	72472
487.672	152124
487.748	465973
487.824	722144
487.900	268211
487.976	76398
488.052	42953
488.128	35206
488.204	27038
488.280	24763
488.356	25156
488.432	35359
488.508	44147
488.584	22282
488.660	18826
488.736	19152
488.812	17097
488.888	19474
488.964	20019
489.039	25407
489.115	32523
489.191	25033
489.267	17237
489.343	17904
489.418	17452
489.494	15696
489.570	15008
489.646	17589
489.722	17000
489.797	16709
489.873	21225
489.949	33368
490.024	27885
490.100	16571
490.176	16181
490.251	16634
490.327	18668
490.403	15929
490.478	15174
490.554	13976
490.629	15644
490.705	14832
490.781	15750
490.856	14986
490.932	16231
491.007	15623
491.083	15098
491.158	15363
491.234	17773
491.309	29407
491.385	26497
491.460	14939
491.536	15593
491.611	14654
491.686	14587
491.762	15776
491.837	19594
491.913	26467
491.988	31394
492.063	34618
492.139	21455
492.214	17736
492.289	14348
492.365	14066
492.440	14467
492.515	14392
492.590	14348
492.666	13557
492.741	16075
492.816	19278
492.891	14023
492.967	14131
493.042	14303
493.117	14188
493.192	15813
493.267	20649
493.342	44659
493.418	55577
493.493	17955
493.568	13068
493.643	13153
493.718	14300
493.793	17227
493.868	15732
493.943	14567
494.018	14599
494.093	14094
494.168	14026
494.243	13161
494.318	13934
494.393	14154
494.468	13634
494.543	14687
494.618	14442
494.693	14552
494.768	15645
494.842	15207
494.917	14138
494.992	14664
495.067	13428
495.142	13635
495.217	14707
495.292	14349
495.366	14877
495.441	16130
495.516	17605
495.591	19568
495.665	32304
495.740	54313
495.815	29413
495.890	16861
495.964	15324
496.039	19215
496.114	17705
496.188	19800
496.263	18568
496.338	16651
496.412	16888
496.487	18386
496.561	17414
496.636	18018
496.710	16531
496.785	16798
496.860	18347
496.934	16738
497.009	17218
497.083	16728
497.158	17896
497.232	18906
497.307	21342
497.381	20661
497.455	22319
497.530	21924
497.604	17129
497.679	17721
497.753	21854
497.827	25447
497.902	22677
497.976	27965
498.050	57040
498.125	203529
498.199	180989
498.273	28425
498.348	20491
498.422	22285
498.496	23273
498.570	25222
498.645	16924
498.719	16004
498.793	20598
498.867	25883
498.941	31052
499.016	85968
499.090	209345
499.164	67347
499.238	19200
499.312	18381
499.386	19730
499.460	20871
499.534	23452
499.609	30372
499.683	28559
499.757	21469
499.831	40532
499.905	144030
499.979	118202
500.053	24595
500.127	22382
500.201	18664
500.275	17775
500.349	19966
500.422	21758
500.496	25638
500.570	36032
500.644	90365
500.718	146272
500.792	31124
500.866	14364
500.940	16921
501.013	15651
501.087	15122
501.161	18723
501.235	22127
501.309	48332
501.382	123696
501.456	94728
501.530	27160
501.603	39651
501.677	18232
501.751	11560
501.825	15197
501.898	22520
501.972	51031
502.046	30726
502.119	14612
502.193	25554
502.266	53598
502.340	25548
502.413	27827
502.487	45219
502.561	26598
502.634	13513
502.708	12547
502.781	10382
502.855	12373
502.928	10122
503.002	12718
503.075	11271
503.149	12279
503.222	12269
503.295	12945
503.369	14810
503.442	17383
503.516	41728
503.589	89064
503.662	57739
503.736	30651
503.809	58193
503.882	54815
503.956	87468
504.029	115948
504.102	248769
504.175	367911
504.249	155072
504.322	60385
504.395	35104
504.468	22965
504.542	18221
504.615	14759
504.688	13448
504.761	10722
504.834	13913
504.907	12187
504.980	12979
505.053	11105
505.127	9127
505.200	13551
505.273	13162
505.346	9970
505.419	8167
505.492	10611
505.565	8255
505.638	9210
505.711	8190
505.784	8378
505.857	8556
505.930	10567
506.003	8315
506.076	11352
506.149	10652
506.221	11322
506.294	11645
506.367	21140
506.440	65880
506.513	30722
506.586	11645
506.659	8987
506.731	8130
506.804	8321
506.877	9643
506.950	9732
507.022	9134
507.095	8574
507.168	11609
507.241	8926
507.313	7561
507.386	6606
507.459	9604
507.531	7158
507.604	7199
507.677	9487
507.749	6443
507.822	10098
507.894	11967
507.967	13713
508.040	9394
508.112	10414
508.185	10105
508.257	8374
508.330	12090
508.402	9875
508.475	10898
508.547	10297
508.620	10607
508.692	13040
508.765	9979
508.837	9327
508.909	9059
508.982	8478
509.054	9042
509.127	8676
509.199	7747
509.271	7304
509.344	8653
509.416	9008
509.488	8850
509.560	9239
509.633	9706
509.705	9470
509.777	10324
509.849	10865
509.922	9340
509.994	10313
510.066	11170
510.138	9558
510.210	15798
510.283	13255
510.355	10324
510.427	11261
510.499	9869
510.571	10028
510.643	9073
510.715	11918
510.787	9017
510.859	11137
510.931	9605
511.003	11884
511.076	12150
511.148	9859
511.219	11404
511.291	15081
511.363	15755
511.435	10418
511.507	9178
511.579	11002
511.651	10375
511.723	9837
511.795	8819
511.867	8728
511.939	9876
512.010	15060
512.082	12916
512.154	9039
512.226	9714
512.298	12426
512.369	13297
512.441	12325
512.513	11405
512.585	8542
512.656	10721
512.728	9457
512.800	9106
512.871	10742
512.943	10552
513.015	8555
513.086	9713
513.158	10608
513.230	9361
513.301	10278
513.373	11551
513.444	9200
513.516	8491
513.588	9494
513.659	10694
513.731	9796
513.802	7944
513.874	14081
513.945	14918
514.016	8936
514.088	10037
514.159	8014
514.231	10524
514.302	13625
514.374	11930
514.445	10536
514.516	18781
514.588	13358
514.659	11707
514.730	15427
514.802	12876
514.873	8656
514.944	11219
515.016	11072
515.087	10721
515.158	13126
515.229	16528
515.301	9716
515.372	11718
515.443	9370
515.514	9910
515.585	9135
515.656	11546
515.728	11775
515.799	10390
515.870	11461
515.941	11972
516.012	12721
516.083	16030
516.154	16807
516.225	20743
516.296	23989
516.367	26708
516.438	33816
516.509	43590
516.580	65869
516.651	227429
516.722	768814
516.793	303714
516.864	64426
516.935	58274
517.006	70667
517.077	88988
517.148	188892
517.219	804834
517.289	1190794
517.360	263303
517.431	69140
517.502	35623
517.573	30458
517.643	28763
517.714	28716
517.785	31512
517.856	35182
517.926	45247
517.997	56262
518.068	72405
518.138	99974
518.209	158079
518.280	536221
518.350	1568754
518.421	738748
518.492	142386
518.562	82260
518.633	80904
518.703	98749
518.774	196051
518.845	472853
518.915	434881
518.986	138717
519.056	62909
519.127	46098
519.197	44529
519.268	79958
519.338	49564
519.408	21538
519.479	19407
519.549	16537
519.620	16231
519.690	13178
519.760	13573
519.831	12915
519.901	12473
519.971	12350
520.042	11879
520.112	12426
520.182	13342
520.253	13352
520.323	11311
520.393	11724
520.463	15922
520.534	10451
520.604	19514
520.674	14220
520.744	12486
520.814	17672
520.885	17642
520.955	26952
521.025	82885
521.095	28660
521.165	11541
521.235	10434
521.305	9058
521.375	10635
521.445	10051
521.515	9360
521.585	11284
521.655	9044
521.725	11332
521.795	11950
521.865	7987
521.935	13661
522.005	10780
522.075	9387
522.145	10598
522.215	10075
522.285	13051
522.355	15139
522.424	22578
522.494	17695
522.564	12197
522.634	14243
522.704	26327
522.774	13454
522.843	10326
522.913	9749
522.983	10111
523.053	8895
523.122	10391
523.192	10246
523.262	16760
523.331	15813
523.401	10589
523.471	9882
523.540	10662
523.610	8339
523.680	9879
523.749	11110
523.819	10756
523.888	10916
523.958	9475
524.027	9791
524.097	10374
524.166	9826
524.236	8608
524.305	12430
524.375	9339
524.444	9237
524.514	12219
524.583	10064
524.653	10474
524.722	12670
524.791	9691
524.861	12939
524.930	9989
524.999	10037
525.069	12793
525.138	11739
525.207	13305
525.277	12521
525.346	13929
525.415	15142
525.484	15441
525.554	18490
525.623	21808
525.692	25320
525.761	31987
525.830	41633
525.900	55821
525.969	84466
526.038	151465
526.107	314730
526.176	891181
526.245	702986
526.314	213269
526.383	443544
526.452	593563
526.522	829031
526.591	774010
526.660	146933
526.729	84512
526.797	88811
526.867	123316
526.935	362030
527.004	1211840
527.073	791014
527.142	120036
527.211	47262
527.280	33179
527.349	24274
527.418	18425
527.487	16596
527.555	14010
527.624	14140
527.693	11499
527.762	13052
527.831	11705
527.899	12110
527.968	11427
528.037	9367
528.106	11434
528.174	12663
528.243	13001
528.312	13186
528.380	13969
528.449	8969
528.518	10687
528.586	8503
528.655	10782
528.723	9195
528.792	8645
528.861	9007
528.929	8589
528.998	9894
529.066	8716
529.135	12046
529.203	10555
529.272	11625
529.340	14321
529.409	14384
529.477	11957
529.545	13257
529.614	16078
529.682	15109
529.751	17426
529.819	20479
529.887	17336
529.956	15957
530.024	16619
530.092	14509
530.161	15847
530.229	15673
530.297	16210
530.365	16146
530.434	16604
530.502	14952
530.570	15447
530.638	13314
530.707	14633
530.775	15322
530.843	13845
530.911	14842
530.979	15334
531.047	16731
531.115	16416
531.183	15597
531.252	14827
531.320	13890
531.388	13913
531.456	15520
531.524	14610
531.592	18404
531.660	19134
531.728	16057
531.796	16595
531.864	15844
531.932	16225
532.000	15507
532.067	17089
532.135	17517
532.203	19193
532.271	20594
532.339	24069
532.407	27466
532.475	23248
532.542	20531
532.610	19764
532.678	20516
532.746	33954
532.814	56767
532.881	25676
532.949	19722
533.017	18872
533.084	17904
533.152	16636
533.220	16514
533.287	16795
533.355	17643
533.423	18612
533.490	17327
533.558	18675
533.625	18215
533.693	17738
533.761	18860
533.828	17910
533.896	18900
533.963	24546
534.031	26357
534.098	28644
534.166	26365
534.233	23665
534.300	27848
534.368	27176
534.435	26427
534.503	28015
534.570	31081
534.637	35334
534.705	40333
534.772	45923
534.840	82922
534.907	384688
534.974	469479
535.041	67190
535.109	32434
535.176	23705
535.243	22546
535.310	21483
535.378	19705
535.445	21434
535.512	21232
535.579	20562
535.646	19080
535.714	20228
535.781	22439
535.848	23493
535.915	24143
535.982	24631
536.049	24374
536.116	25045
536.183	20399
536.250	19192
536.317	19035
536.384	20523
536.451	21089
536.518	22112
536.585	20061
536.652	22324
536.719	22273
536.786	18849
536.853	18213
536.920	21760
536.987	22430
537.053	21441
537.120	37375
537.187	33336
537.254	21774
537.321	20225
537.388	21418
537.454	18584
537.521	19406
537.588	18808
537.654	19931
537.721	21574
537.788	21511
537.855	18956
537.921	19732
537.988	18783
538.055	19565
538.121	16943
538.188	17576
538.254	18102
538.321	20920
538.388	20667
538.454	21230
538.521	21172
538.587	20060
538.654	20514
538.720	19694
538.787	20070
538.853	19107
538.920	19500
538.986	18898
539.053	18144
539.119	19090
539.185	19318
539.252	20876
539.318	19903
539.385	24735
539.451	20460
539.517	20184
539.583	20273
539.650	23544
539.716	30623
539.782	19578
539.849	17975
539.915	19591
539.981	18562
540.047	18872
540.114	18890
540.180	20489
540.246	19562
540.312	21860
540.378	22724
540.444	23565
540.510	23467
540.576	32357
540.643	21032
540.709	18201
540.775	17593
540.841	19040
540.907	19390
540.973	22058
541.039	20220
541.105	20551
541.171	20207
541.237	20616
541.303	20741
541.369	22133
541.435	20208
541.500	21864
541.566	18643
541.632	17816
541.698	17960
541.764	20311
541.830	18593
541.896	19402
541.961	20099
542.027	18244
542.093	20267
542.159	21191
542.224	19306
542.290	20807
542.356	20961
542.421	21698
542.487	20204
542.553	18768
542.618	18473
542.684	19695
542.750	18962
542.815	20005
542.881	21300
542.947	31486
543.012	26978
543.078	17527
543.143	18026
543.209	19493
543.274	17743
543.340	19499
543.405	21558
543.471	24778
543.536	18793
543.602	20431
543.667	17866
543.732	20363
543.798	18284
543.863	20499
543.928	19733
543.994	18264
544.059	19933
544.124	19708
544.190	20166
544.255	21941
544.320	20541
544.386	20475
544.451	22007
544.516	21590
544.581	22024
544.646	27548
544.712	32810
544.777	23176
544.842	22789
544.907	22888
544.972	21974
545.037	22978
545.102	23922
545.168	24159
545.233	25271
545.298	25148
545.363	24808
545.428	27731
545.493	29160
545.558	33176
545.623	27872
545.688	24737
545.753	26639
545.818	27518
545.883	29876
545.947	29032
546.012	32007
546.077	30720
546.142	33560
546.207	33127
546.272	35575
546.337	35453
546.401	36968
546.466	38658
546.531	39180
546.596	43536
546.661	44853
546.725	47613
546.790	48565
546.855	54713
546.919	57660
546.984	65237
547.049	69495
547.113	78814
547.178	85747
547.243	97095
547.307	114497
547.372	127122
547.436	125025
547.501	131043
547.565	140804
547.630	129031
547.695	124751
547.759	127936
547.823	127355
547.888	130358
547.952	131889
548.017	136753
548.081	139439
548.146	139816
548.210	142631
548.274	154369
548.339	149621
548.403	134819
548.468	128444
548.532	127219
548.596	130568
548.660	129927
548.725	143271
548.789	155086
548.853	149618
548.917	142657
548.982	140094
549.046	126601
549.110	112900
549.174	117767
549.238	138648
549.303	148538
549.367	153137
549.431	145013
549.495	136003
549.559	138068
549.623	160688
549.687	174259
549.751	171621
549.815	203965
549.879	203809
549.943	195015
550.007	206913
550.071	201834
550.135	181944
550.199	173261
550.263	169099
550.327	159875
550.391	167432
550.455	183960
550.519	193777
550.582	204744
550.646	233809
550.710	235191
550.774	231388
550.838	236786
550.901	243899
550.965	260328
551.029	268113
551.093	291931
551.156	322523
551.220	368498
551.284	388420
551.347	305337
551.411	270380
551.475	253202
551.538	250487
551.602	228989
551.666	218627
551.729	204590
551.793	201255
551.856	196120
551.920	192796
551.983	193013
552.047	188927
552.110	190185
552.174	192092
552.237	196716
552.301	182472
552.364	174623
552.428	169279
552.491	178753
552.554	180197
552.618	181264
552.681	185519
552.745	186469
552.808	222022
552.871	258105
552.934	213214
552.998	187662
553.061	178253
553.124	171244
553.187	170328
553.251	173242
553.314	174828
553.377	174461
553.440	188245
553.503	211068
553.567	223367
553.630	188396
553.693	183945
553.756	186590
553.819	178151
553.882	172252
553.945	173458
554.008	172058
554.071	175738
554.134	176603
554.197	163840
554.260	161089
554.323	163567
554.386	168991
554.449	174604
554.512	173379
554.575	165568
554.638	164798
554.701	162152
554.764	161422
554.827	156625
554.889	150729
554.952	141142
555.015	139746
555.078	141443
555.141	143088
555.203	139493
555.266	139686
555.329	138356
555.391	130654
555.454	131484
555.517	128470
555.580	123370
555.642	118656
555.705	116566
555.768	116032
555.830	112443
555.893	107147
555.955	103599
556.018	102373
556.080	101235
556.143	105433
556.206	105713
556.268	101046
556.330	98806
556.393	96248
556.455	93696
556.518	93609
556.580	91123
556.643	85124
556.705	83564
556.767	82404
556.830	81242
556.892	80361
556.955	80476
557.017	77615
557.079	76264
557.142	74301
557.204	73167
557.266	78010
557.328	70523
557.391	63683
557.453	64454
557.515	63831
557.577	65116
557.639	66734
557.701	67393
557.764	67564
557.826	69100
557.888	73118
557.950	77401
558.012	84713
558.074	106039
558.136	244734
558.198	572460
558.260	204798
558.322	84820
558.384	81642
558.446	87309
558.508	96748
558.570	111104
558.632	128669
558.694	160430
558.756	254445
558.818	701512
558.880	1432163
558.942	631287
559.003	622603
559.065	297248
559.127	118909
559.189	110504
559.251	119452
559.312	162603
559.374	385034
559.436	1105611
559.498	578634
559.559	143019
559.621	114562
559.683	122782
559.744	195667
559.806	607375
559.868	860053
559.929	205962
559.991	125847
560.052	197624
560.114	553070
560.176	340121
560.237	323152
560.299	499452
560.360	113310
560.422	48205
560.483	39255
560.545	35579
560.606	33305
560.667	31960
560.729	29433
560.790	29045
560.852	29056
560.913	27539
560.974	27190
561.036	25556
561.097	28267
561.158	25749
561.220	25532
561.281	24905
561.342	23891
561.403	25321
561.465	24883
561.526	28436
561.587	30143
561.648	22816
561.709	22386
561.771	22877
561.832	22594
561.893	20691
561.954	21825
562.015	21181
562.076	21271
562.137	21030
562.198	20235
562.259	20790
562.320	21358
562.381	20578
562.442	21617
562.503	20599
562.564	19957
562.625	20098
562.686	18471
562.747	19167
562.808	19351
562.869	19029
562.930	20239
562.991	19149
563.051	19871
563.112	18274
563.173	19329
563.234	18677
563.294	18355
563.355	17343
563.416	18233
563.477	17309
563.537	17369
563.598	17143
563.659	18043
563.720	17739
563.780	17050
563.841	17207
563.901	17668
563.962	16445
564.023	16845
564.083	18048
564.144	16812
564.204	17226
564.265	16567
564.325	17738
564.386	21133
564.446	19793
564.507	16521
564.567	16092
564.628	15798
564.688	15576
564.749	15045
564.809	17660
564.869	16827
564.930	15766
564.990	16117
565.050	14940
565.111	15282
565.171	14900
565.231	15884
565.292	16097
565.352	14681
565.412	15086
565.472	15428
565.532	14627
565.593	14850
565.653	14306
565.713	15692
565.773	15826
565.833	16540
565.893	17539
565.953	14772
566.013	14841
566.074	14342
566.134	16074
566.194	18256
566.254	17631
566.314	16210
566.374	14529
566.434	15039
566.494	14309
566.554	14695
566.614	15435
566.673	16058
566.733	14996
566.793	15334
566.853	15364
566.913	15891
566.973	15808
567.033	15890
567.092	15002
567.152	15461
567.212	15855
567.272	16301
567.331	15785
567.391	15640
567.451	16576
567.511	18314
567.570	17673
567.630	15977
567.690	15317
567.749	16651
567.809	15959
567.868	16363
567.928	14726
567.988	15640
568.047	15439
568.107	15464
568.166	15622
568.226	15422
568.285	17168
568.345	17741
568.404	16741
568.464	16176
568.523	15435
568.582	15886
568.642	16324
568.701	16916
568.761	16425
568.820	18536
568.879	17989
568.939	18454
568.998	16517
569.057	15633
569.116	15890
569.176	16007
569.235	14859
569.294	16050
569.353	14868
569.413	14233
569.472	14438
569.531	13748
569.590	13230
569.649	13642
569.708	13403
569.767	14239
569.827	14724
569.886	14186
569.945	13678
570.004	15352
570.063	13941
570.122	15313
570.181	15725
570.240	15256
570.299	15389
570.358	15983
570.417	14964
570.475	15607
570.534	15890
570.593	15527
570.652	15937
570.711	15737
570.770	15164
570.829	14255
570.887	15043
570.946	15845
571.005	15613
571.064	16840
571.122	19064
571.181	17948
571.240	16023
571.299	14579
571.357	14839
571.416	14148
571.475	15239
571.533	16052
571.592	16218
571.650	16577
571.709	16096
571.768	19163
571.826	18461
571.885	17322
571.943	15698
572.002	13894
572.060	14865
572.119	13821
572.177	15238
572.236	15440
572.294	14222
572.352	15230
572.411	14767
572.469	14728
572.528	13721
572.586	14132
572.644	14423
572.703	14638
572.761	13346
572.819	13332
572.877	12962
572.936	12865
572.994	11846
573.052	13296
573.110	12940
573.169	14589
573.227	13785
573.285	13876
573.343	13905
573.401	13544
573.459	14088
573.517	13206
573.576	15217
573.634	15263
573.692	14637
573.750	14363
573.808	14633
573.866	13474
573.924	14737
573.982	14130
574.040	13716
574.098	13280
574.155	13156
574.213	13234
574.271	12348
574.329	14775
574.387	13485
574.445	11548
574.503	12657
574.560	12603
574.618	12360
574.676	13220
574.734	12662
574.792	11884
574.849	11149
574.907	11636
574.965	10487
575.022	10713
575.080	9754
575.138	10888
575.195	9446
575.253	10216
575.311	9778
575.368	11256
575.426	10022
575.483	11261
575.541	10280
575.598	10784
575.656	10517
575.713	11147
575.771	11946
575.828	11781
575.886	10890
575.943	10712
576.001	9991
576.058	10373
576.115	10253
576.173	11553
576.230	10879
576.287	11115
576.345	11240
576.402	11758
576.459	10901
576.517	10837
576.574	10404
576.631	11501
576.688	9192
576.746	10096
576.803	10248
576.860	9345
576.917	9982
576.974	9856
577.031	10506
577.089	9719
577.146	9209
577.203	9291
577.260	10094
577.317	10162
577.374	9861
577.431	10089
577.488	9576
577.545	9431
577.602	9799
577.659	9634
577.716	9824
577.773	10366
577.830	9336
577.886	10661
577.943	9545
578.000	9809
578.057	10151
578.114	11546
578.171	12182
578.227	16177
578.284	15003
578.341	12702
578.398	10903
578.454	10672
578.511	9405
578.568	10046
578.625	9958
578.681	9746
578.738	10144
578.794	9627
578.851	9520
578.908	8837
578.964	8809
579.021	10344
579.077	8790
579.134	8818
579.190	9201
579.247	9264
579.303	9608
579.360	8966
579.416	9353
579.473	9615
579.529	9343
579.586	8847
579.642	10126
579.698	10044
579.755	10129
579.811	10924
579.867	11360
579.924	10688
579.980	11560
580.036	13170
580.093	16166
580.149	21646
580.205	22488
580.261	17307
580.317	13851
580.374	12704
580.430	12719
580.486	11571
580.542	11758
580.598	10782
580.619	10956
580.654	11275
580.692	10774
580.710	10550
580.765	10863
580.767	10887
580.823	11055
580.838	11192
580.879	11595
580.911	11317
580.935	11133
580.984	11504
580.991	11574
581.047	12123
581.057	12015
581.103	11646
581.130	12193
581.159	12768
581.203	13136
581.215	13256
581.270	12796
581.276	12606
581.326	10933
581.349	11147
581.382	11499
581.422	10806
581.438	10522
581.494	10811
581.494	10796
581.550	10443
581.567	10463
581.606	10500
581.640	10316
581.661	10205
581.713	11092
581.717	11178
581.773	10930
581.786	10958
581.829	11073
581.859	10526
581.885	10065
581.932	10803
581.940	10952
581.996	10116
582.004	10131
582.052	10181
582.077	10047
582.107	9953
582.150	9992
582.163	10018
582.219	10629
582.223	10630
582.274	10652
582.296	10456
582.330	10117
582.368	10199
582.386	10334
582.441	9912
582.441	9915
582.497	9685
582.514	9663
582.552	9844
582.587	10454
582.608	10750
582.659	10657
582.663	10659
582.719	10385
582.732	10529
582.774	11004
582.805	10887
582.830	10811
582.877	10551
582.885	10505
582.941	11602
582.950	11678
582.996	11941
583.023	12139
583.052	12677
583.095	13562
583.107	13723
583.162	14691
583.168	14769
583.218	15373
583.240	14458
583.273	13212
583.313	12334
583.328	12012
583.384	11339
583.385	11301
583.439	9846
583.458	9815
583.494	9971
583.531	10115
583.549	10250
583.603	10066
583.605	10044
583.660	9695
583.676	9693
583.715	9793
583.748	9879
583.770	10077
583.820	10096
583.825	10058
583.881	10099
583.893	9886
583.936	9374
583.965	9520
583.991	9497
584.038	9450
584.046	9473
584.101	9339
584.110	9478
584.156	10045
584.183	9666
584.211	9287
584.255	9815
584.266	9977
584.321	9911
584.328	9927
584.376	9772
584.400	9850
584.431	9909
584.472	9230
584.486	9067
584.541	10276
584.545	10289
584.596	10176
584.617	10311
584.651	10725
584.689	11485
584.706	11621
584.761	10447
584.762	10458
584.816	11462
584.834	11729
584.871	11928
584.906	12431
584.926	12817
584.978	13012
584.980	13008
585.035	15514
585.051	15841
585.090	16978
585.123	18236
585.145	18858
585.195	21889
585.200	22219
585.254	25586
585.267	27078
585.309	31435
585.340	34715
585.364	37761
585.412	42585
585.419	43250
585.473	52269
585.484	55020
585.528	69202
585.556	86996
585.583	115002
585.628	192071
585.637	215657
585.692	456844
585.700	496770
585.747	646918
585.772	524284
585.801	327166
585.845	122439
585.856	89406
585.910	45430
585.917	42033
585.965	30133
585.989	26645
586.019	22789
586.061	19421
586.074	18665
586.128	18341
586.133	18185
586.183	16336
586.205	16077
586.237	15655
586.277	15232
586.292	15007
586.346	14224
586.349	14259
586.401	15000
586.421	14941
586.455	14614
586.493	14680
586.509	14853
586.564	15547
586.565	15629
586.618	18132
586.637	18408
586.672	19618
586.709	21186
586.727	21455
586.781	23204
586.781	23170
586.835	17929
586.853	16967
586.889	15075
586.925	13450
586.944	13059
586.996	12747
586.998	12703
587.052	12298
587.068	12196
587.106	12332
587.140	12772
587.161	12932
587.212	12701
587.215	12662
587.269	12707
587.284	12824
587.323	12891
587.356	12802
587.377	12920
587.427	13628
587.431	13645
587.485	14120
587.499	14214
587.539	14309
587.571	14602
587.593	14737
587.643	15319
587.648	15349
587.702	15858
587.715	15858
587.755	15517
587.786	15633
587.810	15652
587.858	15554
587.864	15568
587.917	15624
587.930	15814
587.971	16070
588.001	16518
588.025	16799
588.073	17295
588.079	17315
588.133	17226
588.145	17338
588.187	17379
588.217	17482
588.241	17827
588.288	19038
588.295	19170
588.348	20659
588.360	21040
588.402	22314
588.431	23202
588.456	23616
588.503	25270
588.510	25578
588.564	28788
588.575	29618
588.617	32317
588.646	34551
588.671	36649
588.718	42135
588.725	43392
588.778	57068
588.789	61474
588.832	94776
588.861	125240
588.886	179366
588.932	304304
588.939	315245
588.993	373284
589.004	366283
589.047	200191
589.075	103105
589.100	72010
589.147	42789
589.154	41172
589.207	35332
589.218	34643
589.261	34754
589.290	35707
589.314	36718
589.361	40914
589.368	42570
589.421	61010
589.433	66718
589.475	119182
589.504	165845
589.528	218601
589.576	322692
589.582	313462
589.635	154692
589.647	123504
589.689	60647
589.718	31056
589.742	26840
589.790	21362
589.795	20931
589.849	19007
589.861	18651
589.902	17933
589.932	17632
589.955	17002
590.004	15807
590.009	15712
590.062	15779
590.075	15738
590.115	15000
590.146	14816
590.168	14803
590.218	14737
590.222	14668
590.275	14842
590.289	14779
590.328	14356
590.360	14331
590.381	14505
590.431	15113
590.435	15044
590.488	14679
590.503	14618
590.541	14772
590.574	14970
590.594	14918
590.645	15328
590.647	15285
590.700	15479
590.716	15558
590.753	15258
590.787	15281
590.806	15672
590.859	16969
590.859	16907
590.912	16657
590.930	16767
590.965	17072
591.001	17191
591.018	16741
591.071	15955
591.072	16015
591.124	15612
591.143	15613
591.177	15443
591.214	15457
591.230	15727
591.283	17016
591.285	17124
591.336	16057
591.356	15741
591.389	16093
591.427	16495
591.442	16261
591.495	15854
591.498	15890
591.547	16055
591.569	16254
591.600	16207
591.640	16101
591.653	15996
591.706	16055
591.711	16127
591.759	16325
591.782	16589
591.811	17027
591.853	17764
591.864	17612
591.917	17231
591.924	17251
591.969	16824
591.995	16735
592.022	16974
592.066	17563
592.075	17494
592.127	17648
592.137	17764
592.180	17763
592.208	17882
592.233	17843
592.279	18038
592.285	17982
592.338	18374
592.350	18550
592.390	18296
592.421	18295
592.443	18478
592.491	19202
592.495	19088
592.548	18908
592.562	18969
592.600	18474
592.633	18240
592.653	18263
592.704	18525
592.705	18614
592.775	17889
592.846	19395
592.916	19330
592.987	20020
593.058	20748
593.128	20757
593.199	20833
593.270	20167
593.341	20372
593.411	20649
593.482	21707
593.553	22714
593.623	22905
593.694	22485
593.764	23536
593.835	23655
593.906	23207
593.976	24285
594.047	23895
594.117	27244
594.188	26916
594.258	25375
594.329	26957
594.399	27665
594.470	28386
594.540	29790
594.611	29617
594.681	28902
594.751	29847
594.822	29714
594.892	31703
594.963	33983
595.033	33540
595.103	33555
595.174	35008
595.244	36463
595.314	37216
595.384	36869
595.455	37594
595.525	40232
595.595	41670
595.665	41510
595.736	39647
595.806	40399
595.876	41867
595.946	41222
596.016	43449
596.087	45338
596.157	44766
596.227	46351
596.297	48305
596.367	50952
596.437	54153
596.507	55025
596.577	54750
596.647	54731
596.717	57985
596.787	59316
596.857	59997
596.927	59356
596.997	59599
597.067	60281
597.137	61133
597.207	61661
597.277	61567
597.347	59776
597.417	57633
597.487	57992
597.557	59430
597.626	61068
597.696	61666
597.766	60543
597.836	57429
597.906	54537
597.975	54230
598.045	54221
598.115	57268
598.185	62511
598.254	69260
598.324	74539
598.394	75320
598.464	73124
598.533	70411
598.603	67201
598.672	65539
598.742	65631
598.812	67120
598.881	69738
598.951	69108
599.020	68870
599.090	71932
599.159	74730
599.229	70010
599.299	68112
599.368	70961
599.437	69890
599.507	63215
599.576	61497
599.646	61971
599.715	60594
599.785	59281
599.854	56976
599.924	55535
599.993	56253
600.062	57118
600.132	59328
600.201	64641
600.270	74339
600.340	77835
600.409	75438
600.478	75261
600.547	77405
600.617	69024
600.686	54145
600.755	49552
600.824	47269
600.894	46365
600.963	46811
601.032	46125
601.101	43447
601.170	41867
601.239	40440
601.308	41224
601.378	41800
601.447	40337
601.516	41365
601.585	41540
601.654	43112
601.723	43052
601.792	43760
601.861	46053
601.930	47510
601.999	48028
602.068	47695
602.137	47428
602.206	49217
602.275	49885
602.343	50842
602.412	50832
602.481	50970
602.550	51068
602.619	53433
602.688	53372
602.756	54346
602.825	54033
602.894	55550
602.963	57405
603.032	58114
603.100	58600
603.169	58298
603.238	57577
603.307	59447
603.375	59847
603.444	61687
603.513	62092
603.581	63101
603.650	64166
603.719	61802
603.787	64128
603.856	64979
603.924	67651
603.993	70044
604.061	72948
604.130	76216
604.198	77032
604.267	79147
604.335	80022
604.404	80239
604.472	82491
604.541	83142
604.609	84590
604.678	84916
604.746	85069
604.815	88910
604.883	89391
604.951	89757
605.020	90547
605.088	91779
605.156	92907
605.225	96131
605.293	94769
605.361	95296
605.429	96577
605.498	97495
605.566	101571
605.634	107504
605.702	110688
605.771	112798
605.839	113336
605.907	109242
605.975	106468
606.043	104449
606.111	103823
606.180	104502
606.248	102899
606.316	102775
606.384	100883
606.452	102771
606.520	104313
606.588	108301
606.656	110376
606.724	106287
606.792	99162
606.860	88778
606.928	81634
606.996	79163
607.064	78607
607.132	79390
607.200	85215
607.267	88626
607.335	89416
607.403	91605
607.471	86880
607.539	86170
607.607	87107
607.674	74773
607.742	75208
607.810	76257
607.878	76043
607.946	76729
608.013	81408
608.081	81681
608.149	83027
608.216	85961
608.284	88909
608.352	88213
608.419	85785
608.487	86960
608.555	84743
608.622	87695
608.690	93794
608.757	103506
608.825	104442
608.893	102569
608.960	95162
609.028	91271
609.095	93276
609.163	90690
609.230	80958
609.298	73621
609.365	78722
609.432	86292
609.500	92737
609.567	106811
609.635	121960
609.702	126586
609.769	120662
609.837	94127
609.904	82982
609.971	89544
610.039	105598
610.106	143171
610.173	282936
610.241	623742
610.308	303833
610.375	110104
610.442	90602
610.509	85862
610.577	86955
610.644	86469
610.711	88887
610.778	91932
610.845	95240
610.912	102111
610.980	105600
611.047	105612
611.114	103312
611.181	100008
611.248	99125
611.315	106128
611.382	107954
611.449	112625
611.516	114497
611.583	112168
611.650	112506
611.717	116425
611.784	119822
611.851	127275
611.918	139910
611.984	171864
612.051	247795
612.118	490732
612.185	1077241
612.252	616632
612.319	192641
612.386	154693
612.452	138576
612.519	129385
612.586	126035
612.653	128785
612.719	132183
612.786	126861
612.853	117206
612.919	114357
612.986	117527
613.053	109411
613.120	101835
613.186	98831
613.253	101716
613.319	99800
613.386	99519
613.453	102863
613.519	102944
613.586	101055
613.652	104313
613.719	101272
613.785	102681
613.852	103857
613.918	102066
613.985	105883
614.051	110538
614.118	112926
614.184	106752
614.250	103781
614.317	105007
614.383	102339
614.449	105786
614.516	103706
614.582	106716
614.648	102103
614.715	102475
614.781	99944
614.847	99254
614.914	99252
614.980	96482
615.046	97677
615.112	100644
615.179	100231
615.245	102064
615.311	100307
615.377	101860
615.443	101659
615.509	104339
615.575	109379
615.642	108837
615.708	112310
615.774	119239
615.840	129224
615.906	145739
615.972	184746
616.038	284705
616.104	577432
616.170	1224479
616.236	918271
616.302	281463
616.368	213346
616.434	149540
616.500	138734
616.565	159636
616.631	202444
616.697	161175
616.763	172564
616.829	272611
616.895	484298
616.961	424786
617.026	172060
617.092	117150
617.158	110526
617.224	103246
617.289	96766
617.355	91807
617.421	89602
617.487	90135
617.552	84236
617.618	84351
617.684	83889
617.749	85539
617.815	80350
617.880	78893
617.946	79484
618.012	81586
618.077	81743
618.143	77731
618.208	79937
618.274	86587
618.339	85388
618.405	70092
618.470	70208
618.536	68806
618.601	68203
618.667	63206
618.732	60123
618.798	58383
618.863	59483
618.928	58079
618.994	59708
619.059	59783
619.124	59451
619.190	59885
619.255	57634
619.320	57946
619.386	59324
619.451	56604
619.516	55633
619.581	57083
619.647	58606
619.712	57654
619.777	55318
619.842	56223
619.907	57342
619.972	58258
620.038	58268
620.103	55828
620.168	55730
620.233	58836
620.298	57636
620.363	58636
620.428	60656
620.493	61832
620.558	62459
620.623	62305
620.688	62334
620.753	61303
620.818	62606
620.883	63172
620.948	62376
621.013	61703
621.078	60867
621.143	60179
621.207	64182
621.272	60317
621.337	59485
621.402	57712
621.467	57622
621.532	58368
621.596	58307
621.661	55690
621.726	55257
621.791	56546
621.855	56103
621.920	55358
621.985	56890
622.049	58289
622.114	58159
622.179	59140
622.243	59556
622.308	62274
622.373	66154
622.437	63435
622.502	59222
622.566	58883
622.631	58208
622.695	61014
622.760	59843
622.824	58020
622.889	60620
622.953	59033
623.018	66056
623.082	66044
623.147	63752
623.211	61503
623.276	61890
623.340	57779
623.404	57769
623.469	57940
623.533	58360
623.597	55574
623.662	56914
623.726	52265
623.790	47931
623.854	47175
623.919	48727
623.983	48749
624.047	49918
624.111	51046
624.176	51753
624.240	50596
624.304	53825
624.368	50524
624.432	51667
624.496	53334
624.560	56588
624.625	56105
624.689	56381
624.753	57341
624.817	55617
624.881	54334
624.945	48488
625.009	46289
625.073	48367
625.137	48725
625.201	52980
625.265	52371
625.329	50429
625.393	50010
625.456	50734
625.520	52271
625.584	52283
625.648	55078
625.712	57944
625.776	58717
625.839	56848
625.903	44339
625.967	41263
626.031	46448
626.095	55978
626.158	47267
626.222	37165
626.286	35781
626.349	32548
626.413	30112
626.477	32128
626.540	32213
626.604	30328
626.668	32362
626.731	29671
626.795	30926
626.858	30374
626.922	30200
626.986	30728
627.049	29068
627.113	33082
627.176	30736
627.240	29321
627.303	29979
627.366	29217
627.430	31006
627.493	28816
627.557	28528
627.620	30888
627.684	31277
627.747	31866
627.810	27607
627.874	26548
627.937	23413
628.000	27697
628.064	25434
628.127	21001
628.190	21558
628.253	21357
628.317	20387
628.380	20163
628.443	18758
628.506	18965
628.569	19234
628.632	17276
628.696	17443
628.759	17554
628.822	16701
628.885	16336
628.948	15793
629.011	15319
629.074	14719
629.137	14117
629.200	13819
629.263	14876
629.326	13741
629.389	13825
629.452	14780
629.515	13405
629.578	12747
629.641	15242
629.704	13038
629.767	13194
629.830	14201
629.892	13469
629.955	12233
630.018	14953
630.081	12590
630.144	14261
630.207	11495
630.269	14982
630.332	12519
630.395	13115
630.458	12335
630.520	10869
630.583	12728
630.646	12208
630.708	12454
630.771	11579
630.834	14634
630.896	13089
630.959	12428
631.021	11481
631.084	13131
631.146	13554
631.209	14419
631.272	12144
631.334	13151
631.397	13961
631.459	13667
631.522	15933
631.584	16096
631.646	17891
631.709	19152
631.771	17633
631.834	17273
631.896	17131
631.958	14469
632.021	15260
632.083	12693
632.145	13402
632.208	12392
632.270	13246
632.332	11187
632.395	11072
632.457	13502
632.519	11373
632.581	13190
632.643	11732
632.706	12625
632.768	10399
632.830	12735
632.892	12993
632.954	11853
633.016	13147
633.078	12895
633.141	11978
633.203	11400
633.265	12400
633.327	12228
633.389	11482
633.451	13022
633.513	11938
633.575	13996
633.637	12724
633.698	12805
633.760	14369
633.822	14968
633.884	15175
633.946	15608
634.008	15901
634.070	17594
634.132	19210
634.193	20779
634.255	22955
634.317	23620
634.379	23913
634.441	19296
634.502	17948
634.564	16087
634.626	14078
634.687	13638
634.749	12787
634.811	13170
634.873	11529
634.934	12284
634.996	13449
635.057	11853
635.119	12694
635.181	13070
635.242	14213
635.304	11909
635.365	15616
635.427	12579
635.488	12997
635.550	12208
635.611	13946
635.673	12348
635.734	16171
635.796	15717
635.857	19317
635.918	18956
635.980	23411
636.041	24010
636.102	26343
636.164	26472
636.225	26186
636.286	19813
636.348	18538
636.409	15772
636.470	14595
636.531	14243
636.593	11509
636.654	12413
636.715	11319
636.776	10768
636.838	9893
636.899	10244
636.960	9224
637.021	9751
637.082	9058
637.143	9095
637.204	8274
637.265	9037
637.326	10663
637.387	10343
637.448	8534
637.509	9749
637.570	8949
637.631	10334
637.692	8641
637.753	7918
637.814	9685
637.875	8953
637.936	9226
637.997	7694
638.058	8307
638.119	8697
638.179	8567
638.240	8107
638.301	8369
638.362	6394
638.423	8289
638.483	8515
638.544	6164
638.605	7979
638.666	7833
638.726	8289
638.787	8686
638.848	7518
638.908	6855
638.969	8372
639.030	7813
639.090	6189
639.151	6054
639.211	7664
639.272	7487
639.332	8863
639.393	8661
639.453	8897
639.514	9736
639.574	8206
639.635	7687
639.695	8487
639.756	6777
639.816	7724
639.877	6931
639.937	8496
639.997	8229
640.058	6141
640.118	6274
640.178	7629
640.239	7643
640.299	6642
640.359	6996
640.420	7918
640.480	9887
640.540	11057
640.600	11077
640.661	9957
640.721	8158
640.781	9102
640.841	5176
640.901	7775
640.961	7335
641.021	8555
641.082	8754
641.142	6751
641.202	7593
641.262	5029
641.322	7224
641.382	5348
641.442	6677
641.502	6524
641.562	7649
641.622	6254
641.682	8622
641.742	9547
641.802	7832
641.861	6815
641.921	6228
641.981	7372
642.041	6284
642.101	5383
642.161	4814
642.221	5769
642.280	6024
642.340	5501
642.400	4982
642.460	7204
642.519	6363
642.579	5823
642.639	7612
642.698	4689
642.758	9309
642.818	6102
642.877	6146
642.937	6377
642.997	6559
643.056	7076
643.116	5813
643.175	8649
643.235	6552
643.294	7766
643.354	8576
643.414	11257
643.473	13903
643.532	17295
643.592	27694
643.651	45655
643.711	79614
643.770	153864
643.830	369867
643.889	668909
643.948	157661
644.008	33020
644.067	18587
644.126	12480
644.186	10486
644.245	9874
644.304	7346
644.363	10266
644.423	7003
644.482	8312
644.541	10011
644.600	8509
644.659	13502
644.719	18587
644.778	29888
644.837	53975
644.896	116360
644.955	250568
645.014	69280
645.073	15688
645.132	10523
645.191	9827
645.250	8436
645.309	11293
645.368	11025
645.427	16783
645.486	31979
645.545	51859
645.604	13767
645.663	9008
645.722	7842
645.781	10466
645.840	11656
645.898	17080
645.957	27639
646.016	41816
646.075	75972
646.134	145697
646.192	396260
646.251	499104
646.310	77042
646.369	23240
646.427	18736
646.486	11149
646.545	8205
646.603	8898
646.662	7691
646.721	7825
646.779	7827
646.838	7830
646.896	12783
646.955	18375
647.014	31208
647.072	63921
647.131	170419
647.189	69614
647.248	9316
647.306	7404
647.365	6335
647.423	3262
647.481	7021
647.540	3536
647.598	4452
647.657	4254
647.715	5325
647.773	3905
647.832	4930
647.890	2604
647.948	2853
648.007	4716
648.065	3024
648.123	2617
648.181	5455
648.240	4518
648.298	2787
648.356	3520
648.414	4005
648.472	2798
648.531	3726
648.589	4097
648.647	3564
648.705	3212
648.763	3868
648.821	4619
648.879	3973
648.937	6323
648.995	9576
649.053	12821
649.111	21157
649.169	36143
649.227	64953
649.285	140346
649.343	374169
649.401	155184
649.459	20776
649.516	12032
649.574	8257
649.632	11295
649.690	12970
649.748	14973
649.806	21301
649.863	43974
649.921	123869
649.979	69920
650.037	9236
650.094	3179
650.152	3968
650.210	2713
650.268	3394
650.325	2654
650.383	2509
650.440	1393
650.498	2973
650.556	2447
650.613	2417
650.671	2557
650.728	2717
650.786	2863
650.843	5086
650.901	1741
650.958	2325
651.016	2564
651.073	1803
651.131	1534
651.188	1337
651.246	1409
651.303	1735
651.360	2172
651.418	1333
651.475	2503
651.532	1570
651.590	1940
651.647	891
651.704	2443
651.762	1240
651.819	1380
651.876	923
651.933	1708
651.990	1903
652.048	176
652.105	1552
652.162	2082
652.219	1165
652.276	2244
652.333	1229
652.390	221
652.448	796
652.505	908
652.562	1322
652.619	1397
652.676	2041
652.733	2004
652.790	1533
652.847	-27
652.904	825
652.961	239
653.017	207
653.074	1785
653.131	1629
653.188	710
653.245	1230
653.302	693
653.359	1173
653.415	1587
653.472	1216
653.529	1980
653.586	414
653.642	936
653.699	2549
653.756	435
653.813	930
653.869	1995
653.926	910
653.983	452
654.039	2069
654.096	1096
654.152	2550
654.209	680
654.266	1109
654.322	832
654.379	1247
654.435	1579
654.492	834
654.548	732
654.605	1006
654.661	1825
654.717	930
654.774	1337
654.830	1177
654.887	1028
654.943	1198
655.000	1275
655.056	1693
655.112	992
655.168	-134
655.225	1326
655.281	1423
655.337	1718
655.394	1459
655.450	991
655.506	968
655.562	850
655.618	1636
655.675	-820
655.731	943
655.787	343
655.843	1984
655.899	-631
655.955	1889
656.011	1827
656.067	-382
656.123	1580
656.179	1602
656.235	2925
656.291	-474
656.347	1834
656.403	74
656.459	677
656.515	504
656.571	1436
656.627	1110
656.683	1112
656.739	705
656.795	1359
656.850	-10
656.906	1138
656.962	1208
657.018	1149
657.074	2095
657.129	3084
657.185	4583
657.241	14767
657.297	6426
657.352	917
657.408	634
657.464	1119
657.519	483
657.575	184
657.630	1014
657.686	1179
657.742	-115
657.797	-258
657.853	196
657.908	1536
657.964	152
658.019	577
658.075	845
658.130	609
658.186	114
658.241	1145
658.297	-438
658.352	292
658.407	157
658.463	232
658.518	971
658.573	1096
658.629	-386
658.684	1037
658.739	883
658.795	-240
658.850	400
658.905	-94
658.960	488
659.016	-336
659.071	14
659.126	735
659.181	-157
659.236	1619
659.291	1524
659.346	-1189
659.401	-198
659.457	892
659.512	948
659.567	400
659.622	897
659.677	500
659.732	-398
659.787	-293
659.842	-105
659.897	420
659.952	582
660.007	416
660.061	28
660.116	-1397
660.171	-39
660.226	80
660.281	1201
660.336	-475
660.391	566
660.445	195
660.500	906
660.555	62
660.610	102
660.664	392
660.719	-240
660.774	310
660.828	58
660.883	290
660.938	473
660.992	-458
661.047	834
661.101	-248
661.156	142
661.211	-5
661.265	549
661.320	309
661.374	-114
661.429	-550
661.483	921
661.538	-520
661.592	421
661.647	194
661.701	66
661.755	-318
661.810	596
661.864	-880
661.919	-223
661.973	178
662.027	-255
662.081	-1004
662.136	-314
662.190	-274
662.244	749
662.299	123
662.353	697
662.407	-1007
662.461	-1166
662.515	881
662.569	-576
662.624	259
662.678	395
662.732	-454
662.786	-424
662.840	-99
662.894	-85
662.948	-555
663.002	851
663.056	-380
663.110	-42
663.164	-170
663.218	22
663.272	283
663.326	641
663.380	155
663.434	608
663.488	-235
663.542	214
663.595	30
663.649	420
663.703	-12
663.757	350
663.811	-397
663.864	37
663.918	448
663.972	-194
664.026	320
664.079	-174
664.133	-31
664.187	-477
664.240	251
664.294	-124
664.348	475
664.401	645
664.455	81
664.508	-160
664.562	-37
664.615	362
664.669	-564
664.722	440
664.776	116
664.829	-412
664.883	326
664.936	-517
664.990	63
665.043	-142
665.097	-348
665.150	1038
665.203	-1007
665.257	15
665.310	807
665.363	-82
665.417	815
665.470	380
665.523	-66
665.576	609
665.630	-109
665.683	654
665.736	360
665.789	200
665.842	204
665.895	850
665.949	556
666.002	719
666.055	-48
666.108	948
666.161	377
666.214	1115
666.267	989
666.320	658
666.373	735
666.426	1180
666.479	847
666.532	1074
666.585	336
666.638	624
666.691	358
666.744	487
666.796	-199
666.849	399
666.902	669
666.955	-58
667.008	86
667.060	351
667.113	326
667.166	388
667.219	634
667.271	259
667.324	202
667.377	222
667.430	867
667.482	1134
667.535	106
667.587	1350
667.640	153
667.693	816
667.745	266
667.798	1824
667.850	226
667.903	408
667.955	-529
668.008	10
668.060	656
668.113	268
668.165	265
668.218	591
668.270	436
668.322	461
668.375	-311
668.427	220
668.479	-56
668.532	1171
668.584	914
668.636	-23
668.689	1166
668.741	-202
668.793	909
668.845	657
668.898	-76
668.950	758
669.002	-114
669.054	567
669.106	-103
669.158	1011
669.211	938
669.263	60
669.315	595
669.367	-174
669.419	-716
669.471	691
669.523	540
669.575	615
669.627	259
669.679	-259
669.731	380
669.783	498
669.835	575
669.886	549
669.938	798
669.990	1326
670.042	138
670.094	240
670.146	461
670.197	1430
670.249	1037
670.301	372
670.353	787
670.404	1850
670.456	2364
670.508	4425
670.560	8504
670.611	12677
670.663	22868
670.715	61866
670.766	92376
670.818	24326
670.869	4599
670.921	2662
670.972	1642
671.024	578
671.075	1106
671.127	1990
671.178	715
671.230	1535
671.281	1703
671.333	2175
671.384	2403
671.436	4132
671.487	6479
671.538	10098
671.590	16234
671.641	26063
671.692	50178
671.744	94534
671.795	62367
671.846	21499
671.897	8793
671.949	5043
672.000	2813
672.051	2357
672.102	1586
672.153	1218
672.204	732
672.256	525
672.307	567
672.358	562
672.409	559
672.460	381
672.511	-430
672.562	372
672.613	-268
672.664	-226
672.715	-82
672.766	705
672.817	-18
672.868	637
672.919	678
672.970	120
673.021	-435
673.071	-485
673.122	264
673.173	457
673.224	-793
673.275	408
673.326	-221
673.376	396
673.427	-605
673.478	117
673.528	-102
673.579	85
673.630	-254
673.680	1010
673.731	-393
673.782	-483
673.832	-782
673.883	336
673.934	164
673.984	-786
674.035	-37
674.085	323
674.136	380
674.186	-88
674.237	-974
674.287	79
674.338	72
674.388	-23
674.438	-142
674.489	298
674.539	85
674.589	355
674.640	962
674.690	557
674.740	-257
674.791	-217
674.841	28
674.891	674
674.942	-270
674.992	248
675.042	-735
675.092	-505
675.142	-759
675.193	40
675.243	68
675.293	524
675.343	-185
675.393	34
675.443	592
675.493	-34
675.543	-489
675.593	349
675.643	56
675.693	392
675.743	-616
675.793	-441
675.843	-830
675.893	-294
675.943	329
675.993	-34
676.043	-821
676.093	643
676.142	-1637
676.192	-476
676.242	-281
676.292	-886
676.341	-211
676.391	56
676.441	-1317
676.491	-309
676.540	188
676.590	-390
676.640	273
676.689	-310
676.739	-1340
676.789	-604
676.838	-1211
676.888	364
676.937	-758
676.987	97
677.037	-234
677.086	-1085
677.136	-975
677.185	-851
677.235	-1081
677.284	-174
677.333	-1168
677.383	-292
677.432	-1111
677.482	-682
677.531	-525
677.580	-559
677.630	-252
677.679	-348
677.728	-316
677.778	-157
677.827	-942
677.876	62
677.925	-797
677.975	47
678.024	54
678.073	-491
678.122	-1134
678.171	178
678.220	-936
678.269	-534
678.319	644
678.368	1220
678.417	593
678.466	404
678.515	-21
678.564	541
678.613	-471
678.662	-795
678.711	-1212
678.760	-688
678.809	-229
678.857	-824
678.906	-380
678.955	-473
679.004	306
679.053	-580
679.102	-1006
679.151	-215
679.199	-1035
679.248	-1029
679.297	-403
679.346	-1137
679.394	-1084
679.443	-903
679.492	15
679.540	-649
679.589	-711
679.638	-1093
679.686	-47
679.735	-535
679.784	-1005
679.832	484
679.881	-182
679.929	-541
679.978	-250
680.026	-1053
680.075	-494
680.123	-569
680.172	-589
680.220	-938
680.268	-419
680.317	-1452
680.365	-950
680.414	-639
680.462	-547
680.510	-319
680.559	-1236
680.607	-708
680.655	-1274
680.703	-581
680.752	-820
680.800	-1203
680.848	-690
680.896	-368
680.945	-1001
680.993	-1217
681.041	-512
681.089	-680
681.137	-763
681.185	-84
681.233	-550
681.258	-266
681.281	-8
681.329	-920
681.377	-989
681.380	-960
681.425	-641
681.473	35
681.502	-680
681.521	-1199
681.569	-100
681.617	-371
681.624	-310
681.665	-19
681.713	88
681.745	-99
681.761	-210
681.809	-64
681.857	312
681.867	181
681.904	-310
681.952	212
681.989	-717
682.000	-1019
682.048	-520
682.096	-638
682.111	-541
682.143	-385
682.191	33
682.233	-130
682.239	-163
682.286	-685
682.334	-651
682.354	-670
682.382	-725
682.430	187
682.476	-225
682.477	-244
682.525	111
682.572	-533
682.598	-312
682.620	-155
682.667	-314
682.715	151
682.720	131
682.763	-177
682.810	656
682.841	586
682.857	514
682.905	-90
682.952	893
682.963	835
683.000	673
683.047	477
683.085	1155
683.095	1308
683.142	322
683.190	740
683.206	408
683.237	-185
683.284	1253
683.328	378
683.332	284
683.379	1010
683.426	-299
683.449	292
683.473	919
683.521	392
683.568	468
683.571	417
683.615	-377
683.662	1004
683.693	753
683.709	612
683.757	607
683.804	266
683.814	438
683.851	899
683.898	649
683.936	868
683.945	924
683.992	598
684.039	836
684.057	706
684.086	477
684.133	1548
684.179	387
684.180	344
684.227	784
684.274	1478
684.300	1715
684.321	1817
684.368	1032
684.415	1056
684.422	1024
684.462	972
684.509	1182
684.543	1209
684.556	1164
684.603	1133
684.649	1271
684.665	1289
684.696	1346
684.743	2197
684.786	1599
684.790	1543
684.837	1259
684.883	1380
684.908	1677
684.930	1962
684.977	1480
685.023	1383
685.029	1434
685.070	1622
685.117	851
685.150	870
685.164	925
685.210	1269
685.257	1365
685.272	1405
685.303	1353
685.350	2002
685.393	722
685.396	620
685.443	1623
685.490	1776
685.514	1842
685.536	1921
685.583	1961
685.629	1500
685.636	1512
685.675	1458
685.722	1759
685.757	1414
685.768	1309
685.815	1162
685.861	2117
685.878	2028
685.908	1995
685.954	824
686.000	1805
686.000	1813
686.047	1975
686.093	1867
686.121	1993
686.139	2095
686.185	1751
686.232	2100
686.242	1992
686.278	1530
686.324	2202
686.363	1473
686.370	1363
686.416	1452
686.463	2289
686.484	2203
686.509	2099
686.555	2434
686.601	1806
686.606	1876
686.647	2408
686.693	2160
686.727	2389
686.739	2465
686.785	2661
686.831	2326
686.848	2221
686.877	2075
686.923	2217
686.969	2181
686.969	2180
687.015	2521
687.061	2208
687.090	2309
687.107	2347
687.153	2833
687.199	3034
687.211	2833
687.245	2255
687.291	2516
687.332	2355
687.336	2350
687.382	2844
687.428	2193
687.453	2623
687.474	2903
687.520	2604
687.565	2877
687.574	2829
687.611	2678
687.657	3118
687.695	2365
687.702	2261
687.748	2499
687.794	2790
687.816	2960
687.839	3013
687.885	3095
687.931	3142
687.937	3091
687.976	2726
688.022	2271
688.058	2298
688.067	2360
688.113	2428
688.158	2734
688.179	2905
688.204	3136
688.249	3242
688.295	3905
688.300	3866
688.340	3401
688.386	3383
688.421	2969
688.431	2845
688.477	2713
688.522	3467
688.542	3347
688.567	3393
688.613	3617
688.658	3243
688.663	3299
688.703	3428
688.749	3585
688.784	3372
688.794	3402
688.839	3386
688.884	3635
688.905	3737
688.930	3631
688.975	3076
689.020	3783
689.026	3668
689.065	3146
689.110	2858
689.146	3143
689.155	3182
689.201	3068
689.246	2918
689.267	2811
689.291	2859
689.336	3474
689.381	3662
689.388	3652
689.426	3490
689.471	3092
689.509	3270
689.516	3346
689.561	3702
689.606	3778
689.630	4006
689.651	3970
689.696	3707
689.741	3633
689.750	3508
689.785	3484
689.830	4252
689.871	3849
689.875	3786
689.920	3999
689.965	3671
689.992	3641
690.010	3714
690.054	3773
690.099	3757
690.112	3881
690.144	4055
690.189	3659
690.233	3552
690.233	3560
690.278	3679
690.323	3966
690.354	4110
690.367	4121
690.412	4035
690.457	3736
690.474	3941
690.501	4275
690.546	4306
690.590	4189
690.595	4156
690.635	4142
690.680	4553
690.716	4499
690.724	4527
690.769	5072
690.813	5870
690.836	5951
690.857	6558
690.902	7979
690.946	9839
690.957	10228
690.991	13891
691.035	19158
691.077	24106
691.080	24004
691.124	19850
691.168	15640
691.198	13274
691.213	12368
691.257	9519
691.301	6411
691.318	5558
691.346	5528
691.390	4793
691.434	4228
691.439	4167
691.478	4576
691.522	4863
691.559	5094
691.567	5083
691.611	5386
691.655	4641
691.680	4833
691.699	4927
691.743	4655
691.787	4354
691.800	4275
691.831	4354
691.875	4516
691.919	4564
691.921	4551
691.964	4537
692.008	4852
692.041	4808
692.052	4793
692.096	4406
692.139	5071
692.162	5047
692.183	4889
692.227	4806
692.271	4141
692.282	4129
692.315	4467
692.359	4595
692.402	5032
692.403	5045
692.447	4800
692.490	4907
692.523	4689
692.534	4617
692.578	4570
692.622	4333
692.643	4166
692.666	4229
692.709	4624
692.753	5048
692.763	5135
692.797	5175
692.840	5198
692.884	4974
692.884	4985
692.928	5387
692.971	4792
693.004	4669
693.015	4683
693.059	4941
693.102	5487
693.124	5326
693.146	5034
693.189	5176
693.233	4725
693.245	4718
693.276	5131
693.320	5437
693.363	5500
693.365	5502
693.407	6062
693.450	6527
693.485	6943
693.493	7205
693.537	8502
693.580	9544
693.605	10216
693.624	11889
693.667	15938
693.710	19855
693.725	21371
693.753	27941
693.797	38266
693.840	48709
693.845	49700
693.883	42441
693.926	33899
693.966	26452
693.970	25866
694.013	19542
694.056	13752
694.086	9272
694.099	8857
694.142	7728
694.185	6699
694.206	6136
694.229	6129
694.272	6230
694.315	5995
694.326	5973
694.358	6081
694.401	6399
694.444	6346
694.446	6326
694.487	5937
694.530	5870
694.566	5755
694.573	5820
694.616	5694
694.659	5844
694.686	6014
694.702	5995
694.745	5862
694.787	5799
694.806	5721
694.830	5854
694.873	5797
694.916	5876
694.926	5912
694.959	5767
695.002	5525
695.044	5055
695.046	5031
695.087	5653
695.130	5933
695.166	6568
695.172	6643
695.215	6751
695.258	6859
695.286	6906
695.301	6902
695.343	6745
695.386	6816
695.406	6781
695.428	6899
695.471	7064
695.514	7229
695.526	7253
695.556	7679
695.599	8440
695.641	9022
695.646	9052
695.684	8356
695.726	7658
695.766	7007
695.769	7033
695.811	7117
695.854	7244
695.886	7336
695.896	7341
695.938	7105
695.981	6967
696.005	6817
696.023	7149
696.065	7932
696.108	8772
696.125	9120
696.150	9089
696.192	8971
696.235	8837
696.245	8787
696.277	9170
696.319	9587
696.361	9936
696.365	9936
696.404	9394
696.446	8915
696.485	8498
696.488	8557
696.530	8841
696.572	9158
696.604	9408
696.614	9383
696.656	9129
696.698	8881
696.724	8822
696.740	9001
696.783	9213
696.825	9487
696.844	9577
696.867	9638
696.909	9629
696.951	9642
696.964	9674
696.992	9644
697.034	9396
697.076	9054
697.083	9013
697.118	9437
697.160	9713
697.202	10031
697.203	10011
697.244	10005
697.286	9978
697.323	9911
697.327	9920
697.369	9756
697.411	9569
697.442	9420
697.453	9425
697.494	9306
697.536	9239
697.562	9137
697.578	9288
697.620	9613
697.661	9974
697.682	10134
697.703	10260
697.744	10415
697.786	10620
697.801	10621
697.828	10449
697.869	10239
697.911	9944
697.921	9858
697.952	9985
697.994	10099
698.035	10269
698.040	10248
698.077	10309
698.118	10401
698.160	10536
698.160	10507
698.201	10558
698.243	10558
698.279	10592
698.284	10666
698.325	11024
698.367	11410
698.399	11654
698.408	11664
698.449	11571
698.491	11480
698.518	11402
698.532	11509
698.573	11731
698.614	11928
698.638	12007
698.656	12004
698.697	11915
698.738	11860
698.757	11793
698.779	11845
698.820	11879
698.862	11920
698.877	11901
698.903	12073
698.944	12300
698.985	12528
698.996	12559
699.026	12438
699.067	12225
699.116	11940
699.235	11773
699.354	11937
699.474	10987
699.593	10497
699.713	11720
699.832	11254
699.951	12396
700.070	11298
700.190	10930
700.309	9885
700.428	10553
700.547	9787
700.667	10193
700.786	9649
700.905	10535
701.024	9654
701.143	10518
701.262	10012
701.381	10035
701.500	9842
701.619	10533
701.738	9807
701.857	10839
701.976	9313
702.095	10761
702.214	9642
702.333	9563
702.452	9959
702.571	11293
702.690	10572
702.809	10388
702.928	9945
703.047	9279
703.165	9839
703.284	10146
703.403	9814
703.522	9510
703.640	9635
703.759	8895
703.878	8679
703.997	8815
704.115	9392
704.234	9863
704.353	9586
704.471	8351
704.590	8228
704.708	8894
704.827	8143
704.946	7138
705.064	7632
705.183	8215
705.301	7851
705.420	9033
705.538	8498
705.656	8005
705.775	7079
705.893	10289
706.012	9889
706.130	8229
706.249	8081
706.367	7143
706.485	6977
706.604	7566
706.722	7907
706.840	8184
706.958	8247
707.077	7227
707.195	6881
707.313	7980
707.431	7192
707.549	6716
707.668	6856
707.786	8158
707.904	6955
708.022	7947
708.140	6979
708.258	7360
708.376	7498
708.494	7393
708.612	7260
708.730	8250
708.848	6904
708.966	7166
709.084	7152
709.202	7495
709.320	7032
709.438	6881
709.556	6961
709.674	6236
709.791	6773
709.909	6319
710.027	6621
710.145	6089
710.263	6656
710.380	7302
710.498	6641
710.616	6801
710.733	6167
710.851	6239
710.969	7111
711.086	6602
711.204	6000
711.322	6704
711.439	5769
711.557	6170
711.674	6190
711.792	6083
711.909	5456
712.027	5529
712.144	6182
712.262	6654
712.379	6192
712.497	6554
712.614	6043
712.732	6554
712.849	5645
712.966	6173
713.084	6560
713.201	5721
713.318	7415
713.436	6540
713.553	6620
713.670	7271
713.787	6605
713.905	7141
714.022	7129
714.139	7808
714.256	10514
714.373	16480
714.490	34438
714.608	109741
714.725	446307
714.842	281100
714.959	22777
715.076	11948
715.193	8627
715.310	8016
715.427	6573
715.544	6864
715.661	5970
715.778	6918
715.895	6104
716.011	6478
716.128	5467
716.245	5506
716.362	5185
716.479	4929
716.596	5146
716.713	5033
716.829	5073
716.946	5101
717.063	5048
717.180	5189
717.296	4247
717.413	5506
717.530	4666
717.646	4111
717.763	4787
717.880	4971
717.996	3363
718.113	4087
718.229	4428
718.346	4127
718.462	3336
718.579	4062
718.695	4563
718.812	4676
718.928	4529
719.045	4946
719.161	5082
719.277	5176
719.394	4360
719.510	5495
719.626	5423
719.743	7758
719.859	14298
719.975	35662
720.092	164249
720.208	251414
720.324	20711
720.440	7097
720.557	5766
720.673	6664
720.789	5195
720.905	6716
721.021	4691
721.137	4086
721.253	3850
721.369	4966
721.486	3919
721.602	4921
721.718	4446
721.834	4267
721.950	2976
722.066	3609
722.181	4371
722.297	4754
722.413	3881
722.529	4021
722.645	3695
722.761	3876
722.877	3481
722.993	4032
723.108	5658
723.224	4587
723.340	4054
723.456	4126
723.571	3889
723.687	3293
723.803	3032
723.918	3037
724.034	2493
724.150	3677
724.265	3596
724.381	3178
724.497	3925
724.612	3285
724.728	2782
724.843	2974
724.959	3488
725.074	3450
725.190	3213
725.305	3349
725.421	2884
725.536	2885
725.651	2948
725.767	3730
725.882	2808
725.997	2418
726.113	2930
726.228	3973
726.343	2588
726.459	3628
726.574	2390
726.689	3879
726.804	3233
726.920	3621
727.035	3062
727.150	3079
727.265	2484
727.380	3375
727.495	2945
727.610	3526
727.725	2563
727.841	3297
727.956	4438
728.071	3322
728.186	3599
728.301	3206
728.416	3491
728.531	2760
728.645	2278
728.760	3435
728.875	2432
728.990	2176
729.105	3209
729.220	3175
729.335	2211
729.449	3007
729.564	3113
729.679	1644
729.794	2849
729.908	1871
730.023	2448
730.138	3402
730.253	3064
730.367	2292
730.482	2790
730.596	2959
730.711	2840
730.826	4382
730.940	3131
731.055	4127
731.169	3486
731.284	4482
731.398	3612
731.513	3542
731.627	3390
731.742	5647
731.856	5927
731.970	6578
732.085	8404
732.199	13855
732.313	26614
732.428	82316
732.542	225296
732.656	89113
732.771	16563
732.885	9376
732.999	8800
733.113	8581
733.227	7290
733.342	7416
733.456	7536
733.570	7671
733.684	6800
733.798	6025
733.912	6867
734.026	6106
734.140	6078
734.254	6099
734.368	6317
734.482	7362
734.596	6229
734.710	5952
734.824	5738
734.938	6660
735.052	5949
735.166	6351
735.280	5725
735.393	5882
735.507	5149
735.621	6994
735.735	5650
735.849	5630
735.962	5819
736.076	6777
736.190	5520
736.303	6135
736.417	6192
736.531	5480
736.644	5229
736.758	5734
736.872	5127
736.985	5784
737.099	4822
737.212	4911
737.326	4510
737.439	6065
737.553	4849
737.666	5795
737.780	4615
737.893	5775
738.007	4286
738.120	5637
738.233	4592
738.347	5071
738.460	4611
738.573	4793
738.687	3986
738.800	4106
738.913	4589
739.026	5568
739.140	4116
739.253	4504
739.366	4281
739.479	4111
739.592	4484
739.705	3838
739.818	5266
739.932	4833
740.045	4758
740.158	4271
740.271	4222
740.384	4616
740.497	4009
740.610	5030
740.723	3843
740.836	4065
740.949	4220
741.062	4037
741.174	3417
741.287	5479
741.400	3720
741.513	4150
741.626	4830
741.739	4613
741.851	4095
741.964	4909
742.077	3466
742.189	3699
742.302	3631
742.415	4281
742.527	4134
742.640	3651
742.753	3941
742.865	4104
742.978	3522
743.090	3828
743.203	3631
743.316	3854
743.428	3976
743.541	4014
743.653	3266
743.766	3639
743.878	3245
743.990	3343
744.103	4467
744.215	2759
744.327	3241
744.440	5081
744.552	3805
744.664	3908
744.777	3208
744.889	2717
745.001	3697
745.113	3460
745.226	3880
745.338	4478
745.450	4271
745.562	3747
745.674	3781
745.786	4060
745.898	2976
746.010	3971
746.122	3076
746.234	3155
746.347	3409
746.459	4787
746.570	2900
746.682	3416
746.794	3604
746.906	2600
747.018	3406
747.130	3427
747.242	2945
747.354	3270
747.466	3865
747.577	2678
747.689	2991
747.801	3469
747.913	3521
748.024	3397
748.136	2501
748.248	2601
748.359	2473
748.471	3906
748.583	2424
748.694	3339
748.806	3580
748.918	2673
749.029	3113
749.141	3317
749.252	2777
749.364	1822
749.475	3228
749.587	3275
749.698	3041
749.809	3802
749.921	3078
750.032	2453
750.144	2127
750.255	2598
750.366	2505
750.478	2636
750.589	3278
750.700	2338
750.811	2882
750.923	3277
751.034	2849
751.145	3884
751.256	1950
751.367	3121
751.479	1994
751.590	2339
751.701	2328
751.812	2475
751.923	2553
752.034	2940
752.145	2813
752.256	3500
752.367	3177
752.478	3280
752.589	2957
752.700	2892
752.811	2238
752.922	2789
753.032	3150
753.143	2839
753.254	1742
753.365	3645
753.476	2777
753.586	3068
753.697	2139
753.808	3420
753.919	2782
754.029	3007
754.140	2857
754.251	2997
754.361	1986
754.472	3144
754.582	2664
754.693	2455
754.804	2695
754.914	2521
755.025	2787
755.135	2425
755.246	3734
755.356	2382
755.466	3218
755.577	2375
755.687	2823
755.798	2541
755.908	2462
756.018	2876
756.129	1746
756.239	2101
756.349	2354
756.460	3628
756.570	3051
756.680	2897
756.790	3271
756.900	2673
757.011	1233
757.121	2933
757.231	3001
757.341	3099
757.451	2482
757.561	2068
757.671	2287
757.781	1919
757.891	2391
758.001	2291
758.111	3747
758.221	3135
758.331	2675
758.441	3371
758.551	1729
758.661	3373
758.771	3700
758.880	3332
758.990	3160
759.100	3123
759.210	2581
759.320	4012
759.429	2614
759.539	3442
759.649	3588
759.758	5098
759.868	4217
759.978	3863
760.087	5158
760.197	4713
760.307	4431
760.416	4382
760.526	3976
760.635	5088
760.745	4722
760.854	4918
760.964	5816
761.073	5462
761.182	5077
761.292	4433
761.401	4767
761.511	4345
761.620	3179
761.729	4174
761.839	3239
761.948	4061
762.057	3188
762.166	4302
762.276	2109
762.385	5485
762.494	4044
762.603	3714
762.712	4652
762.822	4116
762.931	4395
763.040	3701
763.149	3850
763.258	5092
763.367	5046
763.476	6008
763.585	5053
763.694	5519
763.803	5445
763.912	6368
764.021	6400
764.130	6823
764.238	7050
764.347	7456
764.456	7118
764.565	8883
764.674	9056
764.783	10585
764.891	9794
765.000	13067
765.109	13451
765.217	16134
765.326	17893
765.435	22335
765.543	26190
765.652	34543
765.761	44571
765.869	61042
765.978	88827
766.086	136675
766.195	220189
766.303	340903
766.412	356333
766.520	288032
766.629	259630
766.737	170550
766.846	110369
766.954	75095
767.062	56552
767.171	42357
767.279	32875
767.387	26089
767.496	22000
767.604	19048
767.712	17052
767.820	14750
767.928	14706
768.037	12616
768.145	13176
768.253	12446
768.361	11598
768.469	11040
768.577	10873
768.685	12064
768.793	12832
768.901	13353
769.009	16291
769.117	19919
769.225	25301
769.333	37133
769.441	56506
769.549	96928
769.657	183266
769.765	317987
769.873	285969
769.981	226333
770.088	133237
770.196	77618
770.304	50490
770.412	35060
770.519	27274
770.627	21536
770.735	17086
770.842	15064
770.950	12805
771.058	11436
771.165	11372
771.273	10182
771.380	9377
771.488	10315
771.595	9264
771.703	9058
771.810	8529
771.918	8637
772.025	7901
772.133	8349
772.240	7387
772.348	8971
772.455	8016
772.562	7745
772.670	7127
772.777	8069
772.884	6984
772.991	6898
773.099	6368
773.206	6080
773.313	6089
773.420	6226
773.528	5652
773.635	5063
773.742	6237
773.849	6469
773.956	5898
774.063	5885
774.170	4494
774.277	5925
774.384	4617
774.491	5330
774.598	5474
774.705	6006
774.812	5195
774.919	5030
775.026	4286
775.133	5277
775.239	4427
775.346	4559
775.453	4043
775.560	4674
775.667	4765
775.773	4402
775.880	4798
775.987	4690
776.093	4465
776.200	4433
776.307	3503
776.413	4850
776.520	3935
776.627	4843
776.733	3594
776.840	3400
776.946	6653
777.053	4315
777.159	3725
777.266	3182
777.372	4924
777.478	3890
777.585	4947
777.691	3495
777.798	3884
777.904	3871
778.010	4008
778.117	4417
778.223	3332
778.329	3179
778.435	3419
778.542	4041
778.648	3187
778.754	3015
778.860	2824
778.966	4598
779.072	2694
779.178	3383
779.284	3246
779.391	3911
779.497	2739
779.603	5121
779.708	2413
779.815	6569
779.920	16395
780.026	24003
780.132	4326
780.238	3214
780.344	2697
780.450	3903
780.556	1589
780.661	2321
780.767	2916
780.873	2091
780.979	3020
781.085	2526
781.190	2415
781.296	2553
781.402	2515
781.507	2937
781.613	2466
781.719	2371
781.824	2830
781.930	3777
782.035	3170
782.141	3758
782.246	1516
782.352	2476
782.457	1311
782.563	3223
782.668	2680
782.773	2511
782.879	2339
782.984	2716
783.090	2769
783.195	2952
783.300	2211
783.405	2608
783.511	1474
783.616	2495
783.721	2151
783.826	2086
783.932	2489
784.037	1906
784.142	2115
784.247	2441
784.352	2055
784.457	1630
784.562	2295
784.667	2792
784.772	1603
784.877	743
784.982	2474
785.087	1696
785.192	1752
785.297	1610
785.402	1530
785.507	2129
785.611	1123
785.716	1985
785.821	1970
785.926	2070
786.031	753
786.135	2212
786.240	1872
786.345	1511
786.450	1757
786.554	2032
786.659	1203
786.763	587
786.868	1662
786.973	2499
787.077	1247
787.182	1922
787.286	1460
787.391	2057
787.495	933
787.600	1590
787.704	844
787.809	1985
787.913	-113
788.017	1995
788.122	2009
788.226	1655
788.330	954
788.435	752
788.539	1376
788.643	1236
788.747	797
788.852	2060
788.956	1214
789.060	2434
789.164	1342
789.268	1352
789.372	2202
789.476	1584
789.580	987
789.684	1524
789.788	2261
789.892	596
789.996	1765
790.100	1306
790.204	1495
790.308	2645
790.412	1278
790.516	1406
790.620	1431
790.724	2081
790.828	1371
790.931	334
791.035	2453
791.139	1132
791.242	-300
791.346	1731
791.450	1074
791.554	940
791.657	124
791.761	2456
791.864	1583
791.968	1942
792.072	715
792.175	1231
792.279	559
792.382	799
792.486	641
792.589	578
792.693	910
792.796	629
792.899	2046
793.003	1613
793.106	-67
793.209	927
793.313	1902
793.416	-1231
793.519	2094
793.623	2144
793.726	264
793.829	1322
793.932	569
794.035	720
794.138	1933
794.242	2584
794.345	973
794.448	1758
794.551	1135
794.654	8306
794.757	12210
794.860	2331
794.963	1175
795.066	688
795.169	2010
795.272	603
795.375	1874
795.477	775
795.580	765
795.683	42
795.786	1213
795.889	422
795.991	923
796.094	1226
796.197	-837
796.300	1710
796.402	965
796.505	745
796.608	431
796.710	1881
796.813	663
796.915	741
797.018	234
797.120	1622
797.223	-897
797.326	2088
797.428	675
797.530	662
797.633	242
797.735	1091
797.838	526
797.940	2048
798.042	-678
798.145	77
798.247	973
798.349	-495
798.452	1079
798.554	305
798.656	761
798.758	2030
798.860	817
798.962	228
799.065	-144
799.167	48
799.269	1681
799.371	1233
799.473	2026
799.575	398
799.677	305
799.779	2121
799.881	-1546
799.983	1852
800.085	588
800.187	722
800.289	-261
800.390	541
800.492	1145
800.594	1415
800.696	818
800.798	1058
800.899	38
801.001	587
801.103	854
801.205	561
801.306	804
801.408	-283
801.509	669
801.611	949
801.713	1384
801.814	609
801.916	-390
802.017	1013
802.119	-144
802.220	497
802.322	-859
802.423	2064
802.525	-989
802.626	1177
802.727	913
802.829	1842
802.930	-1777
803.031	1743
803.133	-379
803.234	975
803.335	1438
803.436	-371
803.538	317
803.639	263
803.740	-254
803.841	695
803.942	-257
804.043	1074
804.144	355
804.245	1129
804.346	-617
804.447	-537
804.548	-260
804.649	1040
804.750	68
804.851	-314
804.952	169
805.053	303
805.154	-986
805.255	1206
805.355	323
805.456	554
805.557	-7
805.658	-206
805.758	324
805.859	819
805.960	115
806.061	-632
806.161	-118
806.262	688
806.362	556
806.463	474
806.564	367
806.664	256
806.765	-305
806.865	603
806.966	43
807.066	-42
807.166	1519
807.267	1357
807.367	-104
807.468	549
807.568	-626
807.668	1530
807.769	959
807.869	221
807.969	98
808.069	382
808.170	559
808.270	-584
808.370	283
808.470	-1
808.570	-886
808.670	-256
808.770	563
808.870	312
808.970	475
809.070	-128
809.170	-241
809.271	1041
809.370	-360
809.470	1108
809.570	-612
809.670	-24
809.770	41
809.870	1408
809.970	-336
810.070	-239
810.169	162
810.269	-335
810.369	862
810.469	616
810.568	-379
810.668	-398
810.768	-630
810.867	-55
810.967	-612
811.066	410
811.166	-537
811.265	1053
811.365	-541
811.464	-336
811.564	192
811.663	637
811.763	-1453
811.862	1194
811.962	593
812.061	-16
812.160	216
812.260	728
812.359	140
812.458	911
812.557	1249
812.657	46
812.756	722
812.855	384
812.954	422
813.053	1560
813.153	70
813.252	-392
813.351	586
813.450	375
813.549	-511
813.648	379
813.747	-399
813.846	704
813.945	-855
814.044	374
814.143	666
814.242	1345
814.341	-1050
814.439	571
814.538	68
814.637	289
814.736	-141
814.835	552
814.933	-593
815.032	417
815.131	374
815.229	3458
815.328	2666
815.427	1758
815.525	2610
815.624	2827
815.722	1079
815.821	2643
815.919	1784
816.018	1539
816.116	2510
816.215	2217
816.313	2030
816.412	2860
816.510	2378
816.609	4217
816.707	3693
816.805	2751
816.904	2522
817.002	2388
817.100	3672
817.198	3220
817.296	1692
817.395	2189
817.493	2943
817.591	2148
817.689	2652
817.787	2139
817.885	1965
817.983	3321
818.081	3243
818.179	4976
818.277	9811
818.375	6851
818.473	2801
818.571	2564
818.669	2453
818.767	3709
818.865	2247
818.963	2659
819.061	2501
819.158	3363
819.256	5865
819.354	8404
819.452	18016
819.549	8073
819.647	3689
819.745	2828
819.842	3011
819.940	1736
820.038	1139
820.135	2729
820.233	3344
820.330	1881
820.428	1976
820.525	2318
820.623	1835
820.720	1475
820.818	1508
820.915	2734
821.012	2033
821.110	1452
821.207	2346
821.304	1502
821.402	2394
821.499	2573
821.596	1715
821.693	1952
821.791	1975
821.888	1010
821.985	2578
822.082	1939
822.179	2237
822.276	1908
822.373	1032
822.470	1808
822.567	1197
822.664	888
822.761	1938
822.858	975
822.955	2174
823.052	1833
823.149	1682
823.246	1824
823.343	938
823.440	2307
823.536	1692
823.633	1617
823.730	1143
823.827	2018
823.923	1322
824.020	2815
824.117	1660
824.213	1264
824.310	1989
824.407	1320
824.503	2777
824.600	1423
824.696	1323
824.793	2372
824.889	782
824.986	1686
825.082	1164
825.179	1747
825.275	1517
825.371	1338
825.468	1153
825.564	-267
825.660	1472
825.757	2843
825.853	1402
825.949	230
826.045	779
826.142	1240
826.238	1278
826.334	2138
826.430	-188
826.526	1346
826.622	203
826.718	1116
826.814	843
826.910	1309
827.006	231
827.102	55
827.198	1868
827.294	1109
827.390	627
827.486	1354
827.582	-348
827.678	684
827.774	2170
827.869	260
827.965	943
828.061	-118
828.157	1532
828.252	1762
828.348	-82
828.444	701
828.539	-132
828.635	1272
828.731	1521
828.826	-210
828.922	723
829.017	1036
829.113	1847
829.208	1430
829.304	395
829.399	2240
829.495	130
829.590	1322
829.685	271
829.781	1683
829.876	440
829.971	546
830.066	-697
830.162	954
830.257	1304
830.352	961
830.447	682
830.543	591
830.638	-580
830.733	1456
830.828	-152
830.923	1712
831.018	717
831.113	1865
831.208	55
831.303	293
831.398	569
831.493	1011
831.588	1512
831.683	99
831.778	777
831.873	-91
831.967	2036
832.062	1173
832.157	-206
832.252	812
832.346	-942
832.441	1202
832.536	386
832.631	2077
832.725	183
832.820	52
832.914	587
833.009	800
833.104	-131
833.198	1319
833.293	249
833.387	148
833.482	712
833.576	82
833.670	149
833.765	516
833.859	150
833.954	923
834.048	599
834.142	352
834.237	-461
834.331	824
834.425	-49
834.519	-184
834.613	1056
834.708	-127
834.802	211
834.896	788
834.990	194
835.084	-179
835.178	127
835.272	212
835.366	11
835.460	1763
835.554	87
835.648	433
835.742	-645
835.836	464
835.930	-1432
836.024	150
836.117	753
836.211	436
836.305	720
836.399	-35
836.493	-811
836.586	1715
836.680	-478
836.774	108
836.867	1383
836.961	-268
837.055	431
837.148	890
837.242	-21
837.335	-398
837.429	-366
837.522	70
837.616	-179
837.709	616
837.803	-876
837.896	983
837.989	-107
838.083	383
838.176	633
838.269	-910
838.363	1068
838.456	-190
838.549	1079
838.642	-81
838.735	31
838.829	347
838.922	-268
839.015	1040
839.108	-545
839.201	809
839.294	657
839.387	237
839.480	-506
839.573	543
839.666	-617
839.759	570
839.852	-98
839.945	84
840.038	-243
840.131	-149
840.223	-604
840.316	821
840.409	-589
840.502	89
840.594	1175
840.687	-671
840.780	-191
840.873	168
840.965	-33
841.058	605
841.150	226
841.243	-435
841.336	565
841.428	584
841.521	-991
841.613	-1008
841.706	216
841.798	-560
841.890	-185
841.983	-623
842.075	481
842.167	-181
842.260	120
842.352	738
842.444	-74
842.537	411
842.629	532
842.721	-138
842.813	-892
842.905	-421
842.997	-110
843.090	698
843.182	-380
843.274	-664
843.366	890
843.458	1212
843.550	1220
843.642	-151
843.734	-162
843.826	-69
843.918	333
844.009	449
844.101	-527
844.193	542
844.285	-859
844.377	307
844.469	435
844.560	-477
844.652	-168
844.744	632
844.835	-201
844.927	533
845.019	-252
845.110	182
845.202	279
845.293	84
845.385	-554
845.476	-284
845.568	366
845.659	-735
845.751	234
845.842	-93
845.934	-396
846.025	-149
846.116	-190
846.208	277
846.299	-578
846.390	316
846.482	-291
846.573	736
846.664	-1093
846.755	-1105
846.846	178
846.937	-1813
847.029	-1216
847.120	465
847.211	-536
847.302	1136
847.393	-678
847.484	77
847.575	-606
847.666	77
847.757	-484
847.847	89
847.938	-393
848.029	-43
848.120	43
848.211	-227
848.302	-429
848.392	-354
848.483	222
848.574	-460
848.664	-923
848.755	374
848.846	-870
848.936	-598
849.027	-683
849.118	55
849.208	87
849.299	1334
849.389	3525
849.480	7311
849.570	14582
849.661	34137
849.751	41821
849.841	11145
849.932	742
850.022	379
850.112	442
850.203	-38
850.293	-498
850.383	465
850.474	-671
850.564	-205
850.654	-833
850.744	-368
850.834	-508
850.924	689
851.014	15
851.104	-81
851.194	-697
851.284	289
851.374	-468
851.464	-510
851.554	-488
851.644	-84
851.734	-98
851.824	-385
851.914	141
852.004	584
852.094	-655
852.183	-312
852.273	-139
852.363	-189
852.452	-669
852.542	-203
852.632	-720
852.721	-73
852.811	-925
852.901	190
852.990	-441
853.080	783
853.169	88
853.259	634
853.348	381
853.438	1455
853.527	1665
853.617	3902
853.706	8238
853.795	18415
853.885	40137
853.974	69682
854.063	134314
854.152	151827
854.242	44881
854.331	9078
854.420	3789
854.509	2968
854.598	2091
854.687	798
854.777	886
854.866	624
854.955	90
855.044	-540
855.133	206
855.222	243
855.311	-738
855.400	17
855.488	137
855.577	-557
855.666	-481
855.755	82
855.844	-597
855.933	-188
856.021	-483
856.110	-226
856.199	-1355
856.288	-600
856.376	-1074
856.465	-547
856.554	-101
856.642	-49
856.731	-46
856.819	109
856.908	-780
856.996	304
857.085	-734
857.173	181
857.262	-518
857.350	-347
857.438	-814
857.527	91
857.615	-798
857.703	19
857.792	-448
857.880	-585
857.968	-529
858.056	167
858.145	-943
858.233	-1039
858.321	-1198
858.409	344
858.497	-1211
858.585	-347
858.673	207
858.761	-1318
858.849	-309
858.937	-902
859.025	-681
859.113	-195
859.201	-1830
859.289	-305
859.377	-781
859.465	-165
859.552	221
859.640	-3
859.728	-605
859.816	-319
859.903	-328
859.991	-95
860.079	-94
860.166	-1078
860.254	-811
860.342	97
860.429	-1100
860.517	-997
860.604	-585
860.692	-971
860.779	-1660
860.867	-161
860.954	-681
861.042	-306
861.129	-300
861.216	-248
861.304	-168
861.391	-427
861.478	-388
861.565	-136
861.653	-22
861.740	-1428
861.827	-1267
861.914	640
862.001	-769
862.089	-484
862.176	-784
862.263	-577
862.350	-752
862.437	-1762
862.524	-1270
862.611	-529
862.698	-1095
862.785	-188
862.871	16
862.958	-282
863.045	-443
863.132	-461
863.219	-1016
863.306	-781
863.392	-404
863.479	-872
863.566	-257
863.652	-420
863.739	-471
863.826	280
863.912	329
863.999	-223
864.086	56
864.172	190
864.259	-430
864.345	-560
864.432	-119
864.518	-305
864.604	-57
864.691	-1244
864.777	-531
864.863	983
864.950	565
865.036	1787
865.122	4426
865.209	4268
865.295	2173
865.381	3488
865.467	3480
865.553	4436
865.639	5619
865.726	11483
865.812	22221
865.898	39488
865.984	56824
866.070	107799
866.156	83195
866.242	20092
866.328	6303
866.414	4101
866.499	3997
866.585	3841
866.671	3400
866.757	3152
866.843	2021
866.928	2728
867.014	2571
867.100	1775
867.186	1784
867.271	2396
867.357	1754
867.442	2683
867.528	1769
867.614	2627
867.699	1437
867.785	2599
867.870	2079
867.956	1610
868.041	1857
868.127	2268
868.212	1192
868.297	1836
868.383	1499
868.468	1956
868.553	1989
868.639	1563
868.724	1368
868.809	2424
868.894	1127
868.979	1780
869.065	1390
869.150	527
869.235	1355
869.320	1179
869.405	1265
869.490	2121
869.575	1622
869.660	2162
869.745	1370
869.830	1381
869.915	416
870.000	1469
870.085	1174
870.169	2583
870.254	1811
870.339	946
870.424	243
870.509	1640
870.593	1488
870.678	1895
870.763	1264
870.847	1104
870.932	862
871.016	2268
871.101	495
871.186	2513
871.270	2286
871.355	518
871.439	1955
871.523	1587
871.608	1125
871.692	1439
871.777	1262
871.861	2017
871.945	723
872.030	1055
872.114	98
872.198	688
872.282	1100
872.367	1147
872.451	482
872.535	1750
872.619	516
872.703	796
872.787	1447
872.871	1218
872.955	147
873.039	83
873.123	1200
873.207	1553
873.291	448
873.375	785
873.459	1481
873.543	352
873.627	355
873.711	838
873.794	954
873.878	647
873.962	85
874.045	499
874.129	365
874.137	353
874.213	232
874.245	277
874.296	349
874.352	218
874.380	145
874.460	692
874.464	714
874.547	1369
874.568	1279
874.631	1009
874.676	1197
874.714	1345
874.784	1254
874.798	1239
874.881	1372
874.892	1190
874.965	-55
874.999	710
875.048	1716
875.107	371
875.131	-167
875.215	260
875.215	261
875.298	374
875.323	838
875.381	1965
875.430	1225
875.465	673
875.538	862
875.548	890
875.631	-404
875.646	-230
875.714	538
875.753	77
875.798	-365
875.861	511
875.881	748
875.964	322
875.968	309
876.047	168
876.076	317
876.130	607
876.183	1274
876.213	1660
876.291	1305
876.296	1271
876.379	903
876.398	895
876.462	939
876.506	1047
876.545	1159
876.613	1206
876.628	1219
876.711	444
876.721	601
876.794	1760
876.828	1250
876.877	467
876.935	191
876.960	121
877.043	854
877.043	852
877.125	569
877.150	791
877.208	1168
877.258	437
877.291	-23
877.365	298
877.374	352
877.456	547
877.472	529
877.539	297
877.579	414
877.622	727
877.687	1026
877.704	1062
877.787	1452
877.794	1453
877.869	1292
877.901	1152
877.952	955
878.008	1026
878.034	1075
878.115	760
878.117	760
878.199	1293
878.222	1270
878.282	1146
878.329	1537
878.364	1826
878.437	1688
878.447	1593
878.529	688
878.544	529
878.611	537
878.651	1107
878.694	1589
878.758	1081
878.776	960
878.858	1291
878.865	1299
878.941	1014
878.972	964
879.023	1089
879.078	515
879.105	339
879.185	1840
879.187	1864
879.269	1580
879.292	1421
879.351	1328
879.399	1435
879.433	1376
879.506	1805
879.516	1865
879.598	1006
879.613	979
879.680	982
879.720	1254
879.762	1551
879.827	1592
879.844	1609
879.926	1280
879.933	1302
880.007	1644
880.040	1617
880.089	1479
880.147	2477
880.171	2983
880.253	3781
880.254	3786
880.335	5477
880.360	6214
880.417	9361
880.467	12759
880.499	14772
880.574	16100
880.580	15598
880.662	6244
880.680	4795
880.744	2565
880.787	1684
880.825	1752
880.893	1736
880.907	1724
880.989	1342
881.000	1365
881.070	1467
881.106	1381
881.152	1271
881.213	1120
881.233	1018
881.315	1093
881.319	1074
881.396	1675
881.426	1760
881.478	1555
881.532	1694
881.559	1786
881.639	1748
881.641	1743
881.722	1523
881.745	1370
881.803	1449
881.852	1628
881.885	1494
881.958	1082
881.966	1113
882.047	1560
882.064	1658
882.129	1660
882.171	1356
882.210	1172
882.277	1315
882.291	1372
882.372	1534
882.383	1557
882.454	1667
882.489	1655
882.535	1451
882.596	1150
882.616	1204
882.697	1323
882.702	1357
882.778	1559
882.808	1373
882.859	1116
882.914	1326
882.940	1555
883.020	1495
883.021	1497
883.102	1409
883.127	1287
883.183	1589
883.233	2001
883.264	1994
883.339	1611
883.345	1555
883.426	1150
883.445	922
883.507	1028
883.551	1513
883.587	1962
883.657	2369
883.668	2393
883.749	2479
883.763	2479
883.830	1674
883.869	1280
883.910	1492
883.975	1563
883.991	1484
884.072	1672
884.081	1627
884.152	2305
884.187	2693
884.233	2518
884.292	2355
884.314	2237
884.394	1451
884.398	1395
884.475	776
884.504	813
884.555	1159
884.610	1063
884.636	1059
884.716	1672
884.716	1686
884.797	2491
884.821	2683
884.877	2506
884.927	2416
884.958	2237
885.033	1701
885.038	1685
885.118	1604
885.139	1499
885.199	1354
885.244	1193
885.279	1404
885.350	2145
885.359	2268
885.439	3159
885.456	3274
885.520	2407
885.561	1814
885.600	1756
885.667	1924
885.680	1937
885.760	1806
885.773	1769
885.840	1521
885.878	1393
885.920	1503
885.984	1794
886.000	1905
886.080	1913
886.089	1983
886.160	2521
886.195	2528
886.240	2467
886.300	2505
886.320	2454
886.400	2185
886.406	2164
886.480	2055
886.511	1921
886.560	1682
886.616	1491
886.640	1669
886.720	2001
886.722	2009
886.800	1916
886.827	1752
886.879	1901
886.932	2197
886.959	2381
887.038	2551
887.039	2561
887.119	2698
887.143	2658
887.198	2650
887.248	2625
887.278	2525
887.354	2236
887.358	2258
887.437	2433
887.459	2479
887.517	2515
887.564	2733
887.596	2464
887.669	1411
887.676	1420
887.755	1738
887.774	1748
887.835	1577
887.880	1624
887.914	2115
887.985	2711
887.994	2722
888.073	3009
888.090	3025
888.153	3500
888.195	3868
888.232	3442
888.300	2546
888.311	2528
888.391	2389
888.405	2339
888.470	2016
888.510	1835
888.549	1800
888.615	1687
888.628	1846
888.708	2845
888.720	2974
888.787	2807
888.825	2707
888.866	2308
888.930	1679
888.945	1850
889.024	2768
889.035	2872
889.103	3183
889.140	3333
889.182	3191
889.245	2981
889.261	2913
889.340	2531
889.349	2478
889.419	2327
889.454	2242
889.498	2265
889.559	2280
889.577	2524
889.656	3573
889.664	3668
889.735	3402
889.768	3265
889.814	2999
889.873	2624
889.978	2530
890.083	2599
890.187	2896
890.292	4548
890.397	2690
890.501	2786
890.606	1473
890.710	3173
890.815	3393
890.919	2321
891.024	2546
891.128	2697
891.233	1991
891.337	2867
891.442	3147
891.546	2834
891.650	2523
891.755	2250
891.859	3644
891.963	3700
892.068	3343
892.172	2329
892.276	1479
892.380	2088
892.484	3411
892.589	3356
892.693	3316
892.797	2288
892.901	1964
893.005	2303
893.109	3712
893.213	2654
893.317	2976
893.421	1770
893.525	1969
893.629	1385
893.733	2729
893.837	2383
893.941	2275
894.045	2509
894.148	1173
894.252	2535
894.356	3238
894.460	3349
894.564	1640
894.667	1963
894.771	2179
894.875	2271
894.978	1923
895.082	1949
895.186	2381
895.289	2281
895.393	1559
895.496	3086
895.600	2842
895.703	1762
895.807	2810
895.910	1359
896.014	1874
896.117	2116
896.221	2365
896.324	2904
896.427	1973
896.531	1498
896.634	2374
896.737	1508
896.840	2634
896.944	2079
897.047	2609
897.150	2461
897.253	1131
897.356	1816
897.460	921
897.563	2314
897.666	2253
897.769	3045
897.872	1412
897.975	1669
898.078	2067
898.181	1949
898.284	1565
898.387	2142
898.490	2475
898.593	1634
898.695	1680
898.798	1553
898.901	1677
899.004	1715
899.107	1859
899.209	1487
899.312	3052
899.415	2365
899.518	1435
899.620	155
899.723	975
899.826	1431
899.928	1376
900.031	2236
900.133	2375
900.236	896
900.338	2001
900.441	1021
900.543	2109
900.646	2133
900.748	1271
900.851	2283
900.953	1517
901.055	1454
901.158	1524
901.260	1513
901.362	2015
901.465	772
901.567	2628
901.669	2740
901.771	1733
901.873	1927
901.976	1197
902.078	2250
902.180	1176
902.282	1171
902.384	1525
902.486	2862
902.588	1678
902.690	1180
902.792	1178
902.894	1130
902.996	1967
903.098	1994
903.200	1047
903.302	2041
903.404	1458
903.505	1622
903.607	1220
903.709	2658
903.811	1872
903.913	1495
904.014	1076
904.116	1115
904.218	1202
904.319	2077
904.421	2654
904.523	2340
904.624	1534
904.726	2218
904.827	1090
904.929	1653
905.030	1669
905.132	2766
905.233	1798
905.335	1970
905.436	1126
905.537	1180
905.639	1909
905.740	1679
905.841	3052
905.943	1950
906.044	1775
906.145	1361
906.247	619
906.348	905
906.449	1662
906.550	2035
906.651	1146
906.752	1544
906.854	1484
906.955	784
907.056	1699
907.157	2265
907.258	2332
907.359	1578
907.460	1392
907.561	681
907.662	1333
907.762	1912
907.863	830
907.964	1617
908.065	2099
908.166	793
908.267	1267
908.367	1815
908.468	1450
908.569	2180
908.670	2214
908.770	2060
908.871	2022
908.971	1470
909.072	1168
909.173	1430
909.273	560
909.374	2089
909.474	2095
909.575	851
909.675	1162
909.776	2193
909.876	1768
909.977	1896
910.077	1890
910.177	1590
910.278	1858
910.378	717
910.478	1249
910.579	1130
910.679	2092
910.779	2041
910.879	1736
910.980	1658
911.080	2143
911.180	892
911.280	1123
911.380	556
911.480	1635
911.580	891
911.680	1774
911.780	979
911.880	1828
911.980	1012
912.080	934
912.180	1896
912.280	958
912.380	1270
912.480	669
912.580	1717
912.679	1502
912.779	2018
912.879	742
912.979	1336
913.078	1079
913.178	258
913.278	669
913.377	1156
913.477	684
913.577	499
913.676	2020
913.776	1086
913.875	1357
913.975	948
914.074	1420
914.174	1786
914.273	254
914.373	1824
914.472	1385
914.572	878
914.671	826
914.770	1297
914.870	1819
914.969	1005
915.068	1824
915.167	928
915.267	196
915.366	1512
915.465	1616
915.564	1683
915.663	873
915.763	1688
915.862	1961
915.961	2076
916.060	637
916.159	1140
916.258	535
916.357	1055
916.456	1221
916.555	2026
916.654	622
916.752	1962
916.851	1987
916.950	1270
917.049	666
917.148	787
917.247	438
917.345	995
917.444	322
917.543	478
917.642	2017
917.740	1047
917.839	2126
917.937	2390
918.036	1703
918.135	1405
918.233	1148
918.332	1091
918.430	582
918.529	1188
918.627	1298
918.726	2115
918.824	966
918.923	1251
919.021	1456
919.119	928
919.218	581
919.316	1362
919.414	1383
919.512	1939
919.611	1666
919.709	1666
919.807	2045
919.905	2421
920.003	2741
920.102	2441
920.200	1527
920.298	2331
920.396	1743
920.494	2418
920.592	1662
920.690	1694
920.788	2114
920.886	2195
920.984	2697
921.082	2385
921.180	2332
921.277	2000
921.375	3139
921.473	3644
921.571	4090
921.669	3382
921.766	3837
921.864	4419
921.962	4141
922.060	3745
922.157	3762
922.255	4078
922.352	4087
922.450	4148
922.548	3803
922.645	4777
922.743	6716
922.840	9261
922.938	11173
923.035	10665
923.133	9228
923.230	10829
923.327	13690
923.425	11863
923.522	11527
923.619	10848
923.717	9273
923.814	10149
923.911	9738
924.008	10943
924.106	9346
924.203	8654
924.300	9650
924.397	9407
924.494	10327
924.591	9500
924.688	8646
924.786	9634
924.883	10197
924.979	9336
925.077	9147
925.173	9859
925.270	8890
925.367	9174
925.464	10404
925.561	9921
925.658	10949
925.755	9066
925.852	9837
925.948	9658
926.045	8625
926.142	9380
926.239	9644
926.335	7720
926.432	8692
926.529	9549
926.625	10696
926.722	7934
926.818	8130
926.915	9621
927.011	7880
927.108	8116
927.204	9496
927.301	7688
927.397	8527
927.494	9999
927.590	6534
927.687	6547
927.783	9456
927.879	8514
927.976	8113
928.072	7249
928.168	8944
928.264	8973
928.361	7571
928.457	9795
928.553	7587
928.649	7891
928.745	8567
928.841	7738
928.937	8394
929.033	7967
929.129	7799
929.225	8772
929.321	7416
929.417	7144
929.513	8572
929.609	6009
929.705	7203
929.801	8696
929.897	6798
929.993	7214
930.089	7545
930.184	6923
930.280	7333
930.376	8990
930.471	6927
930.567	5827
930.663	7067
930.758	6130
930.854	5749
930.950	7323
931.045	5508
931.141	6304
931.236	8270
931.332	7456
931.427	5712
931.523	7701
931.618	7525
931.714	5561
931.809	5522
931.905	7360
932.000	5170
932.095	4613
932.191	7942
932.286	8789
932.381	7476
932.476	5243
932.572	6629
932.667	5268
932.762	5664
932.857	6077
932.952	7665
933.047	6206
933.142	5277
933.237	5655
933.332	6446
933.427	7114
933.522	6287
933.617	5405
933.712	6134
933.807	7655
933.902	7994
933.997	7449
934.092	5834
934.187	6289
934.282	6047
934.376	6063
934.471	6982
934.566	4961
934.661	5625
934.755	6330
934.850	7162
934.945	5990
935.039	4958
935.134	3906
935.228	5839
935.323	9460
935.417	5345
935.512	4617
935.606	3979
935.701	6461
935.795	6789
935.890	5244
935.984	5146
936.079	3401
936.173	5070
936.267	4397
936.362	3503
936.456	5645
936.550	6860
936.644	5616
936.738	3331
936.833	4888
936.927	3964
937.021	3849
937.115	5457
937.209	5810
937.303	5402
937.397	3496
937.491	3954
937.585	6758
937.679	5712
937.773	4490
937.867	4355
937.961	3845
938.055	6490
938.149	7250
938.243	3003
938.337	3623
938.430	3509
938.524	6777
938.618	3730
938.712	4327
938.805	3779
938.899	4484
938.993	7341
939.086	4252
939.180	2818
939.274	4102
939.367	4622
939.461	5725
939.554	4403
939.648	2970
939.741	3517
939.835	4532
939.928	6986
940.022	5655
940.115	4639
940.208	5723
940.302	5759
940.395	6983
940.488	3990
940.582	4502
940.675	3516
940.768	4446
940.861	5601
940.954	6298
941.048	3359
941.141	3281
941.234	4393
941.327	5167
941.420	5083
941.513	5557
941.606	4222
941.699	4496
941.792	5525
941.885	4381
941.978	4607
942.071	5514
942.164	2998
942.257	3587
942.349	4353
942.442	5286
942.535	3188
942.628	3999
942.721	3620
942.813	3912
942.906	4208
942.999	4598
943.091	3654
943.184	4368
943.277	3842
943.369	3848
943.462	2109
943.554	3234
943.647	3756
943.739	4857
943.832	5621
943.924	2703
944.017	3098
944.109	2017
944.201	3868
944.294	4442
944.386	4006
944.478	3720
944.571	2770
944.663	3090
944.755	4023
944.847	5048
944.940	3350
945.032	2256
945.124	3189
945.216	4298
945.308	3705
945.400	3810
945.492	3316
945.584	4582
945.676	4661
945.768	3466
945.860	4000
945.952	4305
946.044	3900
946.136	3538
946.228	3372
946.320	2278
946.412	2972
946.503	4378
946.595	5229
946.687	3982
946.779	2928
946.870	2780
946.962	2987
947.054	3245
947.145	3890
947.237	3462
947.329	3386
947.420	3975
947.512	3447
947.603	2231
947.695	2888
947.786	2040
947.878	2683
947.969	3448
948.061	3783
948.152	3328
948.243	2126
948.335	3594
948.426	1769
948.517	3208
948.609	4064
948.700	3002
948.791	3011
948.882	2159
948.973	1924
949.065	3177
949.156	3185
949.247	1537
949.338	3174
949.429	2057
949.520	2296
949.611	3049
949.702	3962
949.793	3321
949.884	3339
949.975	2582
950.066	1700
950.157	2151
950.247	2631
950.338	2491
950.429	1762
950.520	2306
950.611	2073
950.701	2623
950.792	3286
950.883	3433
950.973	3041
951.064	3768
951.155	2813
951.245	4059
951.336	2910
951.427	3492
951.517	4448
951.608	3777
951.698	2732
951.788	2263
951.879	1989
951.969	2206
952.060	2464
952.150	2986
952.240	3788
952.331	3231
952.421	3826
952.511	2401
952.602	2179
952.692	1725
952.782	1995
952.872	1622
952.962	2477
953.052	1902
953.143	1219
953.233	3098
953.323	3331
953.413	2321
953.503	2830
953.593	2827
953.683	2535
953.773	1383
953.863	1921
953.953	1944
954.042	2516
954.132	2981
954.222	2495
954.312	2363
954.402	3005
954.492	2811
954.581	2797
954.671	2453
954.761	2403
954.850	3453
954.940	713
955.030	1427
955.119	1504
955.209	1779
955.298	2040
955.388	2534
955.477	3265
955.567	1812
955.656	2063
955.746	1709
955.835	1907
955.925	2031
956.014	2260
956.103	3198
956.193	3322
956.282	3551
956.371	2111
956.461	3274
956.550	2621
956.639	2208
956.728	1601
956.817	2160
956.906	1851
956.995	2600
957.085	2470
957.174	3156
957.263	1662
957.352	2132
957.441	2527
957.530	2294
957.619	2698
957.708	1736
957.796	1722
957.885	2816
957.974	1324
958.063	2279
958.152	1342
958.241	1947
958.329	2356
958.418	2598
958.507	1953
958.596	4217
958.684	1230
958.773	2447
958.861	2714
958.950	1903
959.039	2585
959.127	2315
959.216	3225
959.304	3046
959.393	2360
959.481	3062
959.570	2673
959.658	1919
959.746	1437
959.835	2278
959.923	1835
960.011	2331
960.100	2747
960.188	3335
960.276	3180
960.365	2062
960.453	2045
960.541	1101
960.629	2429
960.717	1818
960.805	516
960.893	1929
960.981	1839
961.069	3881
961.158	3497
961.245	3453
961.333	2666
961.421	1967
961.509	2044
961.597	3255
961.685	1828
961.773	2023
961.861	2343
961.949	3118
962.036	1708
962.124	2346
962.212	1466
962.299	1033
962.387	1075
962.475	2025
962.562	1102
962.650	2737
962.738	2098
962.825	2462
962.913	1438
963.000	1161
963.088	2283
963.175	2196
963.263	2612
963.350	1634
963.438	1972
963.525	1621
963.612	1668
963.700	1241
963.787	4029
963.874	2196
963.962	1228
964.049	2133
964.136	547
964.223	551
964.310	1034
964.398	2143
964.485	1590
964.572	2832
964.659	1890
964.746	1454
964.833	952
964.920	2037
965.007	1702
965.094	1810
965.181	1194
965.268	2221
965.355	1765
965.441	1135
965.528	1495
965.615	3191
965.702	1409
965.789	1134
965.875	1486
965.962	2188
966.049	1290
966.136	2707
966.222	1496
966.309	3080
966.395	2102
966.482	2336
966.569	1470
966.655	1740
966.742	1283
966.828	1521
966.915	1063
967.001	1212
967.087	662
967.174	1261
967.260	1752
967.347	1403
967.433	1435
967.519	2726
967.605	1327
967.692	1635
967.778	1542
967.864	1969
967.950	1087
968.036	1037
968.123	1153
968.209	916
968.295	394
968.381	2924
968.467	2165
968.553	-878
968.639	1904
968.725	1887
968.811	2334
968.897	2351
968.983	1998
969.069	828
969.154	2307
969.240	1381
969.326	375
969.412	1258
969.497	1211
969.583	556
969.669	2403
969.755	2422
969.840	2067
969.926	3631
970.012	3183
970.097	4871
970.183	3296
970.268	2597
970.354	2694
970.439	1038
970.525	3041
970.610	706
970.696	2417
970.781	1801
970.866	924
970.952	2182
971.037	787
971.122	1535
971.208	1636
971.293	2227
971.378	245
971.463	1537
971.549	1340
971.634	1591
971.719	538
971.804	1404
971.889	2314
971.974	1658
972.059	894
972.144	936
972.229	1504
972.314	838
972.399	1281
972.484	1096
972.569	874
972.654	724
972.739	1735
972.824	1397
972.908	609
972.993	913
973.078	521
973.163	1834
973.247	1425
973.332	-213
973.417	2648
973.501	1106
973.586	1360
973.671	1672
973.755	1076
973.840	1932
973.924	2457
974.009	2678
974.093	2433
974.178	3768
974.262	2252
974.346	2024
974.431	1411
974.515	1309
974.600	1348
974.684	2421
974.768	384
974.852	1924
974.937	763
975.021	2417
975.105	1589
975.189	1328
975.273	1917
975.358	153
975.442	140
975.526	2004
975.610	693
975.694	6
975.778	1906
975.862	1244
975.946	-152
976.030	2359
976.114	789
976.198	1717
976.281	1300
976.365	2159
976.449	1379
976.533	1700
976.617	424
976.700	860
976.784	807
976.868	1265
976.951	1040
977.035	1747
977.119	941
977.202	1636
977.286	1311
977.369	2289
977.453	3321
977.536	3090
977.620	2591
977.703	2213
977.787	779
977.870	2941
977.953	1900
978.037	781
978.120	2188
978.203	1130
978.287	1665
978.370	1764
978.453	1414
978.536	1691
978.620	2106
978.703	1555
978.786	1031
978.869	604
978.952	837
979.035	2880
979.118	1621
979.201	1402
979.284	2146
979.367	809
979.450	2479
979.533	812
979.616	1310
979.699	786
979.782	1560
979.865	2258
979.948	1384
980.030	508
980.113	2071
980.196	1250
980.279	2247
980.361	936
980.444	1815
980.526	2761
980.609	2675
980.692	3124
980.774	3069
980.857	1407
980.939	4102
981.022	1621
981.104	723
981.187	1962
981.269	2150
981.352	1712
981.434	1184
981.516	1431
981.599	3165
981.681	1946
981.763	869
981.846	1758
981.928	1926
982.010	1728
982.092	1026
982.174	2345
982.256	1318
982.339	2324
982.421	1700
982.503	1831
982.585	741
982.667	2122
982.749	1977
982.831	2194
982.913	997
982.995	2554
983.077	1800
983.158	3131
983.240	495
983.322	3325
983.404	4890
983.486	3122
983.568	3383
983.649	2891
983.731	3057
983.813	2101
983.894	2657
983.976	2103
984.058	1581
984.139	2826
984.221	888
984.302	3169
984.384	2324
984.465	1890
984.547	2751
984.628	1321
984.710	2500
984.791	2127
984.872	2105
984.954	2002
985.035	1816
985.116	1773
985.198	1302
985.279	3349
985.360	1271
985.441	2361
985.522	2978
985.604	2610
985.685	891
985.766	3248
985.847	3559
985.928	2259
986.009	2312
986.090	1432
986.171	2401
986.252	2116
986.333	2809
986.414	2415
986.495	2763
986.576	2600
986.656	2843
986.737	3008
986.818	3056
986.899	2226
986.980	2101
987.060	2989
987.141	2357
987.222	3835
987.302	3342
987.383	3269
987.464	2559
987.544	3688
987.625	3224
987.705	3718
987.786	4145
987.866	3485
987.947	3153
988.027	3834
988.108	3152
988.188	3558
988.268	3762
988.349	3335
988.429	3543
988.509	2889
988.589	1941
988.670	1657
988.750	4474
988.830	2171
988.910	3618
988.990	3208
989.070	2778
989.151	2994
989.231	2149
989.311	2732
989.391	2524
989.471	3179
989.551	3148
989.631	1907
989.711	2942
989.791	2045
989.870	1940
989.950	2865
990.030	2279
990.110	3117
990.190	1824
990.269	2157
990.349	1931
990.429	3018
990.509	1880
990.588	2332
990.668	2384
990.747	2098
990.827	2006
990.907	2952
990.986	3196
991.066	2994
991.145	821
991.225	3338
991.304	979
991.383	3441
991.463	1668
991.542	2335
991.622	1342
991.701	1391
991.780	1557
991.859	1547
991.939	2274
992.018	2692
992.097	1833
992.176	1892
992.256	1386
992.335	1025
992.414	2913
992.493	1522
992.572	1813
992.651	3284
992.730	1529
992.809	1676
992.888	1940
992.967	1464
993.046	1940
993.125	140
993.203	1961
993.282	1594
993.361	1718
993.440	1995
993.519	527
993.597	2125
993.676	1736
993.755	3167
993.834	1809
993.912	792
993.991	2335
994.069	1090
994.148	2216
994.226	1244
994.305	1119
994.384	741
994.462	2334
994.540	837
994.619	343
994.697	1973
994.776	589
994.854	2154
994.932	706
995.011	1436
995.089	1317
995.167	1326
995.245	764
995.324	1177
995.402	1706
995.480	1288
995.558	673
995.636	744
995.714	859
995.792	2013
995.870	359
995.948	667
996.026	996
996.104	737
996.182	1027
996.260	668
996.338	1237
996.416	945
996.494	977
996.572	1965
996.649	1546
996.727	675
996.805	1518
996.883	1396
996.960	787
997.038	1414
997.116	969
997.193	148
997.271	197
997.348	374
997.426	836
997.504	930
997.581	1486
997.658	1170
997.736	-322
997.813	246
997.891	1869
997.968	1360
998.046	415
998.123	684
998.200	276
998.277	260
998.355	1062
998.432	-892
998.509	226
998.586	480
998.663	1091
998.741	822
998.818	360
998.895	111
998.972	1076
999.049	1567
999.126	-323
999.203	1359
999.280	207
999.357	318
999.434	971
999.511	258
999.587	604
999.664	42
999.741	366
999.818	999
999.895	-41
999.971	331
1000.048	-51
1000.125	1360
1000.202	-445
1000.278	526
1000.355	796
1000.431	-36
1000.508	-733
1000.584	912
1000.661	1011
1000.738	103
1000.814	69
1000.890	817
1000.967	63
1001.043	519
1001.120	-241
1001.196	871
1001.272	-655
1001.349	551
1001.425	795
1001.501	-363
1001.577	102
1001.654	865
1001.730	-1001
1001.806	231
1001.882	-303
1001.958	445
1002.034	513
1002.110	385
1002.186	-1146
1002.262	-422
1002.338	-1128
1002.414	528
1002.490	246
1002.566	-24
1002.642	-791
1002.718	1544
1002.794	-431
1002.870	-42
1002.945	263
1003.021	-772
1003.097	-191
1003.173	192
1003.248	-624
1003.324	-682
1003.400	-35
1003.475	-1099
1003.551	-29
1003.626	458
1003.702	-749
1003.777	-356
1003.853	-694
1003.928	-627
1004.004	-810
1004.079	80
1004.155	243
1004.230	-456
1004.305	874
1004.381	-624
1004.456	-814
1004.531	-537
1004.607	128
1004.682	625
1004.757	978
1004.832	-169
1004.907	-475
1004.982	251
1005.057	432
1005.133	-593
1005.208	-218
1005.283	-339
1005.358	-219
1005.433	-955
1005.508	-381
1005.583	-662
1005.657	-1067
1005.732	222
1005.807	-1565
1005.882	68
1005.957	121
1006.032	-59
1006.106	271
1006.181	-693
1006.256	-91
1006.331	-497
1006.405	-380
1006.480	-473
1006.554	-473
1006.629	-29
1006.704	-848
1006.778	-614
1006.853	408
1006.927	-791
1007.002	-977
1007.076	-375
1007.150	-1109
1007.225	-89
1007.299	585
1007.373	-1345
1007.448	-534
1007.522	1
1007.596	-810
1007.671	-676
1007.745	-14
1007.819	-324
1007.893	-533
1007.967	294
1008.041	-1348
1008.115	386
1008.190	-447
1008.264	195
1008.338	-1190
1008.412	-177
1008.486	-410
1008.560	145
1008.633	-958
1008.707	95
1008.781	-115
1008.855	-246
1008.929	-979
1009.003	-1232
1009.076	-692
1009.150	830
1009.224	-578
1009.298	502
1009.371	-1052
1009.445	-48
1009.519	-646
1009.592	-696
1009.666	-1315
1009.739	-409
1009.813	-1398
1009.886	251
1009.960	-849
1010.033	-658
1010.107	570
1010.180	-981
1010.253	-1342
1010.327	-747
1010.400	-741
1010.473	-1020
1010.547	579
1010.620	-615
1010.693	-333
1010.766	-959
1010.840	-213
1010.913	-332
1010.986	-1131
1011.059	-1088
1011.132	-795
1011.205	16
1011.278	-908
1011.351	-729
1011.424	-1013
1011.497	-1282
1011.570	-117
1011.643	-852
1011.716	-1032
1011.789	-516
1011.862	-939
1011.934	-383
1012.007	-1615
1012.080	-824
1012.153	-1067
1012.225	-466
1012.298	-1276
1012.371	-1120
1012.443	-37
1012.516	-1213
1012.588	-597
1012.661	-259
1012.733	-1020
1012.806	-367
1012.879	-281
1012.951	-186
1013.023	-1072
1013.096	-888
1013.168	-1445
1013.241	959
1013.313	-1067
1013.385	-715
1013.458	-530
1013.530	-1
1013.602	-1354
1013.674	-889
1013.746	-969
1013.819	-703
1013.891	-681
1013.963	-1211
1014.035	-974
1014.107	-241
1014.179	-344
1014.251	-1158
1014.323	-1262
1014.395	-880
1014.467	-1497
1014.539	-88
1014.611	-1470
1014.683	-473
1014.754	-408
1014.826	-1425
1014.898	-528
1014.970	-978
1015.042	48
1015.113	-526
1015.185	-490
1015.257	-1175
1015.328	-729
1015.400	109
1015.471	-511
1015.543	-1264
1015.615	-646
1015.686	-490
1015.757	-1274
1015.829	-1064
1015.901	-484
1015.972	-940
1016.043	-520
1016.115	-506
1016.186	-1031
1016.257	-836
1016.328	-1203
1016.400	-579
1016.471	-1312
1016.542	-498
1016.613	-938
1016.685	-144
1016.756	-1255
1016.827	-1121
1016.898	-1648
1016.969	-817
1017.040	-761
1017.111	-553
1017.182	-1742
1017.253	-191
1017.324	-1265
1017.395	-1250
1017.466	-1195
1017.537	-1100
1017.608	-781
1017.678	-1218
1017.749	-1226
1017.820	-1118
1017.891	-1220
1017.961	-1316
1018.032	-1465
1018.103	-875
1018.173	-334
1018.244	-1356
1018.315	-1442
1018.385	-429
1018.456	-1781
1018.526	-736
1018.597	-1251
1018.667	-1441
1018.738	-1778
1018.808	-1088
1018.878	-783
1018.949	-558
1019.019	-1229
1019.089	-637
1019.160	-830
1019.230	-1721
1019.300	-487
1019.371	-1509
1019.441	-1437
1019.511	-898
1019.581	-724
1019.651	-1093
1019.721	-665
1019.791	-637
1019.861	-1768
1019.931	-219
1020.001	-1436
1020.071	-546
1020.141	-2111
1020.211	-878
1020.281	-1203
1020.351	-853
1020.421	-803
1020.491	-752
1020.560	-1346
1020.630	-958
1020.700	-907
1020.770	-460
1020.839	-1129
1020.909	-1095
1020.979	-951
1021.048	-905
1021.118	-1810
1021.187	-668
1021.257	-338
1021.326	-1443
1021.396	-598
1021.465	-1390
1021.535	-634
1021.604	-1520
1021.674	-1199
1021.743	-1430
1021.812	-944
1021.882	-1022
1021.951	-1094
1022.020	-1243
1022.089	-1106
1022.159	-979
1022.228	-1058
1022.297	-6
1022.366	-1124
1022.435	-514
1022.504	-1612
1022.573	-1406
1022.642	-1090
1022.711	-1303
1022.781	-150
1022.849	-749
1022.918	-1231
1022.987	-302
1023.056	-1870
1023.125	-1174
1023.194	-924
1023.263	-1194
1023.331	-931
1023.400	-459
1023.469	-1653
1023.538	-757
1023.606	-575
1023.675	-1351
1023.744	-260
1023.812	-800
1023.881	-1302
1023.949	-1574
1024.018	-1121
1024.086	-1372
1024.155	-1449
1024.223	-871
1024.292	-1227
1024.360	-489
1024.429	-1229
1024.497	-1422
1024.565	-1144
1024.634	-1561
1024.702	-885
1024.770	14
1024.838	-1496
1024.907	-1335
1024.975	-1484
1025.043	-476
1025.111	-1385
1025.179	-1246
1025.247	-524
1025.315	-535
1025.383	-1690
1025.451	-986
1025.519	-1796
1025.587	-1788
1025.655	-1226
1025.723	-1704
1025.791	-1528
1025.859	-678
1025.927	-585
1025.995	-1789
1026.062	-1510
1026.130	-1036
1026.198	-1304
1026.266	-1098
1026.333	-1278
1026.401	2
1026.469	-851
1026.536	-716
1026.604	-1881
1026.671	-896
1026.739	-1329
1026.806	-636
1026.874	-1091
1026.941	-502
1027.009	-1182
1027.076	-1558
1027.144	-859
1027.211	-1048
1027.278	-1705
1027.345	-1000
1027.413	-1636
1027.480	-1505
1027.547	-1817
1027.614	-1717
1027.682	-1562
1027.749	-1372
1027.816	-1369
1027.883	-1044
1027.950	-1144
1028.017	-1390
1028.084	-1016
1028.151	-1491
1028.218	-1532
1028.285	-1383
1028.352	-1576
1028.419	-1089
1028.486	-1159
1028.553	-1389
1028.619	-1802
1028.686	-2390
1028.753	-1874
1028.820	-1245
1028.886	-1653
1028.953	-1160
1029.020	-1274
1029.086	-753
1029.153	-1658
1029.220	-1191
1029.286	-1599
1029.353	-1132
1029.419	-1491
1029.486	-1079
1029.552	-2053
1029.619	-1553
1029.685	-2335
1029.751	-1807
1029.818	-1100
1029.884	-1753
1029.951	-465
1030.017	-1469
1030.083	-1244
1030.149	-597
1030.216	-1440
1030.282	-657
1030.348	-2322
1030.414	-1564
1030.480	-1458
1030.546	-1244
1030.612	-1319
1030.678	-2007
1030.744	-1067
1030.810	-1488
1030.876	-1873
1030.942	-1624
1031.008	-1374
1031.074	-1444
1031.140	-2037
1031.206	-1362
1031.272	-1446
1031.337	-1376
1031.403	-1677
1031.469	-1297
1031.534	-1096
1031.600	-718
1031.666	-1784
1031.731	-1191
1031.797	-1842
1031.863	-1662
1031.928	-2274
1031.994	-1486
1032.059	-2152
1032.125	-1645
1032.190	-1718
1032.256	-2033
1032.321	-1579
1032.386	-1313
1032.452	-1137
1032.517	-1105
1032.582	-1566
1032.647	-1316
1032.713	-2127
1032.778	-929
1032.843	-2020
1032.908	-1639
1032.974	-1351
1033.039	-1683
1033.104	-1412
1033.169	-979
1033.234	-1583
1033.299	-1140
1033.364	-982
1033.429	-1018
1033.494	-785
1033.559	-1399
1033.624	-1855
1033.688	-1589
1033.753	-1813
1033.818	-995
1033.883	-969
1033.948	-438
1034.013	-516
1034.077	-199
1034.142	127
1034.207	941
1034.271	2429
1034.336	2850
1034.400	1359
1034.465	983
1034.530	170
1034.594	-1042
1034.658	-1883
1034.723	-1464
1034.787	-2014
1034.852	-711
1034.916	-2224
1034.981	-1527
1035.045	-1126
1035.109	-2054
1035.173	-767
1035.238	-1400
1035.302	-1017
1035.366	-1705
1035.430	-1426
1035.495	-1540
1035.559	-1654
1035.623	-855
1035.687	-1855
1035.751	-1937
1035.815	-1921
1035.879	-1638
1035.943	-1437
1036.007	-2215
1036.071	-1903
1036.135	-1948
1036.198	-1511
1036.262	-1598
1036.326	-1745
1036.390	-753
1036.454	-1446
1036.517	-1756
1036.581	-1851
1036.645	-902
1036.709	-1358
1036.772	-2338
1036.836	-1645
1036.900	-1375
1036.963	-1998
1037.026	-2369
1037.090	-2088
1037.154	-1903
1037.217	-1905
1037.280	-1707
1037.344	-2337
1037.407	-1844
1037.471	-2048
1037.534	-745
1037.597	-1305
1037.661	-1871
1037.724	-1632
1037.787	-2228
1037.850	-1505
1037.913	-1683
1037.977	-1601
1038.040	-1614
1038.103	-2171
1038.166	-1637
1038.229	-1880
1038.292	-1279
1038.355	-2071
1038.418	-2480
1038.481	-1566
1038.544	-2025
1038.607	-2101
1038.670	-2079
1038.732	-1227
1038.795	-2601
1038.858	-1872
1038.921	-918
1038.984	-1294
1039.046	-2005
1039.109	-1758
1039.172	-1431
1039.234	-2003
1039.297	-1613
1039.360	-2194
1039.422	-1485
1039.485	-2667
1039.547	-1256
1039.610	-2053
1039.672	-1398
1039.734	-1539
1039.797	-1878
1039.859	-1530
1039.922	-1806
1039.984	-1752
1040.046	-1553
1040.109	-1599
1040.171	-1720
1040.233	-2270
1040.295	-1211
1040.358	-2420
1040.420	-1801
1040.482	-1361
1040.544	-1509
1040.606	-1275
1040.668	-2169
1040.730	-1818
1040.792	-1760
1040.854	-1869
1040.916	-1508
1040.978	-1889
1041.040	-1409
1041.102	-1642
1041.164	-1999
1041.225	-2139
1041.287	-1365
1041.349	-1743
1041.411	-1135
1041.472	-1290
1041.534	-1836
1041.596	-2828
1041.657	-1620
1041.719	-1455
1041.781	-1819
1041.842	-945
1041.904	-2073
1041.965	-1943
1042.027	-1658
1042.088	-1248
1042.150	-2265
1042.211	-1749
1042.272	-496
1042.334	-1822
1042.395	-2034
1042.456	-2197
1042.518	-2032
1042.579	-1831
1042.640	-2053
1042.701	-1919
1042.763	-1566
1042.824	-2616
1042.885	-1107
1042.946	-1844
1043.007	-1492
1043.068	-1030
1043.129	-2579
1043.190	-2596
1043.251	-1878
1043.312	-1547
1043.373	-2103
1043.434	-2756
1043.495	-2142
1043.556	-1948
1043.616	-1406
1043.677	-2260
1043.738	-2029
1043.799	-2336
1043.859	-992
1043.920	-1882
1043.981	-2338
1044.041	-2166
1044.102	-1799
1044.162	-2230
1044.223	-1836
1044.284	-2393
1044.344	-2132
1044.405	-1828
1044.465	-1757
1044.525	-1627
1044.586	-1718
1044.646	-1933
1044.707	-1431
1044.767	-2133
1044.827	-1799
1044.887	-1980
1044.948	-746
1045.008	-1391
1045.068	-1615
1045.128	-2371
1045.188	-1100
1045.249	-1956
1045.309	-1924
1045.369	-1449
1045.429	-761
1045.489	-2245
1045.549	-1310
1045.609	-1877
1045.669	-2362
1045.729	-2437
1045.789	-1460
1045.848	-1200
1045.908	-1024
1045.968	-1641
1046.028	-950
1046.088	-1844
1046.147	-1208
1046.207	-1338
1046.267	-1241
1046.326	-1077
1046.386	-1673
1046.446	-1882
1046.505	-1113
1046.565	-1122
1046.624	-675
1046.684	-620
1046.743	-457
1046.803	-796
1046.862	-265
1046.922	0
