'Start Wavelength	183.907
'End Wavelength	1046.922
'Gate Delay	5.000
'Gate Width (ms)	1.050
'Laser Output Level	0.000
'X Position	0.000
'Y Position	0.000
'Z Position	0.000
'Grid Point Number	1.000
'Shot Number	100.000
183.907	1134.000
183.977	-228.000
184.047	364
184.116	433
184.186	251
184.256	91
184.325	-62
184.395	-599
184.465	852
184.534	-35
184.604	-432
184.674	392
184.743	-419
184.813	1045
184.883	-471
184.952	858
185.022	-681
185.092	-60
185.161	542
185.231	-313
185.301	293
185.370	1119
185.440	-150
185.509	-524
185.579	-233
185.649	953
185.718	352
185.788	475
185.857	-14
185.927	22
185.996	-84
186.066	167
186.136	318
186.205	-208
186.275	-59
186.344	201
186.414	190
186.483	-925
186.553	1017
186.622	653
186.692	65
186.761	-88
186.831	640
186.900	27
186.970	150
187.039	695
187.109	609
187.178	149
187.248	849
187.317	288
187.387	162
187.456	86
187.526	434
187.595	757
187.664	73
187.734	570
187.803	643
187.873	473
187.942	267
188.012	1044
188.081	-359
188.150	855
188.220	523
188.289	67
188.358	482
188.428	468
188.497	-369
188.567	281
188.636	-229
188.705	421
188.775	155
188.844	-131
188.913	1124
188.983	-403
189.052	495
189.121	341
189.191	-824
189.260	586
189.329	265
189.399	-272
189.468	232
189.537	-53
189.606	247
189.676	-300
189.745	358
189.814	504
189.883	458
189.953	-117
190.022	-297
190.091	-29
190.161	292
190.230	852
190.299	153
190.368	212
190.437	-350
190.507	270
190.576	-1
190.645	269
190.714	624
190.783	-667
190.853	1105
190.922	-52
190.991	-109
191.060	-106
191.129	-590
191.198	976
191.268	60
191.337	-87
191.406	701
191.475	287
191.544	-486
191.613	97
191.682	532
191.752	51
191.821	399
191.890	-350
191.959	-337
192.028	345
192.097	292
192.166	345
192.235	79
192.304	346
192.373	-23
192.442	16
192.511	-193
192.580	123
192.650	-203
192.719	107
192.788	123
192.857	1259
192.926	176
192.995	-323
193.064	-200
193.133	824
193.202	74
193.271	701
193.340	353
193.409	-274
193.478	819
193.547	778
193.615	-435
193.684	664
193.753	-231
193.822	180
193.891	129
193.960	785
194.029	-176
194.098	404
194.167	-390
194.236	280
194.305	-375
194.374	204
194.443	-66
194.512	226
194.580	622
194.649	122
194.718	446
194.787	453
194.856	88
194.925	760
194.994	-421
195.062	583
195.131	252
195.200	-549
195.269	884
195.338	339
195.407	680
195.475	-38
195.544	339
195.613	-61
195.682	-210
195.751	258
195.819	-462
195.888	-36
195.957	765
196.026	-181
196.094	297
196.163	434
196.232	-639
196.301	367
196.369	59
196.438	840
196.507	537
196.576	409
196.644	-277
196.713	-248
196.782	134
196.850	213
196.919	-52
196.988	358
197.056	149
197.125	921
197.194	-373
197.262	327
197.331	-178
197.400	360
197.468	114
197.537	101
197.606	152
197.674	565
197.743	601
197.812	256
197.880	230
197.949	-271
198.017	187
198.086	184
198.155	206
198.223	383
198.292	684
198.360	-360
198.429	-391
198.497	660
198.566	843
198.635	1407
198.703	548
198.772	-290
198.840	670
198.909	113
198.977	396
199.046	233
199.114	523
199.183	495
199.251	159
199.320	440
199.388	66
199.457	-68
199.525	234
199.594	-290
199.662	-478
199.731	270
199.799	321
199.867	528
199.936	129
200.004	238
200.073	108
200.141	-790
200.210	-517
200.278	-195
200.346	354
200.415	555
200.483	305
200.552	-63
200.620	385
200.688	-15
200.757	283
200.825	211
200.893	-610
200.962	741
201.030	501
201.098	-470
201.167	495
201.235	404
201.303	-64
201.372	724
201.440	806
201.508	773
201.577	85
201.645	475
201.713	154
201.781	-255
201.850	917
201.918	342
201.986	319
202.055	941
202.123	-291
202.191	56
202.259	-5
202.327	458
202.396	402
202.464	286
202.532	265
202.600	2514
202.669	965
202.737	1077
202.805	-285
202.873	307
202.941	723
203.009	239
203.078	356
203.146	-181
203.214	74
203.282	-288
203.350	243
203.418	28
203.487	-65
203.555	312
203.623	604
203.691	-217
203.759	-499
203.827	225
203.895	215
203.963	427
204.031	374
204.099	-354
204.168	-538
204.236	772
204.304	-544
204.372	356
204.440	421
204.508	-96
204.576	-408
204.644	-190
204.712	-1060
204.780	212
204.848	131
204.916	190
204.984	-78
205.052	473
205.120	427
205.188	-514
205.256	70
205.324	557
205.392	173
205.460	614
205.528	498
205.596	757
205.664	696
205.732	474
205.799	-75
205.867	1572
205.935	-1098
206.003	1284
206.071	-177
206.139	-39
206.207	-257
206.275	-424
206.343	-32
206.411	286
206.478	255
206.546	-180
206.614	256
206.682	576
206.750	98
206.818	680
206.885	1118
206.953	-502
207.021	1446
207.089	324
207.157	-375
207.225	112
207.292	543
207.360	-238
207.428	415
207.496	199
207.563	-88
207.631	-135
207.699	-636
207.767	579
207.834	-542
207.902	145
207.970	-430
208.038	508
208.105	-519
208.173	165
208.241	-121
208.309	518
208.376	387
208.444	898
208.512	-283
208.579	-818
208.647	1052
208.715	1406
208.782	-124
208.850	403
208.918	-148
208.985	-140
209.053	235
209.120	-22
209.188	-280
209.256	-429
209.323	-488
209.391	43
209.459	1426
209.526	160
209.594	-631
209.661	93
209.729	532
209.796	41
209.864	47
209.932	-1009
209.999	1554
210.067	791
210.134	-421
210.202	-169
210.269	1049
210.337	1391
210.404	-19
210.472	408
210.539	597
210.607	-168
210.674	625
210.742	470
210.809	-533
210.877	461
210.944	1402
211.012	-598
211.079	1645
211.146	19
211.214	37
211.281	1338
211.349	999
211.416	467
211.484	586
211.551	-298
211.618	21
211.686	-367
211.753	-481
211.821	384
211.888	373
211.955	487
212.023	875
212.090	339
212.157	540
212.225	-161
212.292	1226
212.359	1286
212.427	3243
212.494	1429
212.561	927
212.629	115
212.696	150
212.763	1417
212.831	-419
212.898	100
212.965	-33
213.032	637
213.100	-857
213.167	-77
213.234	1106
213.301	519
213.369	-647
213.436	322
213.503	28
213.570	210
213.638	-468
213.705	150
213.772	-510
213.839	-296
213.906	733
213.973	-127
214.041	-474
214.108	194
214.175	720
214.242	140
214.309	151
214.376	238
214.444	-465
214.511	396
214.578	-552
214.645	898
214.712	548
214.779	718
214.846	-423
214.913	1332
214.980	270
215.048	1051
215.115	1433
215.182	658
215.249	391
215.316	-1104
215.383	1206
215.450	665
215.517	537
215.584	477
215.651	-350
215.718	-44
215.785	768
215.852	-498
215.919	552
215.986	311
216.053	-175
216.120	-607
216.187	235
216.254	-110
216.321	52
216.388	110
216.455	115
216.522	276
216.589	228
216.656	714
216.722	-237
216.789	753
216.856	369
216.923	250
216.990	302
217.057	479
217.124	-476
217.191	415
217.258	586
217.324	1182
217.391	549
217.458	447
217.525	916
217.592	-263
217.659	-959
217.725	1169
217.792	-360
217.859	1237
217.926	338
217.993	-480
218.059	701
218.126	-159
218.193	-620
218.260	615
218.327	334
218.393	287
218.460	-168
218.527	164
218.594	221
218.660	1045
218.727	754
218.794	-546
218.860	369
218.927	55
218.994	-51
219.061	-510
219.127	-805
219.194	45
219.261	244
219.327	122
219.394	762
219.461	-1132
219.527	-75
219.594	1237
219.661	-403
219.727	-1104
219.794	1296
219.860	-189
219.927	880
219.994	724
220.060	1921
220.127	2437
220.193	1217
220.260	929
220.326	481
220.393	945
220.460	1364
220.526	119
220.593	211
220.659	1382
220.726	409
220.792	2123
220.859	1078
220.925	2034
220.992	2792
221.058	2749
221.125	3336
221.191	2053
221.258	138
221.324	904
221.391	393
221.457	-54
221.524	-215
221.590	1065
221.657	3710
221.723	796
221.789	627
221.856	1796
221.922	-544
221.989	1016
222.055	663
222.121	-782
222.188	1463
222.254	336
222.321	-333
222.387	-285
222.453	60
222.520	-153
222.586	-339
222.652	527
222.719	-182
222.785	252
222.851	-265
222.918	42
222.984	-408
223.050	-210
223.116	-1035
223.183	1565
223.249	-1381
223.315	-382
223.382	-109
223.448	-137
223.514	-492
223.580	648
223.647	-568
223.713	-335
223.779	-314
223.845	202
223.911	279
223.978	-676
224.044	321
224.110	-315
224.176	268
224.242	-241
224.309	-607
224.375	970
224.441	-605
224.507	-101
224.573	-1198
224.639	761
224.705	-564
224.772	463
224.838	-685
224.904	514
224.970	-341
225.036	-363
225.102	-662
225.168	1175
225.234	855
225.300	2
225.366	397
225.432	174
225.499	-360
225.565	86
225.631	223
225.697	276
225.763	27
225.829	-30
225.895	15
225.961	-414
226.027	801
226.093	-94
226.159	1112
226.225	1155
226.291	1833
226.357	4458
226.423	1487
226.489	1894
226.554	441
226.620	254
226.686	413
226.752	786
226.818	1113
226.884	6355
226.950	5875
227.016	1549
227.082	1374
227.148	310
227.214	680
227.279	-207
227.345	-494
227.411	833
227.477	1548
227.543	4803
227.609	4193
227.674	2346
227.740	842
227.806	1164
227.872	199
227.938	193
228.003	224
228.069	-235
228.135	124
228.201	775
228.267	338
228.332	556
228.398	-640
228.464	648
228.530	-212
228.595	-73
228.661	4
228.727	69
228.792	1315
228.858	-653
228.924	-1780
228.990	1197
229.055	-1065
229.121	310
229.187	112
229.252	-651
229.318	-158
229.384	125
229.449	-339
229.515	-1702
229.581	-816
229.646	807
229.712	-696
229.777	372
229.843	-380
229.909	634
229.974	367
230.040	-151
230.105	809
230.171	-447
230.236	413
230.302	-123
230.368	-380
230.433	-828
230.499	393
230.564	790
230.630	-1112
230.695	-2
230.761	357
230.826	-1511
230.892	1395
230.957	-694
231.023	-124
231.088	-40
231.154	-357
231.219	544
231.284	-138
231.350	700
231.415	-1284
231.481	315
231.546	-868
231.612	546
231.677	457
231.742	-1802
231.808	2036
231.873	-621
231.939	-1817
232.004	978
232.069	983
232.135	-305
232.200	-534
232.265	577
232.331	-352
232.396	-551
232.461	-726
232.527	-473
232.592	-912
232.657	314
232.723	-93
232.788	-347
232.853	497
232.918	489
232.984	-1283
233.049	-440
233.114	-243
233.179	696
233.245	483
233.310	1826
233.375	-626
233.440	-444
233.506	-841
233.571	-334
233.636	-459
233.701	242
233.766	-40
233.832	499
233.897	-852
233.962	-877
234.027	960
234.092	420
234.157	-441
234.222	187
234.288	292
234.353	2270
234.418	1809
234.483	1021
234.548	755
234.613	-113
234.678	606
234.743	-287
234.808	2651
234.873	-77
234.938	1358
235.004	72
235.069	90
235.134	155
235.199	21
235.264	-100
235.329	-1205
235.394	695
235.459	246
235.524	-376
235.589	817
235.654	189
235.719	-1033
235.784	395
235.849	-183
235.913	1321
235.978	920
236.043	436
236.108	-672
236.173	-56
236.238	219
236.303	123
236.368	-758
236.433	631
236.498	244
236.563	1329
236.627	1418
236.692	8766
236.757	7235
236.822	1620
236.887	391
236.952	1659
237.017	-545
237.081	1689
237.146	446
237.211	2816
237.276	7733
237.341	16398
237.405	5074
237.470	2315
237.535	758
237.600	1148
237.664	1348
237.729	-821
237.794	-261
237.859	1986
237.923	1064
237.988	-251
238.053	1080
238.118	462
238.182	3409
238.247	5542
238.312	756
238.376	820
238.441	-1476
238.506	1188
238.570	-1558
238.635	1513
238.700	951
238.764	322
238.829	625
238.893	376
238.958	819
239.023	236
239.087	198
239.152	-39
239.216	-1082
239.281	492
239.346	1034
239.410	-160
239.475	-123
239.539	3280
239.604	2659
239.668	1804
239.733	1019
239.797	3679
239.862	9763
239.926	7724
239.991	3193
240.055	977
240.120	484
240.184	936
240.249	153
240.313	231
240.378	38
240.442	1593
240.507	3341
240.571	532
240.635	947
240.700	1490
240.764	-642
240.829	218
240.893	-710
240.957	280
241.022	1722
241.086	3513
241.151	200
241.215	-808
241.279	800
241.344	723
241.408	187
241.472	-504
241.537	1055
241.601	-57
241.665	-673
241.730	-445
241.794	533
241.858	154
241.922	-485
241.987	382
242.051	-1005
242.115	-1035
242.179	561
242.244	-101
242.308	181
242.372	878
242.436	-833
242.501	325
242.565	-709
242.629	-178
242.693	1164
242.757	-409
242.822	382
242.886	-294
242.950	957
243.014	-1094
243.078	-164
243.142	-24
243.206	-259
243.271	365
243.335	-17
243.399	1453
243.463	2398
243.527	12982
243.591	2498
243.655	1272
243.719	-873
243.783	1353
243.847	1317
243.911	1890
243.975	-372
244.040	-949
244.104	1244
244.168	-206
244.232	393
244.296	968
244.360	1289
244.424	-638
244.488	663
244.552	711
244.615	-1592
244.679	377
244.743	-160
244.807	-46
244.871	204
244.935	543
244.999	-882
245.063	826
245.127	610
245.191	921
245.255	176
245.319	787
245.383	-906
245.446	1328
245.510	-473
245.574	64
245.638	883
245.702	-454
245.766	1104
245.829	2179
245.893	-1096
245.957	-258
246.021	549
246.085	-254
246.149	-234
246.212	2234
246.276	1876
246.340	569
246.404	49
246.467	1192
246.531	-1070
246.595	2241
246.659	1583
246.722	-179
246.786	1594
246.850	278
246.913	925
246.977	-388
247.041	978
247.104	393
247.168	247
247.232	1708
247.295	3957
247.359	1900
247.423	1135
247.486	990
247.550	855
247.614	161
247.677	403
247.741	497
247.804	1266
247.868	5038
247.932	2092
247.995	4420
248.059	534
248.122	-1093
248.186	1378
248.249	1257
248.313	7069
248.376	7404
248.440	3255
248.503	-304
248.567	2074
248.630	146
248.694	1763
248.757	2713
248.821	6810
248.884	4665
248.948	2224
249.011	5418
249.075	8312
249.138	7948
249.202	1860
249.265	757
249.328	2166
249.392	210
249.455	1135
249.519	581
249.582	639
249.645	1675
249.709	1369
249.772	146
249.835	545
249.899	967
249.962	1189
250.025	687
250.089	2864
250.152	4373
250.215	1079
250.279	780
250.342	1214
250.405	1306
250.468	1002
250.532	864
250.595	2515
250.658	11165
250.721	24471
250.785	5756
250.848	3573
250.911	1309
250.974	1384
251.038	1732
251.101	5211
251.164	1315
251.227	2129
251.290	2072
251.354	3382
251.417	18210
251.480	19000
251.543	9244
251.606	36723
251.669	26596
251.732	7254
251.795	6961
251.859	7843
251.922	22446
251.985	11364
252.048	3515
252.111	2808
252.174	1499
252.237	3319
252.300	10598
252.363	9431
252.426	30799
252.489	10155
252.552	3785
252.615	2226
252.678	3515
252.741	7418
252.804	9753
252.867	30713
252.930	13388
252.993	5184
253.056	4086
253.119	1373
253.182	1068
253.245	2164
253.308	2066
253.371	446
253.434	878
253.497	1409
253.559	4069
253.622	2327
253.685	2284
253.748	1175
253.811	908
253.874	1294
253.937	1164
254.000	900
254.062	2048
254.125	3618
254.188	3127
254.251	1771
254.314	1698
254.376	1788
254.439	1791
254.502	2224
254.565	1698
254.628	4901
254.690	1425
254.753	235
254.816	1284
254.878	754
254.941	2947
255.004	2646
255.067	1073
255.129	255
255.192	479
255.255	-669
255.317	63
255.380	397
255.443	340
255.505	285
255.568	-309
255.631	-98
255.693	890
255.756	-218
255.819	832
255.881	-283
255.944	514
256.006	-647
256.069	-543
256.132	-116
256.194	893
256.257	2252
256.319	1798
256.382	751
256.444	1995
256.507	1181
256.569	847
256.632	-153
256.694	600
256.757	3629
256.819	14201
256.882	4079
256.944	1236
257.007	1431
257.069	-225
257.132	638
257.194	616
257.257	346
257.319	-200
257.381	562
257.444	3114
257.506	16877
257.569	18324
257.631	6596
257.693	3408
257.756	1589
257.818	969
257.880	582
257.943	1878
258.005	-439
258.067	135
258.130	271
258.192	344
258.254	340
258.317	327
258.379	607
258.441	1300
258.503	2249
258.566	2503
258.628	4396
258.690	672
258.753	861
258.815	966
258.877	286
258.939	616
259.001	1037
259.064	215
259.126	118
259.188	865
259.250	867
259.312	-1
259.375	1995
259.437	669
259.499	886
259.561	-221
259.623	800
259.685	-624
259.747	1212
259.809	3834
259.872	6289
259.934	10346
259.996	7919
260.058	1631
260.120	321
260.182	898
260.244	257
260.306	617
260.368	442
260.430	-527
260.492	1091
260.554	2940
260.616	1113
260.678	2739
260.740	4899
260.802	956
260.864	492
260.926	-812
260.988	1018
261.050	252
261.112	1732
261.174	6098
261.236	4728
261.298	904
261.359	2056
261.421	3778
261.483	550
261.545	1257
261.607	-277
261.669	812
261.731	1897
261.793	2710
261.854	-167
261.916	1372
261.978	-83
262.040	580
262.102	716
262.164	699
262.225	820
262.287	585
262.349	685
262.411	992
262.472	1017
262.534	968
262.596	3525
262.658	1064
262.719	-419
262.781	1440
262.843	1853
262.904	1563
262.966	686
263.028	988
263.090	5299
263.151	15323
263.213	4890
263.275	1197
263.336	1342
263.398	1981
263.459	787
263.521	1058
263.583	2097
263.644	1221
263.706	655
263.767	334
263.829	713
263.891	-243
263.952	266
264.014	41
264.075	694
264.137	1737
264.198	1146
264.260	-342
264.321	-259
264.383	531
264.444	2079
264.506	671
264.567	449
264.629	1094
264.690	928
264.752	385
264.813	723
264.875	680
264.936	505
264.998	-392
265.059	238
265.120	1063
265.182	601
265.243	5622
265.305	6519
265.366	762
265.427	984
265.489	1439
265.550	-428
265.611	742
265.673	-103
265.734	425
265.795	912
265.857	364
265.918	3
265.979	2365
266.040	10628
266.102	9426
266.163	1928
266.224	1608
266.286	401
266.347	-85
266.408	107
266.469	916
266.530	172
266.592	440
266.653	1283
266.714	1413
266.775	383
266.836	638
266.898	217
266.959	482
267.020	957
267.081	1871
267.142	1501
267.203	759
267.264	-297
267.326	2065
267.387	471
267.448	635
267.509	480
267.570	410
267.631	-190
267.692	197
267.753	580
267.814	-725
267.875	374
267.936	1625
267.997	458
268.058	135
268.119	-444
268.180	119
268.241	-223
268.302	239
268.363	-406
268.424	612
268.485	-438
268.546	-612
268.607	479
268.668	308
268.729	-383
268.790	-444
268.851	-488
268.912	345
268.972	692
269.033	-225
269.094	225
269.155	115
269.216	-650
269.277	247
269.338	-24
269.398	-211
269.459	-230
269.520	525
269.581	67
269.642	1361
269.702	40
269.763	-25
269.824	-516
269.885	-636
269.945	376
270.006	-64
270.067	-1360
270.128	-787
270.188	51
270.249	-692
270.310	-85
270.370	219
270.431	185
270.492	-69
270.553	42
270.613	1104
270.674	1096
270.734	665
270.795	-34
270.856	409
270.916	-519
270.977	171
271.038	982
271.098	-380
271.159	242
271.219	554
271.280	140
271.340	600
271.401	-711
271.462	969
271.522	306
271.583	-72
271.643	825
271.704	24
271.764	560
271.825	1150
271.885	6026
271.946	8903
272.006	1918
272.066	3707
272.127	7037
272.187	5631
272.248	2483
272.308	1957
272.369	4880
272.429	2423
272.489	194
272.550	1716
272.610	2221
272.671	1300
272.731	1158
272.791	2187
272.852	427
272.912	875
272.972	1591
273.033	1086
273.093	1423
273.153	1557
273.214	1595
273.274	2129
273.334	4347
273.394	7863
273.455	4185
273.515	4477
273.575	6971
273.635	4554
273.696	5478
273.756	9174
273.816	5056
273.876	4426
273.936	4539
273.997	5974
274.057	1535
274.117	1294
274.177	2144
274.237	6817
274.297	6709
274.358	3519
274.418	5023
274.478	3018
274.538	708
274.598	502
274.658	4025
274.718	5236
274.778	2099
274.838	372
274.898	2253
274.958	6675
275.018	5774
275.078	4129
275.138	785
275.198	1070
275.258	322
275.318	1636
275.378	998
275.438	1329
275.498	1333
275.558	3236
275.618	6858
275.678	4527
275.738	2141
275.798	1953
275.858	1040
275.918	99
275.978	236
276.038	1094
276.098	652
276.157	1071
276.217	2594
276.277	1844
276.337	237
276.397	120
276.457	347
276.517	1316
276.576	962
276.636	201
276.696	897
276.756	2655
276.815	1716
276.875	1472
276.935	1402
276.995	1866
277.055	1324
277.114	1931
277.174	1268
277.234	3040
277.293	1420
277.353	1560
277.413	1432
277.472	761
277.532	1957
277.592	4280
277.651	14301
277.711	28158
277.771	9978
277.830	27433
277.890	24029
277.950	17930
278.009	48890
278.069	19773
278.128	21458
278.188	29233
278.248	13376
278.307	32528
278.367	20393
278.426	6227
278.486	4027
278.545	2820
278.605	3000
278.664	2422
278.724	2589
278.783	4995
278.843	10610
278.902	4510
278.962	4197
279.021	6285
279.081	15369
279.140	13308
279.199	7152
279.259	6880
279.318	9018
279.378	13658
279.437	23319
279.496	61197
279.556	199490
279.615	159560
279.675	51939
279.734	28691
279.793	34662
279.853	37363
279.912	16028
279.971	11937
280.031	9250
280.090	12963
280.149	20847
280.208	36849
280.268	136619
280.327	135659
280.386	38936
280.445	20133
280.505	12432
280.564	10659
280.623	7745
280.682	7232
280.742	7902
280.801	3841
280.860	3373
280.919	3909
280.978	3667
281.037	3199
281.097	2461
281.156	4412
281.215	3250
281.274	2999
281.333	5864
281.392	4067
281.451	1879
281.510	2143
281.569	1785
281.628	2190
281.688	2380
281.747	2644
281.806	1610
281.865	2257
281.924	1499
281.983	1610
282.042	1396
282.101	1048
282.160	1900
282.219	2541
282.278	1773
282.337	2680
282.396	2267
282.454	1369
282.513	2282
282.572	3244
282.631	1947
282.690	1345
282.749	1141
282.808	1957
282.867	1567
282.926	1923
282.985	1826
283.043	1803
283.102	1525
283.161	2209
283.220	3102
283.279	5794
283.338	2982
283.396	1799
283.455	1621
283.514	3133
283.573	2448
283.631	2664
283.690	3135
283.749	2414
283.808	2829
283.866	3187
283.925	2601
283.984	3155
284.043	2780
284.101	4066
284.160	3725
284.219	4564
284.277	4316
284.336	5236
284.395	7425
284.453	8949
284.512	7914
284.570	8505
284.629	9832
284.688	11907
284.746	14580
284.805	16777
284.863	23346
284.922	28659
284.981	34037
285.039	46996
285.098	67618
285.156	99808
285.215	108288
285.273	99820
285.332	95842
285.390	75903
285.449	52679
285.507	38892
285.566	29411
285.624	23229
285.683	18620
285.741	14601
285.799	12731
285.858	10348
285.916	8744
285.975	8547
286.033	6248
286.091	5867
286.150	5198
286.208	4801
286.267	4459
286.325	4982
286.383	4194
286.442	3239
286.500	3115
286.558	3738
286.616	2545
286.675	2921
286.733	2962
286.791	2726
286.850	2455
286.908	2320
286.966	2749
287.024	1294
287.083	1879
287.141	1742
287.199	2098
287.257	2188
287.315	1971
287.374	1009
287.432	2550
287.490	2667
287.548	1795
287.606	2500
287.664	1842
287.723	1482
287.781	2132
287.839	2278
287.897	1803
287.955	2608
288.013	3055
288.071	7229
288.129	24151
288.187	74810
288.245	32508
288.303	9433
288.361	5824
288.419	3915
288.477	2693
288.535	3477
288.593	2526
288.651	1591
288.709	985
288.767	1862
288.825	807
288.883	784
288.941	890
288.999	805
289.057	303
289.115	830
289.173	448
289.231	548
289.289	620
289.346	730
289.404	1274
289.462	1155
289.520	1296
289.578	1036
289.636	177
289.694	1505
289.751	435
289.809	451
289.867	1306
289.925	1420
289.983	353
290.040	274
290.098	637
290.156	1443
290.214	-191
290.271	502
290.329	512
290.387	970
290.444	46
290.502	1633
290.560	-243
290.617	936
290.675	-53
290.733	447
290.790	757
290.848	688
290.906	29
290.963	871
291.021	92
291.078	-108
291.136	208
291.194	1461
291.251	3053
291.309	1546
291.366	192
291.424	432
291.481	1416
291.539	1197
291.596	2686
291.654	995
291.711	1635
291.769	871
291.826	1064
291.884	876
291.941	807
291.999	270
292.056	474
292.114	781
292.171	623
292.228	836
292.286	679
292.343	391
292.401	1746
292.458	1367
292.515	-246
292.573	562
292.630	614
292.687	1229
292.745	811
292.802	1553
292.859	3575
292.917	6261
292.974	2737
293.031	1563
293.089	780
293.146	493
293.203	543
293.260	606
293.318	113
293.375	1180
293.432	358
293.489	720
293.546	1195
293.604	2594
293.661	6575
293.718	12722
293.775	6558
293.832	4650
293.889	5140
293.947	4413
294.004	2354
294.061	1517
294.118	2937
294.175	5216
294.232	7709
294.289	4898
294.346	2416
294.403	2134
294.460	1331
294.517	1568
294.574	647
294.631	869
294.688	1393
294.745	2533
294.802	8038
294.859	7048
294.916	2600
294.973	1609
295.030	809
295.087	917
295.144	427
295.201	1045
295.258	205
295.315	1853
295.372	2159
295.429	5810
295.486	2445
295.542	1443
295.599	2735
295.656	4779
295.713	3546
295.770	4760
295.827	2260
295.883	1660
295.940	512
295.997	974
296.054	896
296.111	597
296.167	1142
296.224	169
296.281	108
296.338	-89
296.394	-513
296.451	904
296.508	1701
296.564	3940
296.621	2987
296.678	6073
296.734	9023
296.791	3284
296.848	1500
296.904	1342
296.961	3144
297.018	5451
297.074	4500
297.131	1878
297.187	687
297.244	1700
297.301	6477
297.357	12881
297.414	5191
297.470	2557
297.527	818
297.583	457
297.640	951
297.696	496
297.753	553
297.809	481
297.866	-292
297.922	312
297.979	576
298.035	1375
298.092	416
298.148	2945
298.204	2825
298.261	1375
298.317	2939
298.374	8076
298.430	5021
298.486	1628
298.543	834
298.599	1584
298.656	88
298.712	2164
298.768	5066
298.824	4218
298.881	1605
298.937	368
298.993	1303
299.050	1038
299.106	849
299.162	629
299.218	974
299.275	1111
299.331	1175
299.387	3169
299.443	8093
299.500	16571
299.556	11185
299.612	4795
299.668	4101
299.724	9981
299.780	13905
299.837	5555
299.893	3991
299.949	10926
300.005	16611
300.061	12342
300.117	20990
300.173	10994
300.229	4450
300.285	3251
300.341	3566
300.397	2830
300.453	1629
300.510	1384
300.566	3327
300.622	4937
300.678	16573
300.734	23860
300.790	12819
300.845	11220
300.901	11531
300.957	17100
301.013	9189
301.069	3878
301.125	3383
301.181	2171
301.237	855
301.293	589
301.349	1143
301.405	1347
301.461	903
301.516	1201
301.572	817
301.628	1068
301.684	993
301.740	1848
301.796	2742
301.851	2152
301.907	3654
301.963	4563
302.019	6987
302.074	20595
302.130	22190
302.186	10347
302.242	3336
302.297	2637
302.353	2236
302.409	3714
302.464	3240
302.520	2332
302.576	4583
302.631	7510
302.687	4023
302.743	1830
302.798	1451
302.854	713
302.910	1231
302.965	1449
303.021	1807
303.076	1705
303.132	2095
303.187	2319
303.243	820
303.299	-63
303.354	26
303.410	838
303.465	-20
303.521	1021
303.576	644
303.632	980
303.687	2130
303.743	6082
303.798	6944
303.853	2216
303.909	770
303.964	433
304.020	1052
304.075	1504
304.130	1258
304.186	2676
304.241	2831
304.297	1566
304.352	1145
304.358	1056
304.407	328
304.449	759
304.463	905
304.518	788
304.539	357
304.573	-341
304.629	1662
304.630	1669
304.684	2108
304.720	3927
304.739	4804
304.794	8857
304.811	7681
304.850	4810
304.902	1430
304.905	1215
304.960	1334
304.992	1147
305.015	997
305.071	1096
305.083	1017
305.126	762
305.173	883
305.181	908
305.236	724
305.264	565
305.292	385
305.347	976
305.354	1096
305.402	1867
305.445	1104
305.457	893
305.512	1148
305.535	1382
305.567	1693
305.622	1323
305.626	1363
305.678	2636
305.716	5547
305.733	6499
305.788	7925
305.807	7149
305.843	6209
305.897	7301
305.898	7299
305.953	7661
305.988	5319
306.008	4116
306.063	2722
306.078	2176
306.118	1024
306.168	581
306.173	544
306.228	1064
306.259	1007
306.283	955
306.338	1412
306.349	1420
306.393	1362
306.440	1068
306.448	1055
306.503	1926
306.530	1806
306.558	1801
306.613	2454
306.620	2685
306.668	4606
306.711	6462
306.723	6572
306.778	5631
306.801	4380
306.833	3120
306.888	1889
306.892	1846
306.943	1439
306.982	1035
306.997	929
307.052	1303
307.072	1317
307.107	1572
307.162	1782
307.163	1781
307.217	1918
307.253	2727
307.272	3024
307.327	2928
307.343	2648
307.381	2171
307.434	3160
307.436	3257
307.491	3893
307.524	5370
307.546	5780
307.600	6273
307.614	5761
307.655	3816
307.704	2574
307.710	2610
307.765	2999
307.795	3758
307.819	4190
307.874	5101
307.885	5235
307.929	5618
307.975	5486
307.984	5709
308.038	7753
308.065	9580
308.093	17888
308.148	37594
308.156	41770
308.202	59810
308.246	74667
308.257	72874
308.312	37839
308.336	24012
308.366	16960
308.421	10342
308.426	9833
308.475	7474
308.517	6567
308.530	6424
308.585	6382
308.607	6324
308.639	6419
308.694	6674
308.697	6703
308.748	8921
308.787	10741
308.803	10712
308.857	10296
308.877	9983
308.912	10980
308.967	12764
308.967	12795
309.021	21176
309.058	27327
309.076	31868
309.130	48566
309.148	53950
309.185	82896
309.238	129261
309.239	129729
309.293	147028
309.328	144440
309.348	129112
309.402	72975
309.418	58502
309.457	45243
309.508	32279
309.511	32459
309.566	39492
309.598	45587
309.620	58522
309.674	95231
309.688	104843
309.729	98489
309.778	79580
309.783	77466
309.837	49024
309.868	34376
309.892	30433
309.946	23105
309.959	21816
310.001	20190
310.049	18467
310.055	17871
310.109	12373
310.139	9119
310.163	7882
310.218	6068
310.229	5737
310.272	5485
310.319	5256
310.326	5128
310.381	3996
310.409	3636
310.435	3676
310.489	3595
310.499	3588
310.543	3442
310.589	3284
310.598	3327
310.652	3715
310.679	3718
310.706	3403
310.760	3126
310.769	3049
310.814	3030
310.859	3075
310.868	3089
310.923	2952
310.948	2969
310.977	3042
311.031	3104
311.038	3124
311.085	2830
311.128	2348
311.139	2353
311.193	2540
311.218	2528
311.247	2633
311.301	2973
311.308	3012
311.356	3083
311.398	3048
311.410	3011
311.464	2812
311.488	2712
311.518	2869
311.572	3164
311.578	3182
311.626	3129
311.668	3123
311.680	3206
311.734	3496
311.758	3602
311.788	3500
311.842	3347
311.847	3320
311.896	4102
311.937	4759
311.950	4568
312.004	3675
312.027	3280
312.058	3251
312.112	3181
312.117	3168
312.165	3025
312.207	2895
312.297	2862
312.386	2657
312.476	2704
312.566	3180
312.656	3428
312.745	2771
312.835	3050
312.925	2517
313.015	3284
313.104	3793
313.194	3379
313.284	2897
313.374	3561
313.463	4170
313.553	3524
313.643	3646
313.732	3326
313.822	3273
313.912	4308
314.001	4691
314.091	5835
314.180	4351
314.270	5153
314.360	5602
314.449	4998
314.539	4090
314.628	4516
314.718	4763
314.808	5215
314.897	5083
314.987	5708
315.076	5923
315.166	6249
315.255	5879
315.345	6239
315.434	5851
315.524	5982
315.613	8203
315.703	12791
315.792	37175
315.881	137195
315.971	40391
316.060	11599
316.150	7559
316.239	7415
316.328	5249
316.418	5670
316.507	5859
316.597	6813
316.686	6069
316.775	6284
316.865	7147
316.954	5032
317.043	5148
317.133	5283
317.222	4597
317.311	4577
317.400	4960
317.490	7384
317.579	8230
317.668	11489
317.757	18983
317.847	65151
317.936	202250
318.025	58089
318.114	50678
318.203	20821
318.293	8226
318.382	10380
318.471	9658
318.560	10655
318.649	13739
318.738	6024
318.828	5070
318.917	3518
319.006	4746
319.095	6969
319.184	14691
319.273	8590
319.362	5869
319.451	3724
319.540	3449
319.629	4622
319.718	5619
319.807	5286
319.896	6765
319.985	17541
320.074	7185
320.163	4132
320.252	4709
320.341	4173
320.430	4111
320.519	5670
320.608	4215
320.697	5591
320.786	5517
320.875	6554
320.964	6776
321.053	7466
321.142	9865
321.230	10601
321.319	10536
321.408	15416
321.497	11685
321.586	10156
321.675	9395
321.764	9138
321.852	8481
321.941	8937
322.030	8067
322.119	9634
322.207	14186
322.296	13515
322.385	13345
322.474	16282
322.562	19828
322.651	13607
322.740	9993
322.829	11018
322.917	8711
323.006	7898
323.095	7357
323.183	6598
323.272	6278
323.361	8470
323.449	18250
323.538	8239
323.626	12953
323.715	8244
323.804	5461
323.892	10875
323.981	6715
324.069	4652
324.158	8433
324.246	7173
324.335	4747
324.424	4791
324.512	3897
324.601	3675
324.689	5889
324.778	8467
324.866	5160
324.954	4196
325.043	3811
325.131	4572
325.220	6056
325.308	6636
325.397	5508
325.485	3966
325.574	3355
325.662	3561
325.750	2512
325.839	3797
325.927	3809
326.015	3052
326.104	3772
326.192	4141
326.280	3043
326.369	2733
326.457	3724
326.545	4341
326.634	2150
326.722	3511
326.810	2923
326.898	4638
326.987	4484
327.075	4067
327.163	4952
327.251	4074
327.340	4934
327.428	6739
327.516	5475
327.604	4720
327.692	4054
327.781	3175
327.869	4024
327.957	3827
328.045	2801
328.133	3455
328.221	2777
328.309	3620
328.397	3593
328.485	3971
328.574	6037
328.662	10652
328.750	5618
328.838	3577
328.926	3399
329.014	3491
329.102	3210
329.190	4885
329.278	3229
329.366	2998
329.454	2773
329.542	2855
329.630	1847
329.718	4057
329.806	3026
329.893	2698
329.981	1926
330.069	3134
330.157	4238
330.245	4842
330.333	4222
330.421	3667
330.509	3665
330.597	6982
330.684	3745
330.772	2921
330.860	3383
330.948	3642
331.036	3055
331.123	3029
331.211	2784
331.299	3225
331.387	4406
331.475	4405
331.562	3039
331.650	3419
331.738	3177
331.825	3922
331.913	2671
332.001	2965
332.089	2548
332.176	4597
332.264	5848
332.352	4848
332.439	2875
332.527	3913
332.614	2752
332.702	3399
332.790	3311
332.877	6420
332.965	15312
333.052	11755
333.140	15264
333.228	36175
333.315	9665
333.403	5504
333.490	8396
333.578	16948
333.665	54278
333.753	21116
333.840	5406
333.928	5947
334.015	8254
334.103	11135
334.190	22683
334.278	12749
334.365	16078
334.452	15124
334.540	10434
334.627	9909
334.715	12212
334.802	20087
334.889	43733
334.977	50867
335.064	24260
335.151	11870
335.239	8212
335.326	8775
335.413	15501
335.501	16016
335.588	8744
335.675	8739
335.762	10402
335.850	14950
335.937	21452
336.024	37830
336.111	67616
336.199	50982
336.286	21729
336.373	12126
336.460	8899
336.547	6742
336.635	6042
336.722	4924
336.809	4790
336.896	5234
336.983	8087
337.070	15406
337.157	20271
337.245	14516
337.332	9823
337.419	4931
337.506	3949
337.593	4999
337.680	6940
337.767	12595
337.854	5149
337.941	5629
338.028	5078
338.115	3237
338.202	5427
338.289	5781
338.376	11913
338.463	6242
338.550	8070
338.637	8056
338.724	4730
338.811	5285
338.898	3473
338.984	3255
339.071	3179
339.158	3934
339.245	3743
339.332	4623
339.419	3963
339.506	4337
339.593	2097
339.679	3453
339.766	2666
339.853	3374
339.940	4507
340.027	2753
340.113	3498
340.200	4018
340.287	3652
340.374	2940
340.460	3727
340.547	2430
340.634	4048
340.720	8728
340.807	4219
340.894	3302
340.980	2658
341.067	2852
341.154	3614
341.240	3961
341.327	4725
341.414	4063
341.500	2280
341.587	3605
341.674	3637
341.760	4300
341.847	4356
341.933	3648
342.020	2968
342.106	2994
342.193	3605
342.279	3591
342.366	2819
342.452	4305
342.539	2952
342.625	4828
342.712	7413
342.798	4547
342.885	2822
342.971	3074
343.058	2124
343.144	2824
343.230	3069
343.317	3506
343.403	2663
343.490	2957
343.576	3402
343.662	3075
343.749	2733
343.835	3304
343.921	6542
344.008	23917
344.094	41127
344.180	9882
344.267	5021
344.353	11085
344.439	9321
344.525	5818
344.612	6160
344.698	4562
344.784	3178
344.870	3664
344.957	2227
345.043	4081
345.129	3033
345.215	4871
345.301	2859
345.387	2989
345.474	2476
345.560	3151
345.646	2632
345.732	3453
345.818	3043
345.904	3293
345.990	2791
346.076	2675
346.162	3134
346.249	3479
346.335	2493
346.421	3718
346.507	7105
346.593	16280
346.679	3654
346.765	4275
346.851	5253
346.937	4282
347.023	4569
347.108	3551
347.194	3142
347.280	3705
347.366	5499
347.452	14799
347.538	26503
347.624	16050
347.710	10324
347.796	3876
347.882	3752
347.967	2979
348.053	3477
348.139	3711
348.225	3042
348.311	3313
348.397	3900
348.482	4214
348.568	4352
348.654	5561
348.740	15951
348.825	14045
348.911	8084
348.997	13085
349.083	17620
349.168	4689
349.254	4126
349.340	3536
349.425	2758
349.511	3630
349.597	3215
349.682	5312
349.768	10440
349.854	4978
349.939	3755
350.025	3222
350.110	3175
350.196	3835
350.282	2745
350.367	3941
350.453	3895
350.538	3030
350.624	2995
350.709	4148
350.795	2975
350.880	3357
350.966	3523
351.051	4122
351.137	3641
351.222	3671
351.308	5213
351.393	8579
351.479	3281
351.564	2695
351.649	3246
351.735	3668
351.820	3579
351.906	3721
351.991	3663
352.076	6413
352.162	7487
352.247	4251
352.332	3638
352.418	3922
352.503	4780
352.588	11068
352.673	7641
352.759	4377
352.844	2993
352.929	3416
353.014	3378
353.100	3341
353.185	4407
353.270	4227
353.355	4770
353.441	4201
353.526	4089
353.611	4952
353.696	4688
353.781	4204
353.866	2479
353.952	4905
354.037	4718
354.122	7605
354.207	5913
354.292	3874
354.377	3823
354.462	4205
354.547	3635
354.632	4904
354.717	4379
354.802	4338
354.887	3015
354.972	3373
355.057	3021
355.142	3030
355.227	4185
355.312	4307
355.397	4290
355.482	10093
355.567	5493
355.652	6108
355.737	5487
355.822	13158
355.907	9064
355.991	4585
356.076	3296
356.161	3771
356.246	3456
356.331	4251
356.416	6221
356.501	26472
356.585	20640
356.670	5122
356.755	6689
356.840	6045
356.924	20061
357.009	52650
357.094	17478
357.179	5675
357.263	4384
357.348	6015
357.433	4392
357.517	5293
357.602	5290
357.687	5052
357.771	5614
357.856	9821
357.941	8142
358.025	18804
358.110	56913
358.195	23916
358.279	6594
358.364	7015
358.448	11565
358.533	21184
358.617	15253
358.702	15204
358.787	7665
358.871	6028
358.956	5277
359.040	5339
359.125	3606
359.209	4326
359.294	6535
359.378	9898
359.462	6369
359.547	4993
359.631	3415
359.716	3150
359.800	3244
359.885	4959
359.969	3504
360.053	4249
360.138	3374
360.222	3641
360.306	4711
360.391	4577
360.475	6630
360.559	9010
360.644	8659
360.728	6598
360.812	16535
360.896	34461
360.981	11590
361.065	6288
361.149	5284
361.233	4521
361.318	3223
361.402	4131
361.486	4963
361.570	4390
361.654	5213
361.739	7849
361.823	25780
361.907	34374
361.991	9469
362.075	8314
362.159	11192
362.243	19772
362.327	41977
362.411	58946
362.495	21922
362.580	12055
362.664	10541
362.748	11171
362.832	18724
362.916	39922
363.000	111135
363.084	156960
363.168	78893
363.252	21696
363.336	12570
363.420	11872
363.503	19272
363.587	18035
363.671	8664
363.755	6866
363.839	10490
363.923	8073
364.007	11754
364.091	15348
364.175	26551
364.258	66153
364.342	130268
364.426	217183
364.510	106527
364.594	34096
364.677	20897
364.761	35668
364.845	23044
364.929	9373
365.013	8341
365.096	7076
365.180	7320
365.264	10646
365.347	24682
365.431	11182
365.515	4396
365.598	4629
365.682	5869
365.766	5130
365.849	5084
365.933	4689
366.017	6496
366.100	4676
366.184	3688
366.267	5571
366.351	4500
366.435	3623
366.518	4142
366.602	4314
366.685	3964
366.769	5361
366.852	5031
366.936	6581
367.019	4511
367.103	3866
367.186	6798
367.270	4619
367.353	4244
367.436	5786
367.520	4051
367.603	6241
367.687	4525
367.770	6553
367.853	6754
367.937	11049
368.020	13447
368.104	5206
368.187	6014
368.270	6292
368.353	5025
368.437	6347
368.520	9625
368.603	7450
368.687	10085
368.770	15156
368.853	6070
368.936	6202
369.020	5727
369.103	3685
369.186	3752
369.269	3843
369.352	5622
369.436	4912
369.519	4763
369.602	2215
369.685	5655
369.768	3681
369.851	4992
369.934	3781
370.018	3843
370.101	4180
370.184	7357
370.267	5444
370.350	6271
370.433	9456
370.516	31626
370.599	73158
370.682	29356
370.765	12778
370.848	13339
370.931	19766
371.014	10792
371.097	4963
371.180	5669
371.263	6187
371.346	4478
371.429	6686
371.511	5475
371.594	6125
371.677	7451
371.760	8813
371.843	9736
371.926	27785
372.009	46004
372.091	21444
372.174	14773
372.257	25540
372.340	13340
372.423	11992
372.505	11536
372.588	7655
372.671	12021
372.754	20101
372.836	12722
372.919	11685
373.002	15429
373.085	8234
373.167	9659
373.250	12582
373.332	22762
373.415	37180
373.498	63249
373.580	37517
373.663	111365
373.746	100185
373.828	18505
373.911	9933
373.993	7866
374.076	15579
374.159	13160
374.241	9398
374.324	17262
374.406	14852
374.489	22739
374.571	47808
374.654	18859
374.736	14653
374.819	33206
374.901	49173
374.983	44078
375.066	11840
375.148	8242
375.231	14410
375.313	20605
375.395	10532
375.478	7473
375.560	7071
375.643	8362
375.725	15307
375.807	42173
375.890	28621
375.972	9939
376.054	8377
376.136	9961
376.219	6737
376.301	16129
376.383	31589
376.465	12095
376.548	8089
376.630	11264
376.712	26511
376.794	12383
376.877	5727
376.959	3365
377.041	5233
377.123	5709
377.205	5967
377.287	4883
377.369	5669
377.452	4674
377.534	4845
377.616	5544
377.698	4664
377.780	4680
377.862	5533
377.944	5760
378.026	3835
378.108	5574
378.190	5113
378.272	5480
378.354	5085
378.436	4489
378.518	4897
378.600	7110
378.682	8262
378.764	12010
378.846	10469
378.928	6166
379.010	5555
379.091	6998
379.173	5753
379.255	4197
379.337	5559
379.419	8819
379.501	17643
379.583	8895
379.664	5902
379.746	6608
379.828	13842
379.910	14551
379.991	14810
380.073	6991
380.155	7262
380.237	5510
380.318	5936
380.400	5987
380.482	7488
380.564	7301
380.645	8584
380.727	8452
380.809	7980
380.890	6629
380.972	6578
381.053	6782
381.135	8078
381.217	9218
381.298	14687
381.380	9926
381.461	12382
381.543	31417
381.624	31756
381.706	11867
381.787	11267
381.869	11683
381.951	22962
382.032	55434
382.113	34244
382.195	12897
382.276	16131
382.358	19625
382.439	34424
382.521	42926
382.602	58858
382.684	42953
382.765	77063
382.846	184616
382.928	361058
383.009	197924
383.090	179298
383.172	457232
383.253	522339
383.334	183164
383.416	93157
383.497	66413
383.578	75941
383.659	154527
383.741	417550
383.822	678393
383.903	356242
383.984	116613
384.066	78356
384.147	45949
384.228	27402
384.309	23005
384.390	21232
384.471	19023
384.553	17298
384.634	17298
384.715	17232
384.796	15903
384.877	17207
384.958	24486
385.039	22956
385.120	15144
385.201	13840
385.282	14782
385.363	17828
385.444	21282
385.525	21656
385.606	29382
385.687	24160
385.768	15041
385.849	14804
385.930	32575
386.011	44196
386.092	19469
386.173	14714
386.254	11165
386.335	11270
386.416	10520
386.496	14350
386.577	16897
386.658	12388
386.739	9848
386.820	12318
386.901	11795
386.981	14029
387.062	17104
387.143	18003
387.224	20258
387.304	19041
387.385	15062
387.466	12477
387.547	15425
387.627	14571
387.708	17673
387.789	29894
387.869	29905
387.950	17834
388.031	13331
388.111	12394
388.192	17126
388.273	21888
388.353	17245
388.434	8961
388.514	10708
388.595	27018
388.676	25509
388.756	13622
388.837	13024
388.917	8965
388.998	5119
389.078	6994
389.159	7183
389.239	5456
389.320	8762
389.400	5474
389.480	9908
389.561	14934
389.641	9574
389.722	7298
389.802	6817
389.883	10872
389.963	17258
390.043	11002
390.124	5581
390.204	9020
390.284	14432
390.365	10934
390.445	13992
390.525	31229
390.605	25054
390.686	9803
390.766	6595
390.846	7647
390.927	6070
391.007	6074
391.087	7864
391.167	6716
391.247	6422
391.328	8771
391.408	9394
391.488	8823
391.568	7093
391.648	8767
391.728	10242
391.808	10266
391.888	11019
391.969	14853
392.049	16306
392.129	13534
392.209	16412
392.289	24378
392.369	19038
392.449	17924
392.529	17620
392.609	22244
392.689	25539
392.769	36238
392.849	40271
392.929	48301
393.009	70988
393.089	99488
393.169	185960
393.248	450202
393.328	838135
393.408	785848
393.488	378509
393.568	156020
393.648	82220
393.728	52970
393.807	36632
393.887	30364
393.967	25611
394.047	21397
394.127	19042
394.206	21803
394.286	49446
394.366	163343
394.446	148321
394.525	34871
394.605	15203
394.685	14515
394.764	17294
394.844	26830
394.924	26953
395.003	13101
395.083	10552
395.163	10087
395.242	10543
395.322	9945
395.402	8960
395.481	12220
395.561	16204
395.640	39559
395.720	57997
395.799	37124
395.879	21510
395.958	21095
396.038	62053
396.117	211538
396.197	196212
396.276	55692
396.356	29726
396.435	32897
396.515	42245
396.594	64600
396.673	143588
396.753	409022
396.832	752185
396.912	531415
396.991	177602
397.070	73866
397.150	41687
397.229	36304
397.308	56363
397.388	83254
397.467	38885
397.546	17897
397.625	11065
397.705	13467
397.784	10863
397.863	9791
397.942	8747
398.022	9062
398.101	10476
398.180	17694
398.259	11067
398.338	8855
398.417	6001
398.497	6470
398.576	7442
398.655	5466
398.734	6324
398.813	6615
398.892	9974
398.971	16501
399.050	8137
399.129	4816
399.208	5265
399.287	4833
399.366	4393
399.445	4501
399.524	4486
399.603	3101
399.682	5568
399.761	8202
399.840	18317
399.919	13298
399.998	4635
400.077	3514
400.156	2327
400.235	6490
400.313	3461
400.392	3550
400.471	7180
400.550	9092
400.629	3578
400.708	4928
400.786	4086
400.865	4595
400.944	3922
401.023	5659
401.102	3099
401.180	3837
401.259	3437
401.338	3851
401.416	3387
401.495	2443
401.574	3590
401.652	2579
401.731	4603
401.810	3056
401.888	3269
401.967	2934
402.046	3335
402.124	4622
402.203	2412
402.281	4872
402.360	3690
402.438	6031
402.517	3370
402.596	3820
402.674	3182
402.753	2796
402.831	3808
402.910	4060
402.988	6282
403.066	15047
403.145	10028
403.223	7161
403.302	12457
403.380	11279
403.459	9168
403.537	5245
403.615	3996
403.694	2776
403.772	4125
403.850	4522
403.929	3184
404.007	3300
404.085	5948
404.164	4602
404.242	3928
404.320	9263
404.398	20015
404.477	19275
404.555	36260
404.633	29257
404.711	15132
404.789	8888
404.868	3336
404.946	3122
405.024	2764
405.102	2432
405.180	2537
405.258	1657
405.336	3185
405.415	2075
405.493	3350
405.571	4155
405.649	3350
405.727	2324
405.805	5984
405.883	3925
405.961	4308
406.039	3340
406.117	2769
406.195	4646
406.273	8729
406.351	25893
406.429	13955
406.507	3721
406.585	2187
406.663	2615
406.740	3470
406.818	2511
406.896	1827
406.974	3980
407.052	3299
407.130	16113
407.208	17751
407.285	5933
407.363	2575
407.441	3615
407.519	2825
407.596	3538
407.674	5920
407.752	13831
407.830	10444
407.907	4101
407.985	2933
408.063	3013
408.141	2867
408.218	4287
408.296	2086
408.373	3269
408.451	3749
408.529	3565
408.606	3170
408.684	3151
408.762	3410
408.839	3647
408.917	4327
408.994	4827
409.072	4244
409.149	6757
409.227	11464
409.304	14766
409.382	16793
409.459	18673
409.537	23204
409.614	19716
409.692	15656
409.769	16634
409.846	24870
409.924	28737
410.001	18959
410.079	13769
410.156	10818
410.233	8006
410.311	6027
410.388	6227
410.465	6189
410.543	4764
410.620	5528
410.697	5784
410.775	6137
410.852	4799
410.929	6277
411.006	6533
411.083	5974
411.161	5114
411.238	5746
411.315	4788
411.392	4121
411.469	5495
411.547	4622
411.624	2558
411.701	3305
411.778	4030
411.855	4681
411.932	3054
412.009	3366
412.086	3608
412.163	3413
412.240	3392
412.317	3447
412.394	3598
412.471	3529
412.548	2926
412.625	2407
412.702	3885
412.779	3639
412.856	3540
412.933	2899
413.010	2649
413.087	3475
413.164	5708
413.241	6760
413.318	3102
413.395	3938
413.471	3777
413.548	2541
413.625	3660
413.702	2250
413.779	2810
413.855	2125
413.932	2675
414.009	2325
414.086	2838
414.162	2717
414.239	3416
414.316	6061
414.393	10947
414.469	3813
414.546	2824
414.623	2854
414.699	2807
414.776	2403
414.853	2694
414.929	2899
415.006	2032
415.082	2938
415.159	2380
415.236	3079
415.312	3019
415.389	3211
415.465	2488
415.542	2367
415.618	2858
415.695	3087
415.771	3104
415.848	1888
415.924	2854
416.000	2763
416.077	3301
416.153	1269
416.230	2170
416.306	1625
416.383	2175
416.459	2765
416.535	2991
416.612	3342
416.688	3296
416.764	3302
416.841	2632
416.917	3391
416.993	3174
417.069	3491
417.146	2200
417.222	3270
417.298	2958
417.374	1805
417.451	2988
417.527	2040
417.603	2122
417.679	2461
417.755	2896
417.831	1803
417.908	2434
417.984	2362
418.060	2289
418.136	3709
418.212	2811
418.288	2501
418.364	2338
418.440	1275
418.516	3493
418.592	2877
418.668	3597
418.744	3787
418.820	3510
418.896	2864
418.972	2122
419.048	2269
419.124	4197
419.200	1648
419.276	2536
419.352	2623
419.428	3043
419.504	2697
419.579	3176
419.655	2720
419.731	3757
419.807	3879
419.883	5800
419.959	4294
420.034	3110
420.110	4404
420.186	7413
420.262	6783
420.337	3799
420.413	4356
420.489	4332
420.565	4217
420.640	4060
420.716	5189
420.792	4066
420.867	5580
420.943	4616
421.019	5094
421.094	5400
421.170	5939
421.245	5424
421.321	6243
421.397	7047
421.472	10073
421.548	13313
421.623	11779
421.699	10334
421.774	11318
421.850	12376
421.925	15343
422.001	18674
422.076	21781
422.152	27876
422.227	36176
422.302	50739
422.378	76755
422.453	131740
422.529	227638
422.604	298798
422.679	280214
422.755	291047
422.830	212769
422.905	123065
422.981	77373
423.056	53767
423.131	39641
423.207	29399
423.282	24190
423.357	20932
423.432	15833
423.508	15276
423.583	14233
423.658	13137
423.733	11093
423.808	10594
423.883	9862
423.959	11351
424.034	12685
424.109	11711
424.184	7977
424.259	7248
424.334	5998
424.409	5442
424.484	4703
424.559	5444
424.634	4080
424.709	4565
424.784	4610
424.859	4863
424.934	5037
425.009	6512
425.084	8454
425.159	5057
425.234	3741
425.309	3789
425.384	5565
425.459	3966
425.534	3873
425.609	2819
425.683	2807
425.758	2572
425.833	2904
425.908	4536
425.983	4743
426.058	7854
426.132	5049
426.207	3007
426.282	3526
426.357	2445
426.431	2642
426.506	2962
426.581	2402
426.655	3213
426.730	2097
426.805	1551
426.879	3775
426.954	3218
427.029	2968
427.103	10186
427.178	19478
427.253	8253
427.327	3051
427.402	2882
427.476	5045
427.551	3314
427.625	2387
427.700	3287
427.774	2559
427.849	3557
427.923	2086
427.998	3519
428.072	3935
428.147	9555
428.221	45377
428.296	117582
428.370	54809
428.444	10372
428.519	5032
428.593	4706
428.667	4691
428.742	7040
428.816	18706
428.890	78902
428.965	99681
429.039	24233
429.113	6410
429.188	4518
429.262	2639
429.336	3459
429.410	4911
429.485	4429
429.559	4837
429.633	4015
429.707	5160
429.781	16398
429.855	75114
429.930	90004
430.004	25026
430.078	21874
430.152	54968
430.226	162582
430.300	132975
430.374	26771
430.448	9810
430.522	9114
430.596	15227
430.670	29790
430.744	102088
430.818	94444
430.892	16288
430.966	4858
431.040	3243
431.114	1473
431.188	1546
431.262	2419
431.336	1627
431.410	3134
431.484	3165
431.557	3311
431.631	4018
431.705	7361
431.779	36780
431.853	113795
431.927	63505
432.000	10350
432.074	2912
432.148	1972
432.222	1074
432.295	1365
432.369	1200
432.443	2380
432.516	9064
432.590	18375
432.664	6133
432.737	1480
432.811	1282
432.885	937
432.958	2308
433.032	693
433.106	1158
433.179	1491
433.253	1812
433.326	1373
433.400	1535
433.473	1004
433.547	1516
433.620	1543
433.694	977
433.767	2046
433.841	982
433.914	1836
433.988	1372
434.061	1057
434.134	1325
434.208	1222
434.281	853
434.355	1275
434.428	1417
434.501	1903
434.575	1280
434.648	870
434.721	1447
434.795	1184
434.868	1123
434.941	1786
435.014	1018
435.088	2867
435.161	4957
435.234	7545
435.307	6619
435.381	6897
435.454	8397
435.527	12570
435.600	13578
435.673	10484
435.746	7333
435.819	5469
435.892	3444
435.966	3441
436.039	1901
436.112	2419
436.185	1973
436.258	1402
436.331	1626
436.404	1781
436.477	1423
436.550	1554
436.623	1554
436.696	2071
436.769	991
436.842	1442
436.915	694
436.987	955
437.060	1022
437.133	1444
437.206	823
437.279	1462
437.352	691
437.425	1372
437.498	1464
437.570	1659
437.643	1716
437.716	1780
437.789	658
437.861	1696
437.934	1309
438.007	1779
438.080	1241
438.152	2167
438.225	2479
438.298	14087
438.370	30501
438.443	9387
438.516	2327
438.588	1201
438.661	562
438.734	1345
438.806	1154
438.879	1549
438.951	765
439.024	1850
439.096	710
439.169	1141
439.241	342
439.314	909
439.386	1249
439.459	1071
439.531	1587
439.604	1464
439.676	1543
439.749	705
439.821	434
439.893	1351
439.966	1446
440.038	1163
440.110	408
440.183	1609
440.255	1045
440.327	1599
440.400	5449
440.472	16172
440.544	8248
440.617	1757
440.689	3011
440.761	2253
440.833	1930
440.905	1978
440.978	664
441.050	1104
441.122	1786
441.194	602
441.266	1420
441.338	1311
441.411	2006
441.483	5745
441.555	5533
441.627	2508
441.699	2273
441.771	1498
441.843	1778
441.915	2128
441.987	1990
442.059	2146
442.131	1567
442.203	3359
442.275	3825
442.347	8440
442.419	21023
442.491	95864
442.563	168127
442.635	57797
442.706	13842
442.778	7859
442.850	4584
442.922	3898
442.994	3912
443.066	4578
443.137	5250
443.209	7321
443.281	12322
443.353	29782
443.425	108856
443.496	281306
443.568	262376
443.640	97229
443.711	22433
443.783	10002
443.855	6109
443.926	4066
443.998	3988
444.070	3730
444.141	2729
444.213	2929
444.285	4056
444.356	2467
444.428	2329
444.499	2303
444.571	2797
444.642	3139
444.714	2050
444.785	2750
444.857	3836
444.928	4979
445.000	4887
445.071	6711
445.143	8348
445.214	11344
445.285	21831
445.357	59851
445.428	198864
445.500	320394
445.571	239604
445.642	146102
445.714	44491
445.785	16002
445.856	7116
445.928	5891
445.999	3442
446.070	3434
446.141	3188
446.213	3301
446.284	2289
446.355	2542
446.426	1431
446.497	1718
446.569	1139
446.640	1924
446.711	1925
446.782	1816
446.853	1314
446.924	1714
446.995	600
447.066	1000
447.138	1767
447.209	1225
447.280	489
447.351	741
447.422	620
447.493	631
447.564	1174
447.635	1149
447.706	253
447.777	700
447.847	121
447.918	323
447.989	468
448.060	980
448.131	1983
448.202	1340
448.273	749
448.344	1222
448.414	162
448.485	852
448.556	1060
448.627	285
448.698	1751
448.768	1020
448.839	495
448.910	713
448.981	1449
449.051	1223
449.122	-243
449.193	356
449.263	630
449.334	113
449.405	720
449.475	1291
449.546	706
449.616	1610
449.687	1346
449.758	749
449.828	731
449.899	656
449.969	534
450.040	528
450.110	464
450.181	242
450.251	885
450.322	243
450.392	460
450.463	1281
450.533	1455
450.604	737
450.674	894
450.744	1418
450.815	1339
450.885	2109
450.955	1818
451.026	1216
451.096	1473
451.166	1051
451.237	1733
451.307	3480
451.377	1545
451.447	783
451.518	743
451.588	870
451.658	250
451.728	1663
451.799	1429
451.869	3046
451.939	538
452.009	389
452.079	-240
452.149	1134
452.219	507
452.289	2770
452.360	1584
452.430	1976
452.500	1768
452.570	4232
452.640	10958
452.710	24862
452.780	24109
452.850	11866
452.920	5492
452.990	2775
453.060	1531
453.129	2012
453.199	1617
453.269	4197
453.339	6287
453.409	8409
453.479	8851
453.549	12729
453.619	11534
453.688	3635
453.758	1144
453.828	683
453.898	256
453.968	228
454.037	90
454.087	576
454.107	761
454.168	494
454.177	435
454.247	514
454.249	538
454.316	739
454.330	709
454.386	554
454.411	841
454.456	1158
454.492	1556
454.525	1896
454.574	1235
454.595	949
454.655	-121
454.665	-308
454.734	590
454.736	631
454.804	1150
454.817	1505
454.873	2680
454.898	2611
454.943	2302
454.979	1699
455.013	1196
455.060	1442
455.082	1639
455.141	1202
455.152	1103
455.221	3734
455.222	3777
455.291	3691
455.303	3996
455.360	4910
455.384	6434
455.430	8491
455.465	6521
455.499	4672
455.546	3541
455.569	2997
455.627	1861
455.638	1666
455.707	674
455.708	691
455.777	1035
455.789	1013
455.846	950
455.869	1101
455.916	1203
455.950	1199
455.985	1202
456.031	803
456.054	585
456.112	1615
456.124	1847
456.193	956
456.193	934
456.262	1483
456.274	1628
456.332	2440
456.355	2322
456.401	1899
456.436	1944
456.470	1923
456.516	1305
456.540	1005
456.597	1340
456.609	1422
456.678	1836
456.678	1820
456.747	1296
456.759	1168
456.817	878
456.840	1117
456.886	1288
456.920	1755
456.955	2356
457.001	2207
457.024	2073
457.082	2860
457.093	2996
457.162	3375
457.163	3399
457.232	2793
457.243	2782
457.301	2887
457.324	2674
457.370	2620
457.405	3230
457.439	3614
457.485	3729
457.508	3853
457.566	3937
457.577	4211
457.646	7597
457.647	7668
457.715	19341
457.727	21977
457.784	40509
457.808	53000
457.853	66014
457.889	72048
457.922	65270
457.969	41509
457.991	44003
458.050	61437
458.060	64724
458.129	111289
458.130	112532
458.198	97974
458.211	87684
458.267	43666
458.292	28247
458.336	20088
458.372	19049
458.405	29204
458.453	47706
458.474	62537
458.533	115306
458.543	119019
458.611	172508
458.614	173238
458.680	89787
458.694	68104
458.749	28976
458.775	18834
458.818	12029
458.855	9662
458.887	8142
458.936	6324
458.955	5811
459.016	5187
459.024	5180
459.093	5760
459.097	5729
459.162	4236
459.177	4164
459.230	4527
459.257	4638
459.299	4438
459.338	4440
459.368	4632
459.418	4622
459.437	4393
459.499	4446
459.505	4514
459.574	4483
459.579	4459
459.643	3712
459.659	3645
459.711	3618
459.740	3774
459.780	3687
459.820	3532
459.849	3779
459.900	4244
459.917	4166
459.981	3580
459.986	3567
460.054	3820
460.061	3864
460.123	3722
460.141	3593
460.191	3970
460.222	4475
460.260	4574
460.302	4153
460.328	3887
460.382	3868
460.397	4002
460.462	4206
460.465	4235
460.534	5617
460.543	5740
460.602	12657
460.623	15408
460.671	22441
460.703	28867
460.739	26353
460.783	19712
460.808	15880
460.864	5451
460.876	4855
460.944	3866
460.945	3846
461.013	3841
461.024	3709
461.081	3568
461.104	3726
461.150	3864
461.184	3853
461.218	4147
461.264	4684
461.286	4791
461.345	4687
461.355	4478
461.423	3244
461.425	3218
461.491	4098
461.505	4306
461.559	5026
461.585	5240
461.628	6849
461.665	8780
461.696	9236
461.745	9523
461.764	8486
461.825	4488
461.832	4460
461.901	4612
461.905	4642
461.969	4012
461.985	3752
462.037	3958
462.065	4226
462.105	4217
462.145	4533
462.173	5266
462.225	6039
462.241	6271
462.305	7395
462.310	7298
462.378	6031
462.385	5809
462.446	4908
462.465	4736
462.514	5014
462.545	5212
462.582	4882
462.625	4354
462.650	4224
462.705	4232
462.718	4314
462.785	4631
462.786	4640
462.854	4589
462.865	4683
462.922	5674
462.945	5968
462.990	5319
463.025	4681
463.058	4702
463.104	4771
463.126	4505
463.184	4093
463.194	4254
463.262	4964
463.264	5000
463.330	4857
463.344	4759
463.398	5305
463.424	5531
463.466	4947
463.504	4556
463.533	5015
463.583	5618
463.601	5536
463.663	5017
463.669	5005
463.737	5223
463.743	5237
463.805	6300
463.823	6569
463.873	8916
463.903	10374
463.940	10341
463.982	10384
464.008	9138
464.062	6110
464.076	5773
464.142	4009
464.144	4032
464.211	5065
464.221	5213
464.279	4237
464.301	3764
464.347	4385
464.381	4957
464.414	4991
464.461	4977
464.482	5325
464.540	6197
464.550	6036
464.617	4849
464.620	4805
464.685	5732
464.699	5883
464.753	5800
464.779	5787
464.820	6676
464.859	7505
464.888	6985
464.938	5932
464.956	6186
465.018	7315
465.023	7276
465.091	6289
465.098	6203
465.158	6555
465.177	6649
465.226	6592
465.257	6472
465.293	6658
465.336	7012
465.361	6959
465.416	6539
465.428	6731
465.495	7848
465.496	7877
465.563	10263
465.575	10679
465.631	12773
465.654	13637
465.698	9587
465.734	6074
465.765	6205
465.813	6455
465.833	6336
465.893	5941
465.900	5968
465.968	6180
465.972	6177
466.035	6170
466.052	6183
466.102	6371
466.131	6428
466.170	5942
466.210	5372
466.237	5757
466.290	6524
466.304	6441
466.369	6094
466.372	6127
466.439	6627
466.449	6703
466.506	6624
466.528	6542
466.573	7708
466.607	8609
466.641	11067
466.687	14469
466.708	15304
466.766	17471
466.775	16552
466.842	9393
466.845	9034
466.909	7676
466.925	7342
466.977	7296
467.004	7251
467.044	7267
467.083	7267
467.111	7709
467.163	8506
467.178	8814
467.242	10017
467.245	10004
467.312	9371
467.321	9271
467.379	9411
467.400	9435
467.446	9407
467.480	9353
467.559	9612
467.638	7735
467.717	9166
467.796	10010
467.875	10506
467.955	10566
468.034	13943
468.113	20489
468.192	28317
468.271	19662
468.350	25379
468.429	35994
468.508	38618
468.588	24015
468.667	15331
468.746	12446
468.825	11115
468.904	9607
468.983	10279
469.062	10105
469.141	12299
469.220	8323
469.299	8769
469.378	8142
469.456	10841
469.535	8672
469.614	10049
469.693	9188
469.772	11313
469.851	12807
469.930	12115
470.009	11865
470.088	14244
470.166	21739
470.245	40848
470.324	53086
470.403	34493
470.482	19400
470.560	14498
470.639	10610
470.718	11011
470.797	9356
470.875	9864
470.954	10668
471.033	10854
471.111	7671
471.190	8496
471.269	7753
471.347	8145
471.426	7507
471.505	9153
471.583	8346
471.662	9545
471.740	8306
471.819	8517
471.898	7762
471.976	8553
472.055	7490
472.133	8534
472.212	10628
472.290	9074
472.369	7755
472.447	8293
472.526	7378
472.604	8140
472.683	7087
472.761	8322
472.839	8341
472.918	9144
472.996	8717
473.075	10086
473.153	9279
473.231	8656
473.310	8877
473.388	9566
473.466	8039
473.545	8909
473.623	9773
473.701	9295
473.780	9201
473.858	7528
473.936	9921
474.014	8018
474.093	8959
474.171	10965
474.249	10732
474.327	9603
474.405	6702
474.484	8174
474.562	8467
474.640	9035
474.718	6815
474.796	7487
474.874	7543
474.952	6667
475.030	6827
475.108	7749
475.187	7485
475.265	7642
475.343	8899
475.421	10666
475.499	7528
475.577	9269
475.655	9006
475.733	11667
475.811	14823
475.889	15010
475.966	11374
476.044	8224
476.122	8315
476.200	9064
476.278	7020
476.356	7285
476.434	7803
476.512	8738
476.590	8956
476.667	9912
476.745	6498
476.823	8190
476.901	6270
476.979	7393
477.056	7804
477.134	6715
477.212	7086
477.290	7696
477.367	7078
477.445	7897
477.523	6684
477.601	7100
477.678	7157
477.756	8105
477.834	7801
477.911	6744
477.989	7338
478.066	6950
478.144	7165
478.222	7592
478.299	8905
478.377	10365
478.454	7120
478.532	7958
478.609	6670
478.687	7273
478.764	6898
478.842	6899
478.919	5977
478.997	7580
479.074	7001
479.152	8177
479.229	7718
479.307	8022
479.384	6512
479.461	7055
479.539	6659
479.616	7357
479.694	6939
479.771	7317
479.848	6391
479.926	8280
480.003	8713
480.080	8446
480.157	6626
480.235	7763
480.312	6883
480.389	7981
480.467	8186
480.544	10757
480.621	8652
480.698	9866
480.775	9378
480.853	8704
480.930	6678
481.007	8111
481.084	6769
481.161	9871
481.238	8567
481.315	7763
481.392	7712
481.470	8526
481.547	7102
481.624	7251
481.701	6958
481.778	7791
481.855	9098
481.932	11138
482.009	13127
482.086	12035
482.163	12107
482.240	14782
482.317	15755
482.393	13898
482.470	10769
482.547	10688
482.624	9252
482.701	10641
482.778	9833
482.855	9437
482.932	9354
483.009	9936
483.085	10841
483.162	12975
483.239	14201
483.316	14353
483.393	14604
483.469	11963
483.546	11029
483.623	10162
483.699	8434
483.776	8399
483.853	7929
483.930	10257
484.006	14292
484.083	22891
484.160	16813
484.236	22717
484.313	18202
484.389	16672
484.466	16997
484.543	18953
484.619	23971
484.696	26261
484.772	19484
484.849	16999
484.925	13555
485.002	14886
485.078	13821
485.155	13450
485.231	11248
485.308	11772
485.384	11831
485.461	13944
485.537	16075
485.614	18551
485.690	11623
485.766	11912
485.843	11582
485.919	13671
485.995	11959
486.072	11725
486.148	10646
486.224	10897
486.301	11467
486.377	12214
486.453	11501
486.530	12984
486.606	15842
486.682	15586
486.758	16898
486.835	18429
486.911	15234
486.987	21163
487.063	20811
487.139	23476
487.215	21109
487.292	20966
487.368	22495
487.444	28401
487.520	40341
487.596	55450
487.672	124675
487.748	410259
487.824	622743
487.900	215840
487.976	56628
488.052	30262
488.128	24110
488.204	18193
488.280	16320
488.356	16017
488.432	20314
488.508	25383
488.584	13748
488.660	13163
488.736	12430
488.812	11006
488.888	11618
488.964	14171
489.039	18263
489.115	25010
489.191	17523
489.267	11279
489.343	10334
489.418	10572
489.494	10627
489.570	9421
489.646	11117
489.722	10917
489.797	10932
489.873	13693
489.949	19052
490.024	16991
490.100	10397
490.176	11099
490.251	10433
490.327	12315
490.403	10129
490.478	9790
490.554	9865
490.629	10207
490.705	9291
490.781	10588
490.856	8862
490.932	10258
491.007	9758
491.083	9697
491.158	9540
491.234	11519
491.309	14939
491.385	14636
491.460	8785
491.536	11114
491.611	7619
491.686	9963
491.762	9302
491.837	13401
491.913	17950
491.988	22454
492.063	24768
492.139	13789
492.214	9908
492.289	8390
492.365	8275
492.440	8823
492.515	8345
492.590	9123
492.666	7408
492.741	10071
492.816	10884
492.891	8629
492.967	8866
493.042	9724
493.117	8020
493.192	9285
493.267	11521
493.342	27180
493.418	34246
493.493	11194
493.568	8327
493.643	8416
493.718	9143
493.793	9379
493.868	10182
493.943	8874
494.018	8568
494.093	8073
494.168	8939
494.243	7232
494.318	8577
494.393	8848
494.468	8315
494.543	9133
494.618	7681
494.693	9166
494.768	9255
494.842	8975
494.917	8219
494.992	9340
495.067	8195
495.142	7879
495.217	7677
495.292	8964
495.366	8983
495.441	9208
495.516	9710
495.591	11375
495.665	21841
495.740	41969
495.815	21549
495.890	10220
495.964	7396
496.039	11713
496.114	10609
496.188	10746
496.263	11041
496.338	9615
496.412	9316
496.487	10222
496.561	9157
496.636	10429
496.710	8226
496.785	9848
496.860	10041
496.934	9105
497.009	9728
497.083	9879
497.158	10248
497.232	11022
497.307	11099
497.381	13231
497.455	12258
497.530	11863
497.604	9535
497.679	10202
497.753	12241
497.827	12632
497.902	11742
497.976	15544
498.050	30100
498.125	110179
498.199	102678
498.273	16999
498.348	13392
498.422	13241
498.496	14238
498.570	15233
498.645	9966
498.719	8400
498.793	11045
498.867	14572
498.941	15730
499.016	44349
499.090	110484
499.164	41202
499.238	10622
499.312	10914
499.386	11444
499.460	13109
499.534	12886
499.609	16995
499.683	15422
499.757	12001
499.831	20936
499.905	72489
499.979	64545
500.053	13573
500.127	12149
500.201	11763
500.275	11167
500.349	11154
500.422	11164
500.496	14984
500.570	21622
500.644	47982
500.718	76270
500.792	20404
500.866	8671
500.940	9702
501.013	8588
501.087	8559
501.161	10772
501.235	11963
501.309	24827
501.382	59517
501.456	49957
501.530	14277
501.603	19360
501.677	10349
501.751	6024
501.825	9500
501.898	11146
501.972	24849
502.046	16271
502.119	8065
502.193	13042
502.266	25210
502.340	14174
502.413	14162
502.487	22875
502.561	13838
502.634	7772
502.708	8592
502.781	6224
502.855	7863
502.928	5412
503.002	7901
503.075	5818
503.149	6870
503.222	6515
503.295	6940
503.369	8751
503.442	10190
503.516	21165
503.589	45027
503.662	32709
503.736	19273
503.809	33705
503.882	35617
503.956	54173
504.029	86438
504.102	219475
504.175	335444
504.249	128994
504.322	44995
504.395	23938
504.468	16911
504.542	11622
504.615	9499
504.688	8797
504.761	7008
504.834	8998
504.907	8202
504.980	8773
505.053	6457
505.127	4781
505.200	9850
505.273	7101
505.346	6244
505.419	4086
505.492	6672
505.565	4928
505.638	5323
505.711	4548
505.784	4829
505.857	4564
505.930	6536
506.003	3800
506.076	7321
506.149	5317
506.221	5409
506.294	7676
506.367	9380
506.440	30097
506.513	16921
506.586	6585
506.659	5257
506.731	4917
506.804	4955
506.877	5242
506.950	5125
507.022	5922
507.095	4561
507.168	6166
507.241	5771
507.313	3824
507.386	4451
507.459	5333
507.531	4656
507.604	3575
507.677	5017
507.749	3413
507.822	6833
507.894	6785
507.967	9591
508.040	6230
508.112	6867
508.185	6113
508.257	4100
508.330	7030
508.402	5990
508.475	6293
508.547	6610
508.620	6187
508.692	7685
508.765	6247
508.837	4897
508.909	5303
508.982	4829
509.054	5292
509.127	5784
509.199	5850
509.271	4908
509.344	4173
509.416	5808
509.488	5064
509.560	6480
509.633	4943
509.705	6350
509.777	5480
509.849	6918
509.922	5251
509.994	6031
510.066	5891
510.138	4828
510.210	9901
510.283	8044
510.355	7989
510.427	7140
510.499	6236
510.571	7058
510.643	5143
510.715	7827
510.787	5095
510.859	7684
510.931	6411
511.003	7792
511.076	7652
511.148	5991
511.219	5521
511.291	8926
511.363	8400
511.435	7081
511.507	4965
511.579	6845
511.651	6701
511.723	6305
511.795	5450
511.867	6015
511.939	6667
512.010	9043
512.082	7982
512.154	4679
512.226	4913
512.298	8649
512.369	8521
512.441	8807
512.513	7810
512.585	6083
512.656	7554
512.728	6596
512.800	5009
512.871	7560
512.943	6415
513.015	5242
513.086	6295
513.158	6879
513.230	5464
513.301	7468
513.373	8943
513.444	6742
513.516	6096
513.588	5801
513.659	6433
513.731	6584
513.802	5220
513.874	10587
513.945	11736
514.016	6532
514.088	6019
514.159	6008
514.231	7163
514.302	8410
514.374	8934
514.445	6862
514.516	11909
514.588	7485
514.659	7349
514.730	8676
514.802	8420
514.873	6007
514.944	8394
515.016	8134
515.087	6242
515.158	8824
515.229	11005
515.301	7124
515.372	7589
515.443	5580
515.514	6710
515.585	6386
515.656	8296
515.728	9024
515.799	7301
515.870	8535
515.941	10222
516.012	8787
516.083	12511
516.154	13195
516.225	16109
516.296	22031
516.367	23691
516.438	30838
516.509	38472
516.580	59102
516.651	213423
516.722	740174
516.793	320157
516.864	57890
516.935	50699
517.006	61043
517.077	78112
517.148	170437
517.219	782964
517.289	1126328
517.360	235651
517.431	58371
517.502	28406
517.573	24384
517.643	21612
517.714	23087
517.785	24668
517.856	28468
517.926	38734
517.997	50439
518.068	64383
518.138	89843
518.209	142059
518.280	509062
518.350	1409216
518.421	745981
518.492	127559
518.562	70466
518.633	65676
518.703	79922
518.774	162997
518.845	426664
518.915	410748
518.986	119107
519.056	49102
519.127	35349
519.197	31153
519.268	45249
519.338	31046
519.408	13982
519.479	13111
519.549	11743
519.620	10937
519.690	9373
519.760	8356
519.831	9585
519.901	7816
519.971	9266
520.042	6001
520.112	6805
520.182	8449
520.253	8411
520.323	6967
520.393	8774
520.463	10980
520.534	6530
520.604	14626
520.674	9671
520.744	8358
520.814	13295
520.885	13439
520.955	14415
521.025	39718
521.095	16889
521.165	8577
521.235	6774
521.305	5275
521.375	6926
521.445	7663
521.515	6204
521.585	9016
521.655	5815
521.725	7761
521.795	7828
521.865	3816
521.935	9985
522.005	5947
522.075	5867
522.145	7048
522.215	5119
522.285	7140
522.355	9741
522.424	13018
522.494	11843
522.564	7699
522.634	10606
522.704	21586
522.774	10346
522.843	7594
522.913	6365
522.983	7391
523.053	6543
523.122	7326
523.192	7872
523.262	12491
523.331	12698
523.401	7723
523.471	7134
523.540	6561
523.610	6273
523.680	6597
523.749	6500
523.819	7935
523.888	7165
523.958	6269
524.027	6383
524.097	5988
524.166	7410
524.236	5307
524.305	9463
524.375	6212
524.444	6029
524.514	9165
524.583	7567
524.653	6107
524.722	8053
524.791	6368
524.861	9506
524.930	6273
524.999	7263
525.069	8513
525.138	8160
525.207	7639
525.277	8609
525.346	9142
525.415	10800
525.484	11269
525.554	12664
525.623	16473
525.692	20823
525.761	25644
525.830	33647
525.900	45754
525.969	70766
526.038	130160
526.107	273549
526.176	803784
526.245	648088
526.314	186401
526.383	388955
526.452	536196
526.522	751279
526.591	711551
526.660	127619
526.729	71678
526.797	75410
526.867	103718
526.935	314521
527.004	1102892
527.073	732910
527.142	100527
527.211	39408
527.280	25636
527.349	18970
527.418	12977
527.487	13056
527.555	9359
527.624	9171
527.693	7804
527.762	9948
527.831	7816
527.899	8897
527.968	6830
528.037	6452
528.106	7450
528.174	8889
528.243	8395
528.312	9693
528.380	9731
528.449	6223
528.518	7404
528.586	4432
528.655	6874
528.723	6140
528.792	5946
528.861	5529
528.929	4705
528.998	7662
529.066	6335
529.135	8264
529.203	7842
529.272	9199
529.340	11541
529.409	13587
529.477	9306
529.545	10348
529.614	12715
529.682	11571
529.751	12733
529.819	16635
529.887	15800
529.956	13400
530.024	13399
530.092	11843
530.161	12833
530.229	13928
530.297	12662
530.365	13601
530.434	15081
530.502	14328
530.570	13654
530.638	10369
530.707	11878
530.775	13310
530.843	11045
530.911	13491
530.979	12251
531.047	13669
531.115	13590
531.183	13621
531.252	12649
531.320	12132
531.388	11205
531.456	13727
531.524	12042
531.592	14207
531.660	17203
531.728	13953
531.796	12845
531.864	14150
531.932	14345
532.000	13246
532.067	14489
532.135	16318
532.203	17928
532.271	17280
532.339	19896
532.407	22577
532.475	19613
532.542	16812
532.610	16467
532.678	16952
532.746	28994
532.814	50626
532.881	24478
532.949	16960
533.017	15418
533.084	15822
533.152	13802
533.220	16001
533.287	13902
533.355	16109
533.423	16196
533.490	16989
533.558	15531
533.625	15915
533.693	15314
533.761	15557
533.828	14896
533.896	14709
533.963	19799
534.031	20968
534.098	22482
534.166	21905
534.233	19404
534.300	22965
534.368	22254
534.435	21446
534.503	23354
534.570	25656
534.637	29352
534.705	35027
534.772	39014
534.840	73303
534.907	345395
534.974	446293
535.041	61312
535.109	27535
535.176	18873
535.243	19938
535.310	17659
535.378	16817
535.445	17632
535.512	17624
535.579	16411
535.646	15590
535.714	16794
535.781	18511
535.848	18543
535.915	19034
535.982	17885
536.049	18196
536.116	17988
536.183	16209
536.250	14840
536.317	15169
536.384	15664
536.451	17993
536.518	16941
536.585	15366
536.652	18770
536.719	18694
536.786	14484
536.853	15720
536.920	17204
536.987	18897
537.053	16424
537.120	30468
537.187	29056
537.254	17746
537.321	16191
537.388	18524
537.454	16252
537.521	16917
537.588	15146
537.654	16780
537.721	17178
537.788	18095
537.855	15345
537.921	16593
537.988	15620
538.055	16204
538.121	13927
538.188	14985
538.254	14714
538.321	17516
538.388	16800
538.454	18295
538.521	16670
538.587	16920
538.654	16245
538.720	16206
538.787	16805
538.853	15968
538.920	15388
538.986	14962
539.053	14212
539.119	15392
539.185	14745
539.252	17087
539.318	16723
539.385	19853
539.451	15483
539.517	17279
539.583	16730
539.650	19413
539.716	25536
539.782	16983
539.849	14461
539.915	15505
539.981	15644
540.047	15622
540.114	15654
540.180	16656
540.246	16515
540.312	18161
540.378	19834
540.444	19699
540.510	19380
540.576	28416
540.643	18259
540.709	15107
540.775	15085
540.841	15598
540.907	16034
540.973	18344
541.039	16313
541.105	17542
541.171	16355
541.237	16359
541.303	18140
541.369	18051
541.435	17483
541.500	18303
541.566	13573
541.632	15092
541.698	14515
541.764	16709
541.830	15052
541.896	15564
541.961	15245
542.027	14568
542.093	16338
542.159	17997
542.224	15341
542.290	18339
542.356	17599
542.421	18711
542.487	16413
542.553	15668
542.618	14637
542.684	14716
542.750	14396
542.815	16420
542.881	16118
542.947	26153
543.012	24090
543.078	15095
543.143	14142
543.209	15276
543.274	14580
543.340	15907
543.405	17856
543.471	20948
543.536	16712
543.602	16012
543.667	14663
543.732	17109
543.798	14414
543.863	17544
543.928	14792
543.994	15805
544.059	16464
544.124	17161
544.190	16034
544.255	17425
544.320	17102
544.386	16829
544.451	18552
544.516	18525
544.581	18371
544.646	23864
544.712	28805
544.777	19603
544.842	18074
544.907	18580
544.972	18341
545.037	19418
545.102	19081
545.168	19405
545.233	20776
545.298	20753
545.363	19843
545.428	22213
545.493	23246
545.558	28311
545.623	22937
545.688	21489
545.753	21311
545.818	22449
545.883	24031
545.947	23865
546.012	25272
546.077	24998
546.142	27294
546.207	27836
546.272	30226
546.337	30587
546.401	32298
546.466	33638
546.531	32641
546.596	36756
546.661	37424
546.725	40110
546.790	41808
546.855	46899
546.919	48747
546.984	55918
547.049	60044
547.113	68363
547.178	74834
547.243	84682
547.307	99592
547.372	110114
547.436	110511
547.501	116463
547.565	125301
547.630	115908
547.695	109204
547.759	111579
547.823	111326
547.888	113268
547.952	117834
548.017	121958
548.081	124614
548.146	123103
548.210	126772
548.274	137311
548.339	135469
548.403	121688
548.468	113503
548.532	113502
548.596	115338
548.660	116462
548.725	127839
548.789	138344
548.853	134461
548.917	128513
548.982	124609
549.046	112061
549.110	102015
549.174	104396
549.238	120916
549.303	132410
549.367	136973
549.431	132144
549.495	122380
549.559	122361
549.623	141934
549.687	157349
549.751	152330
549.815	182496
549.879	184472
549.943	175457
550.007	185472
550.071	184155
550.135	164535
550.199	155910
550.263	153979
550.327	145394
550.391	148629
550.455	166626
550.519	174268
550.582	184127
550.646	212077
550.710	213569
550.774	210137
550.838	216128
550.901	218788
550.965	233702
551.029	245954
551.093	264011
551.156	289933
551.220	337850
551.284	381023
551.347	291259
551.411	241394
551.475	227139
551.538	229492
551.602	212428
551.666	198390
551.729	189277
551.793	182599
551.856	179757
551.920	176840
551.983	176754
552.047	172769
552.110	176815
552.174	174850
552.237	183921
552.301	167333
552.364	161621
552.428	158898
552.491	163145
552.554	166853
552.618	167266
552.681	173244
552.745	170736
552.808	208838
552.871	252770
552.934	203227
552.998	176240
553.061	165605
553.124	157575
553.187	153305
553.251	160765
553.314	159443
553.377	161849
553.440	171856
553.503	186585
553.567	193448
553.630	172546
553.693	170166
553.756	171077
553.819	168099
553.882	161574
553.945	160170
554.008	160920
554.071	163975
554.134	166463
554.197	153944
554.260	150134
554.323	152585
554.386	155040
554.449	163659
554.512	162302
554.575	154705
554.638	152712
554.701	151806
554.764	151626
554.827	144755
554.889	140396
554.952	131347
555.015	131228
555.078	131147
555.141	134657
555.203	130385
555.266	130308
555.329	128073
555.391	125167
555.454	123583
555.517	119893
555.580	114098
555.642	110679
555.705	108118
555.768	107396
555.830	105037
555.893	99711
555.955	97599
556.018	95183
556.080	94898
556.143	99529
556.206	97443
556.268	95448
556.330	93471
556.393	88699
556.455	87609
556.518	87478
556.580	84193
556.643	80475
556.705	78594
556.767	77402
556.830	76213
556.892	75250
556.955	74765
557.017	71918
557.079	70511
557.142	69770
557.204	69722
557.266	73723
557.328	66209
557.391	61630
557.453	60843
557.515	60386
557.577	60366
557.639	63314
557.701	60922
557.764	63410
557.826	64707
557.888	70793
557.950	72424
558.012	78666
558.074	97938
558.136	226877
558.198	548048
558.260	202450
558.322	77607
558.384	77303
558.446	79815
558.508	88331
558.570	100942
558.632	118826
558.694	147149
558.756	231636
558.818	655218
558.880	1356075
558.942	591682
559.003	591735
559.065	287178
559.127	110932
559.189	102549
559.251	107371
559.312	148666
559.374	355283
559.436	1052763
559.498	552715
559.559	131220
559.621	104838
559.683	110672
559.744	177387
559.806	570981
559.868	833154
559.929	192209
559.991	113557
560.052	179842
560.114	521850
560.176	331208
560.237	297764
560.299	483708
560.360	109147
560.422	43873
560.483	35068
560.545	31750
560.606	30695
560.667	26924
560.729	27106
560.790	24446
560.852	24797
560.913	24063
560.974	23567
561.036	23285
561.097	23557
561.158	23253
561.220	22790
561.281	21372
561.342	21312
561.403	21176
561.465	21161
561.526	23823
561.587	26548
561.648	19658
561.709	19703
561.771	18647
561.832	19208
561.893	18099
561.954	18970
562.015	17706
562.076	18072
562.137	17473
562.198	17937
562.259	17439
562.320	18019
562.381	18088
562.442	19300
562.503	17958
562.564	17353
562.625	16609
562.686	17085
562.747	16584
562.808	16481
562.869	15511
562.930	17540
562.991	15223
563.051	15730
563.112	15449
563.173	15722
563.234	14242
563.294	14551
563.355	14380
563.416	15519
563.477	14445
563.537	14501
563.598	14137
563.659	14836
563.720	13581
563.780	14541
563.841	14019
563.901	13955
563.962	14497
564.023	14139
564.083	14125
564.144	14462
564.204	13780
564.265	13806
564.325	13562
564.386	15647
564.446	15363
564.507	13233
564.567	12808
564.628	12896
564.688	13176
564.749	12919
564.809	13910
564.869	14391
564.930	13242
564.990	12289
565.050	12656
565.111	12648
565.171	12719
565.231	12802
565.292	13512
565.352	11998
565.412	11866
565.472	12283
565.532	12135
565.593	11681
565.653	11134
565.713	12775
565.773	12757
565.833	12771
565.893	14331
565.953	12919
566.013	11793
566.074	12753
566.134	12286
566.194	13311
566.254	13985
566.314	12439
566.374	11647
566.434	12886
566.494	11318
566.554	11320
566.614	11138
566.673	13033
566.733	12598
566.793	12013
566.853	12475
566.913	12705
566.973	11163
567.033	12642
567.092	12302
567.152	12255
567.212	12892
567.272	12338
567.331	13666
567.391	13496
567.451	13215
567.511	14678
567.570	13774
567.630	13209
567.690	12352
567.749	12829
567.809	11527
567.868	12373
567.928	12808
567.988	13111
568.047	12854
568.107	12193
568.166	13412
568.226	12669
568.285	13412
568.345	13649
568.404	13459
568.464	12520
568.523	12520
568.582	13006
568.642	12835
568.701	12514
568.761	12581
568.820	14084
568.879	12574
568.939	14082
568.998	13692
569.057	12845
569.116	12148
569.176	12875
569.235	12089
569.294	12278
569.353	11221
569.413	11827
569.472	10985
569.531	11485
569.590	10557
569.649	11281
569.708	10122
569.767	12908
569.827	12187
569.886	11521
569.945	11521
570.004	10906
570.063	12189
570.122	13221
570.181	12284
570.240	12917
570.299	12820
570.358	12739
570.417	11548
570.475	12281
570.534	12756
570.593	11992
570.652	12694
570.711	13504
570.770	12449
570.829	12096
570.887	12784
570.946	13780
571.005	12865
571.064	14791
571.122	16096
571.181	15817
571.240	12827
571.299	12939
571.357	11986
571.416	12298
571.475	11388
571.533	13096
571.592	12885
571.650	13235
571.709	13629
571.768	16321
571.826	15797
571.885	14814
571.943	12571
572.002	13126
572.060	11823
572.119	11810
572.177	11058
572.236	11923
572.294	12601
572.352	13631
572.411	13150
572.469	12004
572.528	11304
572.586	11405
572.644	11219
572.703	11581
572.761	10627
572.819	10358
572.877	10683
572.936	10667
572.994	9447
573.052	10606
573.110	10710
573.169	12101
573.227	10996
573.285	10983
573.343	11153
573.401	11921
573.459	10278
573.517	10854
573.576	11379
573.634	12063
573.692	11215
573.750	12357
573.808	10903
573.866	11177
573.924	10609
573.982	11977
574.040	10424
574.098	11183
574.155	9984
574.213	11510
574.271	10811
574.329	13291
574.387	10135
574.445	10448
574.503	9800
574.560	9541
574.618	10872
574.676	10659
574.734	8925
574.792	9501
574.849	8998
574.907	8435
574.965	7801
575.022	7946
575.080	8382
575.138	8394
575.195	8150
575.253	8106
575.311	8075
575.368	9102
575.426	7355
575.483	7978
575.541	8562
575.598	8073
575.656	8523
575.713	8733
575.771	9021
575.828	9058
575.886	8258
575.943	8461
576.001	7928
576.058	7923
576.115	6729
576.173	7932
576.230	8752
576.287	8960
576.345	8661
576.402	9031
576.459	7838
576.517	8446
576.574	7377
576.631	7576
576.688	7473
576.746	6863
576.803	7830
576.860	6450
576.917	6873
576.974	8463
577.031	6830
577.089	7275
577.146	6825
577.203	6902
577.260	7404
577.317	7855
577.374	7716
577.431	6822
577.488	7805
577.545	6825
577.602	7049
577.659	7309
577.716	7624
577.773	7589
577.830	6730
577.886	7358
577.943	6819
578.000	7196
578.057	6886
578.114	9029
578.171	9046
578.227	10909
578.284	8600
578.341	8322
578.398	7492
578.454	7672
578.511	7221
578.568	8610
578.625	6554
578.681	7650
578.738	6502
578.794	7273
578.851	7545
578.908	6926
578.964	5915
579.021	7116
579.077	6781
579.134	7386
579.190	6588
579.247	7080
579.303	6842
579.360	7086
579.416	6562
579.473	6971
579.529	6375
579.586	6776
579.642	7191
579.698	7860
579.755	7805
579.811	8592
579.867	8126
579.924	8453
579.980	8680
580.036	9411
580.093	9637
580.149	13840
580.205	14870
580.261	11225
580.317	9547
580.374	9129
580.430	8478
580.486	9175
580.542	7918
580.598	8806
580.619	8641
580.654	8362
580.692	8430
580.710	8483
580.765	8632
580.767	8644
580.823	9363
580.838	9078
580.879	8343
580.911	9210
580.935	9873
580.984	8285
580.991	8075
581.047	9010
581.057	9017
581.103	9113
581.130	9459
581.159	9815
581.203	9539
581.215	9476
581.270	9572
581.276	9409
581.326	7993
581.349	8577
581.382	9419
581.422	8427
581.438	8027
581.494	7866
581.494	7857
581.550	7468
581.567	7546
581.606	7742
581.640	8125
581.661	8351
581.713	9597
581.717	9705
581.773	8263
581.786	8440
581.829	8948
581.859	8550
581.885	8280
581.932	9113
581.940	9265
581.996	7741
582.004	7919
582.052	8901
582.077	8614
582.107	8280
582.150	8769
582.163	8911
582.219	8166
582.223	8185
582.274	8573
582.296	8208
582.330	7575
582.368	8720
582.386	9269
582.441	8652
582.441	8652
582.497	9286
582.514	9137
582.552	9116
582.587	9575
582.608	9715
582.659	9032
582.663	9002
582.719	8679
582.732	8662
582.774	8373
582.805	8918
582.830	9492
582.877	9546
582.885	9555
582.941	10118
582.950	10184
582.996	10470
583.023	11355
583.052	12444
583.095	12214
583.107	12107
583.162	13227
583.168	13162
583.218	12552
583.240	12246
583.273	11619
583.313	10125
583.328	9663
583.384	9671
583.385	9653
583.439	8859
583.458	9196
583.494	10016
583.531	9558
583.549	9306
583.603	9014
583.605	8998
583.660	8689
583.676	9006
583.715	10008
583.748	9528
583.770	9138
583.820	9810
583.825	9874
583.881	9195
583.893	9196
583.936	9129
583.965	8482
583.991	8089
584.038	9181
584.046	9343
584.101	9175
584.110	9265
584.156	9703
584.183	9685
584.211	9624
584.255	10364
584.266	10621
584.321	9592
584.328	9643
584.376	9695
584.400	9742
584.431	9933
584.472	10010
584.486	10011
584.541	10551
584.545	10624
584.596	11739
584.617	11324
584.651	10910
584.689	11370
584.706	11417
584.761	11883
584.762	11888
584.816	12445
584.834	12619
584.871	12967
584.906	13350
584.926	13600
584.978	14160
584.980	14182
585.035	15643
585.051	16081
585.090	17285
585.123	18901
585.145	20142
585.195	22383
585.200	22642
585.254	27620
585.267	28631
585.309	31893
585.340	35406
585.364	38487
585.412	44037
585.419	44923
585.473	55096
585.484	57813
585.528	74538
585.556	92683
585.583	126724
585.628	214188
585.637	244197
585.692	520693
585.700	565779
585.747	714536
585.772	595885
585.801	372494
585.845	134644
585.856	102417
585.910	51547
585.917	47015
585.965	34340
585.989	29878
586.019	26376
586.061	23394
586.074	22650
586.128	19990
586.133	19832
586.183	18729
586.205	18479
586.237	17926
586.277	17093
586.292	16958
586.346	16869
586.349	16831
586.401	16197
586.421	16456
586.455	16766
586.493	16783
586.509	16973
586.564	17096
586.565	17129
586.618	19587
586.637	20612
586.672	22855
586.709	25067
586.727	25830
586.781	27643
586.781	27636
586.835	21118
586.853	19779
586.889	18119
586.925	16691
586.944	16180
586.996	15606
586.998	15602
587.052	15019
587.068	14976
587.106	15309
587.140	15544
587.161	15577
587.212	15459
587.215	15457
587.269	15794
587.284	15843
587.323	15894
587.356	15850
587.377	15989
587.427	17159
587.431	17253
587.485	17245
587.499	17423
587.539	17607
587.571	17617
587.593	17883
587.643	18883
587.648	18998
587.702	19639
587.715	19855
587.755	19921
587.786	19742
587.810	19560
587.858	19539
587.864	19630
587.917	20622
587.930	20662
587.971	20408
588.001	20263
588.025	20060
588.073	20451
588.079	20631
588.133	20989
588.145	21336
588.187	22051
588.217	22033
588.241	22219
588.288	23348
588.295	23566
588.348	25279
588.360	25567
588.402	26111
588.431	26411
588.456	27022
588.503	29031
588.510	29407
588.564	31929
588.575	32573
588.617	35302
588.646	37120
588.671	39165
588.718	43890
588.725	45258
588.778	57682
588.789	61068
588.832	96732
588.861	126706
588.886	185963
588.932	318348
588.939	329370
588.993	396739
589.004	391577
589.047	209696
589.075	105222
589.100	77819
589.147	46876
589.154	45744
589.207	39197
589.218	38112
589.261	39185
589.290	40191
589.314	41333
589.361	44709
589.368	46793
589.421	66811
589.433	72114
589.475	131131
589.504	179463
589.528	236083
589.576	352329
589.582	341085
589.635	168633
589.647	134690
589.689	71484
589.718	36950
589.742	33576
589.790	28198
589.795	27931
589.849	25842
589.861	25448
589.902	24961
589.932	24546
589.955	23923
590.004	22433
590.009	22398
590.062	22268
590.075	22183
590.115	21743
590.146	21412
590.168	21239
590.218	20837
590.222	20890
590.275	21628
590.289	21783
590.328	22318
590.360	22601
590.381	22682
590.431	22996
590.435	23023
590.488	22917
590.503	22964
590.541	23031
590.574	22968
590.594	23248
590.645	23961
590.647	24016
590.700	25030
590.716	25280
590.753	25390
590.787	25459
590.806	25822
590.859	26870
590.859	26890
590.912	26694
590.930	26653
590.965	26959
591.001	27148
591.018	27048
591.071	26745
591.072	26722
591.124	26399
591.143	26288
591.177	26828
591.214	27314
591.230	27459
591.283	28076
591.285	28065
591.336	27190
591.356	26928
591.389	27005
591.427	26843
591.442	26755
591.495	26437
591.498	26395
591.547	26996
591.569	27283
591.600	27469
591.640	27640
591.653	27827
591.706	28422
591.711	28472
591.759	28928
591.782	29156
591.811	29805
591.853	30586
591.864	30600
591.917	30658
591.924	30612
591.969	30438
591.995	30382
592.022	30783
592.066	31361
592.075	31558
592.127	32579
592.137	32747
592.180	32913
592.208	32959
592.233	33532
592.279	34537
592.285	34531
592.338	34265
592.350	34162
592.390	33841
592.421	33594
592.443	34352
592.491	35940
592.495	36013
592.548	36583
592.562	36711
592.600	35684
592.633	34756
592.653	35201
592.704	36114
592.705	36345
592.775	37658
592.846	39229
592.916	38547
592.987	38596
593.058	39835
593.128	38709
593.199	40373
593.270	40284
593.341	40222
593.411	41781
593.482	44392
593.553	44801
593.623	44652
593.694	46473
593.764	46731
593.835	46386
593.906	47154
593.976	47449
594.047	48595
594.117	52350
594.188	52916
594.258	52684
594.329	52995
594.399	53866
594.470	55898
594.540	58268
594.611	58445
594.681	58416
594.751	57768
594.822	60721
594.892	62728
594.963	64216
595.033	67353
595.103	67715
595.174	67468
595.244	71405
595.314	72791
595.384	73208
595.455	75724
595.525	79110
595.595	81428
595.665	80790
595.736	79558
595.806	81077
595.876	82326
595.946	82040
596.016	86351
596.087	88335
596.157	88976
596.227	90058
596.297	94671
596.367	101496
596.437	107807
596.507	106300
596.577	106037
596.647	109915
596.717	113935
596.787	116844
596.857	117197
596.927	117842
596.997	118178
597.067	119027
597.137	122271
597.207	121950
597.277	122435
597.347	117899
597.417	114199
597.487	112358
597.557	117825
597.626	120455
597.696	121181
597.766	119625
597.836	114075
597.906	108392
597.975	106260
598.045	108809
598.115	114840
598.185	121542
598.254	138132
598.324	147597
598.394	149727
598.464	144933
598.533	143091
598.603	133514
598.672	129488
598.742	132038
598.812	133331
598.881	138382
598.951	136888
599.020	139169
599.090	145057
599.159	145344
599.229	139530
599.299	137178
599.368	140991
599.437	138867
599.507	126934
599.576	123486
599.646	123243
599.715	121210
599.785	120578
599.854	116411
599.924	115032
599.993	113765
600.062	118099
600.132	119883
600.201	128836
600.270	148477
600.340	155978
600.409	154112
600.478	152597
600.547	156480
600.617	140496
600.686	114068
600.755	104530
600.824	100445
600.894	99992
600.963	100041
601.032	99745
601.101	95037
601.170	92381
601.239	89168
601.308	89991
601.378	91078
601.447	91349
601.516	90863
601.585	94589
601.654	95729
601.723	95902
601.792	99184
601.861	101928
601.930	105078
601.999	107633
602.068	107146
602.137	108193
602.206	110091
602.275	112101
602.343	113995
602.412	113577
602.481	114063
602.550	115511
602.619	118573
602.688	119715
602.756	121703
602.825	122251
602.894	124895
602.963	126362
603.032	130132
603.100	129042
603.169	130168
603.238	130010
603.307	130959
603.375	131818
603.444	135356
603.513	133842
603.581	135318
603.650	137824
603.719	132820
603.787	134362
603.856	139856
603.924	142981
603.993	146300
604.061	152071
604.130	158082
604.198	162619
604.267	165510
604.335	168417
604.404	169314
604.472	170190
604.541	172845
604.609	173828
604.678	175830
604.746	178939
604.815	185185
604.883	183141
604.951	184686
605.020	190134
605.088	188800
605.156	191101
605.225	192792
605.293	193301
605.361	193416
605.429	197830
605.498	201784
605.566	205156
605.634	214517
605.702	221310
605.771	227463
605.839	228082
605.907	220909
605.975	215255
606.043	209974
606.111	211181
606.180	211598
606.248	208139
606.316	204443
606.384	205298
606.452	201115
606.520	204782
606.588	212649
606.656	211752
606.724	206638
606.792	193550
606.860	175911
606.928	160385
606.996	154289
607.064	151243
607.132	156661
607.200	166193
607.267	170741
607.335	175542
607.403	178271
607.471	171891
607.539	166742
607.607	167981
607.674	147105
607.742	147490
607.810	147226
607.878	145701
607.946	151400
608.013	158180
608.081	159921
608.149	161122
608.216	167248
608.284	173024
608.352	170483
608.419	169674
608.487	167633
608.555	164245
608.622	171838
608.690	181963
608.757	200754
608.825	202152
608.893	194916
608.960	183711
609.028	177456
609.095	176509
609.163	176838
609.230	155621
609.298	143913
609.365	152961
609.432	168276
609.500	181909
609.567	207196
609.635	236415
609.702	246766
609.769	232190
609.837	178577
609.904	159127
609.971	168799
610.039	189629
610.106	248920
610.173	459021
610.241	951163
610.308	504975
610.375	212347
610.442	175678
610.509	164170
610.577	164700
610.644	166461
610.711	173782
610.778	176144
610.845	184308
610.912	195577
610.980	203545
611.047	202681
611.114	197442
611.181	192325
611.248	189995
611.315	204540
611.382	208340
611.449	217723
611.516	218845
611.583	216445
611.650	217075
611.717	220750
611.784	229462
611.851	238410
611.918	254348
611.984	298953
612.051	412902
612.118	747217
612.185	1470821
612.252	940364
612.319	357030
612.386	295795
612.452	264672
612.519	247821
612.586	244268
612.653	249434
612.719	257311
612.786	244814
612.853	226564
612.919	221912
612.986	225790
613.053	211689
613.120	197545
613.186	192523
613.253	194230
613.319	193331
613.386	196829
613.453	200691
613.519	199369
613.586	197179
613.652	201755
613.719	195598
613.785	199404
613.852	202496
613.918	198603
613.985	203883
614.051	212820
614.118	213270
614.184	204465
614.250	201654
614.317	203257
614.383	203215
614.449	204127
614.516	203195
614.582	205338
614.648	199567
614.715	199244
614.781	193208
614.847	196139
614.914	193481
614.980	188033
615.046	188366
615.112	195239
615.179	195839
615.245	198658
615.311	193567
615.377	199528
615.443	201699
615.509	202713
615.575	212673
615.642	208911
615.708	214926
615.774	227460
615.840	243176
615.906	262628
615.972	319010
616.038	460770
616.104	877168
616.170	1607578
616.236	1285281
616.302	497011
616.368	385967
616.434	283404
616.500	260747
616.565	293309
616.631	362048
616.697	295605
616.763	310914
616.829	472046
616.895	801451
616.961	717625
617.026	323983
617.092	231437
617.158	214623
617.224	206898
617.289	188595
617.355	180217
617.421	178836
617.487	177697
617.552	169568
617.618	166785
617.684	166550
617.749	169152
617.815	159977
617.880	157017
617.946	158336
618.012	162325
618.077	163036
618.143	155689
618.208	157249
618.274	169521
618.339	169386
618.405	140128
618.470	140071
618.536	139847
618.601	139362
618.667	125958
618.732	120842
618.798	119027
618.863	119970
618.928	118427
618.994	122827
619.059	119464
619.124	122421
619.190	119323
619.255	118490
619.320	119018
619.386	120552
619.451	116123
619.516	114353
619.581	116498
619.647	119290
619.712	119120
619.777	114491
619.842	114094
619.907	116986
619.972	120282
620.038	118568
620.103	115464
620.168	116327
620.233	117582
620.298	117064
620.363	119792
620.428	122216
620.493	125319
620.558	127854
620.623	128713
620.688	128242
620.753	126944
620.818	129999
620.883	129362
620.948	129099
621.013	127731
621.078	125097
621.143	125010
621.207	128963
621.272	125529
621.337	121976
621.402	120492
621.467	119826
621.532	119213
621.596	119517
621.661	115789
621.726	114738
621.791	116946
621.855	117084
621.920	115710
621.985	118874
622.049	121100
622.114	120167
622.179	120865
622.243	125652
622.308	128085
622.373	134971
622.437	130247
622.502	124051
622.566	122284
622.631	119840
622.695	124563
622.760	122054
622.824	123320
622.889	122089
622.953	123828
623.018	132841
623.082	133952
623.147	130647
623.211	127694
623.276	126887
623.340	121153
623.404	118504
623.469	118015
623.533	120023
623.597	116138
623.662	117892
623.726	107055
623.790	102104
623.854	97438
623.919	100588
623.983	102532
624.047	103207
624.111	105323
624.176	106748
624.240	107403
624.304	112334
624.368	107883
624.432	106721
624.496	110034
624.560	115513
624.625	116014
624.689	115819
624.753	121445
624.817	114958
624.881	110897
624.945	101380
625.009	97899
625.073	100811
625.137	102695
625.201	108730
625.265	107781
625.329	102331
625.393	103825
625.456	105397
625.520	108920
625.584	109898
625.648	114381
625.712	117737
625.776	118270
625.839	113204
625.903	92675
625.967	87020
626.031	95334
626.095	112219
626.158	100365
626.222	77210
626.286	74139
626.349	70645
626.413	64618
626.477	66446
626.540	66800
626.604	65569
626.668	66119
626.731	63304
626.795	64350
626.858	64718
626.922	62584
626.986	61715
627.049	62267
627.113	66251
627.176	62709
627.240	62051
627.303	62001
627.366	60814
627.430	61913
627.493	61554
627.557	59304
627.620	62150
627.684	63895
627.747	64826
627.810	58903
627.874	53213
627.937	51676
628.000	54707
628.064	51818
628.127	46046
628.190	47134
628.253	45221
628.317	42583
628.380	41837
628.443	39494
628.506	39415
628.569	38093
628.632	35994
628.696	36557
628.759	36819
628.822	33329
628.885	34373
628.948	33123
629.011	33221
629.074	30378
629.137	29850
629.200	30354
629.263	30160
629.326	29031
629.389	29238
629.452	29524
629.515	29508
629.578	28598
629.641	29093
629.704	29346
629.767	28337
629.830	28166
629.892	27714
629.955	25847
630.018	29424
630.081	26987
630.144	28898
630.207	25762
630.269	28308
630.332	26187
630.395	26180
630.458	25952
630.520	24535
630.583	25500
630.646	26526
630.708	25782
630.771	26302
630.834	28617
630.896	26923
630.959	27459
631.021	26275
631.084	27101
631.146	27615
631.209	27784
631.272	26752
631.334	28623
631.397	28668
631.459	28014
631.522	31517
631.584	33249
631.646	33953
631.709	35900
631.771	36106
631.834	34219
631.896	31508
631.958	29149
632.021	29786
632.083	27456
632.145	27350
632.208	25680
632.270	26769
632.332	25296
632.395	24458
632.457	25521
632.519	24590
632.581	27558
632.643	24409
632.706	25981
632.768	24256
632.830	24845
632.892	25736
632.954	24660
633.016	26941
633.078	25064
633.141	25707
633.203	25677
633.265	26406
633.327	26378
633.389	25595
633.451	26441
633.513	25843
633.575	27317
633.637	27643
633.698	25907
633.760	29372
633.822	29501
633.884	30590
633.946	32377
634.008	32148
634.070	34908
634.132	36982
634.193	40525
634.255	44717
634.317	43761
634.379	43706
634.441	37033
634.502	33929
634.564	31647
634.626	28790
634.687	27978
634.749	27088
634.811	25942
634.873	24067
634.934	26775
634.996	27260
635.057	25273
635.119	25999
635.181	27569
635.242	28635
635.304	24574
635.365	29449
635.427	26431
635.488	26973
635.550	25980
635.611	27603
635.673	26514
635.734	30575
635.796	30793
635.857	36196
635.918	37738
635.980	43053
636.041	44576
636.102	50139
636.164	50115
636.225	46963
636.286	38456
636.348	35696
636.409	31337
636.470	27930
636.531	27376
636.593	25204
636.654	24838
636.715	24366
636.776	23549
636.838	22963
636.899	24082
636.960	21864
637.021	21454
637.082	21251
637.143	21893
637.204	20228
637.265	19916
637.326	21082
637.387	21665
637.448	20263
637.509	22129
637.570	21255
637.631	21002
637.692	19005
637.753	18283
637.814	20248
637.875	19133
637.936	19573
637.997	18983
638.058	18692
638.119	19624
638.179	18993
638.240	18205
638.301	18971
638.362	17746
638.423	17383
638.483	18560
638.544	16560
638.605	17660
638.666	17537
638.726	17558
638.787	18971
638.848	17440
638.908	17380
638.969	16736
639.030	16894
639.090	15945
639.151	16992
639.211	17671
639.272	17388
639.332	18662
639.393	18571
639.453	19018
639.514	20300
639.574	18128
639.635	15585
639.695	16798
639.756	14220
639.816	16226
639.877	16462
639.937	17658
639.997	17631
640.058	15841
640.118	15991
640.178	15880
640.239	15588
640.299	15478
640.359	16756
640.420	17814
640.480	20292
640.540	23460
640.600	23301
640.661	21225
640.721	19042
640.781	18991
640.841	14812
640.901	17494
640.961	16655
641.021	18889
641.082	18716
641.142	16820
641.202	16866
641.262	13345
641.322	16303
641.382	14328
641.442	15881
641.502	14742
641.562	15157
641.622	15432
641.682	17358
641.742	20105
641.802	18396
641.861	16535
641.921	14687
641.981	15324
642.041	14976
642.101	13455
642.161	13073
642.221	13985
642.280	13024
642.340	13472
642.400	13944
642.460	14966
642.519	14577
642.579	14240
642.639	15665
642.698	13293
642.758	17972
642.818	14800
642.877	14745
642.937	14990
642.997	15490
643.056	15815
643.116	13494
643.175	15992
643.235	16372
643.294	17081
643.354	18297
643.414	20731
643.473	25849
643.532	31734
643.592	43111
643.651	69680
643.711	117955
643.770	226393
643.830	532913
643.889	918263
643.948	234935
644.008	54439
644.067	34286
644.126	24634
644.186	21894
644.245	18831
644.304	15550
644.363	17813
644.423	14906
644.482	16839
644.541	18499
644.600	18304
644.659	25799
644.719	32512
644.778	51636
644.837	86038
644.896	186170
644.955	388766
645.014	111423
645.073	28047
645.132	21165
645.191	18971
645.250	18400
645.309	19853
645.368	21999
645.427	30880
645.486	55265
645.545	90270
645.604	24912
645.663	16600
645.722	17027
645.781	19612
645.840	22790
645.898	28805
645.957	42630
646.016	63534
646.075	113180
646.134	215784
646.192	567482
646.251	694871
646.310	119393
646.369	40150
646.427	33139
646.486	23129
646.545	18675
646.603	16633
646.662	16398
646.721	15719
646.779	15898
646.838	16766
646.896	22522
646.955	32344
647.014	52275
647.072	103981
647.131	272350
647.189	109593
647.248	19634
647.306	14661
647.365	13905
647.423	10369
647.481	12798
647.540	9930
647.598	11103
647.657	10909
647.715	11300
647.773	9889
647.832	11559
647.890	8753
647.948	10033
648.007	9885
648.065	8629
648.123	8985
648.181	9607
648.240	8871
648.298	8171
648.356	8218
648.414	9014
648.472	8225
648.531	9051
648.589	8104
648.647	8890
648.705	8338
648.763	9719
648.821	10126
648.879	10078
648.937	12900
648.995	15926
649.053	21201
649.111	34290
649.169	54238
649.227	96754
649.285	207445
649.343	537712
649.401	223449
649.459	35224
649.516	21715
649.574	15812
649.632	18716
649.690	21703
649.748	25213
649.806	35819
649.863	70991
649.921	199421
649.979	111978
650.037	17073
650.094	9485
650.152	9052
650.210	7060
650.268	8136
650.325	7916
650.383	6870
650.440	6159
650.498	7463
650.556	7262
650.613	6618
650.671	7232
650.728	7043
650.786	8148
650.843	10951
650.901	6129
650.958	6792
651.016	5228
651.073	5911
651.131	4543
651.188	4854
651.246	5624
651.303	4600
651.360	5225
651.418	4480
651.475	5596
651.532	4467
651.590	5035
651.647	4438
651.704	4330
651.762	5205
651.819	5289
651.876	4625
651.933	4004
651.990	5709
652.048	3125
652.105	4335
652.162	4935
652.219	3956
652.276	4344
652.333	4292
652.390	3142
652.448	4264
652.505	3942
652.562	4541
652.619	3940
652.676	4252
652.733	4871
652.790	3664
652.847	3270
652.904	4690
652.961	2520
653.017	3784
653.074	4246
653.131	3625
653.188	3524
653.245	4076
653.302	3991
653.359	4451
653.415	4057
653.472	3175
653.529	3918
653.586	3567
653.642	3359
653.699	4596
653.756	2583
653.813	4141
653.869	4951
653.926	3362
653.983	2899
654.039	4150
654.096	3437
654.152	5255
654.209	3067
654.266	3564
654.322	2405
654.379	3377
654.435	3961
654.492	2754
654.548	4071
654.605	3145
654.661	4670
654.717	3852
654.774	4284
654.830	3849
654.887	3431
654.943	3710
655.000	3693
655.056	4092
655.112	4334
655.168	3219
655.225	3145
655.281	4813
655.337	5028
655.394	3866
655.450	3518
655.506	3833
655.562	3605
655.618	5642
655.675	2624
655.731	4257
655.787	3363
655.843	4392
655.899	2525
655.955	4139
656.011	4662
656.067	2732
656.123	4504
656.179	3934
656.235	5030
656.291	3433
656.347	5225
656.403	4134
656.459	4282
656.515	4645
656.571	4130
656.627	3533
656.683	3714
656.739	4131
656.795	3632
656.850	3402
656.906	4430
656.962	4704
657.018	3256
657.074	5342
657.129	7367
657.185	12452
657.241	25873
657.297	12853
657.352	4728
657.408	3292
657.464	3599
657.519	3105
657.575	1974
657.630	3344
657.686	2672
657.742	2674
657.797	2943
657.853	3193
657.908	3820
657.964	2535
658.019	2850
658.075	3232
658.130	2846
658.186	2350
658.241	3403
658.297	2312
658.352	2220
658.407	3704
658.463	1438
658.518	3468
658.573	2975
658.629	1803
658.684	2593
658.739	3237
658.795	1847
658.850	3283
658.905	1806
658.960	2946
659.016	1844
659.071	2503
659.126	2809
659.181	3184
659.236	3236
659.291	4624
659.346	2214
659.401	2364
659.457	3150
659.512	1976
659.567	3849
659.622	2839
659.677	1713
659.732	2322
659.787	2302
659.842	1913
659.897	2838
659.952	2606
660.007	3189
660.061	2958
660.116	1754
660.171	1917
660.226	2412
660.281	3219
660.336	1500
660.391	3148
660.445	1962
660.500	2375
660.555	2277
660.610	2092
660.664	2463
660.719	2050
660.774	3296
660.828	2069
660.883	1670
660.938	2961
660.992	1652
661.047	2644
661.101	2215
661.156	2016
661.211	1659
661.265	2720
661.320	1515
661.374	2618
661.429	1835
661.483	2501
661.538	1232
661.592	2348
661.647	1540
661.701	2045
661.755	2612
661.810	1882
661.864	2399
661.919	2001
661.973	2181
662.027	2276
662.081	1833
662.136	2481
662.190	2544
662.244	2630
662.299	2235
662.353	2680
662.407	1584
662.461	2761
662.515	2304
662.569	2097
662.624	2728
662.678	1552
662.732	1431
662.786	2349
662.840	1768
662.894	2651
662.948	1433
663.002	1584
663.056	1747
663.110	2131
663.164	2358
663.218	1873
663.272	2307
663.326	2822
663.380	2021
663.434	2167
663.488	1157
663.542	1856
663.595	1921
663.649	1474
663.703	1993
663.757	2705
663.811	2022
663.864	2010
663.918	2269
663.972	2701
664.026	2729
664.079	1880
664.133	2241
664.187	2488
664.240	1797
664.294	2210
664.348	2895
664.401	2512
664.455	1927
664.508	1704
664.562	1959
664.615	2262
664.669	1866
664.722	2483
664.776	1939
664.829	2075
664.883	2146
664.936	366
664.990	2221
665.043	1621
665.097	1837
665.150	2533
665.203	1366
665.257	1915
665.310	2249
665.363	2559
665.417	2952
665.470	2309
665.523	2898
665.576	2923
665.630	1738
665.683	2111
665.736	2310
665.789	2301
665.842	1997
665.895	2440
665.949	2010
666.002	2877
666.055	2480
666.108	2211
666.161	2619
666.214	3501
666.267	2216
666.320	3056
666.373	2510
666.426	3072
666.479	2717
666.532	2725
666.585	3010
666.638	3494
666.691	2068
666.744	3205
666.796	2966
666.849	2931
666.902	3282
666.955	1885
667.008	1891
667.060	2762
667.113	970
667.166	2064
667.219	2125
667.271	2393
667.324	2849
667.377	2637
667.430	1904
667.482	2479
667.535	1960
667.587	2932
667.640	2294
667.693	2257
667.745	2655
667.798	3325
667.850	1856
667.903	3605
667.955	2391
668.008	2857
668.060	2352
668.113	2259
668.165	2751
668.218	2110
668.270	2490
668.322	2491
668.375	2412
668.427	2773
668.479	2506
668.532	2406
668.584	2180
668.636	2498
668.689	2100
668.741	2054
668.793	2348
668.845	2635
668.898	3216
668.950	2713
669.002	3308
669.054	2104
669.106	1351
669.158	2937
669.211	2138
669.263	1624
669.315	2599
669.367	2434
669.419	2184
669.471	2984
669.523	2441
669.575	3419
669.627	2276
669.679	2390
669.731	2448
669.783	2270
669.835	3001
669.886	2504
669.938	2323
669.990	2117
670.042	2403
670.094	3063
670.146	1982
670.197	2200
670.249	3421
670.301	3411
670.353	5097
670.404	6027
670.456	7841
670.508	12654
670.560	19933
670.611	33505
670.663	55398
670.715	141357
670.766	202169
670.818	51919
670.869	9796
670.921	6548
670.972	6228
671.024	4110
671.075	3946
671.127	4480
671.178	3720
671.230	3794
671.281	4016
671.333	4549
671.384	5637
671.436	8455
671.487	11682
671.538	17320
671.590	26205
671.641	43705
671.692	79643
671.744	144098
671.795	94215
671.846	33332
671.897	15269
671.949	9465
672.000	6734
672.051	4591
672.102	4614
672.153	3642
672.204	3739
672.256	3148
672.307	2313
672.358	2612
672.409	2977
672.460	2793
672.511	1798
672.562	1827
672.613	1376
672.664	1733
672.715	2547
672.766	2597
672.817	890
672.868	1475
672.919	1499
672.970	2053
673.021	1622
673.071	1464
673.122	2091
673.173	1490
673.224	740
673.275	1868
673.326	1397
673.376	1956
673.427	910
673.478	2061
673.528	2262
673.579	1478
673.630	1213
673.680	2586
673.731	1264
673.782	1543
673.832	1883
673.883	2085
673.934	916
673.984	1878
674.035	2237
674.085	1451
674.136	2356
674.186	1801
674.237	1561
674.287	1526
674.338	2011
674.388	2223
674.438	2334
674.489	2398
674.539	2287
674.589	3164
674.640	2369
674.690	2144
674.740	1629
674.791	1482
674.841	1777
674.891	1664
674.942	1398
674.992	1331
675.042	1418
675.092	1473
675.142	657
675.193	807
675.243	1225
675.293	2538
675.343	1311
675.393	1612
675.443	701
675.493	2250
675.543	929
675.593	1165
675.643	1281
675.693	1834
675.743	1760
675.793	1679
675.843	816
675.893	1243
675.943	2166
675.993	1163
676.043	367
676.093	1804
676.142	953
676.192	1067
676.242	275
676.292	629
676.341	1365
676.391	1661
676.441	3
676.491	1035
676.540	434
676.590	705
676.640	88
676.689	736
676.739	-50
676.789	1307
676.838	512
676.888	1638
676.937	639
676.987	623
677.037	404
677.086	1
677.136	1099
677.185	760
677.235	309
677.284	1776
677.333	952
677.383	532
677.432	299
677.482	1042
677.531	-69
677.580	-352
677.630	338
677.679	952
677.728	222
677.778	1138
677.827	1084
677.876	1205
677.925	65
677.975	1330
678.024	153
678.073	637
678.122	17
678.171	892
678.220	1331
678.269	2408
678.319	1553
678.368	2189
678.417	1601
678.466	1401
678.515	1116
678.564	134
678.613	356
678.662	187
678.711	823
678.760	447
678.809	687
678.857	1108
678.906	659
678.955	203
679.004	588
679.053	1018
679.102	591
679.151	194
679.199	358
679.248	837
679.297	517
679.346	831
679.394	78
679.443	634
679.492	488
679.540	740
679.589	1102
679.638	549
679.686	724
679.735	727
679.784	794
679.832	1207
679.881	-119
679.929	291
679.978	1135
680.026	1034
680.075	499
680.123	823
680.172	123
680.220	176
680.268	503
680.317	-258
680.365	46
680.414	-433
680.462	0
680.510	1317
680.559	-98
680.607	938
680.655	361
680.703	561
680.752	893
680.800	1081
680.848	40
680.896	-35
680.945	987
680.993	-313
681.041	229
681.089	951
681.137	439
681.185	644
681.233	486
681.258	380
681.281	269
681.329	337
681.377	0
681.380	16
681.425	119
681.473	493
681.502	929
681.521	1205
681.569	216
681.617	449
681.624	495
681.665	727
681.713	402
681.745	654
681.761	757
681.809	690
681.857	963
681.867	766
681.904	40
681.952	1273
681.989	607
682.000	396
682.048	642
682.096	277
682.111	331
682.143	405
682.191	1004
682.233	1706
682.239	1802
682.286	1487
682.334	862
682.354	642
682.382	318
682.430	1434
682.476	1250
682.477	1237
682.525	570
682.572	319
682.598	435
682.620	518
682.667	416
682.715	1522
682.720	1413
682.763	299
682.810	1462
682.841	816
682.857	481
682.905	1090
682.952	784
682.963	972
683.000	1555
683.047	1269
683.085	1782
683.095	1920
683.142	1129
683.190	1876
683.206	1695
683.237	1324
683.284	1497
683.328	1035
683.332	983
683.379	1629
683.426	980
683.449	1035
683.473	1150
683.521	1274
683.568	1664
683.571	1640
683.615	1072
683.662	1767
683.693	1153
683.709	856
683.757	1418
683.804	1408
683.814	1344
683.851	963
683.898	1899
683.936	1560
683.945	1494
683.992	912
684.039	1871
684.057	1793
684.086	1630
684.133	1404
684.179	1626
684.180	1624
684.227	1907
684.274	1538
684.300	1462
684.321	1454
684.368	699
684.415	1855
684.422	1762
684.462	1233
684.509	1890
684.543	1747
684.556	1652
684.603	1576
684.649	1831
684.665	2005
684.696	2364
684.743	2004
684.786	1473
684.790	1424
684.837	1584
684.883	1563
684.908	1738
684.930	1854
684.977	1665
685.023	1522
685.029	1540
685.070	1677
685.117	1598
685.150	2071
685.164	2264
685.210	2213
685.257	2290
685.272	2168
685.303	1826
685.350	1564
685.393	1734
685.396	1756
685.443	2096
685.490	1719
685.514	2221
685.536	2556
685.583	1638
685.629	1971
685.636	1951
685.675	1868
685.722	1613
685.757	1940
685.768	2041
685.815	1560
685.861	2133
685.878	2047
685.908	1978
685.954	2183
686.000	2584
686.000	2585
686.047	1564
686.093	2155
686.121	2239
686.139	2315
686.185	2197
686.232	1665
686.242	1872
686.278	2625
686.324	2608
686.363	2631
686.370	2612
686.416	2174
686.463	3011
686.484	2789
686.509	2562
686.555	2174
686.601	2162
686.606	2208
686.647	2601
686.693	2638
686.727	2694
686.739	2715
686.785	2347
686.831	2566
686.848	2592
686.877	2676
686.923	2629
686.969	2640
686.969	2639
687.015	2651
687.061	2915
687.090	3064
687.107	3103
687.153	3054
687.199	2959
687.211	2666
687.245	2045
687.291	2799
687.332	3266
687.336	3300
687.382	2718
687.428	2867
687.453	2899
687.474	2892
687.520	2966
687.565	2564
687.574	2571
687.611	2824
687.657	2954
687.695	3172
687.702	3176
687.748	3189
687.794	2935
687.816	3058
687.839	3158
687.885	2612
687.931	2847
687.937	2813
687.976	2790
688.022	3402
688.058	3428
688.067	3386
688.113	2958
688.158	3056
688.179	3022
688.204	3202
688.249	2950
688.295	3354
688.300	3365
688.340	3227
688.386	3582
688.421	3174
688.431	3072
688.477	3600
688.522	3909
688.542	3827
688.567	3787
688.613	3458
688.658	3635
688.663	3602
688.703	3270
688.749	3610
688.784	3738
688.794	3770
688.839	3659
688.884	3795
688.905	3686
688.930	3568
688.975	3773
689.020	3994
689.026	3917
689.065	3420
689.110	3536
689.146	3068
689.155	2962
689.201	3384
689.246	3389
689.267	3443
689.291	3585
689.336	3446
689.381	3539
689.388	3620
689.426	3905
689.471	3257
689.509	3430
689.516	3473
689.561	3493
689.606	3325
689.630	3272
689.651	3286
689.696	3417
689.741	3653
689.750	3774
689.785	4360
689.830	3988
689.871	4081
689.875	4065
689.920	4332
689.965	4233
689.992	4206
690.010	4249
690.054	3739
690.099	3866
690.112	3990
690.144	4237
690.189	3831
690.233	3771
690.233	3777
690.278	3919
690.323	4005
690.354	3827
690.367	3861
690.412	4269
690.457	4580
690.474	4751
690.501	4600
690.546	4262
690.590	3839
690.595	3765
690.635	3740
690.680	4324
690.716	4533
690.724	4604
690.769	4888
690.813	5745
690.836	5504
690.857	5769
690.902	7584
690.946	8653
690.957	9072
690.991	11609
691.035	15454
691.077	18458
691.080	18370
691.124	14764
691.168	11834
691.198	9612
691.213	8875
691.257	7785
691.301	6097
691.318	5415
691.346	5214
691.390	4757
691.434	4613
691.439	4547
691.478	4266
691.522	4613
691.559	4547
691.567	4558
691.611	4840
691.655	4957
691.680	4746
691.699	4573
691.743	4874
691.787	4984
691.800	4917
691.831	4707
691.875	4866
691.919	4419
691.921	4411
691.964	4373
692.008	4401
692.041	3937
692.052	3933
692.096	4142
692.139	4917
692.162	5007
692.183	4972
692.227	4814
692.271	4937
692.282	4947
692.315	4899
692.359	4741
692.402	4748
692.403	4760
692.447	4791
692.490	5059
692.523	5033
692.534	4971
692.578	4782
692.622	4713
692.643	4649
692.666	4542
692.709	4671
692.753	4215
692.763	4150
692.797	4419
692.840	4676
692.884	4804
692.884	4814
692.928	4781
692.971	4853
693.004	4387
693.015	4316
693.059	4718
693.102	4975
693.124	4815
693.146	4683
693.189	4870
693.233	4841
693.245	4893
693.276	5115
693.320	5033
693.363	5314
693.365	5302
693.407	5560
693.450	6239
693.485	6318
693.493	6452
693.537	7747
693.580	8343
693.605	8959
693.624	10235
693.667	12730
693.710	15857
693.725	16965
693.753	21765
693.797	29664
693.840	37291
693.845	37960
693.883	31696
693.926	24697
693.966	18550
693.970	18149
694.013	13886
694.056	9757
694.086	6910
694.099	6770
694.142	6114
694.185	5709
694.206	5486
694.229	5683
694.272	5922
694.315	6113
694.326	6111
694.358	5710
694.401	5733
694.444	5240
694.446	5205
694.487	5335
694.530	5595
694.566	5595
694.573	5552
694.616	5585
694.659	5138
694.686	5258
694.702	5436
694.745	5467
694.787	5520
694.806	5498
694.830	5435
694.873	5445
694.916	5453
694.926	5408
694.959	5451
695.002	5623
695.044	5570
695.046	5561
695.087	5817
695.130	5900
695.166	6154
695.172	6202
695.215	6338
695.258	6410
695.286	6433
695.301	6468
695.343	6304
695.386	6549
695.406	6622
695.428	6873
695.471	7029
695.514	7444
695.526	7533
695.556	7817
695.599	8226
695.641	8546
695.646	8543
695.684	8302
695.726	8134
695.766	8039
695.769	8028
695.811	7434
695.854	7048
695.886	6657
695.896	6726
695.938	6789
695.981	7030
696.005	7133
696.023	7405
696.065	8015
696.108	8611
696.125	8851
696.150	9004
696.192	9207
696.235	9371
696.245	9380
696.277	9240
696.319	9104
696.361	8841
696.365	8808
696.404	8952
696.446	8992
696.485	9092
696.488	9116
696.530	9096
696.572	9014
696.604	8925
696.614	8902
696.656	8761
696.698	8667
696.724	8497
696.740	8549
696.783	8705
696.825	8910
696.844	8950
696.867	9127
696.909	9375
696.951	9747
696.964	9814
696.992	10015
697.034	10378
697.076	10571
697.083	10570
697.118	10384
697.160	10257
697.202	10186
697.203	10155
697.244	9821
697.286	9480
697.323	9044
697.327	9111
697.369	9538
697.411	9983
697.442	10292
697.453	10247
697.494	9986
697.536	9726
697.562	9529
697.578	9716
697.620	10088
697.661	10449
697.682	10662
697.703	10789
697.744	10855
697.786	11071
697.801	11064
697.828	11015
697.869	10961
697.911	10858
697.921	10822
697.952	10772
697.994	10595
698.035	10476
698.040	10429
698.077	10363
698.118	10324
698.160	10152
698.160	10123
698.201	10437
698.243	10659
698.279	10853
698.284	10922
698.325	11273
698.367	11671
698.399	11895
698.408	11906
698.449	11825
698.491	11791
698.518	11707
698.532	11816
698.573	12083
698.614	12349
698.638	12459
698.656	12454
698.697	12361
698.738	12309
698.757	12236
698.779	12206
698.820	12089
698.862	11996
698.877	11928
698.903	12138
698.944	12419
698.985	12702
698.996	12749
699.026	12840
699.067	12923
699.116	12991
699.235	11631
699.354	12712
699.474	10782
699.593	11514
699.713	11970
699.832	11629
699.951	12579
700.070	12147
700.190	10723
700.309	11794
700.428	10385
700.547	10713
700.667	11121
700.786	10886
700.905	9943
701.024	10563
701.143	9408
701.262	11654
701.381	11303
701.500	10896
701.619	11433
701.738	10891
701.857	10864
701.976	9767
702.095	10420
702.214	11103
702.333	10567
702.452	11085
702.571	11208
702.690	10863
702.809	9877
702.928	10263
703.047	10343
703.165	11260
703.284	9648
703.403	9241
703.522	8967
703.640	9210
703.759	8927
703.878	9227
703.997	8875
704.115	9784
704.234	10276
704.353	9400
704.471	8411
704.590	7920
704.708	8806
704.827	8577
704.946	8899
705.064	8201
705.183	8238
705.301	9778
705.420	8965
705.538	9003
705.656	8055
705.775	7963
705.893	10026
706.012	8920
706.130	8270
706.249	9546
706.367	7783
706.485	7862
706.604	7466
706.722	8125
706.840	8550
706.958	9565
707.077	7954
707.195	8328
707.313	7515
707.431	7126
707.549	6832
707.668	7119
707.786	7476
707.904	7375
708.022	7787
708.140	7401
708.258	6860
708.376	8472
708.494	7030
708.612	7521
708.730	8406
708.848	7562
708.966	8700
709.084	8798
709.202	7445
709.320	7098
709.438	6987
709.556	7749
709.674	6398
709.791	6950
709.909	6187
710.027	7280
710.145	6517
710.263	7308
710.380	6635
710.498	6519
710.616	6743
710.733	5287
710.851	7086
710.969	7195
711.086	6338
711.204	6343
711.322	5461
711.439	5726
711.557	5748
711.674	5526
711.792	5868
711.909	6108
712.027	6562
712.144	6110
712.262	6195
712.379	6699
712.497	6249
712.614	6380
712.732	6756
712.849	6579
712.966	5964
713.084	6852
713.201	5976
713.318	6970
713.436	7144
713.553	7438
713.670	7110
713.787	7287
713.905	6941
714.022	7640
714.139	8028
714.256	11221
714.373	17093
714.490	37250
714.608	121713
714.725	492850
714.842	281304
714.959	22231
715.076	10932
715.193	9491
715.310	8416
715.427	6520
715.544	7609
715.661	6500
715.778	5850
715.895	6804
716.011	6259
716.128	5808
716.245	6217
716.362	5749
716.479	5426
716.596	5444
716.713	5316
716.829	5706
716.946	4768
717.063	5100
717.180	4429
717.296	4845
717.413	4557
717.530	4728
717.646	4115
717.763	4347
717.880	4800
717.996	4764
718.113	4663
718.229	4880
718.346	4243
718.462	4429
718.579	4514
718.695	4936
718.812	4928
718.928	5098
719.045	4645
719.161	4513
719.277	4458
719.394	5492
719.510	5427
719.626	6608
719.743	8496
719.859	15713
719.975	40440
720.092	185547
720.208	257525
720.324	21094
720.440	8117
720.557	6505
720.673	6229
720.789	5858
720.905	6928
721.021	5770
721.137	4625
721.253	3851
721.369	4752
721.486	4196
721.602	4294
721.718	3963
721.834	3465
721.950	3789
722.066	4047
722.181	3298
722.297	4247
722.413	4074
722.529	4547
722.645	4185
722.761	3661
722.877	4382
722.993	4613
723.108	5078
723.224	4724
723.340	4339
723.456	3844
723.571	4297
723.687	3608
723.803	3779
723.918	3959
724.034	3151
724.150	3284
724.265	3965
724.381	4370
724.497	3689
724.612	2607
724.728	3621
724.843	3113
724.959	3913
725.074	4102
725.190	4702
725.305	3332
725.421	3243
725.536	3887
725.651	3879
725.767	3059
725.882	3714
725.997	2881
726.113	3737
726.228	4292
726.343	2949
726.459	2859
726.574	3341
726.689	3280
726.804	3492
726.920	2570
727.035	2845
727.150	2351
727.265	2585
727.380	3295
727.495	3480
727.610	2992
727.725	3461
727.841	4148
727.956	4599
728.071	3878
728.186	3503
728.301	2771
728.416	3791
728.531	4259
728.645	3544
728.760	3101
728.875	3274
728.990	3303
729.105	2411
729.220	3070
729.335	3553
729.449	2700
729.564	2319
729.679	3068
729.794	3225
729.908	3359
730.023	3563
730.138	2890
730.253	3128
730.367	2587
730.482	3043
730.596	3654
730.711	3707
730.826	4645
730.940	4603
731.055	4613
731.169	4079
731.284	4323
731.398	3983
731.513	4582
731.627	5154
731.742	6533
731.856	6942
731.970	7408
732.085	9955
732.199	15302
732.313	29287
732.428	90649
732.542	249355
732.656	88692
732.771	16505
732.885	10477
732.999	9937
733.113	10009
733.227	10164
733.342	9555
733.456	9053
733.570	8621
733.684	8476
733.798	8385
733.912	8184
734.026	8032
734.140	7597
734.254	7231
734.368	8342
734.482	8179
734.596	8304
734.710	6773
734.824	8307
734.938	6861
735.052	7605
735.166	7152
735.280	7630
735.393	7655
735.507	6357
735.621	6037
735.735	7231
735.849	7243
735.962	7116
736.076	7324
736.190	7245
736.303	6539
736.417	7601
736.531	6325
736.644	6524
736.758	7174
736.872	6632
736.985	7361
737.099	5779
737.212	6108
737.326	5886
737.439	6418
737.553	5386
737.666	6652
737.780	6285
737.893	6139
738.007	6239
738.120	5638
738.233	5818
738.347	5933
738.460	5631
738.573	6388
738.687	5544
738.800	6028
738.913	6201
739.026	6355
739.140	5735
739.253	5256
739.366	6039
739.479	5356
739.592	5535
739.705	5333
739.818	6425
739.932	4698
740.045	5804
740.158	5563
740.271	5133
740.384	5000
740.497	5095
740.610	5098
740.723	6039
740.836	5137
740.949	5463
741.062	6187
741.174	5825
741.287	5476
741.400	4585
741.513	4456
741.626	5105
741.739	4790
741.851	4412
741.964	5064
742.077	4777
742.189	4693
742.302	6217
742.415	5286
742.527	4455
742.640	4427
742.753	4975
742.865	4947
742.978	4568
743.090	4142
743.203	4545
743.316	4639
743.428	4109
743.541	4007
743.653	3650
743.766	4696
743.878	4724
743.990	4626
744.103	5967
744.215	5552
744.327	4274
744.440	5898
744.552	4671
744.664	4358
744.777	5823
744.889	3880
745.001	4646
745.113	3909
745.226	4859
745.338	4855
745.450	4923
745.562	4612
745.674	3598
745.786	4266
745.898	3735
746.010	4351
746.122	3685
746.234	4722
746.347	5145
746.459	4223
746.570	4563
746.682	6119
746.794	7184
746.906	4674
747.018	3883
747.130	4273
747.242	4019
747.354	3734
747.466	4640
747.577	3643
747.689	4177
747.801	3642
747.913	3420
748.024	3382
748.136	3363
748.248	2904
748.359	3733
748.471	3734
748.583	3307
748.694	3564
748.806	4228
748.918	3447
749.029	3359
749.141	3799
749.252	3697
749.364	3626
749.475	3476
749.587	2722
749.698	2779
749.809	3684
749.921	2835
750.032	3505
750.144	3221
750.255	2871
750.366	3119
750.478	3090
750.589	3291
750.700	3073
750.811	4035
750.923	3842
751.034	3151
751.145	3852
751.256	2962
751.367	3083
751.479	3381
751.590	2388
751.701	3664
751.812	1892
751.923	3893
752.034	3868
752.145	3095
752.256	3023
752.367	3721
752.478	3065
752.589	3219
752.700	3003
752.811	3062
752.922	2330
753.032	2804
753.143	3423
753.254	3213
753.365	4176
753.476	3932
753.586	3000
753.697	3144
753.808	2959
753.919	2735
754.029	2971
754.140	2689
754.251	2864
754.361	3155
754.472	2997
754.582	2849
754.693	2805
754.804	3969
754.914	3005
755.025	2754
755.135	2953
755.246	3833
755.356	2834
755.466	2453
755.577	2162
755.687	3405
755.798	2467
755.908	3019
756.018	1984
756.129	3244
756.239	3112
756.349	3355
756.460	3020
756.570	3742
756.680	2556
756.790	3412
756.900	3277
757.011	2515
757.121	3305
757.231	2548
757.341	3821
757.451	2635
757.561	2309
757.671	2470
757.781	3287
757.891	3652
758.001	2038
758.111	2979
758.221	3261
758.331	3727
758.441	2644
758.551	3235
758.661	3392
758.771	3875
758.880	2755
758.990	3052
759.100	3216
759.210	2900
759.320	3630
759.429	3349
759.539	4446
759.649	3691
759.758	3891
759.868	5314
759.978	5064
760.087	5787
760.197	4773
760.307	4643
760.416	4517
760.526	3434
760.635	5428
760.745	5391
760.854	5374
760.964	6108
761.073	5890
761.182	5703
761.292	5037
761.401	4906
761.511	3894
761.620	3263
761.729	3853
761.839	3355
761.948	3655
762.057	3891
762.166	4217
762.276	3154
762.385	4402
762.494	3868
762.603	3398
762.712	4579
762.822	4459
762.931	4473
763.040	3240
763.149	4358
763.258	3983
763.367	4622
763.476	4550
763.585	4999
763.694	5168
763.803	5752
763.912	5594
764.021	5240
764.130	5562
764.238	6787
764.347	6747
764.456	6488
764.565	6951
764.674	8153
764.783	8696
764.891	8417
765.000	10573
765.109	11633
765.217	12578
765.326	16091
765.435	19006
765.543	23429
765.652	28831
765.761	38894
765.869	54659
765.978	82394
766.086	134805
766.195	238688
766.303	412894
766.412	433372
766.520	397685
766.629	280575
766.737	158970
766.846	96156
766.954	64821
767.062	47910
767.171	35239
767.279	28584
767.387	23083
767.496	18855
767.604	16110
767.712	14700
767.820	12930
767.928	12667
768.037	10405
768.145	11610
768.253	11805
768.361	8969
768.469	10264
768.577	10135
768.685	11645
768.793	12015
768.901	11856
769.009	14497
769.117	17623
769.225	24109
769.333	33727
769.441	55512
769.549	97182
769.657	201277
769.765	380666
769.873	366972
769.981	252821
770.088	120455
770.196	64706
770.304	43027
770.412	31110
770.519	22862
770.627	17873
770.735	15384
770.842	13609
770.950	11848
771.058	10131
771.165	10999
771.273	9194
771.380	9272
771.488	11245
771.595	9615
771.703	8379
771.810	9335
771.918	8810
772.025	10036
772.133	8845
772.240	9780
772.348	10581
772.455	9939
772.562	8475
772.670	8036
772.777	8348
772.884	8514
772.991	7719
773.099	7888
773.206	6484
773.313	7529
773.420	7344
773.528	6492
773.635	7261
773.742	7367
773.849	6867
773.956	7359
774.063	6180
774.170	6140
774.277	6846
774.384	6287
774.491	6775
774.598	6702
774.705	6620
774.812	6210
774.919	5946
775.026	6225
775.133	6402
775.239	5857
775.346	5528
775.453	6358
775.560	5455
775.667	5922
775.773	4585
775.880	6104
775.987	5437
776.093	6379
776.200	5290
776.307	4822
776.413	5610
776.520	5895
776.627	4866
776.733	5725
776.840	3854
776.946	8656
777.053	8522
777.159	10869
777.266	6843
777.372	10731
777.478	8499
777.585	6297
777.691	4698
777.798	5476
777.904	5137
778.010	5096
778.117	5934
778.223	5151
778.329	4688
778.435	3956
778.542	5007
778.648	3601
778.754	3620
778.860	5337
778.966	3751
779.072	3461
779.178	4288
779.284	4140
779.391	3882
779.497	4233
779.603	6346
779.708	4397
779.815	8705
779.920	22006
780.026	25164
780.132	5401
780.238	3819
780.344	3632
780.450	5097
780.556	2852
780.661	3859
780.767	4696
780.873	2583
780.979	3915
781.085	3681
781.190	4168
781.296	3097
781.402	3185
781.507	3112
781.613	3483
781.719	2700
781.824	4185
781.930	3181
782.035	4197
782.141	3589
782.246	2572
782.352	3406
782.457	3492
782.563	3542
782.668	3594
782.773	2095
782.879	2051
782.984	3282
783.090	3119
783.195	4164
783.300	2830
783.405	2596
783.511	2381
783.616	3461
783.721	2898
783.826	2545
783.932	2796
784.037	3176
784.142	3055
784.247	1631
784.352	2889
784.457	2357
784.562	3707
784.667	2218
784.772	1533
784.877	2057
784.982	3278
785.087	3202
785.192	3055
785.297	2159
785.402	3032
785.507	2820
785.611	3086
785.716	3184
785.821	2523
785.926	2246
786.031	2354
786.135	2131
786.240	2855
786.345	593
786.450	2936
786.554	2108
786.659	1903
786.763	1611
786.868	2954
786.973	3164
787.077	2026
787.182	2259
787.286	1878
787.391	3016
787.495	1774
787.600	1810
787.704	2088
787.809	2524
787.913	2033
788.017	2929
788.122	3123
788.226	2113
788.330	580
788.435	2385
788.539	2521
788.643	1568
788.747	2357
788.852	2494
788.956	1082
789.060	3042
789.164	2422
789.268	1032
789.372	2293
789.476	2156
789.580	1036
789.684	1725
789.788	2291
789.892	1919
789.996	2154
790.100	1091
790.204	2375
790.308	2164
790.412	1125
790.516	1027
790.620	1387
790.724	2611
790.828	1490
790.931	397
791.035	2232
791.139	1036
791.242	1348
791.346	1970
791.450	1668
791.554	1799
791.657	503
791.761	1231
791.864	2000
791.968	1825
792.072	1225
792.175	1868
792.279	1161
792.382	1437
792.486	1094
792.589	1189
792.693	1614
792.796	25
792.899	1511
793.003	2131
793.106	39
793.209	1375
793.313	2503
793.416	523
793.519	1759
793.623	1589
793.726	680
793.829	730
793.932	1025
794.035	488
794.138	2511
794.242	2341
794.345	1418
794.448	629
794.551	2130
794.654	11003
794.757	13576
794.860	1839
794.963	1561
795.066	588
795.169	2536
795.272	1318
795.375	1338
795.477	299
795.580	1274
795.683	221
795.786	2108
795.889	29
795.991	1999
796.094	1148
796.197	90
796.300	2375
796.402	985
796.505	281
796.608	894
796.710	1729
796.813	1377
796.915	1416
797.018	1829
797.120	1624
797.223	518
797.326	2857
797.428	269
797.530	1460
797.633	1814
797.735	1922
797.838	102
797.940	2190
798.042	833
798.145	512
798.247	1528
798.349	-775
798.452	2077
798.554	801
798.656	451
798.758	2150
798.860	1367
798.962	809
799.065	640
799.167	343
799.269	1488
799.371	2538
799.473	2856
799.575	-123
799.677	831
799.779	2001
799.881	-31
799.983	1562
800.085	864
800.187	161
800.289	23
800.390	1015
800.492	1304
800.594	2327
800.696	385
800.798	1238
800.899	730
801.001	178
801.103	1632
801.205	361
801.306	578
801.408	-427
801.509	801
801.611	1285
801.713	845
801.814	28
801.916	233
802.017	804
802.119	550
802.220	1574
802.322	-1015
802.423	1641
802.525	-521
802.626	742
802.727	1947
802.829	1809
802.930	-876
803.031	1427
803.133	411
803.234	1304
803.335	454
803.436	274
803.538	978
803.639	-340
803.740	1866
803.841	484
803.942	1406
804.043	918
804.144	272
804.245	406
804.346	-46
804.447	16
804.548	1341
804.649	1606
804.750	559
804.851	342
804.952	84
805.053	535
805.154	438
805.255	1345
805.355	322
805.456	163
805.557	949
805.658	-280
805.758	1030
805.859	953
805.960	-632
806.061	167
806.161	-206
806.262	733
806.362	-102
806.463	-761
806.564	1210
806.664	-45
806.765	187
806.865	793
806.966	283
807.066	64
807.166	1086
807.267	1187
807.367	186
807.468	1200
807.568	-1463
807.668	1220
807.769	1028
807.869	77
807.969	-61
808.069	65
808.170	362
808.270	-740
808.370	1617
808.470	956
808.570	-203
808.670	166
808.770	1321
808.870	256
808.970	664
809.070	-12
809.170	-214
809.271	928
809.370	-99
809.470	-79
809.570	862
809.670	-337
809.770	454
809.870	777
809.970	-408
810.070	163
810.169	433
810.269	-500
810.369	2157
810.469	-320
810.568	172
810.668	215
810.768	39
810.867	1026
810.967	51
811.066	196
811.166	600
811.265	838
811.365	40
811.464	437
811.564	931
811.663	260
811.763	-1028
811.862	899
811.962	1473
812.061	358
812.160	-215
812.260	60
812.359	70
812.458	-525
812.557	1158
812.657	394
812.756	222
812.855	-101
812.954	97
813.053	801
813.153	396
813.252	-354
813.351	1604
813.450	188
813.549	-42
813.648	758
813.747	197
813.846	941
813.945	805
814.044	-169
814.143	265
814.242	91
814.341	-510
814.439	896
814.538	320
814.637	763
814.736	108
814.835	725
814.933	77
815.032	1716
815.131	1671
815.229	2992
815.328	4955
815.427	2728
815.525	3037
815.624	2569
815.722	2676
815.821	2961
815.919	3353
816.018	2186
816.116	3419
816.215	3415
816.313	3748
816.412	3471
816.510	4165
816.609	5290
816.707	5027
816.805	3918
816.904	3860
817.002	4582
817.100	4668
817.198	5531
817.296	2586
817.395	3180
817.493	3731
817.591	2860
817.689	3539
817.787	2903
817.885	3294
817.983	4037
818.081	4818
818.179	4945
818.277	9198
818.375	6319
818.473	4540
818.571	4765
818.669	4856
818.767	4623
818.865	2546
818.963	3200
819.061	3266
819.158	3374
819.256	5934
819.354	8620
819.452	14638
819.549	5619
819.647	4504
819.745	3257
819.842	4067
819.940	3613
820.038	2214
820.135	2561
820.233	4423
820.330	2342
820.428	2027
820.525	4178
820.623	2121
820.720	2666
820.818	3597
820.915	3976
821.012	3165
821.110	1607
821.207	3761
821.304	1897
821.402	3890
821.499	4127
821.596	4198
821.693	3438
821.791	3484
821.888	3540
821.985	4570
822.082	2468
822.179	3651
822.276	2697
822.373	2034
822.470	2879
822.567	3432
822.664	1832
822.761	2701
822.858	1868
822.955	2695
823.052	2832
823.149	2153
823.246	1767
823.343	1397
823.440	2763
823.536	2677
823.633	1797
823.730	2147
823.827	2353
823.923	2509
824.020	2989
824.117	2410
824.213	2515
824.310	1719
824.407	2346
824.503	2172
824.600	2619
824.696	1879
824.793	3423
824.889	2514
824.986	1337
825.082	1439
825.179	2446
825.275	2805
825.371	2163
825.468	1173
825.564	889
825.660	2888
825.757	2431
825.853	3322
825.949	759
826.045	1876
826.142	1439
826.238	935
826.334	2417
826.430	304
826.526	1731
826.622	1521
826.718	1201
826.814	2061
826.910	3250
827.006	805
827.102	1079
827.198	1426
827.294	1887
827.390	1968
827.486	963
827.582	-147
827.678	1445
827.774	1869
827.869	1313
827.965	1891
828.061	556
828.157	2381
828.252	1958
828.348	1480
828.444	1838
828.539	927
828.635	2049
828.731	2316
828.826	402
828.922	1658
829.017	2136
829.113	2568
829.208	717
829.304	1056
829.399	2691
829.495	1729
829.590	2120
829.685	1384
829.781	2238
829.876	288
829.971	1053
830.066	652
830.162	1296
830.257	1670
830.352	676
830.447	2082
830.543	1456
830.638	431
830.733	2230
830.828	1046
830.923	1838
831.018	1121
831.113	1847
831.208	202
831.303	368
831.398	1090
831.493	1184
831.588	2346
831.683	19
831.778	1555
831.873	538
831.967	2900
832.062	448
832.157	424
832.252	1077
832.346	639
832.441	1591
832.536	652
832.631	965
832.725	1031
832.820	1015
832.914	1102
833.009	-158
833.104	833
833.198	1280
833.293	898
833.387	1974
833.482	1257
833.576	549
833.670	1546
833.765	568
833.859	1085
833.954	793
834.048	513
834.142	1366
834.237	-524
834.331	740
834.425	2201
834.519	-194
834.613	1609
834.708	421
834.802	1762
834.896	-328
834.990	227
835.084	90
835.178	782
835.272	495
835.366	1210
835.460	1482
835.554	175
835.648	580
835.742	28
835.836	78
835.930	-186
836.024	1206
836.117	1013
836.211	378
836.305	505
836.399	592
836.493	-149
836.586	1607
836.680	703
836.774	-639
836.867	1556
836.961	226
837.055	-360
837.148	401
837.242	236
837.335	697
837.429	60
837.522	367
837.616	-158
837.709	951
837.803	6
837.896	962
837.989	274
838.083	251
838.176	339
838.269	-1241
838.363	689
838.456	594
838.549	887
838.642	723
838.735	285
838.829	1157
838.922	107
839.015	818
839.108	-709
839.201	548
839.294	590
839.387	920
839.480	-707
839.573	108
839.666	173
839.759	-542
839.852	239
839.945	683
840.038	763
840.131	408
840.223	-175
840.316	1064
840.409	-52
840.502	120
840.594	1238
840.687	-571
840.780	-219
840.873	-341
840.965	-388
841.058	-386
841.150	1262
841.243	-1100
841.336	712
841.428	744
841.521	-197
841.613	-871
841.706	-37
841.798	526
841.890	-161
841.983	-305
842.075	177
842.167	-708
842.260	292
842.352	610
842.444	-138
842.537	-166
842.629	12
842.721	76
842.813	-305
842.905	-314
842.997	1087
843.090	-506
843.182	297
843.274	-749
843.366	1296
843.458	1649
843.550	997
843.642	544
843.734	27
843.826	-536
843.918	80
844.009	343
844.101	-577
844.193	50
844.285	-87
844.377	656
844.469	866
844.560	711
844.652	-104
844.744	377
844.835	189
844.927	-323
845.019	313
845.110	-54
845.202	-555
845.293	187
845.385	-786
845.476	-105
845.568	388
845.659	-219
845.751	330
845.842	-318
845.934	-536
846.025	-669
846.116	235
846.208	-377
846.299	110
846.390	150
846.482	-500
846.573	447
846.664	476
846.755	-1058
846.846	482
846.937	-1370
847.029	-782
847.120	-576
847.211	326
847.302	173
847.393	-708
847.484	575
847.575	-177
847.666	-216
847.757	-945
847.847	905
847.938	-239
848.029	38
848.120	95
848.211	-648
848.302	-569
848.392	-1514
848.483	307
848.574	-448
848.664	-470
848.755	-147
848.846	-281
848.936	-1277
849.027	286
849.118	235
849.208	570
849.299	2068
849.389	4558
849.480	8882
849.570	18328
849.661	39575
849.751	48598
849.841	11515
849.932	1087
850.022	636
850.112	1164
850.203	242
850.293	41
850.383	-856
850.474	-613
850.564	126
850.654	160
850.744	-567
850.834	-285
850.924	-66
851.014	-81
851.104	-139
851.194	-439
851.284	201
851.374	99
851.464	-261
851.554	-780
851.644	-114
851.734	358
851.824	-772
851.914	-630
852.004	1195
852.094	77
852.183	-670
852.273	-19
852.363	-165
852.452	939
852.542	-624
852.632	404
852.721	303
852.811	439
852.901	585
852.990	1020
853.080	153
853.169	421
853.259	687
853.348	914
853.438	1057
853.527	2879
853.617	4832
853.706	10303
853.795	20149
853.885	44194
853.974	78428
854.063	146661
854.152	161931
854.242	47656
854.331	11543
854.420	5217
854.509	2482
854.598	2781
854.687	1191
854.777	2027
854.866	606
854.955	769
855.044	-155
855.133	448
855.222	264
855.311	-103
855.400	205
855.488	-848
855.577	-239
855.666	250
855.755	-113
855.844	284
855.933	-388
856.021	-510
856.110	716
856.199	-692
856.288	293
856.376	4
856.465	-589
856.554	238
856.642	-623
856.731	195
856.819	624
856.908	-756
856.996	-579
857.085	-874
857.173	-298
857.262	-1452
857.350	-638
857.438	54
857.527	153
857.615	129
857.703	-102
857.792	-399
857.880	-381
857.968	-549
858.056	-645
858.145	-558
858.233	-1286
858.321	-80
858.409	434
858.497	-257
858.585	-994
858.673	1120
858.761	-685
858.849	-653
858.937	-583
859.025	-1186
859.113	-235
859.201	-951
859.289	447
859.377	-750
859.465	-1090
859.552	-665
859.640	-1475
859.728	-224
859.816	-173
859.903	-695
859.991	-189
860.079	325
860.166	78
860.254	-535
860.342	427
860.429	-633
860.517	-89
860.604	-554
860.692	-191
860.779	-831
860.867	-858
860.954	-989
861.042	-47
861.129	-416
861.216	-508
861.304	-733
861.391	-120
861.478	82
861.565	-570
861.653	746
861.740	-769
861.827	312
861.914	-120
862.001	-334
862.089	-28
862.176	-202
862.263	-729
862.350	135
862.437	-237
862.524	-515
862.611	-305
862.698	-148
862.785	3
862.871	708
862.958	433
863.045	-262
863.132	-630
863.219	-912
863.306	-455
863.392	44
863.479	-136
863.566	-764
863.652	628
863.739	-494
863.826	-457
863.912	265
863.999	-303
864.086	-230
864.172	116
864.259	221
864.345	230
864.432	-268
864.518	-327
864.604	235
864.691	133
864.777	1537
864.863	1278
864.950	2265
865.036	2803
865.122	5475
865.209	4610
865.295	4812
865.381	4603
865.467	4787
865.553	6085
865.639	7844
865.726	14056
865.812	25337
865.898	43156
865.984	63577
866.070	117742
866.156	88778
866.242	22559
866.328	8426
866.414	4499
866.499	5141
866.585	3444
866.671	4022
866.757	3942
866.843	3520
866.928	3375
867.014	2651
867.100	3010
867.186	2661
867.271	2549
867.357	3425
867.442	2866
867.528	3525
867.614	3448
867.699	2872
867.785	4875
867.870	3259
867.956	3060
868.041	4142
868.127	3351
868.212	3786
868.297	2912
868.383	3156
868.468	2563
868.553	2913
868.639	2670
868.724	2992
868.809	2952
868.894	2623
868.979	2565
869.065	2576
869.150	1413
869.235	2697
869.320	1518
869.405	1434
869.490	2348
869.575	1760
869.660	1405
869.745	3493
869.830	2501
869.915	2843
870.000	2241
870.085	1920
870.169	2627
870.254	3319
870.339	1294
870.424	1951
870.509	2181
870.593	2951
870.678	2202
870.763	2455
870.847	1644
870.932	2696
871.016	2489
871.101	1196
871.186	2737
871.270	2747
871.355	1590
871.439	2230
871.523	2400
871.608	1613
871.692	1508
871.777	2494
871.861	1775
871.945	2351
872.030	1189
872.114	1404
872.198	745
872.282	1082
872.367	1861
872.451	961
872.535	1180
872.619	1602
872.703	1840
872.787	1878
872.871	1489
872.955	1482
873.039	1038
873.123	1986
873.207	2005
873.291	991
873.375	1966
873.459	1649
873.543	1139
873.627	708
873.711	417
873.794	2237
873.878	922
873.962	-29
874.045	747
874.129	963
874.137	1050
874.213	1916
874.245	1562
874.296	986
874.352	1145
874.380	1225
874.460	1479
874.464	1488
874.547	1065
874.568	1162
874.631	1427
874.676	1581
874.714	1721
874.784	1536
874.798	1501
874.881	1844
874.892	1792
874.965	1476
874.999	1504
875.048	1462
875.107	1394
875.131	1380
875.215	725
875.215	725
875.298	1067
875.323	1134
875.381	1265
875.430	1486
875.465	1629
875.538	1699
875.548	1706
875.631	1191
875.646	1070
875.714	487
875.753	724
875.798	1056
875.861	1794
875.881	1995
875.964	1365
875.968	1342
876.047	1053
876.076	1525
876.130	2420
876.183	1826
876.213	1430
876.291	2147
876.296	2205
876.379	477
876.398	629
876.462	1022
876.506	678
876.545	451
876.613	1160
876.628	1302
876.711	1345
876.721	1491
876.794	2657
876.828	1853
876.877	565
876.935	1002
876.960	1280
877.043	1580
877.043	1579
877.125	1356
877.150	1554
877.208	1865
877.258	1104
877.291	579
877.365	823
877.374	901
877.456	1425
877.472	1522
877.539	1586
877.579	1368
877.622	1271
877.687	1383
877.704	1401
877.787	2313
877.794	2220
877.869	1299
877.901	1548
877.952	1715
878.008	1080
878.034	879
878.115	1142
878.117	1148
878.199	1181
878.222	1162
878.282	1273
878.329	1649
878.364	1819
878.437	1661
878.447	1653
878.529	1163
878.544	1147
878.611	925
878.651	1163
878.694	1645
878.758	2096
878.776	2161
878.858	1645
878.865	1617
878.941	1212
878.972	1255
879.023	1368
879.078	1259
879.105	1313
879.185	1116
879.187	1119
879.269	1951
879.292	1929
879.351	1353
879.399	1093
879.433	950
879.506	1330
879.516	1429
879.598	1200
879.613	1284
879.680	1686
879.720	1755
879.762	1793
879.827	1648
879.844	1580
879.926	1909
879.933	1886
880.007	1805
880.040	1877
880.089	2039
880.147	3304
880.171	3967
880.253	5001
880.254	5006
880.335	6307
880.360	6837
880.417	10104
880.467	15241
880.499	17607
880.574	17215
880.580	16699
880.662	6601
880.680	5147
880.744	2682
880.787	1833
880.825	1863
880.893	2006
880.907	1982
880.989	1251
881.000	1324
881.070	2525
881.106	2541
881.152	1948
881.213	1386
881.233	1317
881.315	1413
881.319	1414
881.396	1847
881.426	1889
881.478	2061
881.532	2878
881.559	2962
881.639	1570
881.641	1551
881.722	1517
881.745	1372
881.803	1415
881.852	1728
881.885	1750
881.958	1849
881.966	1875
882.047	1968
882.064	1851
882.129	1272
882.171	1347
882.210	1649
882.277	1811
882.291	1857
882.372	2387
882.383	2405
882.454	2596
882.489	2516
882.535	2198
882.596	2526
882.616	2693
882.697	2650
882.702	2632
882.778	1694
882.808	1440
882.859	1386
882.914	1232
882.940	1368
883.020	2174
883.021	2183
883.102	2152
883.127	2230
883.183	2958
883.233	3055
883.264	2327
883.339	1191
883.345	1200
883.426	1031
883.445	1052
883.507	1445
883.551	1794
883.587	1973
883.657	2033
883.668	2136
883.749	2951
883.763	3046
883.830	2116
883.869	1575
883.910	1470
883.975	1610
883.991	1745
884.072	2143
884.081	2152
884.152	2746
884.187	3124
884.233	3190
884.292	3153
884.314	2843
884.394	1861
884.398	1783
884.475	1252
884.504	983
884.555	714
884.610	1116
884.636	1537
884.716	2222
884.716	2234
884.797	2918
884.821	3010
884.877	2657
884.927	2372
884.958	2173
885.033	1576
885.038	1558
885.118	1647
885.139	1554
885.199	1910
885.244	2194
885.279	2477
885.350	2879
885.359	2924
885.439	3612
885.456	3632
885.520	2459
885.561	1968
885.600	2167
885.667	2228
885.680	2299
885.760	2774
885.773	2818
885.840	1950
885.878	1595
885.920	2166
885.984	2692
886.000	2628
886.080	2455
886.089	2450
886.160	2762
886.195	2691
886.240	2448
886.300	2426
886.320	2552
886.400	2880
886.406	2891
886.480	2137
886.511	1789
886.560	1855
886.616	1924
886.640	2038
886.720	2589
886.722	2591
886.800	2221
886.827	2035
886.879	2079
886.932	2148
886.959	2496
887.038	3711
887.039	3716
887.119	3031
887.143	2789
887.198	2734
887.248	2768
887.278	2609
887.354	2089
887.358	2108
887.437	2381
887.459	2454
887.517	2531
887.564	2514
887.596	2402
887.669	2174
887.676	2143
887.755	1702
887.774	1568
887.835	1990
887.880	2416
887.914	2546
887.985	2525
887.994	2625
888.073	3634
888.090	3815
888.153	4254
888.195	4485
888.232	3751
888.300	2443
888.311	2440
888.391	2250
888.405	2230
888.470	2565
888.510	2743
888.549	2586
888.615	2269
888.628	2497
888.708	3841
888.720	4028
888.787	3070
888.825	2510
888.866	2660
888.930	2963
888.945	2981
889.024	2937
889.035	2921
889.103	3207
889.140	3365
889.182	3137
889.245	2769
889.261	2801
889.340	2912
889.349	2913
889.419	3181
889.454	3327
889.498	2749
889.559	1915
889.577	2121
889.656	3005
889.664	3085
889.735	2871
889.768	2757
889.814	2952
889.873	3189
889.978	2837
890.083	2128
890.187	4050
890.292	3806
890.397	2944
890.501	3073
890.606	2850
890.710	2579
890.815	3254
890.919	3085
891.024	2848
891.128	2256
891.233	3264
891.337	3173
891.442	3674
891.546	2707
891.650	2359
891.755	2596
891.859	4577
891.963	4255
892.068	2739
892.172	1870
892.276	1779
892.380	3068
892.484	4463
892.589	3961
892.693	3246
892.797	2653
892.901	1356
893.005	2017
893.109	4127
893.213	3119
893.317	2247
893.421	1676
893.525	1433
893.629	1981
893.733	2756
893.837	2253
893.941	2710
894.045	1812
894.148	1494
894.252	2442
894.356	4019
894.460	3507
894.564	2478
894.667	2349
894.771	1297
894.875	1166
894.978	2104
895.082	2432
895.186	2529
895.289	1823
895.393	2322
895.496	2825
895.600	1924
895.703	1915
895.807	2404
895.910	2464
896.014	2714
896.117	1756
896.221	3217
896.324	2656
896.427	2251
896.531	1220
896.634	2555
896.737	1501
896.840	3042
896.944	2958
897.047	3216
897.150	2470
897.253	1611
897.356	1265
897.460	875
897.563	1503
897.666	3204
897.769	2306
897.872	2435
897.975	1861
898.078	2287
898.181	1416
898.284	2079
898.387	2232
898.490	2869
898.593	2090
898.695	1661
898.798	1857
898.901	2101
899.004	2372
899.107	2138
899.209	2013
899.312	3847
899.415	2446
899.518	1721
899.620	1441
899.723	1507
899.826	1604
899.928	2223
900.031	2209
900.133	3162
900.236	1815
900.338	1861
900.441	1609
900.543	1764
900.646	2057
900.748	1883
900.851	2673
900.953	1615
901.055	1236
901.158	2147
901.260	1697
901.362	2423
901.465	1142
901.567	2989
901.669	2526
901.771	2102
901.873	1644
901.976	2397
902.078	1205
902.180	1120
902.282	1374
902.384	1446
902.486	2560
902.588	2496
902.690	1525
902.792	1397
902.894	1992
902.996	3030
903.098	2223
903.200	1370
903.302	1719
903.404	1396
903.505	1344
903.607	2251
903.709	3137
903.811	3432
903.913	1983
904.014	1036
904.116	1665
904.218	1967
904.319	2035
904.421	2626
904.523	1361
904.624	2457
904.726	2060
904.827	1366
904.929	1461
905.030	1383
905.132	2752
905.233	3129
905.335	1656
905.436	1930
905.537	479
905.639	1291
905.740	1364
905.841	2668
905.943	2313
906.044	1258
906.145	874
906.247	1545
906.348	1877
906.449	2012
906.550	2687
906.651	1149
906.752	936
906.854	1638
906.955	1658
907.056	837
907.157	3074
907.258	2859
907.359	678
907.460	934
907.561	799
907.662	1324
907.762	2404
907.863	1919
907.964	1662
908.065	1193
908.166	1498
908.267	1046
908.367	662
908.468	1356
908.569	1443
908.670	2658
908.770	1958
908.871	2156
908.971	1642
909.072	1431
909.173	1881
909.273	2103
909.374	1966
909.474	1825
909.575	1661
909.675	636
909.776	1964
909.876	2042
909.977	1466
910.077	2868
910.177	2270
910.278	2417
910.378	1027
910.478	1914
910.579	1749
910.679	1904
910.779	1829
910.879	2650
910.980	2448
911.080	2533
911.180	1154
911.280	1693
911.380	997
911.480	1959
911.580	1159
911.680	2312
911.780	2378
911.880	2262
911.980	1335
912.080	1665
912.180	1382
912.280	1822
912.380	888
912.480	831
912.580	925
912.679	1528
912.779	1766
912.879	2111
912.979	1565
913.078	1795
913.178	1106
913.278	1258
913.377	1116
913.477	2159
913.577	924
913.676	2297
913.776	2458
913.875	1701
913.975	1091
914.074	2479
914.174	1605
914.273	1151
914.373	2194
914.472	1973
914.572	575
914.671	1625
914.770	2389
914.870	1166
914.969	1365
915.068	2160
915.167	1613
915.267	1653
915.366	1161
915.465	1669
915.564	2011
915.663	1811
915.763	1298
915.862	2179
915.961	2001
916.060	755
916.159	690
916.258	1079
916.357	2058
916.456	2568
916.555	1105
916.654	1610
916.752	2196
916.851	2337
916.950	2014
917.049	1191
917.148	1162
917.247	1625
917.345	2051
917.444	2172
917.543	1075
917.642	2148
917.740	1992
917.839	2422
917.937	3009
918.036	1856
918.135	1878
918.233	1405
918.332	1165
918.430	1436
918.529	1371
918.627	1942
918.726	2718
918.824	1908
918.923	1852
919.021	1024
919.119	1428
919.218	769
919.316	1907
919.414	2129
919.512	2560
919.611	1954
919.709	1460
919.807	3225
919.905	2908
920.003	2667
920.102	2557
920.200	2462
920.298	2978
920.396	1390
920.494	2659
920.592	1930
920.690	2384
920.788	2553
920.886	2530
920.984	2953
921.082	2396
921.180	4074
921.277	2548
921.375	3703
921.473	5127
921.571	4819
921.669	3679
921.766	4931
921.864	4725
921.962	4787
922.060	3762
922.157	4669
922.255	4430
922.352	4672
922.450	4903
922.548	5681
922.645	6255
922.743	7798
922.840	12364
922.938	12052
923.035	11122
923.133	11539
923.230	13147
923.327	15760
923.425	14629
923.522	13481
923.619	12013
923.717	12113
923.814	11310
923.911	11468
924.008	12414
924.106	11268
924.203	10349
924.300	11030
924.397	10881
924.494	11476
924.591	10182
924.688	10163
924.786	10485
924.883	10493
924.979	10611
925.077	10787
925.173	9938
925.270	11279
925.367	11601
925.464	11902
925.561	11918
925.658	12544
925.755	9291
925.852	11426
925.948	9907
926.045	11051
926.142	11755
926.239	11404
926.335	9099
926.432	10856
926.529	11359
926.625	11991
926.722	8852
926.818	8836
926.915	10347
927.011	9423
927.108	9558
927.204	9660
927.301	8407
927.397	10470
927.494	11580
927.590	7566
927.687	8853
927.783	10989
927.879	10045
927.976	8906
928.072	8903
928.168	10110
928.264	9629
928.361	9221
928.457	10412
928.553	8863
928.649	8805
928.745	9120
928.841	8096
928.937	9869
929.033	9000
929.129	9759
929.225	9512
929.321	7793
929.417	8178
929.513	9596
929.609	8486
929.705	7541
929.801	8693
929.897	7553
929.993	8369
930.089	8967
930.184	7290
930.280	8951
930.376	10181
930.471	7464
930.567	6730
930.663	7978
930.758	6624
930.854	7754
930.950	7659
931.045	7024
931.141	7766
931.236	9783
931.332	7979
931.427	7749
931.523	9119
931.618	7938
931.714	6113
931.809	7309
931.905	8173
932.000	5573
932.095	5684
932.191	9398
932.286	8807
932.381	7882
932.476	6080
932.572	6666
932.667	6529
932.762	6587
932.857	7236
932.952	8890
933.047	6795
933.142	5908
933.237	7174
933.332	7292
933.427	7779
933.522	5971
933.617	6594
933.712	7145
933.807	8384
933.902	9080
933.997	8003
934.092	5122
934.187	6667
934.282	7195
934.376	7424
934.471	7586
934.566	6324
934.661	5629
934.755	7221
934.850	7961
934.945	6042
935.039	5793
935.134	5384
935.228	7052
935.323	9518
935.417	4871
935.512	4825
935.606	4779
935.701	6666
935.795	8812
935.890	6143
935.984	4934
936.079	4948
936.173	6142
936.267	4559
936.362	5146
936.456	6306
936.550	8245
936.644	6615
936.738	4081
936.833	4851
936.927	5129
937.021	5915
937.115	5652
937.209	6011
937.303	6182
937.397	4451
937.491	5707
937.585	6637
937.679	5537
937.773	4299
937.867	3869
937.961	4122
938.055	7440
938.149	6112
938.243	3679
938.337	3935
938.430	4342
938.524	6822
938.618	6084
938.712	4343
938.805	5915
938.899	5838
938.993	6592
939.086	4628
939.180	4027
939.274	4692
939.367	5985
939.461	6523
939.554	4522
939.648	3543
939.741	4694
939.835	5730
939.928	7420
940.022	6679
940.115	4687
940.208	5689
940.302	6929
940.395	7789
940.488	4344
940.582	3935
940.675	3591
940.768	4591
940.861	6465
940.954	5424
941.048	3379
941.141	2835
941.234	4699
941.327	4960
941.420	5687
941.513	4862
941.606	4546
941.699	4708
941.792	5595
941.885	4040
941.978	4875
942.071	4801
942.164	2273
942.257	3845
942.349	3966
942.442	4312
942.535	3309
942.628	4060
942.721	3974
942.813	3895
942.906	5804
942.999	3641
943.091	2946
943.184	4894
943.277	4379
943.369	3201
943.462	2548
943.554	4485
943.647	4090
943.739	4545
943.832	4801
943.924	2094
944.017	3439
944.109	2344
944.201	3291
944.294	4150
944.386	4451
944.478	4263
944.571	2432
944.663	3434
944.755	3708
944.847	3894
944.940	3516
945.032	2101
945.124	2673
945.216	4254
945.308	4438
945.400	3719
945.492	3718
945.584	5778
945.676	5979
945.768	4043
945.860	5218
945.952	4510
946.044	3532
946.136	3269
946.228	3623
946.320	3027
946.412	4503
946.503	4474
946.595	4648
946.687	2469
946.779	2067
946.870	2674
946.962	2714
947.054	3429
947.145	4261
947.237	3126
947.329	3655
947.420	2604
947.512	3122
947.603	2302
947.695	2814
947.786	2497
947.878	3086
947.969	4175
948.061	4349
948.152	2987
948.243	2169
948.335	2711
948.426	2332
948.517	2995
948.609	4519
948.700	2428
948.791	2913
948.882	1950
948.973	2249
949.065	2952
949.156	3079
949.247	2240
949.338	2602
949.429	1663
949.520	2556
949.611	3327
949.702	3242
949.793	3149
949.884	2706
949.975	2781
950.066	1662
950.157	1863
950.247	2594
950.338	2048
950.429	2903
950.520	2356
950.611	2552
950.701	3478
950.792	3842
950.883	3141
950.973	2539
951.064	2461
951.155	3943
951.245	3547
951.336	3970
951.427	3098
951.517	4560
951.608	3213
951.698	2833
951.788	2581
951.879	1777
951.969	2317
952.060	2179
952.150	3047
952.240	4183
952.331	924
952.421	4340
952.511	1358
952.602	2004
952.692	1557
952.782	1424
952.872	2261
952.962	2833
953.052	2245
953.143	1520
953.233	2528
953.323	4075
953.413	2633
953.503	3635
953.593	3269
953.683	2823
953.773	1195
953.863	1456
953.953	1466
954.042	3184
954.132	2986
954.222	2784
954.312	1821
954.402	2649
954.492	2703
954.581	2248
954.671	2315
954.761	1832
954.850	3339
954.940	1174
955.030	1425
955.119	1025
955.209	2069
955.298	2626
955.388	3415
955.477	3385
955.567	1036
955.656	1938
955.746	2680
955.835	2253
955.925	1753
956.014	2643
956.103	3122
956.193	3650
956.282	1853
956.371	2453
956.461	3019
956.550	1423
956.639	2062
956.728	1557
956.817	1975
956.906	2051
956.995	2489
957.085	1792
957.174	1903
957.263	1809
957.352	1506
957.441	1662
957.530	2014
957.619	1803
957.708	2109
957.796	1479
957.885	2063
957.974	1203
958.063	2255
958.152	875
958.241	1572
958.329	1695
958.418	1877
958.507	1764
958.596	2647
958.684	1818
958.773	1666
958.861	1993
958.950	682
959.039	2375
959.127	2152
959.216	2838
959.304	2342
959.393	2071
959.481	3159
959.570	2341
959.658	813
959.746	1851
959.835	1940
959.923	2060
960.011	662
960.100	2154
960.188	1483
960.276	1580
960.365	1564
960.453	736
960.541	340
960.629	1533
960.717	556
960.805	596
960.893	1056
960.981	2189
961.069	3633
961.158	2968
961.245	3183
961.333	2689
961.421	937
961.509	1633
961.597	2424
961.685	1374
961.773	1497
961.861	1917
961.949	2621
962.036	362
962.124	1955
962.212	1298
962.299	804
962.387	1345
962.475	1790
962.562	1049
962.650	2144
962.738	1456
962.825	417
962.913	1785
963.000	1039
963.088	2682
963.175	1834
963.263	1964
963.350	1091
963.438	1182
963.525	787
963.612	2761
963.700	1230
963.787	2535
963.874	1159
963.962	1051
964.049	1308
964.136	809
964.223	460
964.310	1020
964.398	1340
964.485	1535
964.572	845
964.659	2704
964.746	1104
964.833	1191
964.920	1223
965.007	975
965.094	1085
965.181	2007
965.268	2259
965.355	1390
965.441	1389
965.528	622
965.615	1358
965.702	1774
965.789	452
965.875	2289
965.962	2431
966.049	472
966.136	1533
966.222	1622
966.309	2019
966.395	1217
966.482	2279
966.569	1500
966.655	1399
966.742	1760
966.828	579
966.915	983
967.001	772
967.087	882
967.174	626
967.260	1795
967.347	920
967.433	2037
967.519	2164
967.605	975
967.692	554
967.778	1821
967.864	1021
967.950	1626
968.036	562
968.123	1383
968.209	699
968.295	886
968.381	2233
968.467	1707
968.553	84
968.639	1917
968.725	1481
968.811	1612
968.897	2438
968.983	1229
969.069	743
969.154	381
969.240	998
969.326	857
969.412	775
969.497	607
969.583	431
969.669	1921
969.755	2114
969.840	1726
969.926	3495
970.012	3726
970.097	4291
970.183	1732
970.268	1774
970.354	2242
970.439	526
970.525	2764
970.610	398
970.696	2686
970.781	1355
970.866	704
970.952	1935
971.037	363
971.122	793
971.208	1302
971.293	1128
971.378	759
971.463	302
971.549	1002
971.634	1079
971.719	1861
971.804	1124
971.889	1896
971.974	1169
972.059	1301
972.144	840
972.229	973
972.314	876
972.399	1586
972.484	364
972.569	1506
972.654	-121
972.739	2228
972.824	1173
972.908	350
972.993	807
973.078	587
973.163	1343
973.247	1596
973.332	-670
973.417	2390
973.501	8
973.586	889
973.671	82
973.755	-247
973.840	712
973.924	1901
974.009	2092
974.093	1900
974.178	2409
974.262	2036
974.346	711
974.431	1566
974.515	867
974.600	2264
974.684	671
974.768	753
974.852	2465
974.937	-180
975.021	1171
975.105	1209
975.189	983
975.273	997
975.358	66
975.442	807
975.526	1166
975.610	387
975.694	-231
975.778	1855
975.862	209
975.946	-902
976.030	2366
976.114	1430
976.198	1337
976.281	681
976.365	1631
976.449	797
976.533	1993
976.617	1026
976.700	483
976.784	981
976.868	562
976.951	590
977.035	245
977.119	680
977.202	613
977.286	1608
977.369	1689
977.453	3387
977.536	2310
977.620	1035
977.703	1868
977.787	1209
977.870	2117
977.953	1827
978.037	-347
978.120	1435
978.203	589
978.287	1376
978.370	436
978.453	1121
978.536	824
978.620	850
978.703	1172
978.786	173
978.869	24
978.952	140
979.035	2139
979.118	1483
979.201	71
979.284	1188
979.367	448
979.450	1564
979.533	607
979.616	1609
979.699	606
979.782	1445
979.865	1200
979.948	960
980.030	866
980.113	1483
980.196	387
980.279	1648
980.361	416
980.444	600
980.526	2329
980.609	2769
980.692	3134
980.774	2754
980.857	876
980.939	2463
981.022	1447
981.104	957
981.187	851
981.269	2127
981.352	727
981.434	975
981.516	914
981.599	1954
981.681	383
981.763	1388
981.846	1029
981.928	1317
982.010	1081
982.092	906
982.174	1871
982.256	723
982.339	1049
982.421	1521
982.503	1372
982.585	853
982.667	1443
982.749	1039
982.831	1065
982.913	805
982.995	1968
983.077	1150
983.158	2184
983.240	248
983.322	1867
983.404	3991
983.486	1856
983.568	3466
983.649	1209
983.731	2198
983.813	1805
983.894	1299
983.976	1582
984.058	2088
984.139	2627
984.221	802
984.302	1843
984.384	1430
984.465	1126
984.547	1535
984.628	462
984.710	2072
984.791	1641
984.872	1111
984.954	1855
985.035	3422
985.116	819
985.198	1461
985.279	2290
985.360	1769
985.441	1816
985.522	1706
985.604	1541
985.685	6
985.766	2728
985.847	2601
985.928	1026
986.009	1986
986.090	937
986.171	2077
986.252	1568
986.333	1556
986.414	846
986.495	2062
986.576	2382
986.656	1895
986.737	1845
986.818	1889
986.899	1398
986.980	1766
987.060	3100
987.141	1430
987.222	3175
987.302	3620
987.383	3948
987.464	2646
987.544	3462
987.625	2224
987.705	2694
987.786	2908
987.866	2454
987.947	2687
988.027	3466
988.108	2013
988.188	2087
988.268	1998
988.349	2388
988.429	2755
988.509	2353
988.589	2297
988.670	821
988.750	3011
988.830	1925
988.910	2450
988.990	2493
989.070	1814
989.151	2212
989.231	1651
989.311	2674
989.391	1972
989.471	2040
989.551	2154
989.631	1794
989.711	2483
989.791	1450
989.870	1491
989.950	2874
990.030	1292
990.110	1979
990.190	1202
990.269	1845
990.349	1991
990.429	1482
990.509	2064
990.588	1306
990.668	1589
990.747	1742
990.827	1771
990.907	2122
990.986	886
991.066	1846
991.145	980
991.225	2091
991.304	2100
991.383	1000
991.463	1123
991.542	1714
991.622	693
991.701	783
991.780	1146
991.859	1250
991.939	1532
992.018	1163
992.097	1338
992.176	720
992.256	1145
992.335	797
992.414	2123
992.493	568
992.572	675
992.651	1815
992.730	1354
992.809	519
992.888	524
992.967	969
993.046	852
993.125	-358
993.203	972
993.282	1660
993.361	1187
993.440	456
993.519	266
993.597	1273
993.676	1193
993.755	1781
993.834	328
993.912	-54
993.991	1062
994.069	207
994.148	523
994.226	879
994.305	1106
994.384	180
994.462	1152
994.540	-80
994.619	-359
994.697	1133
994.776	1055
994.854	1122
994.932	41
995.011	944
995.089	-557
995.167	520
995.245	912
995.324	732
995.402	1319
995.480	-323
995.558	519
995.636	-809
995.714	341
995.792	919
995.870	-525
995.948	279
996.026	95
996.104	-577
996.182	707
996.260	-304
996.338	1043
996.416	-355
996.494	89
996.572	623
996.649	428
996.727	-145
996.805	647
996.883	201
996.960	636
997.038	509
997.116	1037
997.193	-45
997.271	293
997.348	-396
997.426	-176
997.504	-600
997.581	732
997.658	44
997.736	-912
997.813	-944
997.891	912
997.968	-1379
998.046	-166
998.123	-838
998.200	169
998.277	-1178
998.355	561
998.432	-1782
998.509	82
998.586	957
998.663	497
998.741	-662
998.818	-558
998.895	-983
998.972	162
999.049	457
999.126	-763
999.203	-307
999.280	146
999.357	-550
999.434	-302
999.511	-320
999.587	82
999.664	-1185
999.741	-504
999.818	-1028
999.895	-350
999.971	-1352
1000.048	-867
1000.125	671
1000.202	-1656
1000.278	6
1000.355	-253
1000.431	-526
1000.508	-1667
1000.584	-654
1000.661	622
1000.738	-729
1000.814	-956
1000.890	-279
1000.967	-813
1001.043	97
1001.120	-2435
1001.196	-378
1001.272	-524
1001.349	-1043
1001.425	-30
1001.501	-312
1001.577	-273
1001.654	0
1001.730	-1639
1001.806	-841
1001.882	-874
1001.958	-527
1002.034	-268
1002.110	-970
1002.186	-903
1002.262	-1721
1002.338	-550
1002.414	-368
1002.490	-146
1002.566	-1347
1002.642	-1128
1002.718	-737
1002.794	-1258
1002.870	-999
1002.945	-1289
1003.021	-824
1003.097	-878
1003.173	-686
1003.248	-618
1003.324	-1144
1003.400	-1103
1003.475	-2026
1003.551	-1404
1003.626	-762
1003.702	-1079
1003.777	-1086
1003.853	-1036
1003.928	-1525
1004.004	-1066
1004.079	-547
1004.155	83
1004.230	-1819
1004.305	-196
1004.381	-1165
1004.456	-1063
1004.531	-1039
1004.607	-1304
1004.682	-1182
1004.757	-419
1004.832	-1179
1004.907	-1480
1004.982	-1330
1005.057	-1029
1005.133	-1392
1005.208	-778
1005.283	-1073
1005.358	-1325
1005.433	-2028
1005.508	-372
1005.583	-1148
1005.657	-796
1005.732	-667
1005.807	-1634
1005.882	-1339
1005.957	-809
1006.032	-382
1006.106	-844
1006.181	-1683
1006.256	-765
1006.331	-1093
1006.405	-1176
1006.480	-1189
1006.554	-1572
1006.629	-1231
1006.704	-1152
1006.778	-738
1006.853	-1630
1006.927	-1356
1007.002	-1491
1007.076	-1050
1007.150	-1397
1007.225	-1593
1007.299	-840
1007.373	-1699
1007.448	-508
1007.522	-395
1007.596	-618
1007.671	-1216
1007.745	-1567
1007.819	-2088
1007.893	-735
1007.967	-1259
1008.041	-1473
1008.115	-506
1008.190	-2001
1008.264	-1435
1008.338	-1619
1008.412	-1222
1008.486	-1143
1008.560	-1504
1008.633	-1449
1008.707	-1202
1008.781	-789
1008.855	-1750
1008.929	-1012
1009.003	-2760
1009.076	-1455
1009.150	-1329
1009.224	-1091
1009.298	-1118
1009.371	-2260
1009.445	-1428
1009.519	-1141
1009.592	-2170
1009.666	-1683
1009.739	-661
1009.813	-2018
1009.886	-1504
1009.960	-2151
1010.033	-1283
1010.107	-628
1010.180	-2271
1010.253	-1051
1010.327	-2315
1010.400	-1595
1010.473	-1535
1010.547	160
1010.620	-1717
1010.693	-987
1010.766	-1335
1010.840	-709
1010.913	-1395
1010.986	-2255
1011.059	-959
1011.132	-1991
1011.205	-1350
1011.278	-1393
1011.351	-1560
1011.424	-1462
1011.497	-1895
1011.570	-1840
1011.643	-1307
1011.716	-1710
1011.789	-2110
1011.862	-1148
1011.934	-1045
1012.007	-2380
1012.080	-1756
1012.153	-1881
1012.225	-688
1012.298	-2324
1012.371	-1459
1012.443	-1040
1012.516	-1960
1012.588	-914
1012.661	-1088
1012.733	-2434
1012.806	-1321
1012.879	-2160
1012.951	-1113
1013.023	-914
1013.096	-1724
1013.168	-1634
1013.241	-1697
1013.313	-1143
1013.385	-2488
1013.458	-1483
1013.530	-1561
1013.602	-2308
1013.674	-2146
1013.746	-2230
1013.819	-1362
1013.891	-1020
1013.963	-2370
1014.035	-2038
1014.107	-2060
1014.179	-2107
1014.251	-2982
1014.323	-894
1014.395	-1673
1014.467	-1782
1014.539	-1573
1014.611	-2339
1014.683	-1212
1014.754	-1635
1014.826	-2067
1014.898	-1491
1014.970	-2698
1015.042	-938
1015.113	-1356
1015.185	-1270
1015.257	-2267
1015.328	-1685
1015.400	-2510
1015.471	-1658
1015.543	-2316
1015.615	-1410
1015.686	-1770
1015.757	-2529
1015.829	-1242
1015.901	-2082
1015.972	-1336
1016.043	-1798
1016.115	-1529
1016.186	-1284
1016.257	-1770
1016.328	-1268
1016.400	-624
1016.471	-2089
1016.542	-1891
1016.613	-857
1016.685	-1663
1016.756	-1052
1016.827	-2061
1016.898	-2039
1016.969	-982
1017.040	-2147
1017.111	-1697
1017.182	-1264
1017.253	-1692
1017.324	-1725
1017.395	-1796
1017.466	-836
1017.537	-2137
1017.608	-1548
1017.678	-1917
1017.749	-1612
1017.820	-2196
1017.891	-1967
1017.961	-2242
1018.032	-1577
1018.103	-1503
1018.173	-1221
1018.244	-2242
1018.315	-1959
1018.385	-1406
1018.456	-1726
1018.526	-1996
1018.597	-1244
1018.667	-1906
1018.738	-1894
1018.808	-1901
1018.878	-2150
1018.949	-1746
1019.019	-1396
1019.089	-2216
1019.160	-1676
1019.230	-2287
1019.300	-1465
1019.371	-2154
1019.441	-980
1019.511	-1842
1019.581	-2623
1019.651	-2038
1019.721	-1091
1019.791	-2367
1019.861	-1188
1019.931	-1675
1020.001	-2532
1020.071	-2149
1020.141	-1438
1020.211	-1690
1020.281	-1682
1020.351	-2313
1020.421	-1668
1020.491	-2040
1020.560	-1947
1020.630	-2356
1020.700	-1216
1020.770	-2965
1020.839	-2025
1020.909	-2404
1020.979	-1717
1021.048	-1289
1021.118	-1495
1021.187	-2126
1021.257	-2553
1021.326	-1672
1021.396	-1698
1021.465	-1930
1021.535	-1405
1021.604	-2947
1021.674	-1339
1021.743	-2372
1021.812	-1627
1021.882	-1983
1021.951	-1544
1022.020	-1814
1022.089	-1764
1022.159	-2080
1022.228	-482
1022.297	-2222
1022.366	-1893
1022.435	-2490
1022.504	-1438
1022.573	-1688
1022.642	-1535
1022.711	-1771
1022.781	-1644
1022.849	-2197
1022.918	-2726
1022.987	-1315
1023.056	-1835
1023.125	-2359
1023.194	-1313
1023.263	-1823
1023.331	-1356
1023.400	-1796
1023.469	-2332
1023.538	-1679
1023.606	-2429
1023.675	-1848
1023.744	-1552
1023.812	-2014
1023.881	-863
1023.949	-1920
1024.018	-1748
1024.086	-2421
1024.155	-1321
1024.223	-2275
1024.292	-1940
1024.360	-1424
1024.429	-2045
1024.497	-3011
1024.565	-1154
1024.634	-2147
1024.702	-2122
1024.770	-1542
1024.838	-2409
1024.907	-2209
1024.975	-2451
1025.043	-1993
1025.111	-1903
1025.179	-1524
1025.247	-2029
1025.315	-2383
1025.383	-1431
1025.451	-1672
1025.519	-2298
1025.587	-1288
1025.655	-1765
1025.723	-2553
1025.791	-2741
1025.859	-1883
1025.927	-1734
1025.995	-1941
1026.062	-1232
1026.130	-2372
1026.198	-2433
1026.266	-2164
1026.333	-1406
1026.401	-1281
1026.469	-1979
1026.536	-2364
1026.604	-2368
1026.671	-2477
1026.739	-1854
1026.806	-2492
1026.874	-2627
1026.941	-1745
1027.009	-2259
1027.076	-2923
1027.144	-1415
1027.211	-2669
1027.278	-1945
1027.345	-2168
1027.413	-1311
1027.480	-2220
1027.547	-1429
1027.614	-2210
1027.682	-1580
1027.749	-1832
1027.816	-2248
1027.883	-2168
1027.950	-1671
1028.017	-2552
1028.084	-1783
1028.151	-2446
1028.218	-1246
1028.285	-1944
1028.352	-1244
1028.419	-3005
1028.486	-2353
1028.553	-2146
1028.619	-1510
1028.686	-2224
1028.753	-1736
1028.820	-1757
1028.886	-1738
1028.953	-2397
1029.020	-1829
1029.086	-2293
1029.153	-2118
1029.220	-1955
1029.286	-2364
1029.353	-2144
1029.419	-2491
1029.486	-2384
1029.552	-3177
1029.619	-1997
1029.685	-1928
1029.751	-1481
1029.818	-576
1029.884	-2059
1029.951	-591
1030.017	-2310
1030.083	-2021
1030.149	-2751
1030.216	-1992
1030.282	-1757
1030.348	-2132
1030.414	-2529
1030.480	-1936
1030.546	-2899
1030.612	-1803
1030.678	-1852
1030.744	-1709
1030.810	-2032
1030.876	-2182
1030.942	-1570
1031.008	-1901
1031.074	-2556
1031.140	-2026
1031.206	-2176
1031.272	-2965
1031.337	-2241
1031.403	-784
1031.469	-2196
1031.534	-2564
1031.600	-1902
1031.666	-2674
1031.731	-3068
1031.797	-1983
1031.863	-1503
1031.928	-1743
1031.994	-2671
1032.059	-1434
1032.125	-2686
1032.190	-2472
1032.256	-2605
1032.321	-2616
1032.386	-2327
1032.452	-1167
1032.517	-3394
1032.582	-2830
1032.647	-1753
1032.713	-2093
1032.778	-2665
1032.843	-1990
1032.908	-1141
1032.974	-1823
1033.039	-2558
1033.104	-1972
1033.169	-2728
1033.234	-1439
1033.299	-1613
1033.364	-1955
1033.429	-1906
1033.494	-2183
1033.559	-2369
1033.624	-1857
1033.688	-1619
1033.753	-1770
1033.818	-1979
1033.883	-2414
1033.948	-1964
1034.013	-967
1034.077	-898
1034.142	-481
1034.207	-721
1034.271	2223
1034.336	1230
1034.400	-722
1034.465	-1478
1034.530	-1669
1034.594	-1767
1034.658	-2501
1034.723	-2433
1034.787	-1995
1034.852	-2187
1034.916	-2220
1034.981	-2702
1035.045	-2233
1035.109	-3048
1035.173	-1887
1035.238	-3260
1035.302	-1789
1035.366	-2662
1035.430	-2624
1035.495	-1810
1035.559	-2011
1035.623	-1880
1035.687	-2341
1035.751	-2169
1035.815	-2207
1035.879	-2747
1035.943	-1981
1036.007	-2767
1036.071	-1783
1036.135	-2462
1036.198	-2614
1036.262	-2218
1036.326	-2349
1036.390	-2687
1036.454	-2118
1036.517	-2798
1036.581	-1925
1036.645	-1889
1036.709	-1895
1036.772	-2583
1036.836	-2036
1036.900	-2623
1036.963	-2281
1037.026	-2758
1037.090	-2965
1037.154	-2412
1037.217	-2425
1037.280	-2334
1037.344	-2654
1037.407	-2778
1037.471	-2166
1037.534	-2287
1037.597	-2057
1037.661	-2083
1037.724	-2099
1037.787	-2563
1037.850	-2766
1037.913	-1831
1037.977	-1760
1038.040	-2475
1038.103	-2111
1038.166	-2456
1038.229	-2401
1038.292	-3202
1038.355	-2776
1038.418	-2542
1038.481	-1696
1038.544	-2315
1038.607	-2441
1038.670	-2447
1038.732	-3148
1038.795	-2613
1038.858	-1662
1038.921	-1915
1038.984	-2103
1039.046	-2393
1039.109	-2626
1039.172	-2736
1039.234	-2269
1039.297	-1814
1039.360	-2389
1039.422	-2311
1039.485	-1988
1039.547	-2906
1039.610	-2800
1039.672	-2797
1039.734	-2206
1039.797	-2223
1039.859	-1430
1039.922	-1679
1039.984	-2691
1040.046	-2173
1040.109	-2361
1040.171	-2386
1040.233	-2591
1040.295	-2723
1040.358	-2764
1040.420	-2009
1040.482	-2531
1040.544	-2303
1040.606	-1860
1040.668	-1974
1040.730	-1663
1040.792	-2528
1040.854	-2512
1040.916	-2533
1040.978	-2555
1041.040	-2351
1041.102	-2648
1041.164	-2391
1041.225	-2097
1041.287	-2519
1041.349	-2542
1041.411	-2533
1041.472	-2174
1041.534	-2809
1041.596	-2840
1041.657	-2574
1041.719	-2112
1041.781	-2626
1041.842	-2470
1041.904	-2199
1041.965	-2695
1042.027	-2047
1042.088	-2126
1042.150	-2832
1042.211	-2574
1042.272	-2430
1042.334	-1663
1042.395	-2787
1042.456	-2741
1042.518	-2064
1042.579	-1380
1042.640	-2299
1042.701	-2265
1042.763	-2126
1042.824	-2277
1042.885	-2299
1042.946	-1995
1043.007	-2464
1043.068	-2735
1043.129	-3380
1043.190	-2756
1043.251	-2061
1043.312	-2661
1043.373	-1889
1043.434	-2173
1043.495	-2499
1043.556	-2243
1043.616	-2236
1043.677	-2985
1043.738	-2691
1043.799	-2387
1043.859	-2953
1043.920	-2715
1043.981	-1878
1044.041	-1811
1044.102	-2480
1044.162	-1818
1044.223	-2974
1044.284	-2109
1044.344	-2597
1044.405	-2230
1044.465	-2537
1044.525	-2320
1044.586	-2542
1044.646	-2015
1044.707	-2923
1044.767	-2250
1044.827	-2102
1044.887	-2418
1044.948	-1499
1045.008	-2356
1045.068	-2398
1045.128	-2245
1045.188	-2166
1045.249	-2588
1045.309	-2359
1045.369	-1900
1045.429	-2753
1045.489	-2146
1045.549	-2397
1045.609	-2629
1045.669	-2713
1045.729	-2812
1045.789	-3366
1045.848	-2019
1045.908	-2238
1045.968	-1966
1046.028	-1937
1046.088	-2832
1046.147	-1977
1046.207	-2221
1046.267	-1839
1046.326	-2054
1046.386	-1844
1046.446	-1500
1046.505	-2944
1046.565	-1576
1046.624	-1266
1046.684	-1094
1046.743	-1455
1046.803	-417
1046.862	-853
1046.922	0
