'Start Wavelength	183.907
'End Wavelength	1046.922
'Gate Delay	5.000
'Gate Width (ms)	1.050
'Laser Output Level	0.000
'X Position	0.000
'Y Position	0.000
'Z Position	0.000
'Grid Point Number	1.000
'Shot Number	100.000
183.907	450.000
183.977	-71.000
184.047	-94
184.116	837
184.186	716
184.256	219
184.325	-312
184.395	-680
184.465	285
184.534	229
184.604	-884
184.674	-188
184.743	109
184.813	331
184.883	400
184.952	649
185.022	-494
185.092	198
185.161	-279
185.231	-21
185.301	-481
185.370	556
185.440	-419
185.509	559
185.579	-365
185.649	166
185.718	-35
185.788	1030
185.857	-113
185.927	-73
185.996	-534
186.066	510
186.136	150
186.205	-256
186.275	-220
186.344	308
186.414	-90
186.483	-3
186.553	1191
186.622	1491
186.692	-10
186.761	-78
186.831	157
186.900	464
186.970	408
187.039	611
187.109	137
187.178	548
187.248	372
187.317	348
187.387	527
187.456	-301
187.526	400
187.595	172
187.664	423
187.734	191
187.803	-332
187.873	307
187.942	-180
188.012	784
188.081	-419
188.150	-380
188.220	193
188.289	-92
188.358	922
188.428	519
188.497	-508
188.567	375
188.636	-295
188.705	303
188.775	371
188.844	-180
188.913	191
188.983	182
189.052	-282
189.121	838
189.191	82
189.260	1092
189.329	40
189.399	-19
189.468	-227
189.537	129
189.606	224
189.676	565
189.745	527
189.814	666
189.883	104
189.953	85
190.022	-318
190.091	866
190.161	-80
190.230	788
190.299	-646
190.368	-326
190.437	-910
190.507	-736
190.576	164
190.645	272
190.714	-366
190.783	177
190.853	450
190.922	708
190.991	-171
191.060	276
191.129	-365
191.198	501
191.268	666
191.337	175
191.406	159
191.475	-133
191.544	130
191.613	561
191.682	-457
191.752	-69
191.821	-164
191.890	49
191.959	586
192.028	525
192.097	98
192.166	-65
192.235	-1314
192.304	860
192.373	-1230
192.442	125
192.511	114
192.580	353
192.650	27
192.719	-179
192.788	-86
192.857	245
192.926	-392
192.995	-628
193.064	167
193.133	363
193.202	-518
193.271	404
193.340	569
193.409	-171
193.478	713
193.547	202
193.615	-371
193.684	-16
193.753	-845
193.822	167
193.891	-915
193.960	994
194.029	-246
194.098	382
194.167	-528
194.236	218
194.305	-363
194.374	789
194.443	391
194.512	89
194.580	-282
194.649	518
194.718	132
194.787	1054
194.856	-276
194.925	148
194.994	-799
195.062	490
195.131	-822
195.200	468
195.269	75
195.338	101
195.407	21
195.475	-220
195.544	553
195.613	-860
195.682	710
195.751	399
195.819	-221
195.888	36
195.957	353
196.026	-85
196.094	631
196.163	-112
196.232	59
196.301	823
196.369	-44
196.438	-219
196.507	-325
196.576	-95
196.644	-336
196.713	216
196.782	-139
196.850	474
196.919	655
196.988	-344
197.056	-368
197.125	120
197.194	-228
197.262	-283
197.331	-477
197.400	-505
197.468	250
197.537	-41
197.606	131
197.674	82
197.743	-294
197.812	-115
197.880	-20
197.949	-65
198.017	570
198.086	-356
198.155	19
198.223	616
198.292	-282
198.360	-1045
198.429	-345
198.497	396
198.566	-788
198.635	-370
198.703	80
198.772	772
198.840	-613
198.909	-10
198.977	-407
199.046	-349
199.114	-202
199.183	109
199.251	269
199.320	-435
199.388	4
199.457	-762
199.525	763
199.594	-77
199.662	294
199.731	331
199.799	190
199.867	455
199.936	-27
200.004	303
200.073	-287
200.141	-170
200.210	-920
200.278	317
200.346	-629
200.415	-231
200.483	-729
200.552	545
200.620	-218
200.688	603
200.757	476
200.825	-130
200.893	-325
200.962	120
201.030	-608
201.098	472
201.167	32
201.235	315
201.303	-649
201.372	692
201.440	-362
201.508	520
201.577	-80
201.645	-374
201.713	-933
201.781	19
201.850	443
201.918	678
201.986	66
202.055	603
202.123	-889
202.191	107
202.259	101
202.327	9
202.396	114
202.464	-81
202.532	294
202.600	866
202.669	592
202.737	-192
202.805	127
202.873	127
202.941	-255
203.009	286
203.078	242
203.146	787
203.214	-217
203.282	-140
203.350	-385
203.418	-152
203.487	79
203.555	111
203.623	-105
203.691	1292
203.759	-598
203.827	513
203.895	-131
203.963	-275
204.031	-467
204.099	325
204.168	-641
204.236	375
204.304	-63
204.372	252
204.440	-203
204.508	24
204.576	-951
204.644	-193
204.712	-863
204.780	-127
204.848	-600
204.916	-2
204.984	-127
205.052	269
205.120	-723
205.188	148
205.256	-1227
205.324	-491
205.392	-73
205.460	152
205.528	-994
205.596	77
205.664	-716
205.732	-725
205.799	36
205.867	-832
205.935	-734
206.003	44
206.071	-75
206.139	-369
206.207	-409
206.275	-603
206.343	-613
206.411	-288
206.478	-192
206.546	-428
206.614	-271
206.682	-340
206.750	140
206.818	113
206.885	323
206.953	-956
207.021	593
207.089	-45
207.157	-772
207.225	4
207.292	-403
207.360	189
207.428	-763
207.496	-61
207.563	-157
207.631	178
207.699	-685
207.767	3
207.834	-868
207.902	-104
207.970	-785
208.038	-522
208.105	-701
208.173	239
208.241	-54
208.309	289
208.376	-723
208.444	293
208.512	-220
208.579	-923
208.647	-622
208.715	828
208.782	-676
208.850	-434
208.918	-243
208.985	427
209.053	-212
209.120	124
209.188	-788
209.256	47
209.323	-724
209.391	120
209.459	584
209.526	-435
209.594	-431
209.661	-473
209.729	-406
209.796	279
209.864	204
209.932	-1190
209.999	1073
210.067	-143
210.134	-17
210.202	-145
210.269	-677
210.337	675
210.404	-195
210.472	216
210.539	-230
210.607	-316
210.674	-355
210.742	216
210.809	-346
210.877	-329
210.944	-275
211.012	-1532
211.079	359
211.146	-388
211.214	-221
211.281	1063
211.349	243
211.416	-131
211.484	32
211.551	-1344
211.618	-915
211.686	-245
211.753	-752
211.821	207
211.888	-400
211.955	352
212.023	249
212.090	62
212.157	-875
212.225	-475
212.292	416
212.359	139
212.427	429
212.494	515
212.561	-296
212.629	-322
212.696	-397
212.763	119
212.831	-1177
212.898	-87
212.965	-483
213.032	38
213.100	-820
213.167	-264
213.234	52
213.301	569
213.369	-903
213.436	-767
213.503	-1262
213.570	-147
213.638	-493
213.705	-87
213.772	-1326
213.839	-245
213.906	900
213.973	-506
214.041	-803
214.108	530
214.175	-180
214.242	-88
214.309	-413
214.376	-425
214.444	-778
214.511	-514
214.578	-457
214.645	132
214.712	-218
214.779	214
214.846	-697
214.913	-24
214.980	9
215.048	259
215.115	132
215.182	182
215.249	-47
215.316	-697
215.383	533
215.450	-295
215.517	-334
215.584	-67
215.651	-146
215.718	-66
215.785	-5
215.852	128
215.919	492
215.986	314
216.053	254
216.120	-747
216.187	-924
216.254	1022
216.321	-403
216.388	-383
216.455	-263
216.522	-195
216.589	-304
216.656	-206
216.722	586
216.789	-708
216.856	-355
216.923	-79
216.990	-627
217.057	-847
217.124	-345
217.191	-761
217.258	-484
217.324	-185
217.391	-104
217.458	-622
217.525	-1094
217.592	-30
217.659	-1248
217.725	939
217.792	-1140
217.859	-286
217.926	-673
217.993	-393
218.059	539
218.126	-110
218.193	-907
218.260	-525
218.327	-477
218.393	-306
218.460	-769
218.527	-965
218.594	-254
218.660	-353
218.727	-153
218.794	-963
218.860	411
218.927	-801
218.994	-765
219.061	-573
219.127	-638
219.194	466
219.261	-210
219.327	-1107
219.394	-454
219.461	-670
219.527	-395
219.594	-358
219.661	-454
219.727	-1935
219.794	215
219.860	-620
219.927	-174
219.994	169
220.060	908
220.127	2433
220.193	946
220.260	-710
220.326	-174
220.393	451
220.460	-456
220.526	-737
220.593	-1137
220.659	1376
220.726	-1153
220.792	598
220.859	262
220.925	-167
220.992	-648
221.058	461
221.125	-116
221.191	329
221.258	-1061
221.324	-311
221.391	-361
221.457	-767
221.524	-788
221.590	-206
221.657	-287
221.723	-465
221.789	-1005
221.856	1114
221.922	-1180
221.989	404
222.055	-500
222.121	-721
222.188	1312
222.254	-150
222.321	-1354
222.387	-1165
222.453	-74
222.520	50
222.586	-757
222.652	-108
222.719	-1280
222.785	-362
222.851	-582
222.918	103
222.984	-457
223.050	-600
223.116	-2146
223.183	146
223.249	-705
223.315	4
223.382	-887
223.448	-456
223.514	-570
223.580	-328
223.647	-1188
223.713	-741
223.779	23
223.845	230
223.911	-338
223.978	-765
224.044	-338
224.110	-1259
224.176	-288
224.242	-772
224.309	-1786
224.375	-312
224.441	-1391
224.507	-703
224.573	-1791
224.639	478
224.705	-827
224.772	127
224.838	-1149
224.904	224
224.970	-912
225.036	-46
225.102	-2150
225.168	732
225.234	-665
225.300	-625
225.366	-621
225.432	213
225.499	-292
225.565	-868
225.631	-687
225.697	-649
225.763	-627
225.829	-237
225.895	-655
225.961	-668
226.027	-921
226.093	-956
226.159	192
226.225	189
226.291	-571
226.357	434
226.423	-379
226.489	-126
226.554	-802
226.620	-117
226.686	-881
226.752	-654
226.818	-945
226.884	971
226.950	13
227.016	-86
227.082	-60
227.148	32
227.214	-53
227.279	-49
227.345	-736
227.411	-20
227.477	984
227.543	3112
227.609	2816
227.674	843
227.740	-67
227.806	515
227.872	-1080
227.938	-180
228.003	-972
228.069	-951
228.135	-587
228.201	-525
228.267	-672
228.332	-819
228.398	-1973
228.464	22
228.530	-217
228.595	-530
228.661	-1169
228.727	-898
228.792	12
228.858	-246
228.924	-2683
228.990	1123
229.055	-1506
229.121	-304
229.187	-873
229.252	-902
229.318	-887
229.384	-378
229.449	-1123
229.515	-1506
229.581	-913
229.646	422
229.712	-1135
229.777	7
229.843	-898
229.909	-465
229.974	-996
230.040	26
230.105	-703
230.171	-1418
230.236	-652
230.302	-860
230.368	-1253
230.433	-1022
230.499	-1828
230.564	-320
230.630	-638
230.695	-411
230.761	131
230.826	-2462
230.892	-167
230.957	-1150
231.023	-525
231.088	-732
231.154	-1427
231.219	85
231.284	-1534
231.350	-31
231.415	-1857
231.481	187
231.546	-488
231.612	-1085
231.677	-1358
231.742	-1830
231.808	885
231.873	-87
231.939	-2728
232.004	632
232.069	-120
232.135	6
232.200	-1083
232.265	151
232.331	-504
232.396	-572
232.461	-763
232.527	-240
232.592	-1713
232.657	-847
232.723	-356
232.788	-943
232.853	-814
232.918	-204
232.984	-1167
233.049	-751
233.114	-1691
233.179	363
233.245	940
233.310	66
233.375	-2322
233.440	-78
233.506	-1877
233.571	-1453
233.636	-1091
233.701	-272
233.766	-822
233.832	22
233.897	-1102
233.962	-2091
234.027	-57
234.092	241
234.157	-1344
234.222	-631
234.288	-951
234.353	-111
234.418	-322
234.483	-228
234.548	-751
234.613	-357
234.678	-403
234.743	-856
234.808	1231
234.873	-1383
234.938	219
235.004	-1512
235.069	-955
235.134	-1222
235.199	-517
235.264	310
235.329	-1334
235.394	-164
235.459	119
235.524	-1826
235.589	-695
235.654	-395
235.719	-2174
235.784	-212
235.849	-1051
235.913	-804
235.978	-538
236.043	-600
236.108	-1387
236.173	-808
236.238	-346
236.303	-317
236.368	-1029
236.433	-176
236.498	-1306
236.563	-890
236.627	-763
236.692	1250
236.757	576
236.822	-230
236.887	-1427
236.952	289
237.017	-2059
237.081	387
237.146	-1300
237.211	-288
237.276	622
237.341	2899
237.405	122
237.470	-348
237.535	-549
237.600	-5
237.664	420
237.729	-1533
237.794	-1403
237.859	479
237.923	-1723
237.988	-122
238.053	-967
238.118	-1833
238.182	12
238.247	2110
238.312	-1191
238.376	-36
238.441	-2673
238.506	419
238.570	-1715
238.635	358
238.700	-433
238.764	-796
238.829	-742
238.893	-815
238.958	-136
239.023	-1096
239.087	-458
239.152	165
239.216	-1652
239.281	-120
239.346	-578
239.410	-482
239.475	-1220
239.539	1043
239.604	-720
239.668	-32
239.733	2
239.797	3043
239.862	5975
239.926	4715
239.991	1171
240.055	-116
240.120	-726
240.184	684
240.249	-1174
240.313	99
240.378	-882
240.442	-543
240.507	531
240.571	-834
240.635	-1130
240.700	-243
240.764	-393
240.829	-337
240.893	-1322
240.957	264
241.022	-518
241.086	605
241.151	-1627
241.215	-1328
241.279	665
241.344	-1082
241.408	-286
241.472	-358
241.537	-177
241.601	-448
241.665	-2460
241.730	-1364
241.794	256
241.858	-890
241.922	-1376
241.987	-293
242.051	-1355
242.115	-2029
242.179	-309
242.244	-654
242.308	249
242.372	-958
242.436	-829
242.501	-498
242.565	-1605
242.629	-1071
242.693	-58
242.757	-1510
242.822	-968
242.886	184
242.950	115
243.014	-1011
243.078	-758
243.142	-398
243.206	-1346
243.271	-255
243.335	-1060
243.399	-430
243.463	-879
243.527	1650
243.591	-360
243.655	-846
243.719	-1392
243.783	452
243.847	-479
243.911	104
243.975	-1237
244.040	-1411
244.104	136
244.168	-186
244.232	-1303
244.296	-239
244.360	-175
244.424	-1860
244.488	-652
244.552	40
244.615	-1991
244.679	80
244.743	-1584
244.807	-585
244.871	-712
244.935	355
244.999	-1732
245.063	-938
245.127	622
245.191	-505
245.255	-1259
245.319	-161
245.383	-1667
245.446	651
245.510	-1184
245.574	-474
245.638	112
245.702	-1276
245.766	59
245.829	1040
245.893	-1279
245.957	-604
246.021	845
246.085	-739
246.149	-538
246.212	1575
246.276	298
246.340	-542
246.404	-369
246.467	637
246.531	-1543
246.595	-220
246.659	587
246.722	-1300
246.786	208
246.850	413
246.913	-315
246.977	-1466
247.041	-339
247.104	175
247.168	-305
247.232	1017
247.295	1661
247.359	492
247.423	-491
247.486	389
247.550	-94
247.614	-221
247.677	-349
247.741	249
247.804	-630
247.868	516
247.932	-297
247.995	2444
248.059	260
248.122	-910
248.186	912
248.249	441
248.313	2457
248.376	4371
248.440	1156
248.503	-1411
248.567	1019
248.630	-479
248.694	-200
248.757	1794
248.821	4152
248.884	2563
248.948	542
249.011	3125
249.075	4540
249.138	5050
249.202	563
249.265	-72
249.328	-570
249.392	-1203
249.455	160
249.519	-618
249.582	-684
249.645	396
249.709	265
249.772	-368
249.835	-11
249.899	-361
249.962	-246
250.025	-424
250.089	533
250.152	1884
250.215	153
250.279	-594
250.342	-72
250.405	184
250.468	-1033
250.532	-1239
250.595	792
250.658	1549
250.721	5568
250.785	201
250.848	870
250.911	-165
250.974	-155
251.038	-467
251.101	1991
251.164	175
251.227	247
251.290	463
251.354	608
251.417	3102
251.480	3846
251.543	1785
251.606	7027
251.669	5800
251.732	1416
251.795	1436
251.859	1623
251.922	4294
251.985	3206
252.048	785
252.111	603
252.174	-1160
252.237	929
252.300	4692
252.363	2796
252.426	9532
252.489	1506
252.552	813
252.615	-1004
252.678	679
252.741	2835
252.804	2524
252.867	6583
252.930	4408
252.993	1429
253.056	1275
253.119	-21
253.182	2
253.245	-575
253.308	371
253.371	-236
253.434	681
253.497	541
253.559	2529
253.622	1052
253.685	930
253.748	-80
253.811	150
253.874	360
253.937	-420
254.000	-2
254.062	296
254.125	1476
254.188	2307
254.251	806
254.314	-656
254.376	513
254.439	1289
254.502	493
254.565	936
254.628	2132
254.690	625
254.753	-62
254.816	167
254.878	-624
254.941	1754
255.004	1537
255.067	260
255.129	-881
255.192	-125
255.255	-1316
255.317	-65
255.380	314
255.443	-207
255.505	-548
255.568	-662
255.631	-182
255.693	-117
255.756	-1036
255.819	424
255.881	-545
255.944	290
256.006	-895
256.069	-1715
256.132	-616
256.194	232
256.257	-1035
256.319	867
256.382	-770
256.444	709
256.507	-241
256.569	-645
256.632	-418
256.694	-913
256.757	1023
256.819	2444
256.882	-1277
256.944	443
257.007	19
257.069	-1030
257.132	-494
257.194	861
257.257	-824
257.319	-687
257.381	-1625
257.444	307
257.506	1590
257.569	3494
257.631	2206
257.693	1290
257.756	-878
257.818	-83
257.880	-602
257.943	1010
258.005	-713
258.067	-705
258.130	-1450
258.192	59
258.254	-18
258.317	105
258.379	267
258.441	972
258.503	1141
258.566	763
258.628	1192
258.690	58
258.753	-52
258.815	-708
258.877	-1049
258.939	-510
259.001	-569
259.064	-469
259.126	-278
259.188	-360
259.250	-174
259.312	-433
259.375	-400
259.437	94
259.499	-1098
259.561	-1093
259.623	-195
259.685	-570
259.747	144
259.809	231
259.872	1416
259.934	3431
259.996	3670
260.058	846
260.120	-939
260.182	-217
260.244	-145
260.306	-835
260.368	-543
260.430	-499
260.492	-332
260.554	602
260.616	359
260.678	1864
260.740	1096
260.802	-605
260.864	195
260.926	-838
260.988	1023
261.050	-341
261.112	-949
261.174	2041
261.236	1728
261.298	-468
261.359	-107
261.421	2303
261.483	-1518
261.545	1206
261.607	-1773
261.669	247
261.731	-486
261.793	1435
261.854	-1359
261.916	646
261.978	-1170
262.040	141
262.102	-828
262.164	-317
262.225	725
262.287	-293
262.349	-876
262.411	543
262.472	715
262.534	-1461
262.596	873
262.658	998
262.719	-1642
262.781	228
262.843	-278
262.904	580
262.966	50
263.028	116
263.090	356
263.151	3015
263.213	216
263.275	175
263.336	29
263.398	853
263.459	-1492
263.521	-620
263.583	250
263.644	584
263.706	-819
263.767	-837
263.829	-256
263.891	-414
263.952	-980
264.014	-384
264.075	-1519
264.137	196
264.198	-362
264.260	-1151
264.321	-1196
264.383	-319
264.444	348
264.506	-466
264.567	-872
264.629	838
264.690	-2346
264.752	-360
264.813	443
264.875	-852
264.936	65
264.998	-745
265.059	-207
265.120	230
265.182	-1074
265.243	-226
265.305	201
265.366	647
265.427	-719
265.489	567
265.550	-2006
265.611	-333
265.673	-458
265.734	-318
265.795	-323
265.857	-1159
265.918	-1683
265.979	771
266.040	1182
266.102	489
266.163	-173
266.224	-439
266.286	-109
266.347	-413
266.408	-803
266.469	188
266.530	-181
266.592	128
266.653	485
266.714	248
266.775	-535
266.836	715
266.898	-615
266.959	115
267.020	-139
267.081	923
267.142	16
267.203	-106
267.264	-473
267.326	1127
267.387	-199
267.448	-385
267.509	742
267.570	230
267.631	-136
267.692	-1003
267.753	-138
267.814	-358
267.875	192
267.936	1236
267.997	-587
268.058	-880
268.119	-805
268.180	-93
268.241	-929
268.302	-329
268.363	8
268.424	-547
268.485	-1309
268.546	-310
268.607	116
268.668	46
268.729	-553
268.790	-691
268.851	-899
268.912	170
268.972	-531
269.033	90
269.094	-932
269.155	-1065
269.216	-1045
269.277	-133
269.338	-1639
269.398	-141
269.459	-1047
269.520	-839
269.581	161
269.642	-763
269.702	-763
269.763	-421
269.824	-912
269.885	-25
269.945	-421
270.006	268
270.067	-849
270.128	-546
270.188	-1639
270.249	-890
270.310	-826
270.370	-36
270.431	-832
270.492	-623
270.553	-2029
270.613	-370
270.674	650
270.734	-723
270.795	-32
270.856	-677
270.916	-860
270.977	-1405
271.038	20
271.098	-195
271.159	-243
271.219	-405
271.280	-502
271.340	-269
271.401	-1480
271.462	420
271.522	-293
271.583	136
271.643	-648
271.704	-698
271.764	-252
271.825	124
271.885	3109
271.946	5979
272.006	1117
272.066	1973
272.127	4650
272.187	3510
272.248	891
272.308	662
272.369	3145
272.429	1396
272.489	244
272.550	564
272.610	743
272.671	205
272.731	849
272.791	505
272.852	298
272.912	557
272.972	-292
273.033	90
273.093	90
273.153	1291
273.214	671
273.274	368
273.334	1999
273.394	5857
273.455	1909
273.515	3174
273.575	4958
273.635	3455
273.696	2875
273.756	6574
273.816	2710
273.876	2394
273.936	1759
273.997	3574
274.057	321
274.117	557
274.177	835
274.237	5361
274.297	4009
274.358	2051
274.418	2985
274.478	2626
274.538	-247
274.598	373
274.658	1444
274.718	1681
274.778	491
274.838	-634
274.898	-71
274.958	1817
275.018	3519
275.078	2345
275.138	255
275.198	-42
275.258	-1305
275.318	-319
275.378	567
275.438	77
275.498	-345
275.558	973
275.618	3028
275.678	1889
275.738	1760
275.798	396
275.858	-782
275.918	-381
275.978	-1174
276.038	-1095
276.098	-412
276.157	853
276.217	2104
276.277	1165
276.337	-707
276.397	237
276.457	-288
276.517	204
276.576	-128
276.636	-493
276.696	-167
276.756	1241
276.815	332
276.875	1265
276.935	177
276.995	121
277.055	55
277.114	555
277.174	-161
277.234	2814
277.293	-32
277.353	670
277.413	365
277.472	-218
277.532	-321
277.592	1520
277.651	6916
277.711	16376
277.771	5035
277.830	15488
277.890	15151
277.950	10900
278.009	29659
278.069	14818
278.128	11527
278.188	18095
278.248	8670
278.307	18842
278.367	13154
278.426	3367
278.486	1594
278.545	1220
278.605	1493
278.664	1258
278.724	1093
278.783	2737
278.843	5809
278.902	2612
278.962	1658
279.021	1548
279.081	4261
279.140	4641
279.199	2767
279.259	2796
279.318	4385
279.378	6206
279.437	9245
279.496	25195
279.556	68254
279.615	64048
279.675	25287
279.734	13314
279.793	13012
279.853	16673
279.912	8128
279.971	5113
280.031	4341
280.090	6999
280.149	11817
280.208	13246
280.268	47625
280.327	56592
280.386	18399
280.445	9506
280.505	6001
280.564	4078
280.623	3406
280.682	3120
280.742	4223
280.801	2081
280.860	964
280.919	1116
280.978	1160
281.037	1607
281.097	1056
281.156	1997
281.215	646
281.274	806
281.333	2452
281.392	2728
281.451	392
281.510	1018
281.569	706
281.628	1484
281.688	495
281.747	526
281.806	517
281.865	930
281.924	-70
281.983	930
282.042	-663
282.101	64
282.160	150
282.219	-360
282.278	-353
282.337	1394
282.396	1036
282.454	728
282.513	583
282.572	2255
282.631	1303
282.690	873
282.749	-510
282.808	31
282.867	310
282.926	1225
282.985	341
283.043	-123
283.102	695
283.161	606
283.220	1568
283.279	3960
283.338	1935
283.396	79
283.455	804
283.514	2006
283.573	1463
283.631	1915
283.690	1312
283.749	328
283.808	1485
283.866	2220
283.925	763
283.984	2779
284.043	1599
284.101	3157
284.160	2139
284.219	3280
284.277	2850
284.336	3416
284.395	6730
284.453	6516
284.512	4567
284.570	6322
284.629	7033
284.688	8712
284.746	10998
284.805	14330
284.863	17988
284.922	23698
284.981	27512
285.039	38496
285.098	49620
285.156	58235
285.215	42895
285.273	37321
285.332	53795
285.390	54175
285.449	41474
285.507	32274
285.566	24555
285.624	20012
285.683	14810
285.741	11989
285.799	9719
285.858	8487
285.916	6791
285.975	6520
286.033	4330
286.091	4468
286.150	3976
286.208	3495
286.267	2408
286.325	2835
286.383	3406
286.442	2746
286.500	1707
286.558	2176
286.616	1430
286.675	1963
286.733	1883
286.791	1102
286.850	704
286.908	1259
286.966	1338
287.024	735
287.083	299
287.141	1304
287.199	2040
287.257	1528
287.315	1085
287.374	1174
287.432	702
287.490	1424
287.548	934
287.606	636
287.664	-229
287.723	1089
287.781	1520
287.839	473
287.897	-582
287.955	-421
288.013	-157
288.071	1573
288.129	4123
288.187	19097
288.245	7858
288.303	1738
288.361	800
288.419	1285
288.477	283
288.535	392
288.593	375
288.651	-403
288.709	194
288.767	-640
288.825	-614
288.883	561
288.941	-367
288.999	100
289.057	-406
289.115	-587
289.173	-151
289.231	306
289.289	-388
289.346	-80
289.404	-144
289.462	831
289.520	525
289.578	-70
289.636	-613
289.694	-76
289.751	-127
289.809	-311
289.867	-26
289.925	123
289.983	-702
290.040	-292
290.098	-665
290.156	-824
290.214	-925
290.271	165
290.329	379
290.387	189
290.444	-495
290.502	-733
290.560	-273
290.617	-940
290.675	-786
290.733	-642
290.790	-621
290.848	-525
290.906	-978
290.963	-864
291.021	41
291.078	-1127
291.136	-1426
291.194	381
291.251	1307
291.309	-123
291.366	416
291.424	-347
291.481	-371
291.539	33
291.596	861
291.654	-71
291.711	-370
291.769	183
291.826	12
291.884	238
291.941	-275
291.999	-294
292.056	-179
292.114	-68
292.171	-1114
292.228	578
292.286	400
292.343	-430
292.401	-472
292.458	577
292.515	-270
292.573	624
292.630	517
292.687	447
292.745	-594
292.802	-628
292.859	548
292.917	3139
292.974	1617
293.031	423
293.089	-1367
293.146	287
293.203	-128
293.260	-697
293.318	-281
293.375	-222
293.432	-398
293.489	458
293.546	26
293.604	155
293.661	2794
293.718	7482
293.775	3332
293.832	1993
293.889	3462
293.947	2092
294.004	630
294.061	504
294.118	261
294.175	2622
294.232	3855
294.289	3788
294.346	376
294.403	665
294.460	-759
294.517	-157
294.574	-822
294.631	-49
294.688	-643
294.745	-170
294.802	3654
294.859	3852
294.916	564
294.973	169
295.030	267
295.087	138
295.144	68
295.201	-301
295.258	-317
295.315	233
295.372	1289
295.429	3343
295.486	1423
295.542	334
295.599	-266
295.656	523
295.713	661
295.770	2896
295.827	497
295.883	397
295.940	-514
295.997	123
296.054	-775
296.111	264
296.167	-336
296.224	-324
296.281	-349
296.338	339
296.394	-321
296.451	-335
296.508	1211
296.564	2384
296.621	1174
296.678	3879
296.734	6608
296.791	2154
296.848	141
296.904	117
296.961	1975
297.018	3953
297.074	3142
297.131	299
297.187	-288
297.244	1007
297.301	3978
297.357	9569
297.414	2739
297.470	1088
297.527	-1007
297.583	-80
297.640	-311
297.696	255
297.753	-24
297.809	-504
297.866	-471
297.922	171
297.979	-692
298.035	293
298.092	-26
298.148	1416
298.204	1745
298.261	423
298.317	1815
298.374	4237
298.430	2627
298.486	828
298.543	-769
298.599	-20
298.656	-316
298.712	647
298.768	150
298.824	-36
298.881	-227
298.937	451
298.993	-852
299.050	-288
299.106	-772
299.162	-74
299.218	156
299.275	-707
299.331	-625
299.387	1123
299.443	5304
299.500	12736
299.556	8199
299.612	2599
299.668	2148
299.724	7112
299.780	9562
299.837	4170
299.893	2952
299.949	8007
300.005	13232
300.061	8409
300.117	14930
300.173	7812
300.229	2792
300.285	1394
300.341	1577
300.397	1077
300.453	148
300.510	1128
300.566	847
300.622	2882
300.678	11449
300.734	18980
300.790	9646
300.845	8328
300.901	7402
300.957	13990
301.013	7081
301.069	2319
301.125	810
301.181	1446
301.237	654
301.293	400
301.349	-203
301.405	481
301.461	421
301.516	243
301.572	-847
301.628	214
301.684	-72
301.740	564
301.796	2362
301.851	1217
301.907	1403
301.963	3316
302.019	3692
302.074	14506
302.130	14368
302.186	6739
302.242	1183
302.297	1180
302.353	684
302.409	2554
302.464	2817
302.520	1773
302.576	3715
302.631	6150
302.687	2227
302.743	1197
302.798	222
302.854	-580
302.910	271
302.965	-520
303.021	556
303.076	1040
303.132	-205
303.187	1767
303.243	-423
303.299	-212
303.354	-444
303.410	-104
303.465	-21
303.521	463
303.576	213
303.632	204
303.687	693
303.743	4184
303.798	3751
303.853	1564
303.909	-326
303.964	185
304.020	256
304.075	504
304.130	254
304.186	1609
304.241	2470
304.297	1578
304.352	-311
304.358	-256
304.407	189
304.449	311
304.463	356
304.518	-184
304.539	-209
304.573	-264
304.629	607
304.630	596
304.684	97
304.720	1861
304.739	2751
304.794	4932
304.811	4191
304.850	2380
304.902	1067
304.905	983
304.960	617
304.992	193
305.015	-108
305.071	-66
305.083	-153
305.126	-484
305.173	-442
305.181	-417
305.236	-677
305.264	-394
305.292	-205
305.347	-637
305.354	-644
305.402	-575
305.445	-567
305.457	-573
305.512	459
305.535	136
305.567	-262
305.622	620
305.626	638
305.678	1085
305.716	3117
305.733	3916
305.788	4882
305.807	4490
305.843	3796
305.897	3948
305.898	3944
305.953	4988
305.988	3117
306.008	2065
306.063	957
306.078	778
306.118	436
306.168	339
306.173	338
306.228	1
306.259	90
306.283	187
306.338	-24
306.349	-49
306.393	-359
306.440	-515
306.448	-509
306.503	730
306.530	524
306.558	343
306.613	700
306.620	750
306.668	1532
306.711	3128
306.723	3310
306.778	3361
306.801	2421
306.833	1473
306.888	480
306.892	499
306.943	774
306.982	133
306.997	-104
307.052	385
307.072	285
307.107	151
307.162	455
307.163	446
307.217	-153
307.253	580
307.272	883
307.327	-28
307.343	-66
307.381	191
307.434	673
307.436	707
307.491	1619
307.524	2054
307.546	2142
307.600	2970
307.614	2732
307.655	1622
307.704	728
307.710	715
307.765	968
307.795	1047
307.819	934
307.874	590
307.885	602
307.929	994
307.975	1307
307.984	1364
308.038	1856
308.065	2120
308.093	3446
308.148	7287
308.156	8224
308.202	12879
308.246	16678
308.257	16695
308.312	8408
308.336	6217
308.366	4893
308.421	3646
308.426	3482
308.475	2785
308.517	2627
308.530	2515
308.585	2402
308.607	2321
308.639	2310
308.694	2543
308.697	2531
308.748	2615
308.787	2836
308.803	2907
308.857	3184
308.877	3347
308.912	3994
308.967	5289
308.967	5309
309.021	9035
309.058	12140
309.076	13863
309.130	21023
309.148	22826
309.185	30346
309.238	42103
309.239	42279
309.293	53792
309.328	56004
309.348	51294
309.402	31635
309.418	26424
309.457	20777
309.508	15336
309.511	15389
309.566	19486
309.598	22800
309.620	29033
309.674	47732
309.688	52672
309.729	51058
309.778	42959
309.783	41903
309.837	26385
309.868	18535
309.892	16286
309.946	12631
309.959	12314
310.001	11894
310.049	10494
310.055	10104
310.109	7131
310.139	5245
310.163	4272
310.218	2944
310.229	2656
310.272	2663
310.319	3143
310.326	3033
310.381	1803
310.409	1414
310.435	1513
310.489	1394
310.499	1387
310.543	1330
310.589	1355
310.598	1311
310.652	1031
310.679	948
310.706	1084
310.760	1196
310.769	1221
310.814	1249
310.859	1268
310.868	1306
310.923	1347
310.948	1394
310.977	1261
311.031	1122
311.038	1108
311.085	1428
311.128	1438
311.139	1426
311.193	1688
311.218	1681
311.247	1620
311.301	1696
311.308	1677
311.356	1447
311.398	1313
311.410	1220
311.464	728
311.488	499
311.518	630
311.572	843
311.578	871
311.626	1376
311.668	1791
311.680	1812
311.734	1800
311.758	1817
311.788	1320
311.842	359
311.847	265
311.896	895
311.937	1390
311.950	1309
312.004	950
312.027	798
312.058	1210
312.112	1949
312.117	2017
312.165	1484
312.207	1023
312.297	1557
312.386	642
312.476	1242
312.566	1852
312.656	1716
312.745	1261
312.835	1879
312.925	1448
313.015	920
313.104	1535
313.194	1186
313.284	1095
313.374	2190
313.463	1468
313.553	1801
313.643	1697
313.732	2016
313.822	1644
313.912	2393
314.001	2885
314.091	2118
314.180	2433
314.270	2404
314.360	1681
314.449	2943
314.539	1850
314.628	2718
314.718	1630
314.808	2555
314.897	2409
314.987	3545
315.076	3503
315.166	3572
315.255	2260
315.345	2881
315.434	1821
315.524	3302
315.613	3372
315.703	4242
315.792	12048
315.881	43406
315.971	12224
316.060	4398
316.150	3481
316.239	2723
316.328	2134
316.418	3020
316.507	2683
316.597	3777
316.686	2916
316.775	3199
316.865	2196
316.954	2891
317.043	2147
317.133	2791
317.222	1684
317.311	2140
317.400	752
317.490	3838
317.579	2884
317.668	3801
317.757	6969
317.847	19878
317.936	66573
318.025	18788
318.114	16160
318.203	6913
318.293	3479
318.382	4323
318.471	5527
318.560	3849
318.649	2965
318.738	2410
318.828	2728
318.917	1961
319.006	1313
319.095	2249
319.184	3560
319.273	3235
319.362	3006
319.451	1710
319.540	1409
319.629	2767
319.718	3278
319.807	1940
319.896	1571
319.985	3697
320.074	2415
320.163	1216
320.252	1186
320.341	1793
320.430	1275
320.519	2320
320.608	2009
320.697	2747
320.786	3406
320.875	3924
320.964	4228
321.053	4701
321.142	5240
321.230	6206
321.319	5994
321.408	8878
321.497	7729
321.586	5853
321.675	3869
321.764	4421
321.852	4585
321.941	5463
322.030	4446
322.119	5413
322.207	7858
322.296	6676
322.385	6934
322.474	10376
322.562	13611
322.651	7570
322.740	6047
322.829	6089
322.917	3688
323.006	4027
323.095	4293
323.183	2494
323.272	2782
323.361	2928
323.449	3028
323.538	2707
323.626	2776
323.715	3196
323.804	1729
323.892	2328
323.981	2448
324.069	2420
324.158	1982
324.246	2294
324.335	2678
324.424	2582
324.512	2400
324.601	1938
324.689	2650
324.778	3870
324.866	2219
324.954	1956
325.043	2143
325.131	1008
325.220	2442
325.308	1871
325.397	2155
325.485	2123
325.574	1863
325.662	1976
325.750	1055
325.839	2702
325.927	2085
326.015	1255
326.104	1279
326.192	1490
326.280	1749
326.369	1944
326.457	1837
326.545	2512
326.634	585
326.722	1348
326.810	1468
326.898	2474
326.987	1964
327.075	1781
327.163	2565
327.251	1822
327.340	1700
327.428	3551
327.516	3075
327.604	2795
327.692	2017
327.781	967
327.869	1542
327.957	2086
328.045	618
328.133	2389
328.221	507
328.309	1601
328.397	1662
328.485	2015
328.574	3870
328.662	6487
328.750	2849
328.838	2071
328.926	1881
329.014	745
329.102	1412
329.190	2592
329.278	1546
329.366	1178
329.454	1498
329.542	1955
329.630	1063
329.718	2008
329.806	1174
329.893	1937
329.981	614
330.069	1915
330.157	710
330.245	1843
330.333	1636
330.421	2184
330.509	1952
330.597	3671
330.684	2161
330.772	2449
330.860	933
330.948	1954
331.036	684
331.123	1627
331.211	1672
331.299	2122
331.387	1859
331.475	1859
331.562	2058
331.650	1948
331.738	1282
331.825	1710
331.913	977
332.001	1645
332.089	1402
332.176	1633
332.264	1040
332.352	1382
332.439	1704
332.527	1437
332.614	1450
332.702	1735
332.790	1969
332.877	2429
332.965	6148
333.052	5234
333.140	6407
333.228	17418
333.315	4469
333.403	2525
333.490	3925
333.578	7723
333.665	25176
333.753	10356
333.840	3036
333.928	2487
334.015	2883
334.103	3754
334.190	5318
334.278	6496
334.365	9768
334.452	10749
334.540	6437
334.627	4821
334.715	7095
334.802	9745
334.889	17304
334.977	25673
335.064	16665
335.151	6992
335.239	4788
335.326	4636
335.413	4190
335.501	4446
335.588	4290
335.675	4585
335.762	5980
335.850	8141
335.937	11976
336.024	20038
336.111	34494
336.199	33781
336.286	14431
336.373	7763
336.460	4820
336.547	3621
336.635	3269
336.722	3390
336.809	2682
336.896	3038
336.983	2677
337.070	3354
337.157	2510
337.245	2657
337.332	2511
337.419	2672
337.506	3155
337.593	2029
337.680	2179
337.767	2535
337.854	1562
337.941	2094
338.028	2054
338.115	1389
338.202	2462
338.289	2815
338.376	2374
338.463	1968
338.550	1643
338.637	1784
338.724	1934
338.811	2807
338.898	1344
338.984	2414
339.071	737
339.158	2020
339.245	2192
339.332	2068
339.419	1993
339.506	2580
339.593	1728
339.679	2658
339.766	1564
339.853	2545
339.940	2924
340.027	1269
340.113	1907
340.200	1913
340.287	1534
340.374	1842
340.460	1661
340.547	1192
340.634	2847
340.720	4832
340.807	2231
340.894	2000
340.980	2447
341.067	1274
341.154	2183
341.240	2233
341.327	2732
341.414	2588
341.500	437
341.587	2223
341.674	2087
341.760	3019
341.847	2999
341.933	2901
342.020	1409
342.106	2137
342.193	1502
342.279	1247
342.366	1337
342.452	2368
342.539	2014
342.625	1885
342.712	4360
342.798	2665
342.885	1554
342.971	1369
343.058	1994
343.144	1234
343.230	1899
343.317	1729
343.403	941
343.490	1849
343.576	1328
343.662	1746
343.749	995
343.835	1814
343.921	3243
344.008	12010
344.094	24318
344.180	6158
344.267	2449
344.353	5794
344.439	5718
344.525	2266
344.612	2623
344.698	2279
344.784	948
344.870	1731
344.957	1574
345.043	2736
345.129	899
345.215	2445
345.301	1470
345.387	1294
345.474	1314
345.560	1441
345.646	1045
345.732	1314
345.818	1500
345.904	1653
345.990	1365
346.076	1645
346.162	576
346.249	2664
346.335	1343
346.421	2093
346.507	3590
346.593	8649
346.679	2237
346.765	2946
346.851	3392
346.937	2286
347.023	3113
347.108	2289
347.194	1641
347.280	1663
347.366	2590
347.452	8371
347.538	16184
347.624	10434
347.710	5994
347.796	1900
347.882	1254
347.967	2187
348.053	738
348.139	1931
348.225	1357
348.311	1121
348.397	1609
348.482	2478
348.568	1655
348.654	2700
348.740	10028
348.825	8511
348.911	4892
348.997	6767
349.083	11204
349.168	2324
349.254	1740
349.340	2162
349.425	1778
349.511	1984
349.597	1840
349.682	2860
349.768	7121
349.854	3871
349.939	1701
350.025	1867
350.110	1847
350.196	1343
350.282	681
350.367	2259
350.453	1663
350.538	1729
350.624	873
350.709	2536
350.795	923
350.880	811
350.966	2470
351.051	2230
351.137	902
351.222	2048
351.308	2239
351.393	4794
351.479	2367
351.564	806
351.649	1874
351.735	1467
351.820	1954
351.906	1992
351.991	1589
352.076	3110
352.162	5053
352.247	2304
352.332	1211
352.418	1876
352.503	2307
352.588	7007
352.673	4579
352.759	2768
352.844	1523
352.929	1297
353.014	188
353.100	2128
353.185	2762
353.270	2108
353.355	2088
353.441	2371
353.526	1001
353.611	2294
353.696	2347
353.781	3192
353.866	1211
353.952	2624
354.037	1514
354.122	3677
354.207	3412
354.292	1859
354.377	2418
354.462	1950
354.547	952
354.632	2345
354.717	2201
354.802	2840
354.887	1097
354.972	1737
355.057	1618
355.142	1904
355.227	2161
355.312	1865
355.397	2306
355.482	4760
355.567	2449
355.652	3241
355.737	2968
355.822	7769
355.907	5423
355.991	2576
356.076	1739
356.161	1791
356.246	1708
356.331	2638
356.416	2698
356.501	14783
356.585	11760
356.670	1864
356.755	4075
356.840	2908
356.924	10651
357.009	30283
357.094	10141
357.179	2649
357.263	1897
357.348	3489
357.433	2515
357.517	2213
357.602	1961
357.687	2328
357.771	1963
357.856	3014
357.941	3575
358.025	9120
358.110	32515
358.195	13731
358.279	2888
358.364	2461
358.448	5685
358.533	11938
358.617	7983
358.702	8532
358.787	3532
358.871	2700
358.956	2242
359.040	1664
359.125	1515
359.209	2334
359.294	2201
359.378	3040
359.462	3333
359.547	2529
359.631	1923
359.716	1153
359.800	866
359.885	3339
359.969	1638
360.053	2900
360.138	1509
360.222	2382
360.306	2461
360.391	2784
360.475	2215
360.559	3515
360.644	4697
360.728	3343
360.812	9809
360.896	20098
360.981	6042
361.065	3172
361.149	2344
361.233	1817
361.318	1518
361.402	2138
361.486	2958
361.570	1898
361.654	2080
361.739	3684
361.823	13728
361.907	21052
361.991	5721
362.075	3762
362.159	5420
362.243	10435
362.327	24152
362.411	40946
362.495	13934
362.580	6660
362.664	5839
362.748	6417
362.832	9808
362.916	20029
363.000	65991
363.084	104757
363.168	49523
363.252	12690
363.336	6756
363.420	5860
363.503	4559
363.587	4150
363.671	4257
363.755	4314
363.839	5780
363.923	3600
364.007	6721
364.091	7556
364.175	10763
364.258	27336
364.342	71186
364.426	143374
364.510	72500
364.594	21067
364.677	11593
364.761	20100
364.845	13969
364.929	5367
365.013	4051
365.096	3383
365.180	3404
365.264	3939
365.347	4160
365.431	3178
365.515	1264
365.598	1685
365.682	4133
365.766	1601
365.849	1944
365.933	2188
366.017	3628
366.100	2063
366.184	1337
366.267	3151
366.351	2199
366.435	2149
366.518	1272
366.602	2492
366.685	1975
366.769	3124
366.852	2122
366.936	2874
367.019	2664
367.103	1150
367.186	3106
367.270	2298
367.353	1556
367.436	3253
367.520	2422
367.603	2685
367.687	2900
367.770	3199
367.853	3352
367.937	7055
368.020	7448
368.104	2839
368.187	3511
368.270	4268
368.353	2756
368.437	3169
368.520	1967
368.603	2658
368.687	4461
368.770	9277
368.853	3141
368.936	3902
369.020	3295
369.103	1558
369.186	1185
369.269	2147
369.352	3011
369.436	2003
369.519	2500
369.602	621
369.685	3232
369.768	1297
369.851	2502
369.934	1619
370.018	1649
370.101	1828
370.184	4098
370.267	2722
370.350	2622
370.433	4024
370.516	13671
370.599	27646
370.682	9616
370.765	7175
370.848	8101
370.931	11149
371.014	5386
371.097	1458
371.180	3596
371.263	3626
371.346	1406
371.429	3034
371.511	2010
371.594	2547
371.677	4380
371.760	4563
371.843	4419
371.926	14670
372.009	27274
372.091	12929
372.174	7419
372.257	14232
372.340	6462
372.423	5122
372.505	6079
372.588	3542
372.671	6666
372.754	11333
372.836	6162
372.919	4923
373.002	4486
373.085	3938
373.167	5161
373.250	7094
373.332	12457
373.415	20615
373.498	36081
373.580	17985
373.663	43183
373.746	40994
373.828	7378
373.911	4664
373.993	3010
374.076	3622
374.159	2824
374.241	4091
374.324	9636
374.406	8748
374.489	12189
374.571	29014
374.654	10309
374.736	7771
374.819	18782
374.901	28100
374.983	26203
375.066	6848
375.148	3074
375.231	3584
375.313	5274
375.395	4172
375.478	2835
375.560	4209
375.643	3814
375.725	7575
375.807	23533
375.890	15224
375.972	2847
376.054	3447
376.136	2633
376.219	3190
376.301	7775
376.383	17628
376.465	6746
376.548	3998
376.630	5773
376.712	15233
376.794	7099
376.877	2478
376.959	1715
377.041	2437
377.123	1515
377.205	2214
377.287	1608
377.369	3163
377.452	2063
377.534	1742
377.616	2439
377.698	2312
377.780	2023
377.862	2036
377.944	3252
378.026	1687
378.108	2247
378.190	2177
378.272	2579
378.354	2603
378.436	1706
378.518	797
378.600	2022
378.682	3139
378.764	6959
378.846	6628
378.928	2190
379.010	2781
379.091	3684
379.173	2668
379.255	1084
379.337	2370
379.419	4277
379.501	10727
379.583	4654
379.664	3105
379.746	1673
379.828	8044
379.910	8028
379.991	8301
380.073	2085
380.155	2344
380.237	2258
380.318	2232
380.400	1988
380.482	3487
380.564	3877
380.645	3974
380.727	3334
380.809	4166
380.890	2781
380.972	2376
381.053	2514
381.135	3760
381.217	4368
381.298	8239
381.380	4391
381.461	4690
381.543	15475
381.624	18410
381.706	5076
381.787	4806
381.869	4970
381.951	10654
382.032	29412
382.113	19213
382.195	5321
382.276	7563
382.358	9312
382.439	16610
382.521	22000
382.602	32011
382.684	19798
382.765	34702
382.846	78103
382.928	167419
383.009	91379
383.090	71981
383.172	207928
383.253	258742
383.334	87187
383.416	44871
383.497	30461
383.578	30953
383.659	61253
383.741	182446
383.822	340951
383.903	176397
383.984	55656
384.066	40433
384.147	23108
384.228	12441
384.309	10526
384.390	9057
384.471	7903
384.553	7976
384.634	6817
384.715	7339
384.796	5934
384.877	7298
384.958	10906
385.039	9959
385.120	6431
385.201	6503
385.282	5354
385.363	7108
385.444	6693
385.525	8723
385.606	14903
385.687	12348
385.768	6211
385.849	5166
385.930	16704
386.011	24243
386.092	8386
386.173	4821
386.254	4197
386.335	4970
386.416	3523
386.496	6176
386.577	7663
386.658	4321
386.739	3434
386.820	5237
386.901	3542
386.981	5777
387.062	6704
387.143	6963
387.224	11233
387.304	11029
387.385	9010
387.466	6097
387.547	7731
387.627	7847
387.708	9463
387.789	16992
387.869	17889
387.950	7827
388.031	4629
388.111	3098
388.192	5943
388.273	7431
388.353	4234
388.434	3870
388.514	4281
388.595	15530
388.676	15344
388.756	7461
388.837	7282
388.917	4737
388.998	1999
389.078	3527
389.159	3474
389.239	2378
389.320	5129
389.400	1313
389.480	5835
389.561	8919
389.641	6119
389.722	3224
389.802	2580
389.883	6205
389.963	11047
390.043	6194
390.124	1783
390.204	4705
390.284	7187
390.365	5136
390.445	3465
390.525	3788
390.605	5817
390.686	3665
390.766	4127
390.846	4839
390.927	2164
391.007	1595
391.087	4033
391.167	2695
391.247	1740
391.328	4256
391.408	4847
391.488	4463
391.568	2134
391.648	3224
391.728	4550
391.808	5190
391.888	4049
391.969	7498
392.049	9120
392.129	7307
392.209	7303
392.289	13957
392.369	9030
392.449	8832
392.529	7862
392.609	10736
392.689	11734
392.769	18550
392.849	19523
392.929	23129
393.009	34478
393.089	46575
393.169	86925
393.248	210613
393.328	433857
393.408	421485
393.488	193288
393.568	78222
393.648	41092
393.728	25448
393.807	17187
393.887	14820
393.967	11936
394.047	10253
394.127	7698
394.206	8233
394.286	11236
394.366	34994
394.446	32829
394.525	9092
394.605	5696
394.685	6011
394.764	7153
394.844	10160
394.924	13395
395.003	6005
395.083	4633
395.163	4778
395.242	4176
395.322	5009
395.402	2740
395.481	6874
395.561	5620
395.640	18296
395.720	33337
395.799	14328
395.879	5759
395.958	6147
396.038	13160
396.117	48822
396.197	46945
396.276	15130
396.356	10179
396.435	13046
396.515	19110
396.594	29730
396.673	64125
396.753	191888
396.832	387770
396.912	275115
396.991	91800
397.070	37688
397.150	20677
397.229	18564
397.308	30366
397.388	51042
397.467	22968
397.546	9642
397.625	5222
397.705	7774
397.784	5341
397.863	4069
397.942	4065
398.022	4174
398.101	2442
398.180	4419
398.259	3509
398.338	4481
398.417	2916
398.497	2910
398.576	3273
398.655	1624
398.734	2831
398.813	2236
398.892	1837
398.971	3340
399.050	1331
399.129	1325
399.208	1721
399.287	2420
399.366	717
399.445	1884
399.524	1532
399.603	445
399.682	2008
399.761	2367
399.840	2622
399.919	2922
399.998	1492
400.077	1217
400.156	1166
400.235	3925
400.313	1029
400.392	1352
400.471	5054
400.550	4959
400.629	1560
400.708	2235
400.786	932
400.865	794
400.944	-306
401.023	3327
401.102	775
401.180	1767
401.259	1479
401.338	1576
401.416	1577
401.495	775
401.574	2244
401.652	442
401.731	1574
401.810	493
401.888	1011
401.967	623
402.046	1475
402.124	1920
402.203	660
402.281	1866
402.360	477
402.438	1737
402.517	140
402.596	1418
402.674	270
402.753	1545
402.831	1448
402.910	2523
402.988	4641
403.066	14817
403.145	7851
403.223	6704
403.302	12357
403.380	10593
403.459	9072
403.537	3599
403.615	1926
403.694	293
403.772	2621
403.850	1913
403.929	1054
404.007	743
404.085	3264
404.164	2501
404.242	1167
404.320	2393
404.398	2898
404.477	4717
404.555	19829
404.633	15033
404.711	3491
404.789	2313
404.868	1017
404.946	1067
405.024	1357
405.102	888
405.180	145
405.258	426
405.336	2136
405.415	725
405.493	1793
405.571	2455
405.649	616
405.727	656
405.805	2164
405.883	2427
405.961	1843
406.039	913
406.117	-170
406.195	3346
406.273	3355
406.351	14069
406.429	7825
406.507	872
406.585	947
406.663	1358
406.740	549
406.818	447
406.896	559
406.974	2393
407.052	-37
407.130	8588
407.208	10212
407.285	1881
407.363	96
407.441	809
407.519	254
407.596	1541
407.674	2188
407.752	5325
407.830	3474
407.907	1823
407.985	149
408.063	673
408.141	144
408.218	1685
408.296	17
408.373	1583
408.451	1806
408.529	1364
408.606	1700
408.684	1236
408.762	2275
408.839	1469
408.917	1082
408.994	1678
409.072	1159
409.149	2549
409.227	6310
409.304	7983
409.382	10240
409.459	11571
409.537	14940
409.614	11937
409.692	8741
409.769	9161
409.846	15774
409.924	18792
410.001	9547
410.079	7015
410.156	5510
410.233	3477
410.311	1922
410.388	2930
410.465	2478
410.543	1883
410.620	2881
410.697	2629
410.775	2349
410.852	1713
410.929	3825
411.006	3238
411.083	2668
411.161	2161
411.238	1868
411.315	1741
411.392	1347
411.469	3009
411.547	1780
411.624	641
411.701	497
411.778	1445
411.855	1163
411.932	918
412.009	450
412.086	1668
412.163	828
412.240	749
412.317	960
412.394	299
412.471	995
412.548	74
412.625	237
412.702	713
412.779	660
412.856	746
412.933	305
413.010	573
413.087	947
413.164	2585
413.241	3660
413.318	836
413.395	1823
413.471	1381
413.548	867
413.625	1517
413.702	-102
413.779	657
413.855	1161
413.932	689
414.009	-413
414.086	1191
414.162	935
414.239	1380
414.316	2661
414.393	6024
414.469	1731
414.546	275
414.623	689
414.699	243
414.776	330
414.853	714
414.929	712
415.006	-191
415.082	389
415.159	1179
415.236	502
415.312	938
415.389	1334
415.465	934
415.542	-293
415.618	517
415.695	1463
415.771	942
415.848	561
415.924	1253
416.000	707
416.077	1213
416.153	-2
416.230	-22
416.306	562
416.383	-124
416.459	880
416.535	-303
416.612	732
416.688	1027
416.764	686
416.841	495
416.917	978
416.993	609
417.069	432
417.146	446
417.222	78
417.298	583
417.374	544
417.451	1269
417.527	-173
417.603	362
417.679	38
417.755	-218
417.831	-478
417.908	531
417.984	868
418.060	8
418.136	1091
418.212	1629
418.288	49
418.364	847
418.440	-348
418.516	1401
418.592	562
418.668	1095
418.744	1032
418.820	1200
418.896	1068
418.972	393
419.048	597
419.124	1951
419.200	-421
419.276	1432
419.352	224
419.428	1149
419.504	275
419.579	989
419.655	415
419.731	860
419.807	1649
419.883	1351
419.959	1834
420.034	1920
420.110	1936
420.186	3002
420.262	3084
420.337	1049
420.413	756
420.489	1118
420.565	2182
420.640	1599
420.716	2082
420.792	423
420.867	2153
420.943	2223
421.019	2314
421.094	3140
421.170	2648
421.245	3335
421.321	3515
421.397	3357
421.472	4731
421.548	6328
421.623	5461
421.699	5009
421.774	6518
421.850	6556
421.925	8683
422.001	10325
422.076	12525
422.152	14598
422.227	20436
422.302	28923
422.378	45153
422.453	77067
422.529	136771
422.604	183907
422.679	162354
422.755	176777
422.830	132630
422.905	77279
422.981	48468
423.056	33085
423.131	23157
423.207	17485
423.282	14033
423.357	11864
423.432	9283
423.508	9575
423.583	7167
423.658	6661
423.733	6008
423.808	4945
423.883	5642
423.959	6874
424.034	7250
424.109	7279
424.184	3839
424.259	2992
424.334	3164
424.409	2444
424.484	1948
424.559	2247
424.634	1488
424.709	2031
424.784	2641
424.859	1769
424.934	1461
425.009	2881
425.084	3927
425.159	2210
425.234	1610
425.309	1066
425.384	1436
425.459	122
425.534	1554
425.609	848
425.683	998
425.758	1443
425.833	1514
425.908	2084
425.983	1292
426.058	4415
426.132	1819
426.207	645
426.282	1645
426.357	411
426.431	951
426.506	1715
426.581	1169
426.655	590
426.730	223
426.805	277
426.879	1344
426.954	853
427.029	909
427.103	4210
427.178	11317
427.253	4556
427.327	449
427.402	207
427.476	845
427.551	-380
427.625	534
427.700	1013
427.774	-34
427.849	1109
427.923	-149
427.998	1366
428.072	1169
428.147	5276
428.221	23659
428.296	72463
428.370	34411
428.444	4596
428.519	1561
428.593	1164
428.667	1539
428.742	2086
428.816	8783
428.890	44063
428.965	62232
429.039	13822
429.113	2082
429.188	1051
429.262	706
429.336	1858
429.410	2105
429.485	1909
429.559	965
429.633	404
429.707	2175
429.781	8255
429.855	41678
429.930	55388
430.004	13144
430.078	6523
430.152	26137
430.226	96215
430.300	84766
430.374	16057
430.448	4488
430.522	2418
430.596	2119
430.670	13535
430.744	60142
430.818	59401
430.892	9685
430.966	2322
431.040	1613
431.114	459
431.188	352
431.262	697
431.336	369
431.410	1230
431.484	-149
431.557	1753
431.631	484
431.705	3769
431.779	18794
431.853	70657
431.927	41452
432.000	5598
432.074	644
432.148	986
432.222	121
432.295	599
432.369	393
432.443	-134
432.516	4059
432.590	10706
432.664	3317
432.737	-180
432.811	-365
432.885	-548
432.958	569
433.032	-994
433.106	-195
433.179	-86
433.253	-341
433.326	-548
433.400	-564
433.473	-229
433.547	-708
433.620	102
433.694	-144
433.767	664
433.841	-72
433.914	399
433.988	-668
434.061	-3
434.134	-391
434.208	-175
434.281	-196
434.355	-549
434.428	510
434.501	465
434.575	-998
434.648	-791
434.721	158
434.795	-811
434.868	-1116
434.941	-623
435.014	-501
435.088	764
435.161	953
435.234	2366
435.307	1746
435.381	2666
435.454	4769
435.527	7895
435.600	7945
435.673	6129
435.746	3975
435.819	1981
435.892	2014
435.966	1382
436.039	276
436.112	1023
436.185	-58
436.258	321
436.331	-518
436.404	-473
436.477	6
436.550	7
436.623	121
436.696	32
436.769	-159
436.842	-153
436.915	-955
436.987	71
437.060	330
437.133	-489
437.206	-878
437.279	666
437.352	-559
437.425	-686
437.498	-428
437.570	-57
437.643	-166
437.716	-271
437.789	-409
437.861	-485
437.934	-106
438.007	219
438.080	-308
438.152	251
438.225	1021
438.298	7380
438.370	17225
438.443	5984
438.516	1006
438.588	394
438.661	-454
438.734	-8
438.806	-666
438.879	870
438.951	427
439.024	-582
439.096	-983
439.169	-310
439.241	-963
439.314	203
439.386	-315
439.459	-327
439.531	-948
439.604	-190
439.676	-88
439.749	-39
439.821	-85
439.893	470
439.966	-765
440.038	-11
440.110	-101
440.183	-681
440.255	-681
440.327	418
440.400	1869
440.472	9162
440.544	4950
440.617	176
440.689	584
440.761	163
440.833	-128
440.905	-30
440.978	-832
441.050	-142
441.122	956
441.194	-269
441.266	-94
441.338	-653
441.411	690
441.483	2196
441.555	2849
441.627	716
441.699	16
441.771	-106
441.843	-81
441.915	1005
441.987	57
442.059	1115
442.131	1151
442.203	1455
442.275	1821
442.347	4013
442.419	9711
442.491	54178
442.563	107418
442.635	38632
442.706	6965
442.778	3083
442.850	1933
442.922	2007
442.994	1098
443.066	2430
443.137	2327
443.209	3168
443.281	6779
443.353	15831
443.425	60924
443.496	174695
443.568	168194
443.640	64892
443.711	13827
443.783	5592
443.855	3073
443.926	2266
443.998	1545
444.070	2215
444.141	1096
444.213	1405
444.285	876
444.356	1373
444.428	518
444.499	782
444.571	292
444.642	1055
444.714	619
444.785	1534
444.857	1402
444.928	2110
445.000	1877
445.071	2952
445.143	3664
445.214	5832
445.285	11975
445.357	31794
445.428	119140
445.500	204831
445.571	153252
445.642	95948
445.714	30205
445.785	9962
445.856	3078
445.928	2179
445.999	2110
446.070	1624
446.141	1142
446.213	2087
446.284	52
446.355	936
446.426	-576
446.497	945
446.569	116
446.640	158
446.711	135
446.782	691
446.853	-126
446.924	472
446.995	-723
447.066	676
447.138	-689
447.209	676
447.280	-617
447.351	164
447.422	-123
447.493	-368
447.564	-5
447.635	-228
447.706	-240
447.777	271
447.847	-239
447.918	-608
447.989	-1042
448.060	349
448.131	-857
448.202	-166
448.273	-329
448.344	-459
448.414	-117
448.485	273
448.556	545
448.627	-562
448.698	818
448.768	-325
448.839	32
448.910	25
448.981	-28
449.051	-159
449.122	-658
449.193	-79
449.263	-969
449.334	-480
449.405	20
449.475	-318
449.546	272
449.616	902
449.687	412
449.758	334
449.828	-457
449.899	-296
449.969	-972
450.040	-182
450.110	141
450.181	187
450.251	-352
450.322	-662
450.392	-653
450.463	-177
450.533	-372
450.604	-515
450.674	-278
450.744	391
450.815	305
450.885	-62
450.955	100
451.026	293
451.096	-489
451.166	-310
451.237	-251
451.307	1342
451.377	724
451.447	134
451.518	-247
451.588	-233
451.658	-230
451.728	-53
451.799	-925
451.869	451
451.939	-809
452.009	-433
452.079	-1091
452.149	-142
452.219	-102
452.289	-565
452.360	-583
452.430	876
452.500	786
452.570	1568
452.640	6670
452.710	16408
452.780	16551
452.850	8405
452.920	3223
452.990	1605
453.060	116
453.129	115
453.199	359
453.269	260
453.339	79
453.409	-101
453.479	119
453.549	168
453.619	-13
453.688	-611
453.758	-162
453.828	-104
453.898	-1392
453.968	324
454.037	18
454.087	-308
454.107	-446
454.168	-1224
454.177	-1356
454.247	-685
454.249	-677
454.316	-684
454.330	-759
454.386	-1106
454.411	-1024
454.456	-911
454.492	-657
454.525	-460
454.574	-239
454.595	-149
454.655	-645
454.665	-737
454.734	-364
454.736	-352
454.804	-509
454.817	-410
454.873	-31
454.898	-364
454.943	-967
454.979	-585
455.013	-278
455.060	193
455.082	413
455.141	-507
455.152	-695
455.221	-234
455.222	-227
455.291	-593
455.303	-367
455.360	566
455.384	583
455.430	466
455.465	413
455.499	332
455.546	341
455.569	369
455.627	479
455.638	481
455.707	-316
455.708	-305
455.777	-123
455.789	-167
455.846	-274
455.869	-54
455.916	327
455.950	372
455.985	337
456.031	320
456.054	309
456.112	130
456.124	110
456.193	263
456.193	250
456.262	-208
456.274	-42
456.332	694
456.355	417
456.401	-26
456.436	365
456.470	598
456.516	273
456.540	152
456.597	34
456.609	1
456.678	979
456.678	971
456.747	381
456.759	312
456.817	-17
456.840	163
456.886	328
456.920	600
456.955	1085
457.001	1194
457.024	1121
457.082	836
457.093	778
457.162	1476
457.163	1488
457.232	895
457.243	929
457.301	1349
457.324	1262
457.370	961
457.405	1515
457.439	2010
457.485	1820
457.508	1797
457.566	2486
457.577	2730
457.646	3904
457.647	3945
457.715	11968
457.727	13793
457.784	25871
457.808	34339
457.853	43120
457.889	47594
457.922	43948
457.969	27205
457.991	28364
458.050	38795
458.060	40734
458.129	72155
458.130	73015
458.198	66127
458.211	58778
458.267	28990
458.292	18586
458.336	12095
458.372	11303
458.405	17890
458.453	29996
458.474	39354
458.533	74085
458.543	76568
458.611	114016
458.614	114413
458.680	59339
458.694	44893
458.749	19377
458.775	12781
458.818	7131
458.855	5294
458.887	4329
458.936	3155
458.955	2780
459.016	2484
459.024	2503
459.093	2881
459.097	2878
459.162	2064
459.177	2068
459.230	2410
459.257	2439
459.299	2334
459.338	2139
459.368	2108
459.418	2199
459.437	2072
459.499	1713
459.505	1732
459.574	2111
459.579	2146
459.643	2043
459.659	1876
459.711	2010
459.740	2254
459.780	2037
459.820	2049
459.849	2087
459.900	1657
459.917	1604
459.981	1847
459.986	1823
460.054	1412
460.061	1397
460.123	1862
460.141	2016
460.191	2144
460.222	2202
460.260	2147
460.302	1893
460.328	1752
460.382	1645
460.397	1726
460.462	2122
460.465	2139
460.534	2379
460.543	2463
460.602	5710
460.623	7048
460.671	10781
460.703	14058
460.739	13128
460.783	10138
460.808	8212
460.864	2885
460.876	2553
460.944	1890
460.945	1883
461.013	2079
461.024	2018
461.081	2009
461.104	2295
461.150	2264
461.184	2103
461.218	2364
461.264	2447
461.286	2302
461.345	1997
461.355	1987
461.423	2772
461.425	2763
461.491	1945
461.505	1942
461.559	2080
461.585	2055
461.628	2204
461.665	2408
461.696	2581
461.745	2651
461.764	2636
461.825	2677
461.832	2645
461.901	1996
461.905	2000
461.969	1947
461.985	1904
462.037	2595
462.065	2896
462.105	2664
462.145	2423
462.173	2440
462.225	2613
462.241	2659
462.305	2550
462.310	2547
462.378	2545
462.385	2528
462.446	2043
462.465	2031
462.514	2519
462.545	2716
462.582	2472
462.625	2040
462.650	1953
462.705	2056
462.718	2078
462.785	2295
462.786	2308
462.854	2434
462.865	2520
462.922	2152
462.945	1996
462.990	2555
463.025	2951
463.058	2665
463.104	2253
463.126	2293
463.184	2380
463.194	2404
463.262	2375
463.264	2389
463.330	2802
463.344	2826
463.398	3316
463.424	3522
463.466	2749
463.504	2133
463.533	2444
463.583	2692
463.601	2583
463.663	2265
463.669	2241
463.737	2339
463.743	2311
463.805	2472
463.823	2623
463.873	2948
463.903	3014
463.940	2914
463.982	2768
464.008	2830
464.062	3027
464.076	3004
464.142	2725
464.144	2739
464.211	3189
464.221	3252
464.279	2792
464.301	2620
464.347	2134
464.381	1823
464.414	2311
464.461	2861
464.482	2890
464.540	3021
464.550	2963
464.617	2375
464.620	2360
464.685	2763
464.699	2811
464.753	2974
464.779	3003
464.820	2688
464.859	2421
464.888	2288
464.938	2114
464.956	2426
465.018	3442
465.023	3416
465.091	3250
465.098	3197
465.158	2672
465.177	2549
465.226	3045
465.257	3290
465.293	2972
465.336	2654
465.361	2950
465.416	3512
465.428	3509
465.495	3602
465.496	3607
465.563	3160
465.575	3129
465.631	3154
465.654	3100
465.698	3225
465.734	3310
465.765	3300
465.813	3238
465.833	3215
465.893	3217
465.900	3152
465.968	2441
465.972	2393
466.035	2741
466.052	2799
466.102	2735
466.131	2719
466.170	2443
466.210	2174
466.237	2592
466.290	3340
466.304	3152
466.369	2283
466.372	2303
466.439	2769
466.449	2823
466.506	3120
466.528	3277
466.573	3549
466.607	3612
466.641	3844
466.687	4326
466.708	4405
466.766	4463
466.775	4386
466.842	3755
466.845	3719
466.909	3643
466.925	3613
466.977	3839
467.004	3950
467.044	3759
467.083	3564
467.111	3543
467.163	3469
467.178	3544
467.242	3840
467.245	3844
467.312	3826
467.321	3821
467.379	2829
467.400	2456
467.446	3695
467.480	4584
467.559	4070
467.638	4202
467.717	3242
467.796	5564
467.875	4432
467.955	5241
468.034	4678
468.113	6242
468.192	8039
468.271	9646
468.350	14058
468.429	21774
468.508	24197
468.588	13926
468.667	8634
468.746	5674
468.825	5480
468.904	4052
468.983	3802
469.062	4601
469.141	5128
469.220	3939
469.299	4272
469.378	4217
469.456	4696
469.535	4299
469.614	3150
469.693	4356
469.772	4454
469.851	4279
469.930	4566
470.009	5039
470.088	6348
470.166	9488
470.245	17301
470.324	23361
470.403	14490
470.482	7736
470.560	5652
470.639	4967
470.718	4854
470.797	4146
470.875	4352
470.954	4148
471.033	3747
471.111	3648
471.190	3741
471.269	3908
471.347	3319
471.426	3191
471.505	3505
471.583	3796
471.662	3602
471.740	3838
471.819	3833
471.898	3277
471.976	3626
472.055	3966
472.133	3294
472.212	4816
472.290	3985
472.369	3752
472.447	3888
472.526	3103
472.604	3923
472.683	3743
472.761	3523
472.839	3741
472.918	3581
472.996	4402
473.075	4309
473.153	4413
473.231	3465
473.310	4276
473.388	4759
473.466	4168
473.545	4217
473.623	4640
473.701	4256
473.780	5076
473.858	3267
473.936	6463
474.014	4831
474.093	4643
474.171	4860
474.249	4515
474.327	4581
474.405	3696
474.484	3756
474.562	4027
474.640	3334
474.718	4708
474.796	4106
474.874	4909
474.952	4625
475.030	4288
475.108	4106
475.187	3998
475.265	4839
475.343	6506
475.421	7364
475.499	4556
475.577	3957
475.655	5178
475.733	4297
475.811	3493
475.889	4433
475.966	4163
476.044	3420
476.122	5869
476.200	5489
476.278	4107
476.356	3322
476.434	4105
476.512	5505
476.590	5426
476.667	4839
476.745	4035
476.823	4305
476.901	3546
476.979	3735
477.056	3301
477.134	3420
477.212	3406
477.290	2939
477.367	3491
477.445	3929
477.523	3839
477.601	3199
477.678	3799
477.756	4059
477.834	3837
477.911	3418
477.989	3876
478.066	4071
478.144	3505
478.222	4926
478.299	6575
478.377	7534
478.454	4393
478.532	3435
478.609	3908
478.687	4440
478.764	4197
478.842	3818
478.919	3672
478.997	3966
479.074	3428
479.152	3293
479.229	4013
479.307	3548
479.384	4085
479.461	4268
479.539	3179
479.616	4247
479.694	4100
479.771	3808
479.848	2812
479.926	2124
480.003	5163
480.080	3971
480.157	3764
480.235	3534
480.312	4003
480.389	3211
480.467	4201
480.544	4146
480.621	5371
480.698	5121
480.775	3883
480.853	4745
480.930	4286
481.007	3666
481.084	4477
481.161	4357
481.238	4216
481.315	4186
481.392	3235
481.470	4299
481.547	4008
481.624	3844
481.701	3702
481.778	4175
481.855	3935
481.932	5675
482.009	5495
482.086	4993
482.163	6472
482.240	9313
482.317	12183
482.393	9036
482.470	5820
482.547	5378
482.624	4960
482.701	5347
482.778	4181
482.855	4263
482.932	4273
483.009	4775
483.085	6023
483.162	6773
483.239	7813
483.316	7777
483.393	7774
483.469	5953
483.546	6138
483.623	4497
483.699	4343
483.776	3724
483.853	3626
483.930	4160
484.006	4189
484.083	4612
484.160	4190
484.236	5255
484.313	5351
484.389	5221
484.466	7422
484.543	6857
484.619	10811
484.696	13994
484.772	7871
484.849	6378
484.925	5839
485.002	5174
485.078	4434
485.155	3306
485.231	3478
485.308	3577
485.384	4027
485.461	4810
485.537	3640
485.614	5353
485.690	3590
485.766	3850
485.843	3523
485.919	5128
485.995	3914
486.072	3527
486.148	3786
486.224	3540
486.301	4117
486.377	3150
486.453	3101
486.530	5271
486.606	4528
486.682	4437
486.758	4837
486.835	5019
486.911	3947
486.987	5883
487.063	7338
487.139	10312
487.215	9376
487.292	9038
487.368	10795
487.444	14146
487.520	20133
487.596	30938
487.672	74585
487.748	253604
487.824	385827
487.900	116778
487.976	28715
488.052	14282
488.128	10670
488.204	7616
488.280	7435
488.356	5618
488.432	5817
488.508	6677
488.584	4655
488.660	5048
488.736	5226
488.812	4801
488.888	6196
488.964	5088
489.039	7906
489.115	12626
489.191	7778
489.267	3615
489.343	3596
489.418	4763
489.494	4028
489.570	2853
489.646	5322
489.722	4563
489.797	3923
489.873	4467
489.949	5270
490.024	4320
490.100	4202
490.176	4452
490.251	5262
490.327	4709
490.403	4210
490.478	4992
490.554	3837
490.629	3440
490.705	3300
490.781	4310
490.856	4221
490.932	4087
491.007	4381
491.083	3887
491.158	3914
491.234	3073
491.309	4918
491.385	3475
491.460	4269
491.536	5441
491.611	4246
491.686	4887
491.762	4524
491.837	6482
491.913	9325
491.988	11177
492.063	12717
492.139	5640
492.214	4921
492.289	4290
492.365	3293
492.440	4329
492.515	4080
492.590	4169
492.666	3344
492.741	4302
492.816	3498
492.891	3500
492.967	4164
493.042	3809
493.117	3303
493.192	4423
493.267	5054
493.342	5224
493.418	7274
493.493	4672
493.568	4385
493.643	3189
493.718	4098
493.793	4423
493.868	4925
493.943	5213
494.018	4466
494.093	4018
494.168	4345
494.243	3254
494.318	4632
494.393	4334
494.468	4328
494.543	4228
494.618	4583
494.693	4509
494.768	3120
494.842	3457
494.917	5034
494.992	4171
495.067	4316
495.142	3294
495.217	4446
495.292	4713
495.366	3385
495.441	3886
495.516	5107
495.591	6203
495.665	11606
495.740	24125
495.815	11429
495.890	4524
495.964	2653
496.039	5681
496.114	4601
496.188	4724
496.263	5406
496.338	3829
496.412	3391
496.487	4724
496.561	5162
496.636	4643
496.710	4394
496.785	3932
496.860	4622
496.934	4247
497.009	5400
497.083	4214
497.158	5067
497.232	4912
497.307	6325
497.381	5900
497.455	6259
497.530	4800
497.604	4361
497.679	4786
497.753	4946
497.827	3765
497.902	4038
497.976	4884
498.050	5976
498.125	9290
498.199	9724
498.273	6816
498.348	6105
498.422	6890
498.496	7316
498.570	7521
498.645	3571
498.719	2386
498.793	3551
498.867	3376
498.941	4142
499.016	5765
499.090	8772
499.164	5151
499.238	5632
499.312	5553
499.386	6357
499.460	6090
499.534	6591
499.609	8338
499.683	5840
499.757	4450
499.831	3289
499.905	5688
499.979	5504
500.053	3476
500.127	4845
500.201	4502
500.275	5412
500.349	4840
500.422	5659
500.496	6711
500.570	8963
500.644	12176
500.718	10957
500.792	5681
500.866	3106
500.940	2987
501.013	3701
501.087	3090
501.161	4169
501.235	2213
501.309	5651
501.382	4695
501.456	5764
501.530	3924
501.603	2907
501.677	3019
501.751	1710
501.825	4284
501.898	3721
501.972	3059
502.046	3156
502.119	2395
502.193	2502
502.266	3747
502.340	3009
502.413	2650
502.487	3231
502.561	2122
502.634	3079
502.708	2570
502.781	2887
502.855	3768
502.928	1886
503.002	3798
503.075	2086
503.149	2565
503.222	2535
503.295	2799
503.369	2435
503.442	3479
503.516	5479
503.589	5397
503.662	7271
503.736	6740
503.809	10724
503.882	14011
503.956	20985
504.029	42212
504.102	140217
504.175	211179
504.249	72588
504.322	22959
504.395	11702
504.468	7329
504.542	5105
504.615	3489
504.688	4299
504.761	2135
504.834	4846
504.907	2863
504.980	4661
505.053	2494
505.127	1315
505.200	5506
505.273	1729
505.346	2683
505.419	1712
505.492	3534
505.565	2454
505.638	2780
505.711	1673
505.784	2114
505.857	1159
505.930	4034
506.003	764
506.076	3983
506.149	1505
506.221	77
506.294	4223
506.367	814
506.440	2706
506.513	3096
506.586	1713
506.659	1186
506.731	2553
506.804	1565
506.877	1238
506.950	2108
507.022	2155
507.095	1043
507.168	2646
507.241	2226
507.313	1858
507.386	864
507.459	3038
507.531	1515
507.604	1411
507.677	3164
507.749	308
507.822	3527
507.894	2487
507.967	3823
508.040	1332
508.112	2509
508.185	2380
508.257	1484
508.330	3354
508.402	1378
508.475	1819
508.547	2351
508.620	1429
508.692	2065
508.765	2221
508.837	1587
508.909	1966
508.982	1892
509.054	2475
509.127	1377
509.199	1674
509.271	1536
509.344	1930
509.416	1676
509.488	1506
509.560	2577
509.633	2022
509.705	2070
509.777	2006
509.849	3416
509.922	1586
509.994	2122
510.066	2254
510.138	35
510.210	4332
510.283	1378
510.355	2261
510.427	2896
510.499	2632
510.571	2609
510.643	1853
510.715	3245
510.787	695
510.859	3121
510.931	1650
511.003	2452
511.076	3399
511.148	837
511.219	965
511.291	2012
511.363	3068
511.435	2492
511.507	1465
511.579	3064
511.651	2435
511.723	1515
511.795	1775
511.867	1510
511.939	2131
512.010	1416
512.082	2215
512.154	486
512.226	2126
512.298	3217
512.369	1879
512.441	3240
512.513	3238
512.585	1241
512.656	2973
512.728	1475
512.800	1984
512.871	2677
512.943	2900
513.015	813
513.086	2944
513.158	2900
513.230	1660
513.301	2534
513.373	4366
513.444	1875
513.516	1477
513.588	2269
513.659	2060
513.731	1779
513.802	2179
513.874	4622
513.945	5322
514.016	2148
514.088	2548
514.159	564
514.231	3452
514.302	3415
514.374	2522
514.445	1310
514.516	4940
514.588	2159
514.659	2032
514.730	1610
514.802	4402
514.873	612
514.944	4235
515.016	1935
515.087	2848
515.158	1989
515.229	3924
515.301	1692
515.372	3535
515.443	1834
515.514	2054
515.585	495
515.656	3069
515.728	3954
515.799	1921
515.870	3553
515.941	3589
516.012	2686
516.083	5360
516.154	3747
516.225	7399
516.296	9930
516.367	10234
516.438	13332
516.509	17188
516.580	27219
516.651	103839
516.722	360190
516.793	141216
516.864	25526
516.935	23741
517.006	28720
517.077	37067
517.148	81932
517.219	401268
517.289	603528
517.360	94079
517.431	22746
517.502	10658
517.573	10815
517.643	9816
517.714	9356
517.785	11050
517.856	13270
517.926	19168
517.997	24255
518.068	30781
518.138	44559
518.209	68644
518.280	256556
518.350	856976
518.421	357945
518.492	59244
518.562	34880
518.633	34446
518.703	40399
518.774	92585
518.845	261951
518.915	247620
518.986	63508
519.056	25425
519.127	16320
519.197	14043
519.268	10378
519.338	8068
519.408	4232
519.479	6291
519.549	4109
519.620	6210
519.690	4021
519.760	3896
519.831	3563
519.901	3484
519.971	3059
520.042	2049
520.112	1826
520.182	3288
520.253	3613
520.323	1900
520.393	1309
520.463	5362
520.534	309
520.604	4225
520.674	3780
520.744	962
520.814	2165
520.885	2875
520.955	1837
521.025	3014
521.095	2587
521.165	3619
521.235	1650
521.305	1680
521.375	2061
521.445	2662
521.515	2967
521.585	4017
521.655	676
521.725	4344
521.795	2778
521.865	153
521.935	4575
522.005	1818
522.075	2211
522.145	3305
522.215	992
522.285	3278
522.355	1610
522.424	3700
522.494	1559
522.564	2506
522.634	4800
522.704	12953
522.774	4908
522.843	3188
522.913	3044
522.983	2219
523.053	1735
523.122	2979
523.192	2326
523.262	5686
523.331	5453
523.401	3310
523.471	2179
523.540	2909
523.610	1616
523.680	3517
523.749	2880
523.819	3470
523.888	2175
523.958	2315
524.027	2451
524.097	2941
524.166	3458
524.236	2007
524.305	5304
524.375	2547
524.444	1917
524.514	5118
524.583	2339
524.653	2202
524.722	2973
524.791	2210
524.861	4754
524.930	2977
524.999	3105
525.069	4421
525.138	3006
525.207	3051
525.277	4649
525.346	4293
525.415	5058
525.484	6074
525.554	6673
525.623	9001
525.692	11363
525.761	14429
525.830	20907
525.900	26290
525.969	41140
526.038	77435
526.107	161492
526.176	485456
526.245	375759
526.314	105786
526.383	235432
526.452	312531
526.522	451289
526.591	412074
526.660	70203
526.729	41651
526.797	44660
526.867	60308
526.935	190857
527.004	680870
527.073	424586
527.142	55298
527.211	20861
527.280	13565
527.349	10630
527.418	6358
527.487	6775
527.555	4121
527.624	4458
527.693	4123
527.762	5670
527.831	3715
527.899	4630
527.968	3637
528.037	2445
528.106	4749
528.174	4234
528.243	4173
528.312	3262
528.380	5556
528.449	1270
528.518	4735
528.586	1156
528.655	4658
528.723	3155
528.792	2334
528.861	1376
528.929	2346
528.998	4408
529.066	3616
529.135	3160
529.203	2239
529.272	1407
529.340	3594
529.409	4559
529.477	2080
529.545	1494
529.614	4902
529.682	1475
529.751	2427
529.819	6743
529.887	3115
529.956	2627
530.024	4256
530.092	2858
530.161	4145
530.229	3846
530.297	3611
530.365	4924
530.434	3820
530.502	3016
530.570	4203
530.638	2100
530.707	3818
530.775	5119
530.843	3099
530.911	2826
530.979	3678
531.047	2896
531.115	4116
531.183	2979
531.252	4498
531.320	2857
531.388	2879
531.456	3882
531.524	2990
531.592	4591
531.660	6217
531.728	2316
531.796	3074
531.864	4059
531.932	4221
532.000	3063
532.067	4142
532.135	4280
532.203	5717
532.271	4094
532.339	7010
532.407	8728
532.475	7138
532.542	5693
532.610	5365
532.678	4709
532.746	14673
532.814	27315
532.881	10007
532.949	5626
533.017	5374
533.084	4970
533.152	4392
533.220	4528
533.287	3614
533.355	4426
533.423	5200
533.490	3895
533.558	4990
533.625	4747
533.693	3545
533.761	4194
533.828	6219
533.896	4507
533.963	6495
534.031	8103
534.098	10136
534.166	9261
534.233	7273
534.300	8658
534.368	9533
534.435	9425
534.503	11180
534.570	12995
534.637	14831
534.705	17332
534.772	20885
534.840	39890
534.907	205145
534.974	255647
535.041	30989
535.109	12899
535.176	8233
535.243	8986
535.310	8917
535.378	6578
535.445	7448
535.512	7992
535.579	8494
535.646	7056
535.714	7545
535.781	9292
535.848	9355
535.915	8350
535.982	7439
536.049	6948
536.116	8611
536.183	7332
536.250	7393
536.317	7721
536.384	9412
536.451	9316
536.518	9394
536.585	6620
536.652	10139
536.719	9891
536.786	7803
536.853	8103
536.920	10505
536.987	9509
537.053	8801
537.120	18868
537.187	18066
537.254	9392
537.321	8728
537.388	10123
537.454	7932
537.521	8215
537.588	8742
537.654	9567
537.721	9816
537.788	10968
537.855	7769
537.921	9631
537.988	8468
538.055	9066
538.121	7802
538.188	8045
538.254	7744
538.321	9336
538.388	9549
538.454	9986
538.521	10511
538.587	10009
538.654	9086
538.720	9029
538.787	9539
538.853	10439
538.920	9153
538.986	7965
539.053	8630
539.119	8733
539.185	8492
539.252	10288
539.318	10293
539.385	12435
539.451	8903
539.517	10011
539.583	10322
539.650	10829
539.716	15903
539.782	9342
539.849	7713
539.915	9270
539.981	9322
540.047	9698
540.114	9239
540.180	10760
540.246	8925
540.312	11417
540.378	11705
540.444	12582
540.510	12274
540.576	18064
540.643	10250
540.709	8502
540.775	9079
540.841	8855
540.907	9486
540.973	8986
541.039	9216
541.105	10576
541.171	9843
541.237	10392
541.303	11255
541.369	11033
541.435	11113
541.500	10443
541.566	8570
541.632	7898
541.698	8394
541.764	9520
541.830	9376
541.896	8985
541.961	9232
542.027	8399
542.093	10601
542.159	11338
542.224	8748
542.290	10965
542.356	10127
542.421	11309
542.487	9616
542.553	8754
542.618	9192
542.684	9284
542.750	9530
542.815	10574
542.881	9690
542.947	16632
543.012	15062
543.078	9803
543.143	9270
543.209	9888
543.274	9033
543.340	10001
543.405	12587
543.471	12307
543.536	10789
543.602	10288
543.667	8140
543.732	10066
543.798	8662
543.863	10199
543.928	8778
543.994	8413
544.059	9880
544.124	11244
544.190	10613
544.255	10638
544.320	11303
544.386	9812
544.451	11915
544.516	10333
544.581	10525
544.646	15082
544.712	18035
544.777	11969
544.842	11334
544.907	10674
544.972	11563
545.037	11075
545.102	11326
545.168	11721
545.233	13141
545.298	13227
545.363	12891
545.428	13431
545.493	14726
545.558	17544
545.623	14667
545.688	12804
545.753	13686
545.818	13925
545.883	15924
545.947	15458
546.012	16432
546.077	15117
546.142	18553
546.207	17332
546.272	19393
546.337	19365
546.401	20721
546.466	21321
546.531	20975
546.596	23646
546.661	25415
546.725	27141
546.790	26379
546.855	31320
546.919	32972
546.984	37941
547.049	39989
547.113	46194
547.178	51243
547.243	58452
547.307	69107
547.372	77448
547.436	76694
547.501	79837
547.565	86650
547.630	79184
547.695	75913
547.759	76118
547.823	78472
547.888	78226
547.952	81901
548.017	84737
548.081	85187
548.146	84584
548.210	88412
548.274	95399
548.339	92796
548.403	85290
548.468	79428
548.532	78952
548.596	80617
548.660	81663
548.725	88938
548.789	96447
548.853	93381
548.917	89228
548.982	85893
549.046	77054
549.110	70257
549.174	72844
549.238	85259
549.303	92245
549.367	98310
549.431	90629
549.495	85540
549.559	85915
549.623	100036
549.687	110798
549.751	108027
549.815	128412
549.879	130068
549.943	122912
550.007	129544
550.071	128037
550.135	114111
550.199	108382
550.263	106927
550.327	98258
550.391	103251
550.455	115055
550.519	122494
550.582	129143
550.646	147742
550.710	149434
550.774	145675
550.838	149402
550.901	153138
550.965	162927
551.029	168082
551.093	178252
551.156	194195
551.220	220598
551.284	250625
551.347	193157
551.411	160471
551.475	153527
551.538	159552
551.602	150052
551.666	141213
551.729	131567
551.793	129126
551.856	125260
551.920	123593
551.983	124890
552.047	120882
552.110	123706
552.174	123137
552.237	128338
552.301	120183
552.364	114014
552.428	109561
552.491	114042
552.554	117133
552.618	116416
552.681	120236
552.745	116198
552.808	134318
552.871	153834
552.934	130886
552.998	118629
553.061	113209
553.124	109423
553.187	108201
553.251	113025
553.314	110973
553.377	111982
553.440	120807
553.503	122209
553.567	122150
553.630	120456
553.693	119266
553.756	121059
553.819	118848
553.882	113189
553.945	114594
554.008	113811
554.071	114745
554.134	116919
554.197	110875
554.260	106750
554.323	110129
554.386	110099
554.449	116100
554.512	115657
554.575	109719
554.638	108530
554.701	108145
554.764	107843
554.827	101363
554.889	101094
554.952	93491
555.015	91469
555.078	94398
555.141	94349
555.203	91355
555.266	92143
555.329	91298
555.391	88713
555.454	86683
555.517	84099
555.580	80471
555.642	78011
555.705	75603
555.768	75186
555.830	74149
555.893	69238
555.955	69301
556.018	67096
556.080	67427
556.143	69170
556.206	67026
556.268	65225
556.330	64521
556.393	63354
556.455	61605
556.518	59900
556.580	58673
556.643	56613
556.705	53316
556.767	52916
556.830	53451
556.892	52201
556.955	51661
557.017	50018
557.079	50093
557.142	47927
557.204	47951
557.266	49261
557.328	44346
557.391	42007
557.453	39704
557.515	40499
557.577	41583
557.639	41514
557.701	42342
557.764	42188
557.826	43361
557.888	44701
557.950	46844
558.012	50606
558.074	64185
558.136	143209
558.198	332451
558.260	116253
558.322	49764
558.384	49509
558.446	51801
558.508	57298
558.570	65746
558.632	75638
558.694	92846
558.756	145226
558.818	410758
558.880	863733
558.942	351207
559.003	353092
559.065	168152
559.127	67959
559.189	64598
559.251	68915
559.312	92719
559.374	221193
559.436	654791
559.498	329865
559.559	78066
559.621	62776
559.683	69870
559.744	111834
559.806	353397
559.868	500556
559.929	111480
559.991	69077
560.052	112261
560.114	319372
560.176	191713
560.237	182947
560.299	286196
560.360	62012
560.422	26862
560.483	22290
560.545	20235
560.606	19547
560.667	18595
560.729	17487
560.790	15723
560.852	15852
560.913	15484
560.974	15139
561.036	14992
561.097	15180
561.158	14168
561.220	15126
561.281	14577
561.342	13640
561.403	14018
561.465	12614
561.526	15955
561.587	16008
561.648	12439
561.709	12117
561.771	12932
561.832	11412
561.893	10874
561.954	11781
562.015	11382
562.076	10982
562.137	10999
562.198	10093
562.259	10956
562.320	11248
562.381	10889
562.442	11628
562.503	11096
562.564	10668
562.625	10580
562.686	10412
562.747	9805
562.808	10419
562.869	10202
562.930	10222
562.991	8888
563.051	9374
563.112	9123
563.173	9427
563.234	8586
563.294	9221
563.355	8311
563.416	8762
563.477	9023
563.537	8683
563.598	8667
563.659	9057
563.720	7955
563.780	8386
563.841	8997
563.901	8299
563.962	8897
564.023	8178
564.083	8818
564.144	8359
564.204	8393
564.265	8401
564.325	7924
564.386	7906
564.446	8624
564.507	7729
564.567	7715
564.628	6620
564.688	7473
564.749	7756
564.809	8253
564.869	7622
564.930	7562
564.990	8348
565.050	6615
565.111	7869
565.171	7535
565.231	7878
565.292	8524
565.352	7377
565.412	7462
565.472	7728
565.532	8068
565.593	7537
565.653	7622
565.713	7555
565.773	7374
565.833	8269
565.893	9448
565.953	7246
566.013	7369
566.074	8261
566.134	7054
566.194	7047
566.254	6907
566.314	7119
566.374	6746
566.434	7665
566.494	6374
566.554	7283
566.614	7220
566.673	6456
566.733	8161
566.793	7226
566.853	8278
566.913	7929
566.973	8137
567.033	7691
567.092	7644
567.152	7467
567.212	7166
567.272	7412
567.331	8293
567.391	8273
567.451	8601
567.511	8838
567.570	7699
567.630	7343
567.690	7464
567.749	7084
567.809	7938
567.868	7607
567.928	7852
567.988	7430
568.047	8243
568.107	6964
568.166	9075
568.226	8404
568.285	8772
568.345	8165
568.404	8300
568.464	8106
568.523	7734
568.582	8096
568.642	7023
568.701	7503
568.761	6252
568.820	7441
568.879	7677
568.939	7506
568.998	7177
569.057	7445
569.116	7512
569.176	7157
569.235	7281
569.294	7314
569.353	7207
569.413	7052
569.472	6646
569.531	7345
569.590	6257
569.649	6778
569.708	6667
569.767	7564
569.827	7716
569.886	6848
569.945	7208
570.004	6997
570.063	7655
570.122	7850
570.181	7371
570.240	7288
570.299	8107
570.358	7460
570.417	7019
570.475	8510
570.534	9071
570.593	7980
570.652	7417
570.711	7867
570.770	8209
570.829	6952
570.887	8096
570.946	8078
571.005	8869
571.064	8671
571.122	10745
571.181	8659
571.240	8069
571.299	7423
571.357	7246
571.416	7818
571.475	7239
571.533	7913
571.592	8688
571.650	8433
571.709	8378
571.768	10183
571.826	10010
571.885	9753
571.943	8116
572.002	7822
572.060	7498
572.119	7367
572.177	7376
572.236	7935
572.294	8598
572.352	8561
572.411	7308
572.469	7762
572.528	7553
572.586	7816
572.644	6476
572.703	7715
572.761	6169
572.819	6255
572.877	7203
572.936	6994
572.994	6774
573.052	6197
573.110	6862
573.169	7887
573.227	7296
573.285	6652
573.343	7454
573.401	7095
573.459	7099
573.517	7781
573.576	7402
573.634	7163
573.692	7598
573.750	7364
573.808	6191
573.866	5854
573.924	7113
573.982	7104
574.040	6930
574.098	7563
574.155	6953
574.213	6415
574.271	7024
574.329	7040
574.387	6879
574.445	6113
574.503	5890
574.560	5792
574.618	6246
574.676	6255
574.734	6586
574.792	5685
574.849	5236
574.907	4818
574.965	5248
575.022	4376
575.080	4603
575.138	5160
575.195	4736
575.253	5745
575.311	4827
575.368	5420
575.426	4454
575.483	5529
575.541	5658
575.598	4699
575.656	5471
575.713	5499
575.771	5319
575.828	5357
575.886	3922
575.943	5175
576.001	4523
576.058	3679
576.115	4620
576.173	4712
576.230	4638
576.287	4764
576.345	4304
576.402	5746
576.459	4961
576.517	4262
576.574	4094
576.631	3976
576.688	3992
576.746	4232
576.803	4599
576.860	3597
576.917	4819
576.974	4237
577.031	4375
577.089	4532
577.146	4450
577.203	3604
577.260	4749
577.317	4455
577.374	4158
577.431	3753
577.488	3748
577.545	3862
577.602	4971
577.659	3994
577.716	3902
577.773	4336
577.830	3849
577.886	3719
577.943	4153
578.000	3080
578.057	3654
578.114	4209
578.171	3430
578.227	3624
578.284	3421
578.341	4259
578.398	3502
578.454	4279
578.511	4134
578.568	3821
578.625	3621
578.681	4742
578.738	4478
578.794	3826
578.851	4395
578.908	4462
578.964	4477
579.021	4679
579.077	4390
579.134	4733
579.190	3502
579.247	4127
579.303	4474
579.360	3224
579.416	3763
579.473	3910
579.529	4005
579.586	4189
579.642	4991
579.698	4056
579.755	4162
579.811	3993
579.867	4255
579.924	3782
579.980	3808
580.036	4313
580.093	4302
580.149	4858
580.205	5074
580.261	5116
580.317	5153
580.374	5168
580.430	5900
580.486	5365
580.542	4156
580.598	4952
580.619	4826
580.654	4608
580.692	4770
580.710	4855
580.765	5336
580.767	5355
580.823	5197
580.838	5166
580.879	5107
580.911	5432
580.935	5669
580.984	4969
580.991	4880
581.047	5353
581.057	5245
581.103	4788
581.130	4927
581.159	5051
581.203	4417
581.215	4265
581.270	5535
581.276	5497
581.326	5130
581.349	4915
581.382	4625
581.422	4711
581.438	4750
581.494	5056
581.494	5051
581.550	4830
581.567	4817
581.606	4762
581.640	4723
581.661	4655
581.713	5010
581.717	5061
581.773	5133
581.786	5230
581.829	5372
581.859	5258
581.885	5230
581.932	5361
581.940	5382
581.996	5250
582.004	5215
582.052	5015
582.077	4984
582.107	4932
582.150	4370
582.163	4213
582.219	4403
582.223	4445
582.274	4903
582.296	4588
582.330	4106
582.368	4443
582.386	4657
582.441	4898
582.441	4898
582.497	4221
582.514	4324
582.552	4817
582.587	5036
582.608	5075
582.659	4243
582.663	4189
582.719	4834
582.732	4733
582.774	4341
582.805	4616
582.830	4877
582.877	5557
582.885	5651
582.941	5064
582.950	5067
582.996	4959
583.023	4854
583.052	5056
583.095	4866
583.107	4730
583.162	5493
583.168	5551
583.218	6003
583.240	5598
583.273	4975
583.313	4669
583.328	4664
583.384	5435
583.385	5421
583.439	4627
583.458	4845
583.494	5332
583.531	4780
583.549	4595
583.603	5036
583.605	5034
583.660	5324
583.676	5202
583.715	5183
583.748	5418
583.770	5468
583.820	5127
583.825	5097
583.881	5137
583.893	5089
583.936	5117
583.965	5124
583.991	5055
584.038	5213
584.046	5229
584.101	4967
584.110	4985
584.156	5156
584.183	5173
584.211	5149
584.255	5246
584.266	5309
584.321	5988
584.328	5971
584.376	5794
584.400	5963
584.431	6179
584.472	5513
584.486	5250
584.541	6151
584.545	6197
584.596	6867
584.617	6579
584.651	6603
584.689	7229
584.706	7238
584.761	7114
584.762	7110
584.816	7112
584.834	7400
584.871	7820
584.906	7721
584.926	7773
584.978	8712
584.980	8748
585.035	9923
585.051	10286
585.090	11586
585.123	12682
585.145	13222
585.195	14862
585.200	15086
585.254	18451
585.267	19298
585.309	21883
585.340	23952
585.364	25928
585.412	30206
585.419	30961
585.473	38203
585.484	40159
585.528	50848
585.556	63246
585.583	88384
585.628	150972
585.637	172434
585.692	367169
585.700	398171
585.747	495161
585.772	411224
585.801	251437
585.845	85343
585.856	64496
585.910	32651
585.917	29691
585.965	21936
585.989	19270
586.019	16853
586.061	14585
586.074	14109
586.128	13491
586.133	13428
586.183	12790
586.205	12189
586.237	11482
586.277	11632
586.292	11793
586.346	11541
586.349	11568
586.401	11880
586.421	11619
586.455	11263
586.493	11820
586.509	12241
586.564	12292
586.565	12310
586.618	13247
586.637	13845
586.672	16027
586.709	18369
586.727	19162
586.781	20489
586.781	20488
586.835	14866
586.853	13749
586.889	12948
586.925	12203
586.944	11787
586.996	11355
586.998	11377
587.052	11650
587.068	11838
587.106	12000
587.140	12127
587.161	12214
587.212	12473
587.215	12505
587.269	12180
587.284	12296
587.323	12202
587.356	12279
587.377	12803
587.427	13703
587.431	13727
587.485	13987
587.499	13928
587.539	14110
587.571	14632
587.593	14779
587.643	15296
587.648	15387
587.702	15637
587.715	15610
587.755	15490
587.786	15709
587.810	15798
587.858	15893
587.864	15930
587.917	15935
587.930	16005
587.971	16117
588.001	16029
588.025	16135
588.073	16445
588.079	16486
588.133	16779
588.145	16757
588.187	16529
588.217	16531
588.241	16992
588.288	18098
588.295	18181
588.348	18464
588.360	18567
588.402	19145
588.431	19120
588.456	19088
588.503	20034
588.510	20257
588.564	21635
588.575	21887
588.617	22790
588.646	23357
588.671	24107
588.718	26350
588.725	26947
588.778	31906
588.789	33269
588.832	48801
588.861	61974
588.886	90163
588.932	153967
588.939	159514
588.993	196513
589.004	193590
589.047	100860
589.075	49858
589.100	38602
589.147	26571
589.154	26162
589.207	24216
589.218	23705
589.261	23986
589.290	24695
589.314	25375
589.361	27070
589.368	27899
589.421	35681
589.433	37869
589.475	65686
589.504	88429
589.528	116181
589.576	175497
589.582	170165
589.635	83133
589.647	66481
589.689	38140
589.718	23249
589.742	22055
589.790	19946
589.795	19896
589.849	19465
589.861	19386
589.902	19168
589.932	18941
589.955	18891
590.004	18616
590.009	18604
590.062	18660
590.075	18561
590.115	18416
590.146	18327
590.168	18175
590.218	17786
590.222	17852
590.275	18437
590.289	18658
590.328	19353
590.360	19653
590.381	19699
590.431	19697
590.435	19711
590.488	19871
590.503	19786
590.541	20001
590.574	20263
590.594	20339
590.645	20494
590.647	20585
590.700	22528
590.716	22982
590.753	22771
590.787	22651
590.806	23118
590.859	24597
590.859	24638
590.912	24858
590.930	24999
590.965	25098
591.001	25132
591.018	24863
591.071	23894
591.072	23857
591.124	24415
591.143	24615
591.177	24448
591.214	24274
591.230	24584
591.283	25617
591.285	25610
591.336	24680
591.356	24447
591.389	24971
591.427	25355
591.442	25178
591.495	24346
591.498	24260
591.547	25442
591.569	25971
591.600	25740
591.640	25188
591.653	25272
591.706	25635
591.711	25641
591.759	26287
591.782	26566
591.811	27472
591.853	28675
591.864	28634
591.917	28286
591.924	28178
591.969	28481
591.995	28659
592.022	28574
592.066	28273
592.075	28503
592.127	29809
592.137	29993
592.180	30201
592.208	30299
592.233	30684
592.279	31270
592.285	31381
592.338	32041
592.350	32130
592.390	32125
592.421	32076
592.443	32300
592.491	32698
592.495	32809
592.548	33810
592.562	34051
592.600	34295
592.633	34424
592.653	34222
592.704	33413
592.705	33626
592.775	34746
592.846	36002
592.916	35230
592.987	36533
593.058	36829
593.128	38044
593.199	36869
593.270	37225
593.341	38329
593.411	39513
593.482	41228
593.553	43272
593.623	42979
593.694	44149
593.764	43954
593.835	44542
593.906	44520
593.976	45270
594.047	46020
594.117	49003
594.188	49569
594.258	50380
594.329	50184
594.399	51535
594.470	52974
594.540	55071
594.611	55641
594.681	55908
594.751	54640
594.822	59742
594.892	60313
594.963	61558
595.033	64003
595.103	66327
595.174	66038
595.244	68819
595.314	71372
595.384	71295
595.455	73705
595.525	76908
595.595	80236
595.665	78419
595.736	76243
595.806	78084
595.876	78999
595.946	81206
596.016	83648
596.087	87471
596.157	86128
596.227	87394
596.297	92685
596.367	98509
596.437	104917
596.507	102228
596.577	102461
596.647	107372
596.717	112058
596.787	114810
596.857	113641
596.927	115013
596.997	114418
597.067	115804
597.137	117039
597.207	118804
597.277	117887
597.347	114756
597.417	109328
597.487	109909
597.557	113374
597.626	116956
597.696	117346
597.766	116044
597.836	109864
597.906	103411
597.975	101269
598.045	105121
598.115	109438
598.185	118375
598.254	133674
598.324	143851
598.394	144705
598.464	140645
598.533	136078
598.603	128415
598.672	123252
598.742	126342
598.812	129141
598.881	132479
598.951	131162
599.020	132322
599.090	139162
599.159	140688
599.229	135239
599.299	130552
599.368	135994
599.437	133449
599.507	121239
599.576	116545
599.646	115137
599.715	113784
599.785	113011
599.854	109511
599.924	107050
599.993	106939
600.062	110823
600.132	113676
600.201	119423
600.270	141318
600.340	147300
600.409	144411
600.478	142256
600.547	145865
600.617	131169
600.686	104132
600.755	92099
600.824	88810
600.894	85026
600.963	87558
601.032	85537
601.101	81357
601.170	78624
601.239	74245
601.308	76360
601.378	74380
601.447	73876
601.516	76042
601.585	78140
601.654	77332
601.723	77062
601.792	80481
601.861	81696
601.930	85706
601.999	85856
602.068	85719
602.137	87896
602.206	88660
602.275	90016
602.343	91035
602.412	89950
602.481	92397
602.550	94247
602.619	96897
602.688	97434
602.756	98540
602.825	98779
602.894	102358
602.963	103419
603.032	106066
603.100	106974
603.169	108128
603.238	106796
603.307	108895
603.375	111182
603.444	112820
603.513	113811
603.581	116175
603.650	116322
603.719	115808
603.787	118449
603.856	122093
603.924	125928
603.993	131507
604.061	135756
604.130	143197
604.198	145067
604.267	147775
604.335	149784
604.404	152650
604.472	153003
604.541	155465
604.609	158242
604.678	157251
604.746	158348
604.815	163493
604.883	166300
604.951	165290
605.020	169278
605.088	173291
605.156	176180
605.225	178997
605.293	179738
605.361	178063
605.429	182200
605.498	186174
605.566	192699
605.634	200247
605.702	206876
605.771	213645
605.839	215043
605.907	209909
605.975	202326
606.043	199811
606.111	197608
606.180	198044
606.248	195995
606.316	193711
606.384	193617
606.452	194244
606.520	200813
606.588	210171
606.656	209300
606.724	205871
606.792	191863
606.860	173583
606.928	159617
606.996	153594
607.064	151006
607.132	155817
607.200	166460
607.267	170608
607.335	174596
607.403	176753
607.471	169681
607.539	164538
607.607	167011
607.674	146244
607.742	145500
607.810	145531
607.878	144611
607.946	148349
608.013	156424
608.081	159638
608.149	160288
608.216	167266
608.284	170928
608.352	170729
608.419	167522
608.487	168593
608.555	163959
608.622	168434
608.690	180766
608.757	198042
608.825	201013
608.893	195657
608.960	184177
609.028	177028
609.095	178484
609.163	175253
609.230	155464
609.298	144874
609.365	153429
609.432	165981
609.500	181391
609.567	207305
609.635	237191
609.702	246492
609.769	230532
609.837	178237
609.904	157490
609.971	161203
610.039	177046
610.106	223918
610.173	382589
610.241	759577
610.308	406243
610.375	191593
610.442	167915
610.509	160829
610.577	163151
610.644	165348
610.711	172220
610.778	176644
610.845	186234
610.912	197217
610.980	202431
611.047	202710
611.114	197770
611.181	191147
611.248	190813
611.315	202650
611.382	207564
611.449	214889
611.516	217603
611.583	215792
611.650	215444
611.717	219087
611.784	222533
611.851	230302
611.918	241846
611.984	274620
612.051	354906
612.118	603821
612.185	1174929
612.252	730399
612.319	316684
612.386	278313
612.452	255571
612.519	243478
612.586	239823
612.653	245626
612.719	252491
612.786	242834
612.853	225283
612.919	221618
612.986	226109
613.053	211812
613.120	198529
613.186	192438
613.253	194843
613.319	194872
613.386	196335
613.453	199539
613.519	200698
613.586	195229
613.652	200755
613.719	197439
613.785	200461
613.852	202482
613.918	200756
613.985	205232
614.051	211454
614.118	207993
614.184	200983
614.250	199735
614.317	204899
614.383	202469
614.449	205813
614.516	206141
614.582	206479
614.648	202427
614.715	200831
614.781	195435
614.847	195363
614.914	194310
614.980	188636
615.046	190646
615.112	195260
615.179	197317
615.245	198994
615.311	196271
615.377	198605
615.443	199429
615.509	204148
615.575	210435
615.642	206103
615.708	212097
615.774	220664
615.840	232416
615.906	244484
615.972	282546
616.038	389210
616.104	703318
616.170	1293012
616.236	996466
616.302	413096
616.368	340353
616.434	258785
616.500	244201
616.565	272792
616.631	330385
616.697	270624
616.763	281557
616.829	412854
616.895	686053
616.961	595023
617.026	279242
617.092	216044
617.158	207575
617.224	200981
617.289	187619
617.355	181141
617.421	178074
617.487	177768
617.552	169044
617.618	168354
617.684	167810
617.749	170454
617.815	162225
617.880	157585
617.946	159397
618.012	163369
618.077	165294
618.143	157969
618.208	159947
618.274	173275
618.339	171599
618.405	142022
618.470	144806
618.536	140905
618.601	139192
618.667	128011
618.732	124109
618.798	121898
618.863	121969
618.928	119147
618.994	120707
619.059	121426
619.124	121938
619.190	121018
619.255	119621
619.320	119913
619.386	120405
619.451	119040
619.516	116307
619.581	117790
619.647	122284
619.712	120693
619.777	117032
619.842	116473
619.907	119979
619.972	121054
620.038	120738
620.103	116859
620.168	117542
620.233	119498
620.298	119694
620.363	121298
620.428	124447
620.493	128167
620.558	128883
620.623	129895
620.688	129533
620.753	129001
620.818	130229
620.883	131773
620.948	132296
621.013	130441
621.078	127892
621.143	128116
621.207	132598
621.272	127427
621.337	122480
621.402	122482
621.467	122565
621.532	121100
621.596	122808
621.661	118892
621.726	117357
621.791	117752
621.855	119889
621.920	119123
621.985	119241
622.049	121622
622.114	122228
622.179	124056
622.243	126694
622.308	131100
622.373	135933
622.437	131578
622.502	124425
622.566	124462
622.631	122693
622.695	127825
622.760	125034
622.824	124308
622.889	126652
622.953	124714
623.018	133752
623.082	135159
623.147	132781
623.211	129172
623.276	129917
623.340	126264
623.404	123573
623.469	122577
623.533	124291
623.597	120659
623.662	120072
623.726	110276
623.790	102685
623.854	101152
623.919	103293
623.983	104377
624.047	107797
624.111	108070
624.176	111732
624.240	109187
624.304	114239
624.368	108734
624.432	110902
624.496	113879
624.560	119899
624.625	120286
624.689	120312
624.753	123841
624.817	118815
624.881	114320
624.945	103713
625.009	100586
625.073	103677
625.137	105861
625.201	113046
625.265	111214
625.329	107303
625.393	106532
625.456	110049
625.520	112567
625.584	113647
625.648	118126
625.712	119127
625.776	116848
625.839	110083
625.903	93002
625.967	88001
626.031	95500
626.095	113113
626.158	102460
626.222	80667
626.286	76858
626.349	72810
626.413	69221
626.477	68745
626.540	68286
626.604	67218
626.668	68461
626.731	65582
626.795	65768
626.858	66349
626.922	66136
626.986	65595
627.049	63743
627.113	68444
627.176	65107
627.240	63921
627.303	64099
627.366	63035
627.430	63547
627.493	63435
627.557	59727
627.620	63675
627.684	67167
627.747	67280
627.810	59322
627.874	55249
627.937	52182
628.000	55419
628.064	52392
628.127	45938
628.190	48336
628.253	46558
628.317	42928
628.380	41781
628.443	39836
628.506	40036
628.569	38692
628.632	36086
628.696	37179
628.759	36362
628.822	35466
628.885	34424
628.948	33420
629.011	33492
629.074	31860
629.137	30823
629.200	29875
629.263	31012
629.326	28722
629.389	29887
629.452	30305
629.515	28248
629.578	28271
629.641	29862
629.704	28532
629.767	28155
629.830	27892
629.892	28268
629.955	26409
630.018	29750
630.081	26585
630.144	28120
630.207	26102
630.269	27937
630.332	25886
630.395	26758
630.458	25720
630.520	23841
630.583	25333
630.646	26366
630.708	25223
630.771	24616
630.834	28803
630.896	26602
630.959	27076
631.021	25559
631.084	26600
631.146	25960
631.209	26990
631.272	26188
631.334	26550
631.397	27016
631.459	26479
631.522	28421
631.584	29162
631.646	32502
631.709	33428
631.771	31856
631.834	31155
631.896	30057
631.958	27137
632.021	27762
632.083	24046
632.145	26237
632.208	25405
632.270	25175
632.332	24322
632.395	23908
632.457	24538
632.519	23494
632.581	25847
632.643	22976
632.706	24674
632.768	23404
632.830	24427
632.892	25835
632.954	25454
633.016	26447
633.078	24331
633.141	25584
633.203	24727
633.265	25575
633.327	25609
633.389	24227
633.451	26325
633.513	24020
633.575	25443
633.637	25173
633.698	24503
633.760	26433
633.822	28187
633.884	28944
633.946	29549
634.008	29566
634.070	30706
634.132	32641
634.193	35371
634.255	39347
634.317	39356
634.379	39716
634.441	33860
634.502	30116
634.564	28364
634.626	27172
634.687	26203
634.749	24058
634.811	25014
634.873	24125
634.934	23416
634.996	24508
635.057	22369
635.119	24288
635.181	24718
635.242	26121
635.304	22304
635.365	26515
635.427	24026
635.488	24224
635.550	22899
635.611	25409
635.673	22839
635.734	26889
635.796	27867
635.857	31214
635.918	33232
635.980	36808
636.041	37627
636.102	42288
636.164	41824
636.225	40168
636.286	33344
636.348	31126
636.409	26846
636.470	24886
636.531	25204
636.593	22694
636.654	23304
636.715	22149
636.776	21095
636.838	20252
636.899	22022
636.960	21821
637.021	19721
637.082	19742
637.143	19680
637.204	18751
637.265	19113
637.326	20177
637.387	20037
637.448	18678
637.509	20262
637.570	20267
637.631	20090
637.692	18302
637.753	17550
637.814	19316
637.875	18166
637.936	19758
637.997	18196
638.058	17031
638.119	19147
638.179	17940
638.240	17555
638.301	18414
638.362	17059
638.423	16270
638.483	18503
638.544	15672
638.605	17451
638.666	15703
638.726	17056
638.787	17639
638.848	16259
638.908	16732
638.969	16270
639.030	15632
639.090	15467
639.151	15862
639.211	17144
639.272	17314
639.332	17490
639.393	17947
639.453	18123
639.514	18282
639.574	16874
639.635	15257
639.695	15867
639.756	13603
639.816	15203
639.877	15789
639.937	15943
639.997	16808
640.058	14078
640.118	14170
640.178	15464
640.239	14088
640.299	14157
640.359	16111
640.420	17111
640.480	19546
640.540	21598
640.600	21363
640.661	18400
640.721	16893
640.781	16571
640.841	13824
640.901	16189
640.961	15780
641.021	15813
641.082	17005
641.142	15102
641.202	15314
641.262	12030
641.322	15719
641.382	13289
641.442	14131
641.502	13800
641.562	15228
641.622	13871
641.682	15525
641.742	17893
641.802	16197
641.861	15551
641.921	13428
641.981	13594
642.041	13805
642.101	11884
642.161	12602
642.221	12504
642.280	12847
642.340	12495
642.400	12400
642.460	14048
642.519	12461
642.579	13387
642.639	13755
642.698	12133
642.758	16527
642.818	13889
642.877	12803
642.937	13730
642.997	14295
643.056	14019
643.116	11980
643.175	16330
643.235	13699
643.294	15171
643.354	16230
643.414	16974
643.473	20042
643.532	25155
643.592	34255
643.651	51491
643.711	87884
643.770	167065
643.830	398616
643.889	685361
643.948	174267
644.008	42394
644.067	26666
644.126	20170
644.186	17516
644.245	16829
644.304	13574
644.363	16594
644.423	13184
644.482	13917
644.541	16486
644.600	14237
644.659	21482
644.719	25269
644.778	38255
644.837	67421
644.896	143875
644.955	297421
645.014	84139
645.073	22964
645.132	17639
645.191	16189
645.250	15868
645.309	16820
645.368	18823
645.427	25935
645.486	47618
645.545	74637
645.604	20780
645.663	14064
645.722	14897
645.781	15675
645.840	18584
645.898	22681
645.957	32955
646.016	46973
646.075	83480
646.134	161857
646.192	424960
646.251	513638
646.310	88676
646.369	31313
646.427	27782
646.486	18984
646.545	15596
646.603	14227
646.662	13986
646.721	13425
646.779	12666
646.838	14496
646.896	18613
646.955	24010
647.014	41514
647.072	82239
647.131	213766
647.189	83764
647.248	15090
647.306	12581
647.365	11959
647.423	9058
647.481	11463
647.540	8338
647.598	10449
647.657	9539
647.715	10426
647.773	8978
647.832	9575
647.890	7677
647.948	8212
648.007	8641
648.065	7119
648.123	7526
648.181	8792
648.240	8534
648.298	7398
648.356	7524
648.414	7778
648.472	8008
648.531	7131
648.589	7285
648.647	7493
648.705	6468
648.763	7488
648.821	7573
648.879	8467
648.937	8820
648.995	12818
649.053	15717
649.111	25498
649.169	40257
649.227	71868
649.285	155380
649.343	402022
649.401	162546
649.459	26165
649.516	14297
649.574	10886
649.632	12284
649.690	13956
649.748	18282
649.806	28965
649.863	54269
649.921	157653
649.979	85545
650.037	13139
650.094	6836
650.152	8465
650.210	5660
650.268	6785
650.325	6040
650.383	6204
650.440	4441
650.498	5665
650.556	5342
650.613	4619
650.671	5390
650.728	5247
650.786	6011
650.843	9556
650.901	5121
650.958	5205
651.016	4504
651.073	5397
651.131	3757
651.188	3281
651.246	4938
651.303	3102
651.360	4191
651.418	4076
651.475	4195
651.532	4097
651.590	4951
651.647	3224
651.704	3702
651.762	3743
651.819	3882
651.876	2842
651.933	2909
651.990	3863
652.048	2446
652.105	2716
652.162	3432
652.219	3410
652.276	3940
652.333	3778
652.390	2836
652.448	3309
652.505	3603
652.562	3107
652.619	2656
652.676	3408
652.733	3819
652.790	2734
652.847	2325
652.904	3783
652.961	1391
653.017	2384
653.074	3698
653.131	4042
653.188	2836
653.245	3113
653.302	3192
653.359	2907
653.415	3207
653.472	2136
653.529	3498
653.586	2414
653.642	3004
653.699	3823
653.756	2409
653.813	2377
653.869	3447
653.926	2609
653.983	2222
654.039	3300
654.096	2045
654.152	3752
654.209	1953
654.266	3517
654.322	2151
654.379	3169
654.435	3144
654.492	2179
654.548	2598
654.605	2533
654.661	4166
654.717	3016
654.774	2735
654.830	2360
654.887	2000
654.943	2959
655.000	1877
655.056	2727
655.112	3106
655.168	1888
655.225	2797
655.281	2965
655.337	1926
655.394	2456
655.450	1549
655.506	1410
655.562	1907
655.618	3644
655.675	2015
655.731	2524
655.787	1787
655.843	2891
655.899	1927
655.955	2738
656.011	2978
656.067	2321
656.123	2378
656.179	2366
656.235	2820
656.291	1529
656.347	2977
656.403	1957
656.459	2054
656.515	2265
656.571	2332
656.627	2265
656.683	1834
656.739	2724
656.795	2265
656.850	2433
656.906	2689
656.962	3579
657.018	2339
657.074	4256
657.129	6187
657.185	10713
657.241	24481
657.297	11104
657.352	3206
657.408	2156
657.464	3207
657.519	1699
657.575	1107
657.630	1895
657.686	2769
657.742	2340
657.797	1327
657.853	1399
657.908	2827
657.964	1094
658.019	1750
658.075	2105
658.130	2689
658.186	642
658.241	2298
658.297	753
658.352	1196
658.407	1800
658.463	681
658.518	1533
658.573	1731
658.629	1085
658.684	851
658.739	1547
658.795	1019
658.850	1658
658.905	1670
658.960	2121
659.016	556
659.071	1708
659.126	1161
659.181	1465
659.236	2245
659.291	2854
659.346	1533
659.401	2160
659.457	1579
659.512	1334
659.567	1650
659.622	1664
659.677	1558
659.732	505
659.787	1677
659.842	792
659.897	2096
659.952	1276
660.007	986
660.061	1419
660.116	223
660.171	1046
660.226	1502
660.281	2780
660.336	144
660.391	1737
660.445	903
660.500	1465
660.555	2084
660.610	801
660.664	2051
660.719	983
660.774	698
660.828	1557
660.883	1288
660.938	1325
660.992	67
661.047	1508
661.101	1445
661.156	1381
661.211	794
661.265	1785
661.320	117
661.374	914
661.429	665
661.483	1845
661.538	672
661.592	827
661.647	357
661.701	919
661.755	1589
661.810	1366
661.864	1372
661.919	527
661.973	1781
662.027	1106
662.081	789
662.136	1351
662.190	1060
662.244	1078
662.299	908
662.353	1106
662.407	782
662.461	824
662.515	1908
662.569	742
662.624	1488
662.678	598
662.732	374
662.786	1400
662.840	840
662.894	833
662.948	526
663.002	1469
663.056	827
663.110	718
663.164	1109
663.218	1532
663.272	1192
663.326	1586
663.380	1396
663.434	2473
663.488	1187
663.542	834
663.595	884
663.649	1494
663.703	1464
663.757	854
663.811	614
663.864	1770
663.918	1162
663.972	1326
664.026	1602
664.079	1945
664.133	1450
664.187	661
664.240	250
664.294	972
664.348	692
664.401	1329
664.455	1182
664.508	1255
664.562	1378
664.615	1139
664.669	981
664.722	1104
664.776	1455
664.829	1567
664.883	476
664.936	406
664.990	892
665.043	1568
665.097	864
665.150	1800
665.203	748
665.257	1805
665.310	940
665.363	483
665.417	1167
665.470	1434
665.523	1165
665.576	1671
665.630	1736
665.683	1367
665.736	1077
665.789	1117
665.842	1204
665.895	2038
665.949	1096
666.002	1144
666.055	1784
666.108	1615
666.161	935
666.214	2028
666.267	1220
666.320	1258
666.373	2116
666.426	1963
666.479	1130
666.532	1999
666.585	1572
666.638	1818
666.691	564
666.744	962
666.796	1204
666.849	2552
666.902	1722
666.955	1453
667.008	503
667.060	1429
667.113	1117
667.166	1432
667.219	1492
667.271	1797
667.324	1293
667.377	1732
667.430	1073
667.482	1945
667.535	676
667.587	2107
667.640	276
667.693	839
667.745	831
667.798	2454
667.850	1133
667.903	1746
667.955	1694
668.008	1768
668.060	1578
668.113	1565
668.165	1197
668.218	1561
668.270	1308
668.322	845
668.375	701
668.427	2116
668.479	1235
668.532	1318
668.584	674
668.636	2234
668.689	1192
668.741	1578
668.793	1793
668.845	445
668.898	1538
668.950	1422
669.002	1320
669.054	615
669.106	996
669.158	1425
669.211	880
669.263	1229
669.315	2175
669.367	1117
669.419	359
669.471	1748
669.523	1950
669.575	1832
669.627	128
669.679	957
669.731	1498
669.783	1521
669.835	1236
669.886	786
669.938	651
669.990	1111
670.042	528
670.094	1611
670.146	1087
670.197	1267
670.249	926
670.301	1361
670.353	1555
670.404	1977
670.456	1604
670.508	2385
670.560	3572
670.611	5277
670.663	9371
670.715	24311
670.766	33994
670.818	8061
670.869	2358
670.921	2403
670.972	1509
671.024	1136
671.075	1652
671.127	1761
671.178	1416
671.230	2130
671.281	2260
671.333	2695
671.384	3279
671.436	4496
671.487	7724
671.538	10451
671.590	19891
671.641	33928
671.692	65949
671.744	122989
671.795	69496
671.846	21283
671.897	8241
671.949	5858
672.000	3445
672.051	2811
672.102	2352
672.153	2164
672.204	1587
672.256	1974
672.307	1586
672.358	1082
672.409	1055
672.460	1185
672.511	713
672.562	586
672.613	175
672.664	1230
672.715	975
672.766	192
672.817	402
672.868	74
672.919	-292
672.970	204
673.021	-166
673.071	184
673.122	484
673.173	510
673.224	636
673.275	221
673.326	-80
673.376	40
673.427	354
673.478	655
673.528	1043
673.579	409
673.630	1013
673.680	1371
673.731	398
673.782	681
673.832	603
673.883	467
673.934	-82
673.984	521
674.035	662
674.085	302
674.136	402
674.186	584
674.237	370
674.287	-204
674.338	376
674.388	787
674.438	692
674.489	956
674.539	1023
674.589	413
674.640	1191
674.690	1307
674.740	482
674.791	202
674.841	921
674.891	770
674.942	-136
674.992	301
675.042	-245
675.092	120
675.142	-235
675.193	-584
675.243	-651
675.293	694
675.343	-228
675.393	210
675.443	392
675.493	195
675.543	-122
675.593	678
675.643	-218
675.693	401
675.743	-15
675.793	280
675.843	-655
675.893	-621
675.943	550
675.993	-6
676.043	522
676.093	622
676.142	365
676.192	240
676.242	-260
676.292	425
676.341	-855
676.391	-307
676.441	-592
676.491	-353
676.540	-456
676.590	459
676.640	-358
676.689	-378
676.739	-559
676.789	821
676.838	-607
676.888	392
676.937	140
676.987	-46
677.037	-724
677.086	-953
677.136	-249
677.185	-160
677.235	-603
677.284	376
677.333	-434
677.383	42
677.432	45
677.482	267
677.531	-589
677.580	-310
677.630	-101
677.679	-523
677.728	-301
677.778	196
677.827	-358
677.876	315
677.925	-635
677.975	-155
678.024	-449
678.073	17
678.122	322
678.171	-61
678.220	-391
678.269	752
678.319	608
678.368	725
678.417	778
678.466	1065
678.515	475
678.564	-15
678.613	-799
678.662	-109
678.711	-72
678.760	-982
678.809	-851
678.857	221
678.906	339
678.955	-218
679.004	-213
679.053	-473
679.102	-480
679.151	-598
679.199	-573
679.248	72
679.297	-400
679.346	-494
679.394	-457
679.443	-370
679.492	-300
679.540	773
679.589	324
679.638	-367
679.686	-206
679.735	-256
679.784	829
679.832	1401
679.881	286
679.929	289
679.978	-585
680.026	-311
680.075	-488
680.123	-732
680.172	-602
680.220	-77
680.268	-400
680.317	-26
680.365	-1418
680.414	-75
680.462	-243
680.510	-710
680.559	6
680.607	-496
680.655	-790
680.703	-927
680.752	-175
680.800	-430
680.848	-538
680.896	-165
680.945	-256
680.993	-1492
681.041	-642
681.089	351
681.137	-45
681.185	35
681.233	-109
681.258	-142
681.281	-192
681.329	-763
681.377	-657
681.380	-627
681.425	-444
681.473	-138
681.502	23
681.521	85
681.569	-75
681.617	336
681.624	220
681.665	-650
681.713	489
681.745	443
681.761	391
681.809	-892
681.857	1044
681.867	733
681.904	-433
681.952	453
681.989	122
682.000	-7
682.048	20
682.096	133
682.111	43
682.143	-209
682.191	138
682.233	945
682.239	1048
682.286	798
682.334	464
682.354	389
682.382	249
682.430	1366
682.476	801
682.477	770
682.525	374
682.572	8
682.598	153
682.620	257
682.667	763
682.715	980
682.720	935
682.763	292
682.810	864
682.841	530
682.857	352
682.905	824
682.952	1240
682.963	1307
683.000	1428
683.047	247
683.085	1561
683.095	1915
683.142	1091
683.190	1518
683.206	1363
683.237	1008
683.284	1363
683.328	898
683.332	843
683.379	1244
683.426	861
683.449	1281
683.473	1700
683.521	1505
683.568	2422
683.571	2395
683.615	1792
683.662	1715
683.693	1469
683.709	1306
683.757	1084
683.804	1682
683.814	1647
683.851	1486
683.898	2147
683.936	2490
683.945	2565
683.992	1784
684.039	1962
684.057	1939
684.086	1843
684.133	1895
684.179	1342
684.180	1313
684.227	2298
684.274	1689
684.300	2167
684.321	2529
684.368	952
684.415	2026
684.422	2011
684.462	1895
684.509	2052
684.543	2311
684.556	2375
684.603	2653
684.649	2579
684.665	2475
684.696	2207
684.743	1876
684.786	2612
684.790	2670
684.837	2087
684.883	2365
684.908	2600
684.930	2788
684.977	3011
685.023	2911
685.029	2916
685.070	2915
685.117	2602
685.150	2763
685.164	2798
685.210	2634
685.257	3107
685.272	3258
685.303	3631
685.350	3468
685.393	3211
685.396	3159
685.443	2843
685.490	3197
685.514	2997
685.536	2923
685.583	3331
685.629	2789
685.636	2723
685.675	2296
685.722	3140
685.757	3448
685.768	3545
685.815	2681
685.861	3071
685.878	3261
685.908	3544
685.954	2952
686.000	3419
686.000	3424
686.047	3631
686.093	3333
686.121	3301
686.139	3197
686.185	3509
686.232	3572
686.242	3472
686.278	3198
686.324	3461
686.363	3354
686.370	3329
686.416	3961
686.463	3500
686.484	3644
686.509	3805
686.555	3140
686.601	2992
686.606	3139
686.647	4411
686.693	3650
686.727	4072
686.739	4193
686.785	3717
686.831	3975
686.848	3905
686.877	3923
686.923	3751
686.969	4366
686.969	4367
687.015	3884
687.061	4569
687.090	4498
687.107	4402
687.153	4435
687.199	4352
687.211	4207
687.245	3948
687.291	4142
687.332	4312
687.336	4326
687.382	4697
687.428	4200
687.453	4754
687.474	5199
687.520	4728
687.565	4820
687.574	4804
687.611	4829
687.657	5641
687.695	5300
687.702	5216
687.748	5422
687.794	5330
687.816	5259
687.839	5083
687.885	5347
687.931	4774
687.937	4677
687.976	4475
688.022	4744
688.058	4856
688.067	4836
688.113	5190
688.158	4650
688.179	4884
688.204	5272
688.249	5223
688.295	5475
688.300	5464
688.340	5182
688.386	5485
688.421	5129
688.431	5123
688.477	4829
688.522	5429
688.542	5638
688.567	5895
688.613	5863
688.658	6482
688.663	6460
688.703	5899
688.749	5104
688.784	5108
688.794	5205
688.839	5620
688.884	6067
688.905	6140
688.930	6053
688.975	5176
689.020	5728
689.026	5674
689.065	5733
689.110	5508
689.146	5868
689.155	5931
689.201	6392
689.246	6037
689.267	6259
689.291	6467
689.336	5945
689.381	5907
689.388	5915
689.426	6006
689.471	6279
689.509	6124
689.516	6121
689.561	5765
689.606	6234
689.630	6268
689.651	6218
689.696	6014
689.741	6055
689.750	6069
689.785	6343
689.830	5940
689.871	6077
689.875	6086
689.920	5832
689.965	6185
689.992	5989
690.010	5935
690.054	5656
690.099	5913
690.112	5998
690.144	6159
690.189	6097
690.233	6132
690.233	6143
690.278	6155
690.323	6575
690.354	6337
690.367	6259
690.412	6236
690.457	5983
690.474	6194
690.501	6530
690.546	6595
690.590	6423
690.595	6404
690.635	6478
690.680	6745
690.716	6566
690.724	6485
690.769	6322
690.813	6875
690.836	6478
690.857	6442
690.902	7154
690.946	7826
690.957	7934
690.991	8158
691.035	8155
691.077	8896
691.080	8917
691.124	8150
691.168	7772
691.198	7205
691.213	6984
691.257	7284
691.301	6652
691.318	6653
691.346	7000
691.390	6720
691.434	6993
691.439	6992
691.478	6897
691.522	7170
691.559	6886
691.567	6921
691.611	7580
691.655	7978
691.680	8187
691.699	8026
691.743	7613
691.787	7233
691.800	7115
691.831	7138
691.875	6981
691.919	6998
691.921	6988
691.964	7503
692.008	7588
692.041	7817
692.052	7844
692.096	7644
692.139	8074
692.162	8068
692.183	7835
692.227	7210
692.271	6832
692.282	6797
692.315	7391
692.359	7552
692.402	7842
692.403	7858
692.447	7678
692.490	7706
692.523	7289
692.534	7234
692.578	7543
692.622	7482
692.643	7634
692.666	7740
692.709	7309
692.753	7332
692.763	7319
692.797	7469
692.840	7536
692.884	7476
692.884	7495
692.928	7852
692.971	7582
693.004	7725
693.015	7768
693.059	7801
693.102	8295
693.124	8041
693.146	7899
693.189	7869
693.233	7964
693.245	8011
693.276	8217
693.320	8151
693.363	8376
693.365	8356
693.407	8221
693.450	8243
693.485	8031
693.493	8062
693.537	8317
693.580	8468
693.605	8759
693.624	9046
693.667	9017
693.710	9542
693.725	9615
693.753	10338
693.797	11471
693.840	12668
693.845	12745
693.883	11402
693.926	10179
693.966	9063
693.970	9077
694.013	8697
694.056	8538
694.086	8453
694.099	8475
694.142	8342
694.185	8001
694.206	8033
694.229	8288
694.272	8472
694.315	8511
694.326	8587
694.358	8754
694.401	8906
694.444	8745
694.446	8733
694.487	9023
694.530	8986
694.566	9022
694.573	9025
694.616	8853
694.659	8864
694.686	8729
694.702	8820
694.745	9017
694.787	9195
694.806	9289
694.830	9050
694.873	8577
694.916	8269
694.926	8056
694.959	8326
695.002	9073
695.044	9674
695.046	9686
695.087	9901
695.130	9468
695.166	9478
695.172	9563
695.215	9800
695.258	10138
695.286	10204
695.301	10248
695.343	10557
695.386	10533
695.406	10693
695.428	11295
695.471	12110
695.514	13042
695.526	13348
695.556	14135
695.599	14904
695.641	15476
695.646	15538
695.684	14897
695.726	13855
695.766	12966
695.769	12974
695.811	12709
695.854	12402
695.886	12015
695.896	12120
695.938	12511
695.981	13018
696.005	13183
696.023	13458
696.065	14108
696.108	14820
696.125	15016
696.150	15248
696.192	15767
696.235	16063
696.245	16147
696.277	16242
696.319	16063
696.361	16062
696.365	16017
696.404	15771
696.446	15384
696.485	15065
696.488	15118
696.530	15239
696.572	15306
696.604	15376
696.614	15408
696.656	15284
696.698	15380
696.724	15258
696.740	15370
696.783	15546
696.825	15932
696.844	15998
696.867	15981
696.909	15811
696.951	15724
696.964	15627
696.992	15971
697.034	16476
697.076	17094
697.083	17131
697.118	17240
697.160	17295
697.202	17382
697.203	17337
697.244	17132
697.286	17003
697.323	16633
697.327	16701
697.369	17062
697.411	17401
697.442	17588
697.453	17574
697.494	17331
697.536	17103
697.562	16883
697.578	16986
697.620	17148
697.661	17324
697.682	17383
697.703	17707
697.744	18251
697.786	18786
697.801	18914
697.828	19088
697.869	19216
697.911	19477
697.921	19496
697.952	19107
697.994	18408
698.035	17757
698.040	17627
698.077	17975
698.118	18325
698.160	18708
698.160	18659
698.201	19395
698.243	20086
698.279	20674
698.284	20797
698.325	21396
698.367	21991
698.399	22409
698.408	22435
698.449	22233
698.491	22078
698.518	21892
698.532	22067
698.573	22438
698.614	22825
698.638	22950
698.656	22945
698.697	22848
698.738	22721
698.757	22600
698.779	22587
698.820	22459
698.862	22316
698.877	22204
698.903	22066
698.944	21759
698.985	21448
698.996	21305
699.026	21770
699.067	22336
699.116	22952
699.235	22097
699.354	21500
699.474	20381
699.593	21026
699.713	20242
699.832	20870
699.951	21444
700.070	21153
700.190	19768
700.309	18488
700.428	18444
700.547	18581
700.667	17997
700.786	18727
700.905	18141
701.024	19015
701.143	18111
701.262	19676
701.381	18795
701.500	20413
701.619	18091
701.738	19130
701.857	18040
701.976	18359
702.095	18334
702.214	18975
702.333	17473
702.452	19687
702.571	19149
702.690	18771
702.809	18213
702.928	18060
703.047	16856
703.165	17259
703.284	17270
703.403	16723
703.522	15683
703.640	16528
703.759	16551
703.878	16235
703.997	16599
704.115	17364
704.234	15684
704.353	17053
704.471	14712
704.590	15646
704.708	15053
704.827	14401
704.946	13917
705.064	14841
705.183	13829
705.301	15416
705.420	13923
705.538	14549
705.656	13844
705.775	13626
705.893	13777
706.012	14137
706.130	13251
706.249	14198
706.367	13259
706.485	13928
706.604	12416
706.722	12819
706.840	13554
706.958	14558
707.077	12217
707.195	13122
707.313	12193
707.431	11705
707.549	11754
707.668	11896
707.786	13187
707.904	11883
708.022	11253
708.140	12676
708.258	10797
708.376	12529
708.494	10715
708.612	12769
708.730	12140
708.848	11551
708.966	11963
709.084	12451
709.202	11755
709.320	10876
709.438	10873
709.556	11044
709.674	9823
709.791	11430
709.909	10166
710.027	10534
710.145	10425
710.263	10113
710.380	10297
710.498	9553
710.616	10176
710.733	9681
710.851	9397
710.969	9848
711.086	8668
711.204	10094
711.322	9854
711.439	10282
711.557	8219
711.674	8529
711.792	8591
711.909	9359
712.027	8423
712.144	9387
712.262	8094
712.379	9001
712.497	8517
712.614	8645
712.732	9118
712.849	8003
712.966	8898
713.084	9544
713.201	7360
713.318	9252
713.436	9547
713.553	9240
713.670	9818
713.787	9589
713.905	8833
714.022	8876
714.139	9608
714.256	12651
714.373	18494
714.490	36402
714.608	108141
714.725	428526
714.842	273552
714.959	27548
715.076	13421
715.193	12513
715.310	10790
715.427	8728
715.544	9116
715.661	10010
715.778	7654
715.895	8130
716.011	8404
716.128	9092
716.245	7757
716.362	8960
716.479	7364
716.596	8000
716.713	7026
716.829	7206
716.946	6323
717.063	6812
717.180	6621
717.296	6340
717.413	7591
717.530	7183
717.646	6238
717.763	7441
717.880	6577
717.996	5529
718.113	5950
718.229	6686
718.346	5595
718.462	5686
718.579	6903
718.695	6734
718.812	6564
718.928	5892
719.045	6727
719.161	6275
719.277	5687
719.394	7130
719.510	6918
719.626	7550
719.743	9682
719.859	16313
719.975	38390
720.092	165080
720.208	251037
720.324	25050
720.440	9427
720.557	7605
720.673	7490
720.789	6811
720.905	6185
721.021	6202
721.137	5890
721.253	5541
721.369	5365
721.486	6307
721.602	6076
721.718	5745
721.834	5376
721.950	5935
722.066	5270
722.181	5689
722.297	6133
722.413	5543
722.529	4901
722.645	5668
722.761	5787
722.877	5764
722.993	5706
723.108	7850
723.224	5453
723.340	5576
723.456	5137
723.571	5548
723.687	4156
723.803	6134
723.918	4718
724.034	4815
724.150	5296
724.265	4690
724.381	4228
724.497	5365
724.612	5008
724.728	5475
724.843	4263
724.959	5565
725.074	4991
725.190	4721
725.305	4027
725.421	4863
725.536	4377
725.651	4857
725.767	4822
725.882	4862
725.997	4508
726.113	5329
726.228	4361
726.343	5173
726.459	4131
726.574	4833
726.689	4569
726.804	5498
726.920	4086
727.035	4267
727.150	3857
727.265	4871
727.380	4227
727.495	4905
727.610	3817
727.725	4400
727.841	3711
727.956	5022
728.071	4095
728.186	4090
728.301	3888
728.416	5029
728.531	5164
728.645	4113
728.760	3728
728.875	4529
728.990	3741
729.105	3936
729.220	4003
729.335	4787
729.449	5180
729.564	4504
729.679	3812
729.794	5239
729.908	4201
730.023	3922
730.138	5013
730.253	4397
730.367	3839
730.482	4403
730.596	4312
730.711	5409
730.826	7431
730.940	6450
731.055	6279
731.169	5839
731.284	5714
731.398	6035
731.513	5615
731.627	6466
731.742	9277
731.856	10730
731.970	10411
732.085	12993
732.199	17836
732.313	32363
732.428	92578
732.542	264908
732.656	107425
732.771	23446
732.885	14242
732.999	14558
733.113	15568
733.227	15474
733.342	13717
733.456	13378
733.570	12275
733.684	12788
733.798	11903
733.912	13420
734.026	12171
734.140	12974
734.254	11989
734.368	12645
734.482	12144
734.596	12384
734.710	11649
734.824	12500
734.938	11042
735.052	12448
735.166	11919
735.280	12034
735.393	10961
735.507	11295
735.621	10291
735.735	9574
735.849	10480
735.962	10438
736.076	10662
736.190	10217
736.303	9494
736.417	10731
736.531	9318
736.644	9773
736.758	9692
736.872	9870
736.985	9891
737.099	10699
737.212	9319
737.326	9474
737.439	9895
737.553	8753
737.666	9482
737.780	8564
737.893	9236
738.007	9202
738.120	9052
738.233	8343
738.347	9124
738.460	8759
738.573	10385
738.687	9279
738.800	9993
738.913	9323
739.026	7666
739.140	7175
739.253	8674
739.366	8356
739.479	7865
739.592	8519
739.705	7838
739.818	8959
739.932	8019
740.045	8334
740.158	8169
740.271	8849
740.384	7640
740.497	7732
740.610	7895
740.723	6903
740.836	7913
740.949	7659
741.062	8391
741.174	7991
741.287	7669
741.400	7410
741.513	7206
741.626	7578
741.739	7202
741.851	6412
741.964	6805
742.077	6545
742.189	6343
742.302	7718
742.415	7051
742.527	6464
742.640	6177
742.753	6774
742.865	6877
742.978	6871
743.090	5665
743.203	7073
743.316	5772
743.428	6292
743.541	5185
743.653	5310
743.766	6269
743.878	6233
743.990	5644
744.103	7225
744.215	5667
744.327	5556
744.440	8130
744.552	6155
744.664	6064
744.777	7493
744.889	4957
745.001	6959
745.113	5774
745.226	5489
745.338	5754
745.450	6926
745.562	5364
745.674	5998
745.786	6392
745.898	6123
746.010	5123
746.122	6120
746.234	5880
746.347	5306
746.459	6161
746.570	4926
746.682	5523
746.794	6696
746.906	4668
747.018	5546
747.130	5353
747.242	5267
747.354	4313
747.466	5115
747.577	4678
747.689	5600
747.801	5962
747.913	4592
748.024	5010
748.136	4992
748.248	4633
748.359	5407
748.471	6432
748.583	4038
748.694	3632
748.806	5453
748.918	3934
749.029	4888
749.141	4662
749.252	5739
749.364	4267
749.475	4177
749.587	3800
749.698	5121
749.809	4660
749.921	4578
750.032	3240
750.144	4583
750.255	4462
750.366	5310
750.478	4289
750.589	4984
750.700	3838
750.811	5279
750.923	3277
751.034	4353
751.145	4426
751.256	5013
751.367	3853
751.479	4612
751.590	4294
751.701	4235
751.812	3410
751.923	3613
752.034	4390
752.145	4460
752.256	4220
752.367	4418
752.478	3602
752.589	4275
752.700	4249
752.811	3248
752.922	4649
753.032	4640
753.143	4181
753.254	3220
753.365	4608
753.476	5543
753.586	3890
753.697	4452
753.808	3735
753.919	2620
754.029	3248
754.140	3612
754.251	3583
754.361	3853
754.472	3944
754.582	3096
754.693	3898
754.804	4436
754.914	3549
755.025	2913
755.135	4058
755.246	3934
755.356	2987
755.466	3873
755.577	3426
755.687	4273
755.798	3621
755.908	3116
756.018	2847
756.129	4008
756.239	3505
756.349	4648
756.460	3529
756.570	4041
756.680	2982
756.790	3645
756.900	3399
757.011	3509
757.121	3262
757.231	3234
757.341	3358
757.451	2897
757.561	2543
757.671	3905
757.781	3359
757.891	3681
758.001	3237
758.111	3534
758.221	3685
758.331	4578
758.441	2983
758.551	3573
758.661	3830
758.771	4445
758.880	3494
758.990	3694
759.100	2419
759.210	3936
759.320	3287
759.429	3569
759.539	3718
759.649	4073
759.758	5124
759.868	4657
759.978	4158
760.087	5437
760.197	4429
760.307	5186
760.416	4511
760.526	3721
760.635	4103
760.745	6055
760.854	4400
760.964	6566
761.073	5255
761.182	5986
761.292	4242
761.401	4580
761.511	2933
761.620	4460
761.729	2916
761.839	2692
761.948	2679
762.057	3002
762.166	3164
762.276	2289
762.385	4276
762.494	2427
762.603	2239
762.712	3426
762.822	2527
762.931	3376
763.040	2800
763.149	3066
763.258	3062
763.367	3267
763.476	3493
763.585	3068
763.694	2739
763.803	2903
763.912	2686
764.021	2922
764.130	2921
764.238	3761
764.347	2716
764.456	3630
764.565	2857
764.674	2618
764.783	2551
764.891	3305
765.000	3523
765.109	4028
765.217	2617
765.326	4215
765.435	4439
765.543	5875
765.652	5093
765.761	6655
765.869	8232
765.978	12878
766.086	21849
766.195	44216
766.303	111683
766.412	238681
766.520	159977
766.629	60685
766.737	25607
766.846	15711
766.954	10031
767.062	9032
767.171	5768
767.279	6458
767.387	4120
767.496	5001
767.604	3661
767.712	4426
767.820	3878
767.928	3744
768.037	2905
768.145	3950
768.253	2958
768.361	3171
768.469	2909
768.577	3440
768.685	4122
768.793	4332
768.901	3256
769.009	4998
769.117	3873
769.225	5056
769.333	7133
769.441	10203
769.549	17538
769.657	42659
769.765	127195
769.873	178951
769.981	67124
770.088	21064
770.196	11466
770.304	8691
770.412	6158
770.519	5930
770.627	5373
770.735	5630
770.842	4296
770.950	5752
771.058	4038
771.165	5223
771.273	5641
771.380	6488
771.488	8604
771.595	9394
771.703	7212
771.810	6798
771.918	8051
772.025	9552
772.133	10349
772.240	9617
772.348	11436
772.455	10621
772.562	9858
772.670	8893
772.777	8925
772.884	9894
772.991	8573
773.099	9662
773.206	7729
773.313	9761
773.420	8565
773.528	7957
773.635	8364
773.742	9254
773.849	8532
773.956	9651
774.063	7547
774.170	8208
774.277	9018
774.384	7750
774.491	7544
774.598	8972
774.705	7951
774.812	7920
774.919	7630
775.026	8185
775.133	7767
775.239	8504
775.346	6789
775.453	7551
775.560	6248
775.667	8442
775.773	6578
775.880	8040
775.987	6934
776.093	7721
776.200	8300
776.307	5841
776.413	6748
776.520	8326
776.627	6824
776.733	6377
776.840	4933
776.946	9032
777.053	6818
777.159	6628
777.266	5669
777.372	7126
777.478	7148
777.585	7392
777.691	5273
777.798	6952
777.904	5643
778.010	5869
778.117	6294
778.223	6208
778.329	6913
778.435	4429
778.542	6887
778.648	5383
778.754	5034
778.860	5980
778.966	5476
779.072	5973
779.178	5594
779.284	4802
779.391	5310
779.497	5685
779.603	7104
779.708	4060
779.815	5873
779.920	7815
780.026	6938
780.132	5534
780.238	4710
780.344	4820
780.450	7431
780.556	4745
780.661	5111
780.767	6455
780.873	3402
780.979	5900
781.085	4846
781.190	4445
781.296	3628
781.402	5185
781.507	4261
781.613	3740
781.719	4334
781.824	5813
781.930	4083
782.035	4988
782.141	4949
782.246	3225
782.352	2919
782.457	4369
782.563	4376
782.668	5056
782.773	3568
782.879	3157
782.984	4408
783.090	5046
783.195	4086
783.300	5555
783.405	2632
783.511	3721
783.616	3941
783.721	4433
783.826	3101
783.932	4334
784.037	3372
784.142	5184
784.247	3330
784.352	4606
784.457	2411
784.562	4080
784.667	3844
784.772	3334
784.877	2346
784.982	5097
785.087	3184
785.192	3709
785.297	3113
785.402	4280
785.507	2876
785.611	3803
785.716	2659
785.821	2959
785.926	3135
786.031	3369
786.135	2909
786.240	4407
786.345	1714
786.450	3311
786.554	3343
786.659	3248
786.763	2336
786.868	3382
786.973	3827
787.077	3587
787.182	2755
787.286	4027
787.391	3985
787.495	2291
787.600	1643
787.704	2782
787.809	3456
787.913	2742
788.017	2436
788.122	4217
788.226	2659
788.330	1988
788.435	2283
788.539	4432
788.643	1464
788.747	2602
788.852	2947
788.956	2724
789.060	3178
789.164	2679
789.268	1898
789.372	4145
789.476	2098
789.580	2682
789.684	1863
789.788	3376
789.892	2223
789.996	2219
790.100	1440
790.204	2627
790.308	2943
790.412	1735
790.516	1622
790.620	2458
790.724	4373
790.828	2017
790.931	1107
791.035	4005
791.139	2426
791.242	1900
791.346	3637
791.450	2572
791.554	1569
791.657	1769
791.761	2278
791.864	3448
791.968	2499
792.072	3216
792.175	1214
792.279	1936
792.382	2129
792.486	1720
792.589	2811
792.693	2035
792.796	684
792.899	3675
793.003	2667
793.106	1543
793.209	1296
793.313	3076
793.416	-230
793.519	1863
793.623	2389
793.726	2128
793.829	1720
793.932	2092
794.035	833
794.138	4019
794.242	2829
794.345	1652
794.448	1345
794.551	691
794.654	3644
794.757	4612
794.860	860
794.963	2632
795.066	833
795.169	1516
795.272	1893
795.375	2875
795.477	896
795.580	2031
795.683	56
795.786	2253
795.889	1002
795.991	3114
796.094	2440
796.197	693
796.300	3396
796.402	1879
796.505	318
796.608	693
796.710	1313
796.813	2264
796.915	1723
797.018	2397
797.120	1976
797.223	1016
797.326	3218
797.428	858
797.530	522
797.633	1360
797.735	2417
797.838	566
797.940	3090
798.042	1073
798.145	1384
798.247	2064
798.349	-740
798.452	2101
798.554	1777
798.656	1695
798.758	3106
798.860	919
798.962	645
799.065	1300
799.167	343
799.269	2598
799.371	1817
799.473	3323
799.575	1018
799.677	1462
799.779	2731
799.881	964
799.983	2040
800.085	1704
800.187	1799
800.289	742
800.390	927
800.492	2680
800.594	2120
800.696	1361
800.798	830
800.899	1385
801.001	560
801.103	1918
801.205	1551
801.306	2052
801.408	625
801.509	2331
801.611	1530
801.713	1634
801.814	657
801.916	1327
802.017	287
802.119	352
802.220	1369
802.322	47
802.423	2084
802.525	32
802.626	1104
802.727	2211
802.829	1645
802.930	-836
803.031	2023
803.133	399
803.234	918
803.335	1292
803.436	-399
803.538	1892
803.639	216
803.740	1774
803.841	1001
803.942	2071
804.043	809
804.144	923
804.245	784
804.346	1357
804.447	305
804.548	1272
804.649	1595
804.750	1077
804.851	392
804.952	917
805.053	952
805.154	418
805.255	2095
805.355	1634
805.456	615
805.557	741
805.658	377
805.758	1890
805.859	1971
805.960	733
806.061	-248
806.161	259
806.262	540
806.362	410
806.463	814
806.564	1618
806.664	395
806.765	620
806.865	1023
806.966	712
807.066	429
807.166	542
807.267	1492
807.367	1004
807.468	929
807.568	-168
807.668	1228
807.769	1078
807.869	480
807.969	1189
808.069	1047
808.170	1422
808.270	231
808.370	1182
808.470	1014
808.570	656
808.670	664
808.770	1284
808.870	94
808.970	1126
809.070	1306
809.170	367
809.271	1300
809.370	1125
809.470	901
809.570	837
809.670	-122
809.770	1078
809.870	1361
809.970	1451
810.070	603
810.169	1173
810.269	-350
810.369	1148
810.469	775
810.568	1203
810.668	151
810.768	687
810.867	1713
810.967	784
811.066	381
811.166	886
811.265	1407
811.365	839
811.464	331
811.564	1427
811.663	893
811.763	-273
811.862	1636
811.962	2479
812.061	-27
812.160	641
812.260	672
812.359	698
812.458	828
812.557	1493
812.657	419
812.756	1287
812.855	584
812.954	732
813.053	605
813.153	1353
813.252	-91
813.351	1225
813.450	1360
813.549	802
813.648	1164
813.747	322
813.846	1403
813.945	1892
814.044	356
814.143	1042
814.242	1245
814.341	513
814.439	1584
814.538	2079
814.637	492
814.736	1339
814.835	1388
814.933	1347
815.032	2100
815.131	3623
815.229	6239
815.328	9645
815.427	5580
815.525	5792
815.624	4420
815.722	4707
815.821	5250
815.919	6028
816.018	4922
816.116	5104
816.215	4361
816.313	5679
816.412	6804
816.510	6959
816.609	8103
816.707	8250
816.805	7016
816.904	6251
817.002	7076
817.100	8011
817.198	8128
817.296	6865
817.395	5661
817.493	6947
817.591	5258
817.689	6731
817.787	5406
817.885	6457
817.983	5751
818.081	6624
818.179	6352
818.277	9730
818.375	6852
818.473	6035
818.571	5253
818.669	6330
818.767	7029
818.865	4608
818.963	3686
819.061	5550
819.158	5347
819.256	7803
819.354	6540
819.452	11275
819.549	6109
819.647	7355
819.745	3894
819.842	5772
819.940	5576
820.038	5085
820.135	3699
820.233	6846
820.330	5186
820.428	5311
820.525	5791
820.623	4585
820.720	4050
820.818	5350
820.915	5655
821.012	5021
821.110	3893
821.207	6063
821.304	3404
821.402	4999
821.499	5845
821.596	4056
821.693	4271
821.791	5637
821.888	3830
821.985	5399
822.082	2888
822.179	5187
822.276	4610
822.373	4444
822.470	4000
822.567	4574
822.664	2870
822.761	5221
822.858	4330
822.955	4387
823.052	2893
823.149	4549
823.246	4428
823.343	3216
823.440	3800
823.536	4048
823.633	4397
823.730	3536
823.827	3263
823.923	4052
824.020	3603
824.117	4158
824.213	3820
824.310	3901
824.407	2698
824.503	5044
824.600	3868
824.696	3248
824.793	4485
824.889	4415
824.986	2327
825.082	2347
825.179	3377
825.275	3927
825.371	4228
825.468	3057
825.564	1556
825.660	4418
825.757	4416
825.853	4382
825.949	2006
826.045	3617
826.142	2762
826.238	4053
826.334	3597
826.430	2872
826.526	2213
826.622	2280
826.718	3662
826.814	3610
826.910	3306
827.006	1967
827.102	1344
827.198	4212
827.294	3739
827.390	4442
827.486	2532
827.582	402
827.678	2092
827.774	4798
827.869	2050
827.965	2552
828.061	1433
828.157	3403
828.252	3569
828.348	1765
828.444	2893
828.539	2556
828.635	3365
828.731	3363
828.826	1431
828.922	2907
829.017	3219
829.113	3583
829.208	1537
829.304	2126
829.399	4403
829.495	3146
829.590	2253
829.685	2065
829.781	3569
829.876	3436
829.971	651
830.066	1016
830.162	2464
830.257	3621
830.352	2146
830.447	2026
830.543	1689
830.638	2113
830.733	3583
830.828	2146
830.923	3144
831.018	2580
831.113	2889
831.208	1490
831.303	857
831.398	1603
831.493	1727
831.588	4073
831.683	1114
831.778	1880
831.873	1816
831.967	3397
832.062	2301
832.157	1581
832.252	1619
832.346	2072
832.441	3105
832.536	3594
832.631	2605
832.725	2229
832.820	1982
832.914	2081
833.009	1526
833.104	569
833.198	1724
833.293	1170
833.387	2560
833.482	2062
833.576	1140
833.670	1938
833.765	1634
833.859	2795
833.954	2148
834.048	2009
834.142	1578
834.237	807
834.331	1395
834.425	2441
834.519	715
834.613	2797
834.708	628
834.802	1506
834.896	1365
834.990	2502
835.084	1082
835.178	993
835.272	1512
835.366	2422
835.460	2260
835.554	1808
835.648	719
835.742	868
835.836	1097
835.930	809
836.024	1323
836.117	2001
836.211	746
836.305	1659
836.399	1649
836.493	645
836.586	1907
836.680	1580
836.774	312
836.867	3009
836.961	651
837.055	1302
837.148	669
837.242	1914
837.335	1941
837.429	1340
837.522	194
837.616	872
837.709	1532
837.803	366
837.896	1640
837.989	1270
838.083	874
838.176	494
838.269	144
838.363	2238
838.456	717
838.549	2113
838.642	1191
838.735	1255
838.829	1412
838.922	582
839.015	804
839.108	426
839.201	1401
839.294	1621
839.387	796
839.480	69
839.573	73
839.666	543
839.759	321
839.852	228
839.945	723
840.038	1078
840.131	675
840.223	700
840.316	1233
840.409	1274
840.502	1100
840.594	2479
840.687	-278
840.780	348
840.873	86
840.965	349
841.058	1514
841.150	1728
841.243	-128
841.336	1273
841.428	-55
841.521	1130
841.613	-279
841.706	1497
841.798	-43
841.890	1439
841.983	255
842.075	831
842.167	-106
842.260	459
842.352	974
842.444	1031
842.537	293
842.629	356
842.721	103
842.813	1202
842.905	-524
842.997	1211
843.090	341
843.182	1402
843.274	-586
843.366	945
843.458	720
843.550	2364
843.642	779
843.734	1254
843.826	290
843.918	340
844.009	1137
844.101	550
844.193	814
844.285	1104
844.377	1246
844.469	1131
844.560	-279
844.652	824
844.744	241
844.835	339
844.927	741
845.019	976
845.110	146
845.202	482
845.293	-264
845.385	302
845.476	941
845.568	1898
845.659	-57
845.751	1458
845.842	191
845.934	315
846.025	164
846.116	578
846.208	1171
846.299	-223
846.390	857
846.482	871
846.573	576
846.664	650
846.755	-153
846.846	1022
846.937	-1506
847.029	755
847.120	204
847.211	213
847.302	735
847.393	216
847.484	206
847.575	144
847.666	-232
847.757	317
847.847	-72
847.938	1062
848.029	533
848.120	201
848.211	-343
848.302	-73
848.392	-236
848.483	798
848.574	106
848.664	661
848.755	881
848.846	362
848.936	-583
849.027	1252
849.118	111
849.208	481
849.299	991
849.389	3022
849.480	6210
849.570	14269
849.661	27043
849.751	36121
849.841	9109
849.932	1922
850.022	945
850.112	71
850.203	162
850.293	1156
850.383	-226
850.474	-261
850.564	302
850.654	-129
850.744	-292
850.834	494
850.924	-271
851.014	1371
851.104	740
851.194	-434
851.284	232
851.374	425
851.464	196
851.554	672
851.644	40
851.734	1299
851.824	257
851.914	549
852.004	33
852.094	534
852.183	-61
852.273	641
852.363	-242
852.452	105
852.542	-163
852.632	445
852.721	780
852.811	630
852.901	1043
852.990	975
853.080	971
853.169	541
853.259	548
853.348	409
853.438	1583
853.527	2556
853.617	3378
853.706	7161
853.795	14034
853.885	31615
853.974	53785
854.063	101895
854.152	115161
854.242	38440
854.331	9303
854.420	4386
854.509	2937
854.598	3373
854.687	1908
854.777	2149
854.866	997
854.955	517
855.044	-360
855.133	876
855.222	360
855.311	600
855.400	-323
855.488	1004
855.577	-82
855.666	452
855.755	225
855.844	1431
855.933	-499
856.021	679
856.110	-371
856.199	103
856.288	-385
856.376	167
856.465	-966
856.554	262
856.642	-679
856.731	1084
856.819	-401
856.908	-199
856.996	-78
857.085	-685
857.173	-242
857.262	-152
857.350	34
857.438	458
857.527	331
857.615	-469
857.703	1282
857.792	-129
857.880	-44
857.968	94
858.056	-357
858.145	110
858.233	-605
858.321	-300
858.409	230
858.497	27
858.585	227
858.673	474
858.761	-648
858.849	188
858.937	-361
859.025	476
859.113	226
859.201	578
859.289	940
859.377	680
859.465	522
859.552	-97
859.640	-235
859.728	318
859.816	-358
859.903	-76
859.991	-771
860.079	376
860.166	386
860.254	183
860.342	217
860.429	-548
860.517	-678
860.604	248
860.692	-318
860.779	-721
860.867	516
860.954	-44
861.042	911
861.129	951
861.216	1277
861.304	484
861.391	597
861.478	239
861.565	308
861.653	1150
861.740	-936
861.827	-773
861.914	308
862.001	-524
862.089	345
862.176	402
862.263	-572
862.350	1016
862.437	524
862.524	217
862.611	-109
862.698	817
862.785	-139
862.871	820
862.958	279
863.045	199
863.132	700
863.219	1077
863.306	-437
863.392	1256
863.479	-47
863.566	523
863.652	506
863.739	-27
863.826	1255
863.912	972
863.999	145
864.086	1016
864.172	-409
864.259	1561
864.345	1237
864.432	1051
864.518	434
864.604	1785
864.691	1595
864.777	1931
864.863	1707
864.950	3008
865.036	3591
865.122	8520
865.209	8669
865.295	8470
865.381	6625
865.467	6864
865.553	8195
865.639	9646
865.726	11359
865.812	21330
865.898	33747
865.984	46793
866.070	84354
866.156	69700
866.242	20586
866.328	10100
866.414	7198
866.499	7366
866.585	6725
866.671	6911
866.757	6579
866.843	6301
866.928	4889
867.014	5781
867.100	5040
867.186	6165
867.271	5002
867.357	5151
867.442	4674
867.528	5303
867.614	4310
867.699	4437
867.785	5370
867.870	5174
867.956	4815
868.041	5321
868.127	4772
868.212	5176
868.297	3939
868.383	5216
868.468	4688
868.553	5863
868.639	4106
868.724	4720
868.809	4769
868.894	4372
868.979	4196
869.065	5162
869.150	2530
869.235	3855
869.320	3760
869.405	3149
869.490	4722
869.575	3357
869.660	2440
869.745	4588
869.830	4295
869.915	2933
870.000	4355
870.085	3505
870.169	5403
870.254	5100
870.339	2771
870.424	3684
870.509	3529
870.593	4946
870.678	4465
870.763	4086
870.847	2471
870.932	3965
871.016	3725
871.101	3055
871.186	4251
871.270	5437
871.355	1890
871.439	3963
871.523	2918
871.608	2848
871.692	2897
871.777	5251
871.861	3500
871.945	3708
872.030	3177
872.114	3653
872.198	2865
872.282	3087
872.367	3226
872.451	2911
872.535	3296
872.619	3409
872.703	2946
872.787	4604
872.871	3050
872.955	2772
873.039	1433
873.123	3868
873.207	3190
873.291	2326
873.375	2546
873.459	3662
873.543	2257
873.627	3047
873.711	1705
873.794	3517
873.878	2071
873.962	2353
874.045	2266
874.129	2720
874.137	2706
874.213	2565
874.245	2718
874.296	2970
874.352	2317
874.380	1997
874.460	3244
874.464	3295
874.547	3032
874.568	3076
874.631	3194
874.676	2807
874.714	2488
874.784	3255
874.798	3405
874.881	2231
874.892	2192
874.965	1963
874.999	2657
875.048	3605
875.107	3179
875.131	2998
875.215	2068
875.215	2068
875.298	1462
875.323	1852
875.381	2850
875.430	3410
875.465	3784
875.538	2470
875.548	2283
875.631	1653
875.646	1669
875.714	1772
875.753	1800
875.798	1901
875.861	2640
875.881	2814
875.964	2068
875.968	2015
876.047	1245
876.076	1927
876.130	3268
876.183	2861
876.213	2582
876.291	3292
876.296	3335
876.379	1967
876.398	1975
876.462	2045
876.506	1496
876.545	1020
876.613	1270
876.628	1353
876.711	2019
876.721	2164
876.794	3058
876.828	2625
876.877	2011
876.935	1814
876.960	1780
877.043	1666
877.043	1672
877.125	2943
877.150	2933
877.208	2909
877.258	2202
877.291	1712
877.365	1268
877.374	1228
877.456	2203
877.472	2007
877.539	1034
877.579	1639
877.622	2404
877.687	1719
877.704	1543
877.787	2227
877.794	2226
877.869	2070
877.901	2140
877.952	2075
878.008	981
878.034	590
878.115	1487
878.117	1507
878.199	951
878.222	1394
878.282	2524
878.329	2836
878.364	3035
878.437	2695
878.447	2604
878.529	811
878.544	977
878.611	1976
878.651	1892
878.694	1987
878.758	2833
878.776	2956
878.858	1795
878.865	1797
878.941	1836
878.972	1429
879.023	844
879.078	1084
879.105	1385
879.185	1543
879.187	1536
879.269	2468
879.292	2102
879.351	1223
879.399	1679
879.433	1961
879.506	1829
879.516	1846
879.598	1470
879.613	1473
879.680	1603
879.720	2004
879.762	2294
879.827	1737
879.844	1591
879.926	1775
879.933	1760
880.007	1650
880.040	1768
880.089	1968
880.147	2388
880.171	2673
880.253	4241
880.254	4245
880.335	4704
880.360	5419
880.417	7753
880.467	10457
880.499	12173
880.574	12056
880.580	11726
880.662	5694
880.680	4763
880.744	2746
880.787	1965
880.825	1699
880.893	2010
880.907	2067
880.989	1404
881.000	1482
881.070	2411
881.106	2366
881.152	2061
881.213	2091
881.233	2040
881.315	1492
881.319	1461
881.396	1596
881.426	1809
881.478	1777
881.532	1944
881.559	2395
881.639	2520
881.641	2489
881.722	1800
881.745	1442
881.803	1386
881.852	1781
881.885	1927
881.958	1516
881.966	1447
882.047	2137
882.064	1976
882.129	1517
882.171	1431
882.210	1087
882.277	623
882.291	763
882.372	1897
882.383	1959
882.454	2189
882.489	2394
882.535	2377
882.596	2377
882.616	2344
882.697	2306
882.702	2263
882.778	1312
882.808	1177
882.859	1307
882.914	1539
882.940	1692
883.020	1878
883.021	1883
883.102	1844
883.127	2096
883.183	2625
883.233	2359
883.264	1901
883.339	1386
883.345	1378
883.426	634
883.445	757
883.507	1397
883.551	1388
883.587	1770
883.657	2901
883.668	2939
883.749	2522
883.763	2457
883.830	1664
883.869	1264
883.910	1208
883.975	1549
883.991	1666
884.072	1589
884.081	1622
884.152	2114
884.187	2179
884.233	2296
884.292	2557
884.314	2295
884.394	838
884.398	790
884.475	852
884.504	837
884.555	812
884.610	939
884.636	1188
884.716	1861
884.716	1868
884.797	2403
884.821	2456
884.877	2257
884.927	1975
884.958	1925
885.033	1987
885.038	1929
885.118	756
885.139	547
885.199	1244
885.244	1718
885.279	1798
885.350	1934
885.359	1975
885.439	2371
885.456	2334
885.520	1478
885.561	1115
885.600	1105
885.667	1083
885.680	1156
885.760	1812
885.773	1882
885.840	1645
885.878	1586
885.920	1472
885.984	953
886.000	1044
886.080	1774
886.089	1848
886.160	2198
886.195	2323
886.240	2056
886.300	1730
886.320	1777
886.400	1721
886.406	1738
886.480	1550
886.511	1426
886.560	1590
886.616	1652
886.640	1680
886.720	1833
886.722	1831
886.800	1491
886.827	1390
886.879	1620
886.932	1784
886.959	1749
887.038	1684
887.039	1688
887.119	1799
887.143	1789
887.198	2094
887.248	2402
887.278	2264
887.354	1698
887.358	1687
887.437	1596
887.459	1570
887.517	2272
887.564	2658
887.596	2198
887.669	1236
887.676	1214
887.755	1011
887.774	957
887.835	1107
887.880	1216
887.914	1483
887.985	1888
887.994	1932
888.073	2502
888.090	2560
888.153	3132
888.195	3568
888.232	2850
888.300	1552
888.311	1571
888.391	1543
888.405	1550
888.470	1271
888.510	1064
888.549	1276
888.615	1771
888.628	1797
888.708	1894
888.720	1884
888.787	1829
888.825	1799
888.866	1404
888.930	891
888.945	961
889.024	1230
889.035	1269
889.103	1642
889.140	1826
889.182	1765
889.245	1692
889.261	1627
889.340	1283
889.349	1241
889.419	1451
889.454	1554
889.498	1522
889.559	1479
889.577	1565
889.656	1941
889.664	1978
889.735	1974
889.768	1966
889.814	2079
889.873	2221
889.978	1279
890.083	1907
890.187	1770
890.292	2482
890.397	1577
890.501	1765
890.606	735
890.710	2403
890.815	2041
890.919	1520
891.024	2072
891.128	1375
891.233	1011
891.337	2329
891.442	2407
891.546	2388
891.650	1140
891.755	1010
891.859	2184
891.963	3104
892.068	1529
892.172	1122
892.276	727
892.380	1817
892.484	3214
892.589	2738
892.693	2173
892.797	1158
892.901	880
893.005	1669
893.109	3031
893.213	2416
893.317	1426
893.421	1183
893.525	710
893.629	1590
893.733	2091
893.837	1910
893.941	856
894.045	1316
894.148	461
894.252	1467
894.356	1888
894.460	2661
894.564	1058
894.667	1891
894.771	629
894.875	556
894.978	419
895.082	2705
895.186	2353
895.289	1621
895.393	2028
895.496	2321
895.600	1456
895.703	1007
895.807	1189
895.910	1515
896.014	1491
896.117	575
896.221	1439
896.324	2580
896.427	1812
896.531	1474
896.634	1073
896.737	1069
896.840	1458
896.944	2122
897.047	1287
897.150	1491
897.253	909
897.356	1045
897.460	78
897.563	1889
897.666	1310
897.769	1477
897.872	810
897.975	706
898.078	811
898.181	1244
898.284	865
898.387	1969
898.490	1589
898.593	898
898.695	1032
898.798	1518
898.901	1004
899.004	1260
899.107	1083
899.209	1612
899.312	1817
899.415	838
899.518	1008
899.620	547
899.723	720
899.826	591
899.928	788
900.031	1164
900.133	1708
900.236	1535
900.338	279
900.441	1239
900.543	778
900.646	1585
900.748	1054
900.851	1790
900.953	1208
901.055	774
901.158	837
901.260	1019
901.362	792
901.465	1011
901.567	1144
901.669	1598
901.771	1141
901.873	1641
901.976	549
902.078	1506
902.180	236
902.282	1361
902.384	894
902.486	1998
902.588	1284
902.690	792
902.792	782
902.894	1551
902.996	1112
903.098	1701
903.200	694
903.302	353
903.404	820
903.505	1356
903.607	805
903.709	2303
903.811	1806
903.913	523
904.014	241
904.116	776
904.218	540
904.319	1468
904.421	2262
904.523	1681
904.624	1067
904.726	719
904.827	312
904.929	377
905.030	469
905.132	2680
905.233	411
905.335	500
905.436	528
905.537	982
905.639	840
905.740	1721
905.841	1025
905.943	942
906.044	1049
906.145	905
906.247	35
906.348	1421
906.449	874
906.550	1940
906.651	685
906.752	1046
906.854	648
906.955	904
907.056	1334
907.157	1831
907.258	1623
907.359	659
907.460	101
907.561	654
907.662	719
907.762	1042
907.863	493
907.964	1170
908.065	476
908.166	335
908.267	777
908.367	621
908.468	-72
908.569	951
908.670	850
908.770	1436
908.871	1277
908.971	921
909.072	1283
909.173	1228
909.273	1019
909.374	1736
909.474	300
909.575	1336
909.675	535
909.776	1574
909.876	1309
909.977	1574
910.077	1182
910.177	890
910.278	773
910.378	1317
910.478	618
910.579	1354
910.679	1008
910.779	1655
910.879	1158
910.980	1099
911.080	1401
911.180	822
911.280	726
911.380	758
911.480	377
911.580	1428
911.680	353
911.780	700
911.880	1798
911.980	1049
912.080	270
912.180	1330
912.280	515
912.380	1212
912.480	158
912.580	382
912.679	31
912.779	1886
912.879	1694
912.979	970
913.078	393
913.178	1050
913.278	429
913.377	-9
913.477	834
913.577	940
913.676	1164
913.776	1233
913.875	926
913.975	1860
914.074	1221
914.174	797
914.273	29
914.373	1481
914.472	1143
914.572	861
914.671	163
914.770	762
914.870	830
914.969	1081
915.068	1629
915.167	896
915.267	256
915.366	1235
915.465	800
915.564	775
915.663	1455
915.763	1434
915.862	1120
915.961	1898
916.060	597
916.159	1495
916.258	-295
916.357	648
916.456	1398
916.555	837
916.654	801
916.752	1451
916.851	1543
916.950	920
917.049	380
917.148	739
917.247	906
917.345	679
917.444	480
917.543	853
917.642	1641
917.740	1596
917.839	543
917.937	2131
918.036	1300
918.135	986
918.233	680
918.332	660
918.430	298
918.529	1404
918.627	952
918.726	1167
918.824	1054
918.923	936
919.021	961
919.119	678
919.218	838
919.316	1223
919.414	903
919.512	2250
919.611	2442
919.709	1388
919.807	967
919.905	1641
920.003	1021
920.102	1335
920.200	1721
920.298	1662
920.396	1892
920.494	723
920.592	1351
920.690	1643
920.788	1121
920.886	1890
920.984	1953
921.082	1935
921.180	2485
921.277	2063
921.375	2553
921.473	3503
921.571	3074
921.669	3901
921.766	2204
921.864	4404
921.962	3154
922.060	3502
922.157	2958
922.255	3455
922.352	3027
922.450	3796
922.548	3576
922.645	4047
922.743	5200
922.840	9812
922.938	10921
923.035	9484
923.133	8237
923.230	9451
923.327	12482
923.425	11925
923.522	11333
923.619	10295
923.717	9000
923.814	9379
923.911	8810
924.008	9905
924.106	8598
924.203	8621
924.300	8441
924.397	9166
924.494	8614
924.591	9625
924.688	8222
924.786	9025
924.883	8795
924.979	8501
925.077	9167
925.173	8491
925.270	7920
925.367	7553
925.464	9517
925.561	9133
925.658	10073
925.755	6824
925.852	8812
925.948	7815
926.045	7964
926.142	8988
926.239	7314
926.335	7046
926.432	7743
926.529	9049
926.625	9380
926.722	6859
926.818	8035
926.915	8174
927.011	7879
927.108	7066
927.204	7743
927.301	6933
927.397	8122
927.494	9077
927.590	5423
927.687	7230
927.783	8901
927.879	8898
927.976	7056
928.072	6161
928.168	7127
928.264	7419
928.361	6614
928.457	8885
928.553	6642
928.649	6928
928.745	7709
928.841	6393
928.937	7847
929.033	7429
929.129	6515
929.225	8098
929.321	7052
929.417	6209
929.513	6999
929.609	5701
929.705	6039
929.801	7427
929.897	5665
929.993	6752
930.089	6681
930.184	5607
930.280	6682
930.376	8538
930.471	5996
930.567	5387
930.663	6384
930.758	5675
930.854	6219
930.950	5612
931.045	5164
931.141	6255
931.236	7435
931.332	6506
931.427	4826
931.523	8099
931.618	7040
931.714	4430
931.809	6215
931.905	7385
932.000	4109
932.095	3232
932.191	6533
932.286	7379
932.381	5965
932.476	4424
932.572	5574
932.667	5194
932.762	4865
932.857	6234
932.952	7039
933.047	5621
933.142	4482
933.237	5693
933.332	6576
933.427	6737
933.522	4764
933.617	3759
933.712	4851
933.807	6575
933.902	6481
933.997	6912
934.092	4150
934.187	5558
934.282	5173
934.376	6059
934.471	5698
934.566	4336
934.661	4648
934.755	6042
934.850	5886
934.945	5555
935.039	3750
935.134	3275
935.228	5001
935.323	7887
935.417	3954
935.512	3476
935.606	3702
935.701	5546
935.795	5851
935.890	5320
935.984	4347
936.079	3290
936.173	4986
936.267	3512
936.362	3310
936.456	5682
936.550	6755
936.644	5512
936.738	3468
936.833	3207
936.927	3615
937.021	4068
937.115	4337
937.209	5182
937.303	4275
937.397	3632
937.491	4680
937.585	5158
937.679	3870
937.773	2907
937.867	3244
937.961	3851
938.055	5844
938.149	5422
938.243	2713
938.337	2792
938.430	3863
938.524	5929
938.618	3592
938.712	2999
938.805	3691
938.899	4433
938.993	5572
939.086	3741
939.180	1695
939.274	2596
939.367	4444
939.461	4838
939.554	3195
939.648	3740
939.741	3201
939.835	4032
939.928	5597
940.022	5018
940.115	3124
940.208	5201
940.302	5205
940.395	5307
940.488	2670
940.582	3129
940.675	2963
940.768	3037
940.861	3957
940.954	5332
941.048	2266
941.141	2289
941.234	3245
941.327	3503
941.420	3918
941.513	4178
941.606	3202
941.699	3851
941.792	4006
941.885	3270
941.978	3568
942.071	3934
942.164	1365
942.257	2189
942.349	2728
942.442	3948
942.535	1664
942.628	3377
942.721	3023
942.813	2288
942.906	3841
942.999	3726
943.091	2890
943.184	2913
943.277	2692
943.369	2788
943.462	1752
943.554	3134
943.647	2680
943.739	4430
943.832	4101
943.924	1115
944.017	1924
944.109	1299
944.201	2636
944.294	3322
944.386	2273
944.478	3028
944.571	2364
944.663	3020
944.755	3018
944.847	3339
944.940	2601
945.032	1364
945.124	1573
945.216	4399
945.308	2559
945.400	2761
945.492	2650
945.584	3689
945.676	3941
945.768	2245
945.860	3220
945.952	3654
946.044	2695
946.136	2329
946.228	1974
946.320	2297
946.412	2527
946.503	4053
946.595	3955
946.687	2298
946.779	839
946.870	2676
946.962	2642
947.054	3069
947.145	2835
947.237	2383
947.329	1522
947.420	2611
947.512	1594
947.603	1625
947.695	1577
947.786	1620
947.878	1832
947.969	2720
948.061	2143
948.152	2258
948.243	1449
948.335	2079
948.426	1081
948.517	3036
948.609	1699
948.700	2342
948.791	1249
948.882	1390
948.973	1501
949.065	2971
949.156	3196
949.247	1212
949.338	1356
949.429	1085
949.520	2142
949.611	2410
949.702	2709
949.793	1715
949.884	1894
949.975	1556
950.066	946
950.157	1671
950.247	1424
950.338	1179
950.429	1416
950.520	1372
950.611	813
950.701	2850
950.792	3000
950.883	3020
950.973	1264
951.064	2003
951.155	2539
951.245	2662
951.336	2318
951.427	1806
951.517	2685
951.608	2463
951.698	1343
951.788	1192
951.879	859
951.969	1446
952.060	860
952.150	1726
952.240	2707
952.331	1176
952.421	3000
952.511	1131
952.602	1133
952.692	1025
952.782	1001
952.872	1894
952.962	2077
953.052	1042
953.143	1100
953.233	2137
953.323	1858
953.413	2120
953.503	1768
953.593	2484
953.683	1860
953.773	756
953.863	827
953.953	990
954.042	1129
954.132	1876
954.222	1640
954.312	1065
954.402	959
954.492	1705
954.581	1374
954.671	1838
954.761	1325
954.850	2720
954.940	579
955.030	524
955.119	677
955.209	1595
955.298	645
955.388	1677
955.477	2602
955.567	841
955.656	1691
955.746	1851
955.835	196
955.925	837
956.014	1246
956.103	2076
956.193	3525
956.282	3275
956.371	1576
956.461	1342
956.550	1210
956.639	1396
956.728	957
956.817	1321
956.906	1466
956.995	2952
957.085	224
957.174	1407
957.263	758
957.352	1163
957.441	816
957.530	775
957.619	1001
957.708	860
957.796	768
957.885	1045
957.974	846
958.063	1597
958.152	143
958.241	1272
958.329	113
958.418	492
958.507	1282
958.596	2323
958.684	48
958.773	2306
958.861	699
958.950	1182
959.039	676
959.127	890
959.216	389
959.304	418
959.393	538
959.481	2146
959.570	1621
959.658	821
959.746	786
959.835	993
959.923	1181
960.011	602
960.100	1053
960.188	1319
960.276	753
960.365	948
960.453	-43
960.541	-489
960.629	841
960.717	-587
960.805	-823
960.893	393
960.981	7
961.069	2988
961.158	798
961.245	2981
961.333	1329
961.421	950
961.509	844
961.597	1402
961.685	-271
961.773	1269
961.861	1313
961.949	1687
962.036	837
962.124	1287
962.212	730
962.299	286
962.387	277
962.475	719
962.562	700
962.650	1453
962.738	827
962.825	221
962.913	1121
963.000	-78
963.088	1412
963.175	631
963.263	320
963.350	881
963.438	-114
963.525	642
963.612	390
963.700	470
963.787	790
963.874	629
963.962	479
964.049	1093
964.136	-82
964.223	-8
964.310	-235
964.398	270
964.485	-13
964.572	1039
964.659	985
964.746	438
964.833	341
964.920	396
965.007	122
965.094	-97
965.181	695
965.268	1234
965.355	-276
965.441	771
965.528	870
965.615	1503
965.702	685
965.789	6
965.875	1206
965.962	2214
966.049	264
966.136	1544
966.222	765
966.309	1613
966.395	372
966.482	1841
966.569	414
966.655	730
966.742	563
966.828	330
966.915	141
967.001	1009
967.087	-900
967.174	-533
967.260	200
967.347	895
967.433	437
967.519	878
967.605	-195
967.692	805
967.778	1258
967.864	594
967.950	949
968.036	149
968.123	364
968.209	374
968.295	-575
968.381	1957
968.467	490
968.553	-1087
968.639	1371
968.725	857
968.811	176
968.897	1295
968.983	307
969.069	-695
969.154	1258
969.240	410
969.326	-1367
969.412	839
969.497	-145
969.583	823
969.669	1727
969.755	818
969.840	323
969.926	2410
970.012	1823
970.097	3964
970.183	1301
970.268	1522
970.354	1071
970.439	343
970.525	1475
970.610	-282
970.696	1602
970.781	697
970.866	-95
970.952	558
971.037	148
971.122	842
971.208	793
971.293	1210
971.378	-432
971.463	345
971.549	587
971.634	1020
971.719	1065
971.804	1138
971.889	838
971.974	692
972.059	368
972.144	1482
972.229	566
972.314	551
972.399	676
972.484	334
972.569	56
972.654	-371
972.739	1018
972.824	249
972.908	-118
972.993	926
973.078	78
973.163	995
973.247	1571
973.332	-645
973.417	1330
973.501	97
973.586	695
973.671	1174
973.755	-49
973.840	596
973.924	1371
974.009	1345
974.093	649
974.178	2296
974.262	605
974.346	353
974.431	224
974.515	526
974.600	451
974.684	1232
974.768	152
974.852	1689
974.937	192
975.021	1718
975.105	1124
975.189	788
975.273	198
975.358	-219
975.442	-465
975.526	405
975.610	585
975.694	276
975.778	1236
975.862	341
975.946	-1812
976.030	2372
976.114	185
976.198	1069
976.281	1109
976.365	1558
976.449	-91
976.533	495
976.617	173
976.700	477
976.784	-55
976.868	217
976.951	420
977.035	331
977.119	465
977.202	-158
977.286	232
977.369	1338
977.453	2297
977.536	1802
977.620	916
977.703	2413
977.787	1111
977.870	1459
977.953	2097
978.037	-560
978.120	1310
978.203	624
978.287	533
978.370	595
978.453	336
978.536	-83
978.620	1359
978.703	975
978.786	634
978.869	675
978.952	-201
979.035	3017
979.118	936
979.201	66
979.284	772
979.367	-189
979.450	755
979.533	643
979.616	-306
979.699	772
979.782	685
979.865	720
979.948	430
980.030	564
980.113	1348
980.196	44
980.279	1127
980.361	1033
980.444	979
980.526	612
980.609	2084
980.692	2431
980.774	2357
980.857	892
980.939	2350
981.022	338
981.104	778
981.187	1618
981.269	1142
981.352	588
981.434	678
981.516	1034
981.599	1375
981.681	943
981.763	237
981.846	890
981.928	569
982.010	1179
982.092	524
982.174	1174
982.256	1208
982.339	656
982.421	-36
982.503	1069
982.585	-144
982.667	847
982.749	586
982.831	864
982.913	497
982.995	1775
983.077	891
983.158	1823
983.240	-97
983.322	1897
983.404	2954
983.486	1548
983.568	1808
983.649	2230
983.731	1681
983.813	1709
983.894	755
983.976	1192
984.058	1464
984.139	1991
984.221	-189
984.302	1978
984.384	963
984.465	808
984.547	1352
984.628	775
984.710	1847
984.791	1870
984.872	292
984.954	1269
985.035	791
985.116	1575
985.198	1032
985.279	2630
985.360	692
985.441	1109
985.522	2194
985.604	1108
985.685	-902
985.766	1612
985.847	2320
985.928	897
986.009	764
986.090	2319
986.171	2091
986.252	1100
986.333	623
986.414	1511
986.495	772
986.576	1843
986.656	1332
986.737	2153
986.818	1408
986.899	1240
986.980	856
987.060	2132
987.141	1614
987.222	3094
987.302	2885
987.383	2713
987.464	2600
987.544	2775
987.625	1103
987.705	2942
987.786	2919
987.866	2132
987.947	2199
988.027	2947
988.108	1011
988.188	2859
988.268	1815
988.349	2625
988.429	2082
988.509	2196
988.589	880
988.670	213
988.750	3174
988.830	1427
988.910	1543
988.990	1713
989.070	1152
989.151	1452
989.231	1001
989.311	2713
989.391	967
989.471	1817
989.551	1941
989.631	1954
989.711	1790
989.791	1593
989.870	1218
989.950	2211
990.030	747
990.110	1357
990.190	1302
990.269	1534
990.349	1662
990.429	2106
990.509	983
990.588	832
990.668	1797
990.747	858
990.827	396
990.907	2358
990.986	1533
991.066	694
991.145	270
991.225	1635
991.304	1663
991.383	1458
991.463	800
991.542	1205
991.622	843
991.701	426
991.780	283
991.859	1218
991.939	366
992.018	880
992.097	844
992.176	607
992.256	-714
992.335	759
992.414	1566
992.493	-60
992.572	-785
992.651	1562
992.730	282
992.809	739
992.888	-489
992.967	659
993.046	1282
993.125	-95
993.203	424
993.282	1381
993.361	1036
993.440	435
993.519	-279
993.597	1092
993.676	249
993.755	1706
993.834	661
993.912	-330
993.991	1153
994.069	414
994.148	1144
994.226	-83
994.305	399
994.384	-101
994.462	1311
994.540	-849
994.619	-472
994.697	852
994.776	-154
994.854	1251
994.932	20
995.011	314
995.089	-340
995.167	1222
995.245	927
995.324	-677
995.402	813
995.480	-230
995.558	-60
995.636	-36
995.714	-544
995.792	768
995.870	-1357
995.948	69
996.026	-264
996.104	-180
996.182	849
996.260	227
996.338	-278
996.416	-1352
996.494	120
996.572	1424
996.649	-507
996.727	-1155
996.805	48
996.883	61
996.960	-560
997.038	-348
997.116	720
997.193	336
997.271	-78
997.348	-1308
997.426	-643
997.504	-453
997.581	-386
997.658	-382
997.736	-2345
997.813	-1184
997.891	-347
997.968	-456
998.046	-221
998.123	-518
998.200	-674
998.277	-1095
998.355	184
998.432	-1252
998.509	-809
998.586	-297
998.663	456
998.741	-311
998.818	-442
998.895	-889
998.972	37
999.049	17
999.126	-1420
999.203	-378
999.280	-635
999.357	-1244
999.434	-853
999.511	-11
999.587	-642
999.664	-1588
999.741	-290
999.818	-110
999.895	-559
999.971	-665
1000.048	-1709
1000.125	281
1000.202	-1445
1000.278	274
1000.355	-523
1000.431	-573
1000.508	-874
1000.584	-268
1000.661	-519
1000.738	236
1000.814	-548
1000.890	-42
1000.967	-1219
1001.043	-1319
1001.120	-2386
1001.196	-931
1001.272	-1635
1001.349	-420
1001.425	-346
1001.501	-125
1001.577	-1894
1001.654	-136
1001.730	-1820
1001.806	-1009
1001.882	-1629
1001.958	-1214
1002.034	11
1002.110	-573
1002.186	-2425
1002.262	-848
1002.338	-1825
1002.414	-249
1002.490	-977
1002.566	-952
1002.642	-1242
1002.718	-388
1002.794	-1129
1002.870	-1035
1002.945	-1779
1003.021	-1149
1003.097	-1012
1003.173	-173
1003.248	-1655
1003.324	-1267
1003.400	-1200
1003.475	-1376
1003.551	-860
1003.626	-1485
1003.702	-1341
1003.777	-779
1003.853	-1048
1003.928	-1514
1004.004	-1915
1004.079	-115
1004.155	-468
1004.230	-2174
1004.305	-780
1004.381	-1270
1004.456	-1420
1004.531	-1224
1004.607	-960
1004.682	-1477
1004.757	-1300
1004.832	-1139
1004.907	-1449
1004.982	-744
1005.057	-1648
1005.133	-1208
1005.208	-1660
1005.283	-1132
1005.358	-1082
1005.433	-2100
1005.508	-1468
1005.583	-1042
1005.657	-1745
1005.732	324
1005.807	-2003
1005.882	-1884
1005.957	-1832
1006.032	-1101
1006.106	-1045
1006.181	-853
1006.256	-1317
1006.331	-2008
1006.405	-1269
1006.480	-1136
1006.554	-1747
1006.629	-301
1006.704	-1044
1006.778	-200
1006.853	-843
1006.927	-1711
1007.002	-1689
1007.076	-1259
1007.150	-2681
1007.225	-1243
1007.299	-1470
1007.373	-1397
1007.448	-1466
1007.522	-964
1007.596	-1165
1007.671	-1349
1007.745	-1044
1007.819	-2234
1007.893	-1455
1007.967	-1370
1008.041	-1775
1008.115	-798
1008.190	-1634
1008.264	-869
1008.338	-2643
1008.412	-1674
1008.486	-1473
1008.560	-928
1008.633	-1590
1008.707	-1269
1008.781	-1527
1008.855	-1083
1008.929	-1044
1009.003	-1119
1009.076	-1852
1009.150	-1199
1009.224	-1241
1009.298	-1180
1009.371	-2275
1009.445	-576
1009.519	-1791
1009.592	-1343
1009.666	-1664
1009.739	-900
1009.813	-2235
1009.886	-937
1009.960	-2478
1010.033	-1027
1010.107	-1337
1010.180	-984
1010.253	-1487
1010.327	-1963
1010.400	-1128
1010.473	-1274
1010.547	198
1010.620	-1429
1010.693	-820
1010.766	-1526
1010.840	-1193
1010.913	-1969
1010.986	-1447
1011.059	-2298
1011.132	-2066
1011.205	-593
1011.278	-1317
1011.351	-1056
1011.424	-1557
1011.497	-2064
1011.570	-1961
1011.643	-1269
1011.716	-2099
1011.789	-1655
1011.862	-1483
1011.934	-1213
1012.007	-2315
1012.080	-1688
1012.153	-1378
1012.225	-528
1012.298	-2353
1012.371	-1343
1012.443	-1473
1012.516	-1608
1012.588	-820
1012.661	-1530
1012.733	-1340
1012.806	-577
1012.879	-1466
1012.951	-1635
1013.023	-2045
1013.096	-1034
1013.168	-2318
1013.241	-1087
1013.313	-2114
1013.385	-1875
1013.458	-2173
1013.530	-573
1013.602	-2039
1013.674	-1126
1013.746	-2050
1013.819	-1918
1013.891	-964
1013.963	-1136
1014.035	-1734
1014.107	-2604
1014.179	-828
1014.251	-2494
1014.323	-1355
1014.395	-1004
1014.467	-1187
1014.539	-1310
1014.611	-2115
1014.683	-1713
1014.754	-2076
1014.826	-1385
1014.898	-2205
1014.970	-2098
1015.042	-1007
1015.113	-1666
1015.185	-2301
1015.257	-1650
1015.328	-1324
1015.400	-2084
1015.471	-1621
1015.543	-2221
1015.615	-1297
1015.686	-1699
1015.757	-2405
1015.829	-1705
1015.901	-2676
1015.972	-1217
1016.043	-1724
1016.115	-1596
1016.186	-1692
1016.257	-1873
1016.328	-1623
1016.400	-1197
1016.471	-2033
1016.542	-1723
1016.613	-1283
1016.685	-1280
1016.756	-1384
1016.827	-2674
1016.898	-2643
1016.969	-1484
1017.040	-2436
1017.111	-1474
1017.182	-2606
1017.253	-1113
1017.324	-1537
1017.395	-1671
1017.466	-1336
1017.537	-1551
1017.608	-1336
1017.678	-1309
1017.749	-1716
1017.820	-1998
1017.891	-1902
1017.961	-2312
1018.032	-1599
1018.103	-1297
1018.173	-1795
1018.244	-1968
1018.315	-2210
1018.385	-1328
1018.456	-2694
1018.526	-1317
1018.597	-2263
1018.667	-1774
1018.738	-1581
1018.808	-2018
1018.878	-1896
1018.949	-940
1019.019	-1918
1019.089	-1357
1019.160	-1404
1019.230	-1740
1019.300	-1636
1019.371	-2505
1019.441	-540
1019.511	-1397
1019.581	-1806
1019.651	-1152
1019.721	-2480
1019.791	-1678
1019.861	-2464
1019.931	-1250
1020.001	-2347
1020.071	-1486
1020.141	-1484
1020.211	-1897
1020.281	-2837
1020.351	-2552
1020.421	-1461
1020.491	-1616
1020.560	-2801
1020.630	-1146
1020.700	-1491
1020.770	-2161
1020.839	-1948
1020.909	-1364
1020.979	-2657
1021.048	-2156
1021.118	-2328
1021.187	-1591
1021.257	-1406
1021.326	-2027
1021.396	-1961
1021.465	-1589
1021.535	-1500
1021.604	-1795
1021.674	-2171
1021.743	-1329
1021.812	-1556
1021.882	-1621
1021.951	-2035
1022.020	-946
1022.089	-1850
1022.159	-2098
1022.228	-1868
1022.297	-1515
1022.366	-1711
1022.435	-1756
1022.504	-2345
1022.573	-2105
1022.642	-1513
1022.711	-2305
1022.781	-2481
1022.849	-1004
1022.918	-2251
1022.987	-2052
1023.056	-2746
1023.125	-1821
1023.194	-2505
1023.263	-2156
1023.331	-1406
1023.400	-2157
1023.469	-2419
1023.538	-1165
1023.606	-2326
1023.675	-2232
1023.744	-2403
1023.812	-3358
1023.881	-1830
1023.949	-1013
1024.018	-2519
1024.086	-2441
1024.155	-2326
1024.223	-2635
1024.292	-1913
1024.360	-1686
1024.429	-3145
1024.497	-1314
1024.565	-2047
1024.634	-2235
1024.702	-2098
1024.770	-1859
1024.838	-2548
1024.907	-1597
1024.975	-2196
1025.043	-1894
1025.111	-2704
1025.179	-1830
1025.247	-2263
1025.315	-2431
1025.383	-2599
1025.451	-1585
1025.519	-2276
1025.587	-1684
1025.655	-2418
1025.723	-2169
1025.791	-2323
1025.859	-1995
1025.927	-2195
1025.995	-1718
1026.062	-1982
1026.130	-1577
1026.198	-1583
1026.266	-2455
1026.333	-2080
1026.401	-1832
1026.469	-2862
1026.536	-1329
1026.604	-2114
1026.671	-1299
1026.739	-1870
1026.806	-2344
1026.874	-2314
1026.941	-2347
1027.009	-2428
1027.076	-2662
1027.144	-1730
1027.211	-2074
1027.278	-2544
1027.345	-1276
1027.413	-2077
1027.480	-2426
1027.547	-3252
1027.614	-2269
1027.682	-1764
1027.749	-1834
1027.816	-3552
1027.883	-2002
1027.950	-2286
1028.017	-2770
1028.084	-1805
1028.151	-2216
1028.218	-2568
1028.285	-2309
1028.352	-2852
1028.419	-2164
1028.486	-2833
1028.553	-2467
1028.619	-2980
1028.686	-1305
1028.753	-2559
1028.820	-2039
1028.886	-2146
1028.953	-1409
1029.020	-2345
1029.086	-2129
1029.153	-2481
1029.220	-2175
1029.286	-1726
1029.353	-1487
1029.419	-2493
1029.486	-2663
1029.552	-2374
1029.619	-1903
1029.685	-2115
1029.751	-1501
1029.818	-1785
1029.884	-2157
1029.951	-1175
1030.017	-2616
1030.083	-2257
1030.149	-2067
1030.216	-2561
1030.282	-1802
1030.348	-2182
1030.414	-2323
1030.480	-2599
1030.546	-2240
1030.612	-2217
1030.678	-2151
1030.744	-2274
1030.810	-1749
1030.876	-2877
1030.942	-1980
1031.008	-2012
1031.074	-2995
1031.140	-2633
1031.206	-1694
1031.272	-2597
1031.337	-1453
1031.403	-2221
1031.469	-1472
1031.534	-2293
1031.600	-1551
1031.666	-2380
1031.731	-2504
1031.797	-2074
1031.863	-2577
1031.928	-2470
1031.994	-2503
1032.059	-2345
1032.125	-2197
1032.190	-2663
1032.256	-2105
1032.321	-2881
1032.386	-3031
1032.452	-1966
1032.517	-1997
1032.582	-2176
1032.647	-1297
1032.713	-2605
1032.778	-1985
1032.843	-2488
1032.908	-1874
1032.974	-3085
1033.039	-2341
1033.104	-2889
1033.169	-2966
1033.234	-2456
1033.299	-1524
1033.364	-1877
1033.429	-2712
1033.494	-2257
1033.559	-1554
1033.624	-2061
1033.688	-1949
1033.753	-3033
1033.818	-2031
1033.883	-1630
1033.948	-999
1034.013	-2310
1034.077	-1534
1034.142	-1237
1034.207	-858
1034.271	526
1034.336	830
1034.400	-495
1034.465	-594
1034.530	-1874
1034.594	-1954
1034.658	-2230
1034.723	-1704
1034.787	-2092
1034.852	-1841
1034.916	-1978
1034.981	-2690
1035.045	-2624
1035.109	-1685
1035.173	-1604
1035.238	-2507
1035.302	-1698
1035.366	-2365
1035.430	-2450
1035.495	-3081
1035.559	-2077
1035.623	-2171
1035.687	-2107
1035.751	-1946
1035.815	-2236
1035.879	-1795
1035.943	-2037
1036.007	-2262
1036.071	-2075
1036.135	-2313
1036.198	-2277
1036.262	-2102
1036.326	-2355
1036.390	-1705
1036.454	-2148
1036.517	-1806
1036.581	-1761
1036.645	-1426
1036.709	-1950
1036.772	-2922
1036.836	-2718
1036.900	-1402
1036.963	-2595
1037.026	-2254
1037.090	-2973
1037.154	-1524
1037.217	-1882
1037.280	-2037
1037.344	-2422
1037.407	-2907
1037.471	-2071
1037.534	-2369
1037.597	-2488
1037.661	-1884
1037.724	-1627
1037.787	-1945
1037.850	-2653
1037.913	-2258
1037.977	-1499
1038.040	-2757
1038.103	-2335
1038.166	-1854
1038.229	-2851
1038.292	-2787
1038.355	-962
1038.418	-1825
1038.481	-1958
1038.544	-2902
1038.607	-1763
1038.670	-2263
1038.732	-2181
1038.795	-2244
1038.858	-2841
1038.921	-2816
1038.984	-1788
1039.046	-2140
1039.109	-2283
1039.172	-2116
1039.234	-2172
1039.297	-2416
1039.360	-2611
1039.422	-2079
1039.485	-2710
1039.547	-2934
1039.610	-2643
1039.672	-2293
1039.734	-2863
1039.797	-1577
1039.859	-2344
1039.922	-2051
1039.984	-2445
1040.046	-2112
1040.109	-1732
1040.171	-2296
1040.233	-2181
1040.295	-2246
1040.358	-2347
1040.420	-1742
1040.482	-1716
1040.544	-2687
1040.606	-2303
1040.668	-2068
1040.730	-2712
1040.792	-1370
1040.854	-2377
1040.916	-1596
1040.978	-2745
1041.040	-1188
1041.102	-1570
1041.164	-2689
1041.225	-2678
1041.287	-2057
1041.349	-2199
1041.411	-2393
1041.472	-2458
1041.534	-2592
1041.596	-2216
1041.657	-1967
1041.719	-1680
1041.781	-1618
1041.842	-2493
1041.904	-1737
1041.965	-2294
1042.027	-1729
1042.088	-2788
1042.150	-1770
1042.211	-2154
1042.272	-1149
1042.334	-2558
1042.395	-2152
1042.456	-2033
1042.518	-1595
1042.579	-1393
1042.640	-2248
1042.701	-2293
1042.763	-2040
1042.824	-2952
1042.885	-2410
1042.946	-2454
1043.007	-1172
1043.068	-2511
1043.129	-2155
1043.190	-2011
1043.251	-2278
1043.312	-2073
1043.373	-1523
1043.434	-3066
1043.495	-2783
1043.556	-1638
1043.616	-2338
1043.677	-2629
1043.738	-1919
1043.799	-2419
1043.859	-1256
1043.920	-2328
1043.981	-2606
1044.041	-2163
1044.102	-2246
1044.162	-2001
1044.223	-2134
1044.284	-2897
1044.344	-2081
1044.405	-1816
1044.465	-368
1044.525	-2068
1044.586	-1492
1044.646	-2113
1044.707	-1763
1044.767	-2229
1044.827	-1729
1044.887	-1806
1044.948	-1787
1045.008	-2345
1045.068	-1570
1045.128	-1728
1045.188	-1694
1045.249	-2298
1045.309	-1348
1045.369	-1910
1045.429	-1837
1045.489	-2174
1045.549	-1624
1045.609	-1934
1045.669	-2465
1045.729	-1873
1045.789	-982
1045.848	-2188
1045.908	-1923
1045.968	-1714
1046.028	-1032
1046.088	-1644
1046.147	-1341
1046.207	-1914
1046.267	-2011
1046.326	-1503
1046.386	-2323
1046.446	-770
1046.505	-1604
1046.565	-1195
1046.624	-1657
1046.684	-1067
1046.743	-482
1046.803	-1247
1046.862	-253
1046.922	0
