'Start Wavelength	183.907
'End Wavelength	1046.922
'Gate Delay	5.000
'Gate Width (ms)	1.050
'Laser Output Level	0.000
'X Position	0.000
'Y Position	0.000
'Z Position	0.000
'Grid Point Number	1.000
'Shot Number	100.000
183.907	802.000
183.977	-153.000
184.047	545
184.116	301
184.186	-241
184.256	-276
184.325	-317
184.395	-338
184.465	1029
184.534	23
184.604	23
184.674	60
184.743	-220
184.813	-206
184.883	244
184.952	-4
185.022	587
185.092	-109
185.161	-276
185.231	23
185.301	-926
185.370	587
185.440	-868
185.509	-501
185.579	-328
185.649	-257
185.718	-600
185.788	831
185.857	-468
185.927	-317
185.996	-53
186.066	-60
186.136	425
186.205	-213
186.275	-183
186.344	-643
186.414	84
186.483	-44
186.553	809
186.622	379
186.692	576
186.761	-120
186.831	203
186.900	135
186.970	-237
187.039	-419
187.109	-175
187.178	317
187.248	-57
187.317	-343
187.387	-621
187.456	-87
187.526	382
187.595	-468
187.664	36
187.734	328
187.803	365
187.873	-506
187.942	-39
188.012	325
188.081	-46
188.150	-297
188.220	-66
188.289	681
188.358	502
188.428	291
188.497	101
188.567	506
188.636	-350
188.705	-50
188.775	-166
188.844	-256
188.913	140
188.983	88
189.052	297
189.121	75
189.191	-161
189.260	462
189.329	47
189.399	-294
189.468	237
189.537	-104
189.606	-72
189.676	198
189.745	93
189.814	61
189.883	-17
189.953	-975
190.022	36
190.091	996
190.161	-19
190.230	477
190.299	74
190.368	192
190.437	78
190.507	260
190.576	-503
190.645	-247
190.714	-383
190.783	59
190.853	592
190.922	197
190.991	29
191.060	-47
191.129	-556
191.198	-351
191.268	443
191.337	-471
191.406	17
191.475	342
191.544	231
191.613	233
191.682	-288
191.752	19
191.821	12
191.890	405
191.959	-267
192.028	-326
192.097	-85
192.166	-693
192.235	-615
192.304	18
192.373	-169
192.442	-606
192.511	14
192.580	3
192.650	-513
192.719	-376
192.788	658
192.857	423
192.926	-942
192.995	-239
193.064	250
193.133	-682
193.202	-142
193.271	-144
193.340	103
193.409	-67
193.478	80
193.547	394
193.615	-230
193.684	-10
193.753	601
193.822	335
193.891	-576
193.960	93
194.029	124
194.098	260
194.167	-907
194.236	340
194.305	-393
194.374	-360
194.443	-176
194.512	-427
194.580	-293
194.649	-122
194.718	581
194.787	28
194.856	-231
194.925	87
194.994	-1018
195.062	-641
195.131	-73
195.200	236
195.269	479
195.338	-273
195.407	-486
195.475	-296
195.544	-55
195.613	310
195.682	290
195.751	-328
195.819	-83
195.888	805
195.957	14
196.026	476
196.094	383
196.163	-332
196.232	520
196.301	145
196.369	373
196.438	-124
196.507	-466
196.576	-382
196.644	-56
196.713	-180
196.782	-352
196.850	-242
196.919	-170
196.988	173
197.056	-188
197.125	-418
197.194	-74
197.262	405
197.331	-403
197.400	-625
197.468	-458
197.537	-553
197.606	24
197.674	2
197.743	200
197.812	-448
197.880	-511
197.949	-216
198.017	-225
198.086	-237
198.155	-238
198.223	78
198.292	250
198.360	-372
198.429	-146
198.497	-113
198.566	172
198.635	506
198.703	-559
198.772	797
198.840	-397
198.909	55
198.977	-439
199.046	-264
199.114	-457
199.183	-200
199.251	417
199.320	330
199.388	253
199.457	-210
199.525	271
199.594	-222
199.662	-558
199.731	-401
199.799	31
199.867	58
199.936	564
200.004	-243
200.073	446
200.141	-718
200.210	-358
200.278	-389
200.346	97
200.415	702
200.483	164
200.552	97
200.620	10
200.688	-29
200.757	-725
200.825	89
200.893	-639
200.962	165
201.030	553
201.098	91
201.167	-130
201.235	102
201.303	-537
201.372	-282
201.440	-137
201.508	-92
201.577	398
201.645	320
201.713	63
201.781	-71
201.850	151
201.918	-414
201.986	-87
202.055	318
202.123	-342
202.191	-809
202.259	-98
202.327	-583
202.396	-286
202.464	-382
202.532	268
202.600	360
202.669	291
202.737	-113
202.805	-550
202.873	-158
202.941	-385
203.009	-657
203.078	-292
203.146	-567
203.214	197
203.282	-251
203.350	283
203.418	-249
203.487	-168
203.555	-489
203.623	538
203.691	36
203.759	-942
203.827	-103
203.895	-101
203.963	56
204.031	-703
204.099	-200
204.168	83
204.236	-303
204.304	-142
204.372	-137
204.440	18
204.508	-267
204.576	-96
204.644	-576
204.712	-524
204.780	-127
204.848	86
204.916	-1122
204.984	-227
205.052	332
205.120	-741
205.188	-248
205.256	-1015
205.324	-681
205.392	155
205.460	36
205.528	-400
205.596	-375
205.664	-251
205.732	-432
205.799	-358
205.867	-1014
205.935	-923
206.003	-205
206.071	-427
206.139	-296
206.207	233
206.275	-337
206.343	122
206.411	4
206.478	-172
206.546	38
206.614	-707
206.682	-427
206.750	-557
206.818	-872
206.885	-247
206.953	-1241
207.021	645
207.089	-272
207.157	-871
207.225	-1080
207.292	-893
207.360	-639
207.428	155
207.496	-355
207.563	-311
207.631	-597
207.699	-558
207.767	-138
207.834	-850
207.902	-1029
207.970	-153
208.038	-984
208.105	-593
208.173	-841
208.241	39
208.309	369
208.376	-14
208.444	-30
208.512	-401
208.579	-457
208.647	-134
208.715	-119
208.782	-653
208.850	94
208.918	-727
208.985	-1274
209.053	-116
209.120	-68
209.188	-369
209.256	-271
209.323	-263
209.391	-117
209.459	121
209.526	-138
209.594	-884
209.661	-374
209.729	-371
209.796	-434
209.864	763
209.932	-863
209.999	752
210.067	703
210.134	-634
210.202	-428
210.269	206
210.337	448
210.404	570
210.472	-989
210.539	-122
210.607	-3
210.674	-529
210.742	-677
210.809	-149
210.877	-222
210.944	-146
211.012	-449
211.079	1043
211.146	-551
211.214	-203
211.281	184
211.349	-171
211.416	-242
211.484	-464
211.551	-870
211.618	-285
211.686	544
211.753	-181
211.821	686
211.888	-194
211.955	95
212.023	-516
212.090	17
212.157	-384
212.225	-475
212.292	-170
212.359	-643
212.427	825
212.494	-34
212.561	-509
212.629	-403
212.696	-148
212.763	-593
212.831	-140
212.898	-351
212.965	-434
213.032	-247
213.100	221
213.167	-254
213.234	-129
213.301	83
213.369	2
213.436	-918
213.503	-1200
213.570	-83
213.638	-271
213.705	-73
213.772	-757
213.839	-93
213.906	-120
213.973	250
214.041	-276
214.108	-134
214.175	304
214.242	-536
214.309	115
214.376	-725
214.444	-145
214.511	-189
214.578	30
214.645	148
214.712	172
214.779	154
214.846	-350
214.913	-227
214.980	-159
215.048	249
215.115	1301
215.182	563
215.249	114
215.316	302
215.383	459
215.450	-227
215.517	-99
215.584	-532
215.651	36
215.718	302
215.785	29
215.852	-863
215.919	281
215.986	740
216.053	-31
216.120	-691
216.187	303
216.254	538
216.321	332
216.388	-299
216.455	-453
216.522	691
216.589	182
216.656	950
216.722	305
216.789	-135
216.856	-494
216.923	3
216.990	-115
217.057	87
217.124	-31
217.191	-799
217.258	247
217.324	-587
217.391	465
217.458	-561
217.525	-160
217.592	-598
217.659	-1127
217.725	-235
217.792	-571
217.859	0
217.926	-977
217.993	-895
218.059	-1215
218.126	-331
218.193	-190
218.260	-1025
218.327	-276
218.393	-1026
218.460	-388
218.527	-49
218.594	-450
218.660	-28
218.727	344
218.794	-926
218.860	-486
218.927	-1072
218.994	-89
219.061	-771
219.127	-258
219.194	657
219.261	-1065
219.327	-1319
219.394	-120
219.461	-850
219.527	-513
219.594	190
219.661	47
219.727	-788
219.794	-385
219.860	-1950
219.927	-393
219.994	-283
220.060	446
220.127	4
220.193	33
220.260	-612
220.326	-200
220.393	-732
220.460	-299
220.526	-935
220.593	-1174
220.659	1258
220.726	-782
220.792	593
220.859	-273
220.925	-355
220.992	196
221.058	168
221.125	-65
221.191	-351
221.258	-929
221.324	-227
221.391	-647
221.457	-916
221.524	-86
221.590	-293
221.657	194
221.723	-444
221.789	-502
221.856	-35
221.922	-793
221.989	-769
222.055	-746
222.121	-1743
222.188	1165
222.254	-235
222.321	-129
222.387	-915
222.453	-529
222.520	-657
222.586	-748
222.652	13
222.719	-559
222.785	108
222.851	-696
222.918	-861
222.984	-283
223.050	-932
223.116	-1472
223.183	360
223.249	-449
223.315	-1263
223.382	-301
223.448	-467
223.514	-1039
223.580	-572
223.647	-1444
223.713	-1375
223.779	-192
223.845	-428
223.911	-362
223.978	-774
224.044	-69
224.110	-316
224.176	30
224.242	-264
224.309	-1339
224.375	-216
224.441	-399
224.507	-848
224.573	-1247
224.639	485
224.705	-715
224.772	221
224.838	-761
224.904	-324
224.970	-584
225.036	-883
225.102	-465
225.168	-422
225.234	18
225.300	-678
225.366	-485
225.432	-900
225.499	-277
225.565	-520
225.631	-776
225.697	-335
225.763	-311
225.829	-424
225.895	-415
225.961	-527
226.027	143
226.093	356
226.159	-533
226.225	-168
226.291	340
226.357	1325
226.423	159
226.489	378
226.554	5
226.620	208
226.686	5
226.752	795
226.818	-493
226.884	1870
226.950	1399
227.016	-249
227.082	166
227.148	-124
227.214	397
227.279	290
227.345	-238
227.411	-624
227.477	-275
227.543	2081
227.609	1560
227.674	301
227.740	284
227.806	684
227.872	-721
227.938	36
228.003	670
228.069	533
228.135	-87
228.201	-552
228.267	-245
228.332	-561
228.398	-668
228.464	-184
228.530	-788
228.595	175
228.661	-1280
228.727	-6
228.792	684
228.858	-387
228.924	-1001
228.990	439
229.055	-494
229.121	766
229.187	-203
229.252	-578
229.318	-442
229.384	-452
229.449	-324
229.515	-1158
229.581	-1919
229.646	952
229.712	-544
229.777	360
229.843	180
229.909	867
229.974	891
230.040	-331
230.105	-446
230.171	-546
230.236	5
230.302	365
230.368	453
230.433	-571
230.499	101
230.564	-237
230.630	-1168
230.695	-710
230.761	-520
230.826	-1587
230.892	504
230.957	-820
231.023	-63
231.088	-1142
231.154	-704
231.219	-377
231.284	-88
231.350	151
231.415	-1301
231.481	-649
231.546	-151
231.612	-677
231.677	-408
231.742	-1599
231.808	341
231.873	-1258
231.939	-1414
232.004	448
232.069	-277
232.135	-985
232.200	-769
232.265	-183
232.331	-130
232.396	-752
232.461	-596
232.527	-1070
232.592	-780
232.657	-446
232.723	-476
232.788	-761
232.853	-446
232.918	-695
232.984	-790
233.049	-1130
233.114	-391
233.179	-76
233.245	478
233.310	-46
233.375	-1213
233.440	795
233.506	-739
233.571	-1231
233.636	-293
233.701	162
233.766	119
233.832	597
233.897	-553
233.962	-366
234.027	-90
234.092	294
234.157	-198
234.222	-851
234.288	718
234.353	2107
234.418	2257
234.483	1098
234.548	-210
234.613	38
234.678	-704
234.743	-759
234.808	3233
234.873	307
234.938	937
235.004	0
235.069	-268
235.134	-509
235.199	166
235.264	-286
235.329	-539
235.394	367
235.459	-279
235.524	-1115
235.589	-160
235.654	-419
235.719	-1602
235.784	-133
235.849	-430
235.913	996
235.978	385
236.043	397
236.108	-736
236.173	-803
236.238	303
236.303	-871
236.368	-1086
236.433	29
236.498	503
236.563	-282
236.627	488
236.692	3200
236.757	1670
236.822	871
236.887	941
236.952	220
237.017	-1823
237.081	-40
237.146	-669
237.211	289
237.276	3081
237.341	6596
237.405	2122
237.470	515
237.535	426
237.600	340
237.664	528
237.729	-629
237.794	-301
237.859	476
237.923	156
237.988	-76
238.053	-37
238.118	-81
238.182	2704
238.247	2751
238.312	-289
238.376	672
238.441	-1258
238.506	519
238.570	-463
238.635	530
238.700	41
238.764	-481
238.829	1057
238.893	-188
238.958	380
239.023	-854
239.087	-767
239.152	-37
239.216	-1329
239.281	-448
239.346	167
239.410	-913
239.475	-453
239.539	3201
239.604	344
239.668	538
239.733	-76
239.797	712
239.862	3745
239.926	3034
239.991	873
240.055	-168
240.120	-254
240.184	-460
240.249	-489
240.313	-479
240.378	33
240.442	1831
240.507	2603
240.571	113
240.635	-577
240.700	1233
240.764	76
240.829	54
240.893	-1749
240.957	-548
241.022	1637
241.086	2907
241.151	-255
241.215	-684
241.279	1233
241.344	736
241.408	653
241.472	-823
241.537	422
241.601	145
241.665	-669
241.730	-727
241.794	411
241.858	-660
241.922	-334
241.987	-244
242.051	-764
242.115	-1448
242.179	-287
242.244	-907
242.308	298
242.372	-552
242.436	-541
242.501	152
242.565	-561
242.629	-1185
242.693	134
242.757	-943
242.822	-875
242.886	234
242.950	342
243.014	-852
243.078	328
243.142	535
243.206	-190
243.271	19
243.335	-897
243.399	-277
243.463	1084
243.527	3014
243.591	111
243.655	405
243.719	-1014
243.783	1069
243.847	20
243.911	1176
243.975	2229
244.040	610
244.104	1454
244.168	-682
244.232	1188
244.296	1796
244.360	303
244.424	625
244.488	-238
244.552	491
244.615	-1832
244.679	39
244.743	-68
244.807	-655
244.871	477
244.935	-323
244.999	-1150
245.063	-231
245.127	1192
245.191	1104
245.255	915
245.319	930
245.383	-892
245.446	1232
245.510	-518
245.574	243
245.638	938
245.702	-380
245.766	1907
245.829	885
245.893	384
245.957	-1342
246.021	357
246.085	487
246.149	331
246.212	3847
246.276	3994
246.340	1575
246.404	1409
246.467	1638
246.531	251
246.595	676
246.659	340
246.722	554
246.786	1556
246.850	1365
246.913	1752
246.977	15
247.041	-36
247.104	428
247.168	698
247.232	3093
247.295	5492
247.359	2943
247.423	286
247.486	2091
247.550	929
247.614	544
247.677	2175
247.741	264
247.804	244
247.868	1064
247.932	2420
247.995	6207
248.059	1214
248.122	29
248.186	1776
248.249	3219
248.313	9648
248.376	10365
248.440	6645
248.503	1372
248.567	3519
248.630	2777
248.694	4730
248.757	6511
248.821	10405
248.884	8301
248.948	6276
249.011	9610
249.075	12064
249.138	11425
249.202	4702
249.265	1791
249.328	3182
249.392	1875
249.455	1792
249.519	-127
249.582	1667
249.645	2841
249.709	1491
249.772	731
249.835	616
249.899	392
249.962	1062
250.025	276
250.089	2742
250.152	6046
250.215	2222
250.279	583
250.342	833
250.405	1087
250.468	101
250.532	1399
250.595	2824
250.658	3909
250.721	7377
250.785	3171
250.848	3351
250.911	-41
250.974	1494
251.038	1459
251.101	5864
251.164	1442
251.227	2151
251.290	1491
251.354	2025
251.417	5858
251.480	5200
251.543	3278
251.606	10336
251.669	7327
251.732	3969
251.795	5781
251.859	4844
251.922	8576
251.985	4531
252.048	2028
252.111	1742
252.174	1793
252.237	6460
252.300	12010
252.363	9801
252.426	14522
252.489	5147
252.552	3830
252.615	1196
252.678	3743
252.741	8873
252.804	7035
252.867	12377
252.930	10891
252.993	6874
253.056	4727
253.119	1919
253.182	1867
253.245	2357
253.308	2501
253.371	3532
253.434	3284
253.497	3928
253.559	6572
253.622	4206
253.685	8024
253.748	8186
253.811	2470
253.874	4547
253.937	3155
254.000	3176
254.062	4888
254.125	7391
254.188	6833
254.251	5354
254.314	2386
254.376	5127
254.439	6114
254.502	6068
254.565	4691
254.628	9912
254.690	6630
254.753	3069
254.816	2887
254.878	2149
254.941	5676
255.004	5318
255.067	2870
255.129	2414
255.192	1634
255.255	-125
255.317	1787
255.380	692
255.443	-241
255.505	578
255.568	-451
255.631	-506
255.693	705
255.756	-522
255.819	1094
255.881	-930
255.944	-324
256.006	8
256.069	-358
256.132	-162
256.194	617
256.257	2425
256.319	1741
256.382	889
256.444	1301
256.507	-80
256.569	-518
256.632	-113
256.694	-821
256.757	1846
256.819	5494
256.882	1069
256.944	897
257.007	1911
257.069	1319
257.132	73
257.194	930
257.257	147
257.319	-50
257.381	-1432
257.444	1364
257.506	7368
257.569	9007
257.631	7177
257.693	4041
257.756	1258
257.818	454
257.880	-121
257.943	895
258.005	-94
258.067	77
258.130	-26
258.192	433
258.254	2942
258.317	1361
258.379	541
258.441	3646
258.503	2210
258.566	2537
258.628	3326
258.690	-87
258.753	680
258.815	4167
258.877	774
258.939	163
259.001	545
259.064	-413
259.126	-581
259.188	875
259.250	1172
259.312	1163
259.375	4312
259.437	1984
259.499	243
259.561	-13
259.623	-111
259.685	-341
259.747	236
259.809	2542
259.872	5625
259.934	8962
259.996	8378
260.058	1521
260.120	-391
260.182	165
260.244	-421
260.306	-441
260.368	-154
260.430	-89
260.492	1626
260.554	3838
260.616	2129
260.678	6110
260.740	5939
260.802	318
260.864	1974
260.926	-141
260.988	1707
261.050	446
261.112	1607
261.174	6817
261.236	4148
261.298	978
261.359	2266
261.421	3922
261.483	885
261.545	635
261.607	-592
261.669	-102
261.731	1501
261.793	5206
261.854	1051
261.916	1326
261.978	-714
262.040	432
262.102	795
262.164	937
262.225	642
262.287	-84
262.349	2849
262.411	2956
262.472	98
262.534	1308
262.596	3186
262.658	1073
262.719	53
262.781	822
262.843	2199
262.904	867
262.966	1490
263.028	487
263.090	5046
263.151	10234
263.213	3827
263.275	3181
263.336	120
263.398	1447
263.459	-657
263.521	719
263.583	2514
263.644	2403
263.706	-30
263.767	-730
263.829	408
263.891	-3
263.952	-590
264.014	-1013
264.075	-199
264.137	2068
264.198	1440
264.260	-774
264.321	-582
264.383	1658
264.444	4979
264.506	-216
264.567	-916
264.629	1637
264.690	1494
264.752	946
264.813	498
264.875	-483
264.936	-313
264.998	-258
265.059	-721
265.120	-104
265.182	-153
265.243	1719
265.305	1826
265.366	-147
265.427	-772
265.489	-64
265.550	-1067
265.611	401
265.673	-34
265.734	56
265.795	-231
265.857	-720
265.918	-1500
265.979	134
266.040	3794
266.102	2980
266.163	681
266.224	1259
266.286	391
266.347	-380
266.408	-312
266.469	481
266.530	-29
266.592	-918
266.653	2642
266.714	3920
266.775	485
266.836	-158
266.898	-934
266.959	99
267.020	294
267.081	725
267.142	-366
267.203	-1080
267.264	-488
267.326	721
267.387	-178
267.448	-1106
267.509	179
267.570	-555
267.631	87
267.692	-821
267.753	-577
267.814	-932
267.875	1039
267.936	3810
267.997	-69
268.058	885
268.119	327
268.180	386
268.241	-1032
268.302	-288
268.363	-308
268.424	215
268.485	49
268.546	-556
268.607	-599
268.668	-439
268.729	-764
268.790	-638
268.851	-280
268.912	2053
268.972	4197
269.033	2032
269.094	-912
269.155	-455
269.216	-352
269.277	-403
269.338	-439
269.398	286
269.459	581
269.520	1473
269.581	2293
269.642	3121
269.702	1338
269.763	735
269.824	353
269.885	290
269.945	2402
270.006	188
270.067	-284
270.128	-637
270.188	-671
270.249	-643
270.310	5
270.370	130
270.431	-57
270.492	-1030
270.553	700
270.613	2191
270.674	5166
270.734	1206
270.795	706
270.856	1586
270.916	467
270.977	-510
271.038	1127
271.098	346
271.159	2204
271.219	1490
271.280	-687
271.340	-225
271.401	-340
271.462	1829
271.522	959
271.583	-51
271.643	170
271.704	-769
271.764	1034
271.825	3011
271.885	12336
271.946	15118
272.006	5966
272.066	7106
272.127	10843
272.187	3406
272.248	1755
272.308	1452
272.369	7611
272.429	3077
272.489	3936
272.550	2661
272.610	4439
272.671	2967
272.731	1758
272.791	3408
272.852	1816
272.912	1911
272.972	263
273.033	-78
273.093	993
273.153	1449
273.214	181
273.274	524
273.334	4563
273.394	10712
273.455	4535
273.515	4992
273.575	9767
273.635	3691
273.696	6357
273.756	9692
273.816	4284
273.876	3026
273.936	4874
273.997	6793
274.057	505
274.117	333
274.177	2691
274.237	14421
274.297	10123
274.358	7092
274.418	8876
274.478	6526
274.538	2009
274.598	855
274.658	5878
274.718	7563
274.778	2265
274.838	1173
274.898	2497
274.958	10724
275.018	10977
275.078	6483
275.138	2707
275.198	679
275.258	-104
275.318	1229
275.378	3945
275.438	5597
275.498	2372
275.558	4070
275.618	10344
275.678	6437
275.738	5701
275.798	2747
275.858	-21
275.918	585
275.978	554
276.038	1716
276.098	-148
276.157	3051
276.217	8312
276.277	2717
276.337	3674
276.397	1234
276.457	2279
276.517	82
276.576	-163
276.636	336
276.696	1592
276.756	5793
276.815	3693
276.875	1103
276.935	1485
276.995	871
277.055	147
277.114	195
277.174	1938
277.234	6742
277.293	2303
277.353	605
277.413	-137
277.472	37
277.532	170
277.592	1267
277.651	5377
277.711	8112
277.771	2942
277.830	12744
277.890	8443
277.950	5613
278.009	14380
278.069	4896
278.128	6591
278.188	9905
278.248	4136
278.307	9328
278.367	4710
278.426	1196
278.486	629
278.545	655
278.605	682
278.664	255
278.724	335
278.783	3072
278.843	9137
278.902	1924
278.962	972
279.021	1518
279.081	1053
279.140	727
279.199	1285
279.259	1155
279.318	1690
279.378	1907
279.437	3404
279.496	16511
279.556	40990
279.615	28367
279.675	8277
279.734	5072
279.793	9259
279.853	11901
279.912	3254
279.971	2338
280.031	1952
280.090	4602
280.149	7942
280.208	6357
280.268	27998
280.327	24979
280.386	6281
280.445	6165
280.505	5223
280.564	2002
280.623	1479
280.682	2518
280.742	4805
280.801	1213
280.860	597
280.919	-323
280.978	940
281.037	-78
281.097	-338
281.156	604
281.215	256
281.274	613
281.333	6357
281.392	3794
281.451	450
281.510	-671
281.569	220
281.628	-1
281.688	-26
281.747	903
281.806	136
281.865	67
281.924	74
281.983	185
282.042	-283
282.101	576
282.160	13
282.219	-808
282.278	807
282.337	4155
282.396	1825
282.454	244
282.513	882
282.572	7185
282.631	3181
282.690	682
282.749	-181
282.808	536
282.867	1068
282.926	1281
282.985	213
283.043	-813
283.102	465
283.161	649
283.220	2775
283.279	5607
283.338	1498
283.396	476
283.455	1024
283.514	1609
283.573	2503
283.631	1450
283.690	273
283.749	79
283.808	3307
283.866	3626
283.925	313
283.984	974
284.043	1298
284.101	2231
284.160	146
284.219	580
284.277	1633
284.336	2983
284.395	10646
284.453	6656
284.512	2494
284.570	5222
284.629	4103
284.688	3275
284.746	4711
284.805	4771
284.863	6697
284.922	8840
284.981	11070
285.039	15230
285.098	25105
285.156	35485
285.215	26258
285.273	28637
285.332	37514
285.390	27068
285.449	18726
285.507	13398
285.566	9558
285.624	6815
285.683	5242
285.741	4135
285.799	3281
285.858	2840
285.916	3033
285.975	1563
286.033	1515
286.091	330
286.150	528
286.208	1349
286.267	1359
286.325	1453
286.383	3507
286.442	2269
286.500	306
286.558	110
286.616	283
286.675	1730
286.733	671
286.791	650
286.850	1166
286.908	1617
286.966	4054
287.024	1207
287.083	128
287.141	-188
287.199	620
287.257	1692
287.315	423
287.374	121
287.432	3689
287.490	1112
287.548	509
287.606	-317
287.664	404
287.723	1710
287.781	1811
287.839	-155
287.897	24
287.955	-130
288.013	-359
288.071	315
288.129	7230
288.187	21978
288.245	6790
288.303	1733
288.361	783
288.419	518
288.477	-5
288.535	-104
288.593	-231
288.651	-169
288.709	57
288.767	-147
288.825	12
288.883	-630
288.941	-246
288.999	-429
289.057	-60
289.115	-317
289.173	-1120
289.231	111
289.289	-594
289.346	-17
289.404	254
289.462	1945
289.520	2395
289.578	823
289.636	-605
289.694	-678
289.751	-466
289.809	-575
289.867	-901
289.925	736
289.983	781
290.040	94
290.098	-631
290.156	-19
290.214	1155
290.271	791
290.329	-128
290.387	-119
290.444	-201
290.502	-635
290.560	-793
290.617	-381
290.675	-53
290.733	-591
290.790	-336
290.848	-165
290.906	-444
290.963	177
291.021	195
291.078	-926
291.136	-979
291.194	1884
291.251	5522
291.309	829
291.366	-273
291.424	-48
291.481	-165
291.539	-420
291.596	-267
291.654	-182
291.711	-458
291.769	-585
291.826	1894
291.884	1032
291.941	-296
291.999	464
292.056	297
292.114	376
292.171	71
292.228	603
292.286	568
292.343	2862
292.401	3362
292.458	947
292.515	-398
292.573	714
292.630	999
292.687	958
292.745	206
292.802	305
292.859	2011
292.917	7689
292.974	3226
293.031	344
293.089	288
293.146	32
293.203	-285
293.260	-702
293.318	407
293.375	104
293.432	-229
293.489	-624
293.546	-672
293.604	751
293.661	4343
293.718	10997
293.775	5972
293.832	2184
293.889	1944
293.947	2004
294.004	836
294.061	1610
294.118	3171
294.175	5867
294.232	5265
294.289	1399
294.346	393
294.403	-520
294.460	-483
294.517	752
294.574	-507
294.631	627
294.688	661
294.745	2635
294.802	12160
294.859	9366
294.916	3845
294.973	2567
295.030	2459
295.087	1947
295.144	613
295.201	300
295.258	220
295.315	1020
295.372	4597
295.429	8133
295.486	3197
295.542	590
295.599	3238
295.656	4497
295.713	4220
295.770	7387
295.827	1779
295.883	904
295.940	1599
295.997	3062
296.054	3463
296.111	749
296.167	684
296.224	-1619
296.281	-999
296.338	-510
296.394	0
296.451	207
296.508	2917
296.564	6065
296.621	4905
296.678	10439
296.734	14025
296.791	4489
296.848	2201
296.904	2342
296.961	8074
297.018	10857
297.074	5252
297.131	1538
297.187	1996
297.244	2587
297.301	8993
297.357	14782
297.414	3910
297.470	1686
297.527	460
297.583	110
297.640	213
297.696	62
297.753	45
297.809	-795
297.866	10
297.922	84
297.979	568
298.035	372
298.092	1168
298.148	4643
298.204	5029
298.261	2680
298.317	4034
298.374	11534
298.430	6929
298.486	2807
298.543	1529
298.599	910
298.656	1949
298.712	2997
298.768	5558
298.824	2200
298.881	-151
298.937	-40
298.993	763
299.050	972
299.106	430
299.162	933
299.218	667
299.275	-204
299.331	60
299.387	2705
299.443	11485
299.500	13016
299.556	4749
299.612	1597
299.668	1605
299.724	4031
299.780	3749
299.837	1477
299.893	2912
299.949	10806
300.005	12036
300.061	10213
300.117	14690
300.173	6866
300.229	2295
300.285	4589
300.341	5508
300.397	1814
300.453	1717
300.510	1320
300.566	971
300.622	1716
300.678	8307
300.734	12946
300.790	10136
300.845	10274
300.901	8691
300.957	12704
301.013	8344
301.069	2356
301.125	1911
301.181	2053
301.237	1443
301.293	651
301.349	1216
301.405	-228
301.461	-304
301.516	-159
301.572	958
301.628	3719
301.684	1932
301.740	2696
301.796	5905
301.851	3609
301.907	7671
301.963	7571
302.019	12234
302.074	27451
302.130	27619
302.186	12258
302.242	4688
302.297	2805
302.353	2679
302.409	5959
302.464	5259
302.520	4332
302.576	12059
302.631	12871
302.687	7369
302.743	2543
302.798	1098
302.854	119
302.910	983
302.965	1262
303.021	4310
303.076	3855
303.132	5401
303.187	7154
303.243	2421
303.299	132
303.354	744
303.410	724
303.465	-249
303.521	692
303.576	-71
303.632	483
303.687	2762
303.743	8499
303.798	6670
303.853	1752
303.909	25
303.964	656
304.020	2857
304.075	5132
304.130	4264
304.186	9318
304.241	10511
304.297	7278
304.352	2243
304.358	2078
304.407	738
304.449	1260
304.463	1437
304.518	2399
304.539	1697
304.573	562
304.629	344
304.630	382
304.684	2139
304.720	5513
304.739	7220
304.794	10894
304.811	9153
304.850	4878
304.902	2631
304.905	2497
304.960	481
304.992	255
305.015	66
305.071	776
305.083	657
305.126	260
305.173	-141
305.181	-204
305.236	-1045
305.264	-452
305.292	139
305.347	284
305.354	209
305.402	-256
305.445	489
305.457	708
305.512	1769
305.535	1922
305.567	2096
305.622	701
305.626	769
305.678	2355
305.716	6740
305.733	8433
305.788	9819
305.807	8495
305.843	6118
305.897	9115
305.898	9149
305.953	8633
305.988	5161
306.008	3230
306.063	1910
306.078	1692
306.118	1367
306.168	904
306.173	859
306.228	1074
306.259	542
306.283	133
306.338	-88
306.349	-121
306.393	-216
306.440	300
306.448	384
306.503	105
306.530	117
306.558	346
306.613	1968
306.620	2230
306.668	4821
306.711	8827
306.723	9407
306.778	7897
306.801	6388
306.833	4625
306.888	1040
306.892	989
306.943	749
306.982	459
306.997	403
307.052	767
307.072	760
307.107	752
307.162	693
307.163	690
307.217	617
307.253	438
307.272	369
307.327	1220
307.343	1132
307.381	1034
307.434	1046
307.436	1098
307.491	3413
307.524	5514
307.546	6442
307.600	7492
307.614	6812
307.655	3585
307.704	1181
307.710	1114
307.765	1479
307.795	1988
307.819	2206
307.874	2527
307.885	2452
307.929	2023
307.975	1632
307.984	1603
308.038	1540
308.065	1875
308.093	3506
308.148	8022
308.156	9275
308.202	17800
308.246	23087
308.257	22619
308.312	12123
308.336	9868
308.366	9278
308.421	6866
308.426	6611
308.475	3919
308.517	2120
308.530	1821
308.585	1726
308.607	1452
308.639	1220
308.694	1046
308.697	1072
308.748	2363
308.787	3360
308.803	3470
308.857	2931
308.877	2865
308.912	2796
308.967	2545
308.967	2550
309.021	4675
309.058	6273
309.076	7813
309.130	13629
309.148	15558
309.185	21836
309.238	32204
309.239	32370
309.293	41558
309.328	40803
309.348	35113
309.402	17823
309.418	13609
309.457	9993
309.508	6420
309.511	6417
309.566	7921
309.598	8876
309.620	11431
309.674	19984
309.688	22063
309.729	21998
309.778	18421
309.783	17874
309.837	11591
309.868	8381
309.892	9412
309.946	13286
309.959	14681
310.001	19980
310.049	23850
310.055	22999
310.109	13248
310.139	7985
310.163	6004
310.218	2821
310.229	2258
310.272	1902
310.319	1557
310.326	1471
310.381	1084
310.409	930
310.435	1005
310.489	873
310.499	891
310.543	846
310.589	674
310.598	724
310.652	1127
310.679	1258
310.706	1114
310.760	1043
310.769	1007
310.814	1124
310.859	1239
310.868	1186
310.923	714
310.948	550
310.977	831
311.031	1417
311.038	1492
311.085	1060
311.128	539
311.139	710
311.193	1619
311.218	1972
311.247	1568
311.301	1064
311.308	976
311.356	1339
311.398	1633
311.410	1545
311.464	1177
311.488	990
311.518	1066
311.572	1170
311.578	1184
311.626	2262
311.668	3238
311.680	3026
311.734	1901
311.758	1409
311.788	1427
311.842	1467
311.847	1472
311.896	2342
311.937	3081
311.950	2975
312.004	2473
312.027	2239
312.058	2038
312.112	1692
312.117	1655
312.165	1461
312.207	1294
312.297	1794
312.386	1181
312.476	1707
312.566	5643
312.656	2995
312.745	700
312.835	1584
312.925	1395
313.015	1173
313.104	1375
313.194	1319
313.284	1684
313.374	1736
313.463	2340
313.553	1867
313.643	848
313.732	991
313.822	786
313.912	1780
314.001	2473
314.091	1578
314.180	1793
314.270	3368
314.360	2665
314.449	3294
314.539	1322
314.628	1487
314.718	720
314.808	1904
314.897	1119
314.987	1826
315.076	2118
315.166	4179
315.255	2120
315.345	3210
315.434	2128
315.524	2132
315.613	2721
315.703	4240
315.792	5718
315.881	12535
315.971	4663
316.060	5457
316.150	3708
316.239	3482
316.328	1620
316.418	1362
316.507	1935
316.597	3439
316.686	2799
316.775	2569
316.865	3355
316.954	1307
317.043	1481
317.133	1007
317.222	1529
317.311	1481
317.400	724
317.490	3917
317.579	3552
317.668	2301
317.757	3453
317.847	7675
317.936	21134
318.025	13726
318.114	6990
318.203	4184
318.293	3276
318.382	3761
318.471	4484
318.560	5048
318.649	8234
318.738	2515
318.828	2933
318.917	3947
319.006	1919
319.095	4915
319.184	13419
319.273	12421
319.362	10302
319.451	2855
319.540	2590
319.629	6776
319.718	14271
319.807	3398
319.896	5168
319.985	17720
320.074	10902
320.163	2107
320.252	1917
320.341	2270
320.430	2719
320.519	5881
320.608	3342
320.697	2750
320.786	2000
320.875	5122
320.964	6143
321.053	10379
321.142	13929
321.230	16117
321.319	8296
321.408	22771
321.497	9598
321.586	10189
321.675	6627
321.764	6925
321.852	4441
321.941	13072
322.030	10371
322.119	6636
322.207	22044
322.296	8625
322.385	4897
322.474	8189
322.562	27345
322.651	14172
322.740	9264
322.829	12689
322.917	6596
323.006	7588
323.095	6688
323.183	3543
323.272	4860
323.361	7349
323.449	13250
323.538	5802
323.626	8701
323.715	5462
323.804	2295
323.892	8602
323.981	9943
324.069	3048
324.158	3271
324.246	3621
324.335	3116
324.424	8934
324.512	2965
324.601	4410
324.689	4890
324.778	7139
324.866	5061
324.954	1635
325.043	1362
325.131	2356
325.220	4149
325.308	3086
325.397	4060
325.485	3109
325.574	909
325.662	1629
325.750	2320
325.839	1722
325.927	1436
326.015	2232
326.104	1148
326.192	2601
326.280	1265
326.369	746
326.457	2961
326.545	8121
326.634	2815
326.722	853
326.810	1918
326.898	1634
326.987	1624
327.075	5552
327.163	5353
327.251	1999
327.340	2315
327.428	3187
327.516	1996
327.604	1734
327.692	1614
327.781	1418
327.869	1846
327.957	1599
328.045	2843
328.133	1562
328.221	1128
328.309	1811
328.397	885
328.485	3469
328.574	4130
328.662	14717
328.750	6834
328.838	1770
328.926	1090
329.014	1837
329.102	2348
329.190	5246
329.278	4694
329.366	1781
329.454	830
329.542	952
329.630	1200
329.718	1633
329.806	2181
329.893	1482
329.981	948
330.069	1325
330.157	1308
330.245	1809
330.333	1352
330.421	1440
330.509	3908
330.597	18147
330.684	11174
330.772	3627
330.860	2234
330.948	2490
331.036	1695
331.123	351
331.211	1066
331.299	1234
331.387	1905
331.475	5565
331.562	2036
331.650	1348
331.738	1598
331.825	1289
331.913	1376
332.001	647
332.089	447
332.176	2102
332.264	3490
332.352	4201
332.439	2098
332.527	1888
332.614	877
332.702	1192
332.790	1844
332.877	2817
332.965	5203
333.052	2532
333.140	2843
333.228	8388
333.315	2665
333.403	1780
333.490	2551
333.578	3620
333.665	10938
333.753	6126
333.840	1763
333.928	2346
334.015	2647
334.103	4165
334.190	12350
334.278	6061
334.365	4105
334.452	4387
334.540	2803
334.627	1813
334.715	2841
334.802	4783
334.889	11746
334.977	16789
335.064	6989
335.151	2896
335.239	2180
335.326	1786
335.413	6016
335.501	10784
335.588	3153
335.675	2646
335.762	2102
335.850	3075
335.937	4146
336.024	7213
336.111	18685
336.199	16641
336.286	5429
336.373	3920
336.460	1425
336.547	2413
336.635	2335
336.722	2185
336.809	1428
336.896	2179
336.983	5755
337.070	11997
337.157	14644
337.245	7528
337.332	4857
337.419	1697
337.506	712
337.593	1409
337.680	2115
337.767	8881
337.854	4223
337.941	4356
338.028	4065
338.115	2044
338.202	2117
338.289	3452
338.376	8485
338.463	4501
338.550	4884
338.637	5605
338.724	2210
338.811	2785
338.898	1277
338.984	1308
339.071	494
339.158	2578
339.245	8289
339.332	4906
339.419	2875
339.506	3355
339.593	791
339.679	1732
339.766	2209
339.853	2908
339.940	7127
340.027	2580
340.113	2596
340.200	4042
340.287	1800
340.374	3029
340.460	6467
340.547	1565
340.634	3902
340.720	15082
340.807	8809
340.894	1703
340.980	2250
341.067	2628
341.154	2320
341.240	3133
341.327	9154
341.414	2573
341.500	1384
341.587	2378
341.674	1441
341.760	6028
341.847	7718
341.933	3310
342.020	557
342.106	1278
342.193	2599
342.279	5514
342.366	2934
342.452	7258
342.539	3174
342.625	7080
342.712	17993
342.798	8884
342.885	3603
342.971	1540
343.058	1110
343.144	1300
343.230	1985
343.317	1754
343.403	658
343.490	831
343.576	613
343.662	1245
343.749	1823
343.835	2034
343.921	2928
344.008	17085
344.094	43114
344.180	12234
344.267	5521
344.353	10712
344.439	12491
344.525	9275
344.612	3358
344.698	3169
344.784	2498
344.870	1636
344.957	1665
345.043	4960
345.129	2368
345.215	7053
345.301	2841
345.387	1483
345.474	1264
345.560	1370
345.646	589
345.732	1436
345.818	1346
345.904	2101
345.990	2491
346.076	1319
346.162	935
346.249	1715
346.335	326
346.421	1443
346.507	3659
346.593	16247
346.679	5096
346.765	2093
346.851	1883
346.937	3013
347.023	2319
347.108	2881
347.194	1902
347.280	1418
347.366	2736
347.452	6560
347.538	20921
347.624	17475
347.710	13253
347.796	2249
347.882	1540
347.967	1684
348.053	1031
348.139	1275
348.225	1300
348.311	2251
348.397	1555
348.482	2998
348.568	3252
348.654	2033
348.740	3073
348.825	2816
348.911	3809
348.997	9039
349.083	18328
349.168	3698
349.254	2066
349.340	1535
349.425	828
349.511	2592
349.597	3136
349.682	5005
349.768	14316
349.854	7502
349.939	2003
350.025	1032
350.110	1695
350.196	1205
350.282	513
350.367	1117
350.453	1064
350.538	2129
350.624	1790
350.709	2963
350.795	755
350.880	1525
350.966	2017
351.051	1834
351.137	1332
351.222	1958
351.308	4991
351.393	15761
351.479	3248
351.564	1358
351.649	2325
351.735	1357
351.820	725
351.906	1277
351.991	1600
352.076	8143
352.162	15096
352.247	3783
352.332	1964
352.418	4255
352.503	4616
352.588	22800
352.673	23755
352.759	5980
352.844	2467
352.929	3486
353.014	4412
353.100	2962
353.185	4526
353.270	7590
353.355	8395
353.441	2678
353.526	2361
353.611	6404
353.696	9172
353.781	5609
353.866	1950
353.952	3105
354.037	7054
354.122	16794
354.207	14464
354.292	5630
354.377	1832
354.462	1657
354.547	2977
354.632	3087
354.717	3076
354.802	4332
354.887	2395
354.972	1902
355.057	1141
355.142	1883
355.227	2404
355.312	4849
355.397	10136
355.482	25042
355.567	12987
355.652	8309
355.737	8049
355.822	15482
355.907	14086
355.991	3979
356.076	2308
356.161	2189
356.246	1307
356.331	1826
356.416	3106
356.501	20386
356.585	25290
356.670	5212
356.755	5661
356.840	5473
356.924	17352
357.009	59913
357.094	29943
357.179	7981
357.263	5390
357.348	6547
357.433	5711
357.517	5290
357.602	4586
357.687	3710
357.771	4472
357.856	6937
357.941	5159
358.025	13370
358.110	52857
358.195	33335
358.279	8396
358.364	5426
358.448	14999
358.533	36729
358.617	29668
358.702	24896
358.787	10933
358.871	8661
358.956	7873
359.040	3244
359.125	1372
359.209	2025
359.294	3085
359.378	5189
359.462	6906
359.547	4288
359.631	1505
359.716	1406
359.800	1938
359.885	3101
359.969	1997
360.053	2279
360.138	1131
360.222	3588
360.306	6869
360.391	5130
360.475	4789
360.559	14690
360.644	14523
360.728	11046
360.812	11882
360.896	35604
360.981	19242
361.065	12881
361.149	2990
361.233	3512
361.318	2656
361.402	3394
361.486	3831
361.570	2949
361.654	3315
361.739	7527
361.823	23656
361.907	37476
361.991	7515
362.075	6034
362.159	13615
362.243	11888
362.327	10864
362.411	17612
362.495	7834
362.580	4088
362.664	1945
362.748	2410
362.832	3821
362.916	6466
363.000	21157
363.084	50721
363.168	50130
363.252	15587
363.336	5952
363.420	7642
363.503	11888
363.587	12759
363.671	4732
363.755	3664
363.839	8013
363.923	3229
364.007	6894
364.091	7714
364.175	4497
364.258	20068
364.342	25165
364.426	53453
364.510	31212
364.594	12063
364.677	8874
364.761	27460
364.845	24646
364.929	12493
365.013	11561
365.096	8721
365.180	10572
365.264	4577
365.347	16354
365.431	7448
365.515	2685
365.598	3279
365.682	3409
365.766	2648
365.849	3433
365.933	3124
366.017	3623
366.100	1629
366.184	808
366.267	2461
366.351	2071
366.435	2213
366.518	1160
366.602	3045
366.685	1842
366.769	2886
366.852	3258
366.936	7242
367.019	5974
367.103	2461
367.186	4188
367.270	1867
367.353	625
367.436	2638
367.520	1752
367.603	3284
367.687	4105
367.770	8526
367.853	5228
367.937	8677
368.020	14703
368.104	6051
368.187	6149
368.270	10116
368.353	7458
368.437	6863
368.520	5970
368.603	8453
368.687	10932
368.770	23143
368.853	6727
368.936	7946
369.020	5785
369.103	3278
369.186	1571
369.269	1823
369.352	6168
369.436	8198
369.519	5240
369.602	1565
369.685	3831
369.768	3815
369.851	2284
369.934	2258
370.018	2639
370.101	7926
370.184	6968
370.267	2971
370.350	4681
370.433	7526
370.516	14414
370.599	22560
370.682	8823
370.765	19353
370.848	19295
370.931	24944
371.014	11336
371.097	3421
371.180	3643
371.263	2570
371.346	864
371.429	3120
371.511	1912
371.594	5152
371.677	7364
371.760	5884
371.843	6793
371.926	20399
372.009	47107
372.091	23059
372.174	12636
372.257	22833
372.340	10416
372.423	9212
372.505	9056
372.588	4780
372.671	10256
372.754	27114
372.836	15572
372.919	6119
373.002	11026
373.085	7417
373.167	7704
373.250	14302
373.332	23625
373.415	30137
373.498	61917
373.580	30581
373.663	29832
373.746	43762
373.828	14114
373.911	7115
373.993	5238
374.076	9337
374.159	8894
374.241	7421
374.324	23506
374.406	18761
374.489	16911
374.571	47103
374.654	23341
374.736	11026
374.819	27497
374.901	43478
374.983	48142
375.066	11761
375.148	4003
375.231	7460
375.313	16046
375.395	8491
375.478	3038
375.560	3354
375.643	3582
375.725	9080
375.807	34397
375.890	28908
375.972	8668
376.054	7856
376.136	5896
376.219	3762
376.301	9237
376.383	30612
376.465	15313
376.548	12700
376.630	10843
376.712	27656
376.794	15321
376.877	2891
376.959	1668
377.041	2537
377.123	3004
377.205	3669
377.287	1209
377.369	1999
377.452	2644
377.534	2029
377.616	1662
377.698	2641
377.780	1159
377.862	2524
377.944	3795
378.026	1047
378.108	2078
378.190	1393
378.272	2278
378.354	2106
378.436	1304
378.518	1770
378.600	6994
378.682	8107
378.764	15275
378.846	15121
378.928	4606
379.010	8916
379.091	4965
379.173	2384
379.255	1214
379.337	2829
379.419	7306
379.501	22970
379.583	9799
379.664	3551
379.746	7199
379.828	19251
379.910	23009
379.991	19955
380.073	3570
380.155	3709
380.237	2400
380.318	903
380.400	1595
380.482	5054
380.564	8878
380.645	8238
380.727	8046
380.809	5472
380.890	2947
380.972	1417
381.053	2311
381.135	3405
381.217	4327
381.298	19309
381.380	11197
381.461	7756
381.543	25938
381.624	37713
381.706	9191
381.787	4209
381.869	4956
381.951	11717
382.032	44784
382.113	37256
382.195	9925
382.276	6233
382.358	10442
382.439	25936
382.521	27461
382.602	44537
382.684	22594
382.765	36998
382.846	45308
382.928	77545
383.009	47073
383.090	25567
383.172	78565
383.253	129046
383.334	49722
383.416	41557
383.497	24224
383.578	12830
383.659	21588
383.741	64603
383.822	153228
383.903	94701
383.984	34593
384.066	51072
384.147	35335
384.228	9826
384.309	8547
384.390	6478
384.471	4519
384.553	5052
384.634	6268
384.715	7814
384.796	3448
384.877	4462
384.958	14273
385.039	21534
385.120	10750
385.201	5399
385.282	4687
385.363	4017
385.444	4052
385.525	5434
385.606	17451
385.687	17472
385.768	4673
385.849	5315
385.930	23285
386.011	39574
386.092	12764
386.173	4838
386.254	2130
386.335	3746
386.416	2493
386.496	9254
386.577	18839
386.658	7135
386.739	3522
386.820	3641
386.901	1787
386.981	3693
387.062	2112
387.143	5042
387.224	16898
387.304	18492
387.385	7995
387.466	2499
387.547	3670
387.627	3879
387.708	5744
387.789	26830
387.869	33952
387.950	11382
388.031	2783
388.111	-29
388.192	3558
388.273	5355
388.353	3806
388.434	3295
388.514	4731
388.595	21205
388.676	33051
388.756	19406
388.837	19328
388.917	13996
388.998	1432
389.078	3141
389.159	1840
389.239	2180
389.320	4537
389.400	2585
389.480	5130
389.561	14135
389.641	9154
389.722	3701
389.802	7262
389.883	6890
389.963	16839
390.043	10751
390.124	2374
390.204	4886
390.284	20835
390.365	13688
390.445	5631
390.525	6712
390.605	10046
390.686	9594
390.766	4217
390.846	2998
390.927	497
391.007	1139
391.087	1733
391.167	1380
391.247	87
391.328	1825
391.408	3394
391.488	2254
391.568	-498
391.648	2673
391.728	7099
391.808	5058
391.888	4581
391.969	8798
392.049	13993
392.129	6361
392.209	4822
392.289	16870
392.369	9587
392.449	4846
392.529	3906
392.609	6673
392.689	6166
392.769	16005
392.849	17184
392.929	10268
393.009	22029
393.089	20787
393.169	21531
393.248	53738
393.328	157726
393.408	180526
393.488	72790
393.568	24979
393.648	11999
393.728	8144
393.807	4650
393.887	4217
393.967	3525
394.047	4218
394.127	3971
394.206	4831
394.286	7041
394.366	35557
394.446	46127
394.525	9344
394.605	2446
394.685	3061
394.764	6149
394.844	11440
394.924	10196
395.003	4382
395.083	3830
395.163	2910
395.242	2415
395.322	3326
395.402	712
395.481	2553
395.561	3088
395.640	17341
395.720	19558
395.799	13913
395.879	8099
395.958	2767
396.038	8082
396.117	45239
396.197	58323
396.276	16276
396.356	5436
396.435	5489
396.515	6470
396.594	9835
396.673	20286
396.753	53322
396.832	148579
396.912	134329
396.991	43484
397.070	13717
397.150	6959
397.229	6033
397.308	7737
397.388	16904
397.467	8770
397.546	3084
397.625	691
397.705	4328
397.784	4754
397.863	1867
397.942	1321
398.022	1033
398.101	1528
398.180	9737
398.259	4433
398.338	2700
398.417	2226
398.497	1165
398.576	2217
398.655	1152
398.734	1555
398.813	1003
398.892	2013
398.971	9254
399.050	5747
399.129	164
399.208	1144
399.287	2160
399.366	510
399.445	793
399.524	873
399.603	-23
399.682	2750
399.761	7116
399.840	12418
399.919	9497
399.998	1493
400.077	875
400.156	66
400.235	2963
400.313	252
400.392	13
400.471	9299
400.550	19343
400.629	4636
400.708	2392
400.786	221
400.865	1246
400.944	2467
401.023	4634
401.102	453
401.180	128
401.259	26
401.338	1022
401.416	2352
401.495	1082
401.574	1498
401.652	740
401.731	2106
401.810	1336
401.888	-188
401.967	-271
402.046	102
402.124	1104
402.203	2501
402.281	1088
402.360	-272
402.438	2994
402.517	743
402.596	1089
402.674	-452
402.753	800
402.831	678
402.910	996
402.988	3441
403.066	15574
403.145	11205
403.223	5417
403.302	13965
403.380	12203
403.459	12277
403.537	4835
403.615	1841
403.694	-26
403.772	1077
403.850	317
403.929	-17
404.007	-191
404.085	2857
404.164	3270
404.242	228
404.320	2550
404.398	7387
404.477	9884
404.555	32530
404.633	34229
404.711	8884
404.789	4033
404.868	1432
404.946	471
405.024	254
405.102	1201
405.180	-257
405.258	-513
405.336	1321
405.415	182
405.493	1773
405.571	2463
405.649	-250
405.727	-291
405.805	1681
405.883	1580
405.961	1322
406.039	246
406.117	-498
406.195	2335
406.273	7157
406.351	30803
406.429	20621
406.507	2230
406.585	-328
406.663	1292
406.740	2672
406.818	2184
406.896	423
406.974	1182
407.052	1307
407.130	17084
407.208	28005
407.285	6647
407.363	137
407.441	757
407.519	1011
407.596	1161
407.674	2512
407.752	1706
407.830	2481
407.907	2140
407.985	1388
408.063	-462
408.141	-65
408.218	924
408.296	38
408.373	648
408.451	2203
408.529	1713
408.606	462
408.684	101
408.762	356
408.839	360
408.917	76
408.994	379
409.072	-46
409.149	385
409.227	1581
409.304	2983
409.382	2216
409.459	3086
409.537	4755
409.614	4091
409.692	1891
409.769	2304
409.846	4548
409.924	6281
410.001	2231
410.079	2398
410.156	2230
410.233	1186
410.311	39
410.388	579
410.465	996
410.543	283
410.620	918
410.697	1238
410.775	1585
410.852	30
410.929	1573
411.006	3414
411.083	-604
411.161	468
411.238	1307
411.315	1474
411.392	-36
411.469	880
411.547	564
411.624	-1667
411.701	-134
411.778	423
411.855	3130
411.932	1150
412.009	532
412.086	480
412.163	203
412.240	1051
412.317	634
412.394	-289
412.471	-79
412.548	-171
412.625	260
412.702	706
412.779	1405
412.856	1216
412.933	-848
413.010	243
413.087	369
413.164	8354
413.241	16227
413.318	3620
413.395	2409
413.471	2714
413.548	1324
413.625	923
413.702	-466
413.779	-595
413.855	-612
413.932	-1448
414.009	69
414.086	631
414.162	271
414.239	820
414.316	7896
414.393	23840
414.469	8455
414.546	459
414.623	333
414.699	1183
414.776	1268
414.853	333
414.929	39
415.006	248
415.082	-256
415.159	234
415.236	1189
415.312	403
415.389	2607
415.465	3528
415.542	1496
415.618	175
415.695	2103
415.771	1684
415.848	788
415.924	470
416.000	-816
416.077	202
416.153	-720
416.230	-1070
416.306	-974
416.383	-145
416.459	228
416.535	-667
416.612	-1067
416.688	-425
416.764	838
416.841	-278
416.917	72
416.993	-128
417.069	140
417.146	146
417.222	1088
417.298	903
417.374	192
417.451	1011
417.527	974
417.603	906
417.679	519
417.755	1109
417.831	-343
417.908	185
417.984	-837
418.060	-816
418.136	2689
418.212	4530
418.288	805
418.364	1492
418.440	22
418.516	1788
418.592	146
418.668	3601
418.744	8809
418.820	6309
418.896	1615
418.972	262
419.048	-35
419.124	4186
419.200	2966
419.276	463
419.352	-653
419.428	-592
419.504	26
419.579	1275
419.655	627
419.731	-90
419.807	4561
419.883	10384
419.959	7540
420.034	2094
420.110	1967
420.186	12194
420.262	11687
420.337	1500
420.413	1318
420.489	146
420.565	489
420.640	322
420.716	1253
420.792	-312
420.867	1477
420.943	239
421.019	1890
421.094	1555
421.170	1048
421.245	311
421.321	694
421.397	1239
421.472	957
421.548	1598
421.623	2957
421.699	3034
421.774	2420
421.850	2237
421.925	4232
422.001	5148
422.076	3741
422.152	5478
422.227	9248
422.302	11853
422.378	15840
422.453	28230
422.529	52536
422.604	86363
422.679	86179
422.755	92553
422.830	66734
422.905	35550
422.981	20054
423.056	12772
423.131	9301
423.207	6801
423.282	4505
423.357	8864
423.432	5855
423.508	4989
423.583	9901
423.658	9507
423.733	1843
423.808	2449
423.883	3533
423.959	3499
424.034	1937
424.109	2443
424.184	150
424.259	722
424.334	140
424.409	508
424.484	710
424.559	1604
424.634	-142
424.709	1429
424.784	2400
424.859	704
424.934	1020
425.009	10550
425.084	18789
425.159	5963
425.234	500
425.309	-339
425.384	81
425.459	473
425.534	397
425.609	-25
425.683	-427
425.758	353
425.833	478
425.908	1660
425.983	4838
426.058	19279
426.132	8305
426.207	195
426.282	681
426.357	110
426.431	151
426.506	933
426.581	-864
426.655	-321
426.730	-476
426.805	294
426.879	419
426.954	-481
427.029	1545
427.103	12822
427.178	29377
427.253	12987
427.327	877
427.402	-467
427.476	484
427.551	50
427.625	-550
427.700	-264
427.774	-894
427.849	1038
427.923	-47
427.998	-106
428.072	-451
428.147	1419
428.221	8813
428.296	29947
428.370	15802
428.444	1033
428.519	-151
428.593	1028
428.667	914
428.742	572
428.816	2061
428.890	14783
428.965	27348
429.039	7265
429.113	2278
429.188	1020
429.262	-194
429.336	1859
429.410	7943
429.485	4545
429.559	508
429.633	725
429.707	-222
429.781	1517
429.855	15498
429.930	31245
430.004	11078
430.078	8023
430.152	9485
430.226	30443
430.300	36982
430.374	5912
430.448	1254
430.522	1056
430.596	7115
430.670	6993
430.744	26048
430.818	44651
430.892	9298
430.966	1320
431.040	216
431.114	-1082
431.188	-740
431.262	-213
431.336	-898
431.410	1016
431.484	2432
431.557	3982
431.631	-128
431.705	-304
431.779	3467
431.853	22756
431.927	18074
432.000	1776
432.074	504
432.148	-719
432.222	-1114
432.295	-734
432.369	-993
432.443	175
432.516	6760
432.590	25731
432.664	10368
432.737	-153
432.811	221
432.885	-376
432.958	-643
433.032	-1275
433.106	-1286
433.179	-367
433.253	-447
433.326	-933
433.400	-652
433.473	-339
433.547	-1133
433.620	-180
433.694	1563
433.767	1734
433.841	-821
433.914	-441
433.988	-665
434.061	96
434.134	-1233
434.208	-1125
434.281	-1574
434.355	-844
434.428	-135
434.501	-1023
434.575	-1501
434.648	-719
434.721	-1657
434.795	-845
434.868	-1123
434.941	-272
435.014	-860
435.088	-431
435.161	97
435.234	153
435.307	2085
435.381	108
435.454	-306
435.527	2057
435.600	1146
435.673	1542
435.746	433
435.819	-1
435.892	-321
435.966	-592
436.039	-1351
436.112	48
436.185	-772
436.258	-527
436.331	-1321
436.404	-837
436.477	-415
436.550	-492
436.623	-1140
436.696	-865
436.769	-320
436.842	-680
436.915	-391
436.987	-332
437.060	-776
437.133	-721
437.206	-1643
437.279	-675
437.352	-1169
437.425	-1022
437.498	-1028
437.570	2022
437.643	2519
437.716	-256
437.789	-1029
437.861	-601
437.934	-1122
438.007	-696
438.080	-1269
438.152	-180
438.225	848
438.298	10447
438.370	34447
438.443	14635
438.516	585
438.588	-797
438.661	-1217
438.734	-721
438.806	-690
438.879	590
438.951	-753
439.024	-732
439.096	-1272
439.169	-384
439.241	-538
439.314	-959
439.386	-1204
439.459	-441
439.531	-799
439.604	-586
439.676	-957
439.749	-623
439.821	-865
439.893	-511
439.966	-820
440.038	-1200
440.110	-491
440.183	-983
440.255	-989
440.327	-259
440.400	4166
440.472	21194
440.544	15901
440.617	835
440.689	247
440.761	440
440.833	653
440.905	218
440.978	-989
441.050	-1332
441.122	-133
441.194	-1271
441.266	-1385
441.338	-1119
441.411	484
441.483	8141
441.555	14948
441.627	2152
441.699	-727
441.771	-338
441.843	-1088
441.915	-1149
441.987	-606
442.059	-1300
442.131	-935
442.203	148
442.275	376
442.347	158
442.419	851
442.491	12738
442.563	38332
442.635	16782
442.706	3858
442.778	4433
442.850	-48
442.922	-877
442.994	-200
443.066	1105
443.137	538
443.209	643
443.281	881
443.353	2839
443.425	14315
443.496	56121
443.568	63945
443.640	26051
443.711	3379
443.783	479
443.855	-221
443.926	-392
443.998	-176
444.070	611
444.141	-7
444.213	776
444.285	1197
444.356	408
444.428	-23
444.499	-952
444.571	-1418
444.642	-634
444.714	-826
444.785	1612
444.857	349
444.928	430
445.000	117
445.071	663
445.143	523
445.214	1165
445.285	1993
445.357	7693
445.428	30937
445.500	74656
445.571	54378
445.642	35219
445.714	9832
445.785	3987
445.856	497
445.928	2778
445.999	-112
446.070	-146
446.141	975
446.213	1678
446.284	-61
446.355	-973
446.426	-882
446.497	-371
446.569	-396
446.640	271
446.711	1584
446.782	-383
446.853	-623
446.924	-3
446.995	-407
447.066	-1040
447.138	-808
447.209	-357
447.280	-1081
447.351	-1026
447.422	-991
447.493	-111
447.564	-450
447.635	744
447.706	-678
447.777	-503
447.847	-1508
447.918	-1711
447.989	-443
448.060	95
448.131	-78
448.202	1012
448.273	1298
448.344	-436
448.414	-755
448.485	-1018
448.556	-921
448.627	-1206
448.698	-562
448.768	-1163
448.839	-1190
448.910	-709
448.981	-117
449.051	-123
449.122	-131
449.193	-1064
449.263	-872
449.334	-1054
449.405	-581
449.475	2338
449.546	417
449.616	-142
449.687	-570
449.758	-1604
449.828	-908
449.899	-1317
449.969	-1036
450.040	-983
450.110	-1018
450.181	-808
450.251	-1227
450.322	-461
450.392	-1087
450.463	-916
450.533	-1795
450.604	-826
450.674	-1561
450.744	-816
450.815	-1864
450.885	-708
450.955	-732
451.026	-869
451.096	-812
451.166	-886
451.237	-869
451.307	-64
451.377	-951
451.447	-910
451.518	-1365
451.588	-1572
451.658	-1114
451.728	-415
451.799	-205
451.869	386
451.939	-1196
452.009	-1058
452.079	-1195
452.149	-1362
452.219	-1250
452.289	722
452.360	465
452.430	-638
452.500	87
452.570	554
452.640	749
452.710	4679
452.780	4497
452.850	4605
452.920	4394
452.990	992
453.060	16
453.129	494
453.199	-165
453.269	1375
453.339	2929
453.409	4509
453.479	4330
453.549	6752
453.619	6552
453.688	1121
453.758	-307
453.828	-466
453.898	-1268
453.968	-693
454.037	-1080
454.087	-1123
454.107	-1150
454.168	-1363
454.177	-1408
454.247	-857
454.249	-873
454.316	-1577
454.330	-1352
454.386	-492
454.411	-657
454.456	-1031
454.492	-557
454.525	-131
454.574	-283
454.595	-355
454.655	-544
454.665	-586
454.734	-881
454.736	-858
454.804	-377
454.817	-242
454.873	170
454.898	447
454.943	984
454.979	439
455.013	-119
455.060	-17
455.082	73
455.141	-297
455.152	-395
455.221	38
455.222	61
455.291	742
455.303	564
455.360	-370
455.384	-321
455.430	-169
455.465	-77
455.499	-46
455.546	520
455.569	773
455.627	660
455.638	596
455.707	-436
455.708	-429
455.777	-568
455.789	-612
455.846	-718
455.869	-486
455.916	-184
455.950	-239
455.985	-276
456.031	-133
456.054	-74
456.112	-285
456.124	-368
456.193	-814
456.193	-825
456.262	-250
456.274	-175
456.332	131
456.355	-152
456.401	-774
456.436	-206
456.470	257
456.516	-25
456.540	-92
456.597	-227
456.609	-260
456.678	-272
456.678	-284
456.747	-270
456.759	-340
456.817	-653
456.840	-454
456.886	27
456.920	-105
456.955	-267
457.001	-78
457.024	-19
457.082	298
457.093	334
457.162	24
457.163	34
457.232	-24
457.243	-24
457.301	-27
457.324	-213
457.370	-557
457.405	-191
457.439	132
457.485	19
457.508	91
457.566	1030
457.577	1138
457.646	488
457.647	508
457.715	3446
457.727	3769
457.784	6542
457.808	8834
457.853	11023
457.889	13067
457.922	12467
457.969	7291
457.991	7551
458.050	9852
458.060	10369
458.129	19330
458.130	19617
458.198	18761
458.211	16672
458.267	7709
458.292	4612
458.336	2823
458.372	2407
458.405	4136
458.453	7871
458.474	10819
458.533	20323
458.543	21014
458.611	32632
458.614	32860
458.680	17988
458.694	13350
458.749	4847
458.775	3113
458.818	1934
458.855	1634
458.887	1343
458.936	847
458.955	767
459.016	889
459.024	890
459.093	1327
459.097	1292
459.162	897
459.177	1074
459.230	1318
459.257	1287
459.299	1363
459.338	1483
459.368	1245
459.418	620
459.437	632
459.499	840
459.505	819
459.574	610
459.579	661
459.643	1103
459.659	883
459.711	877
459.740	1167
459.780	1017
459.820	1017
459.849	994
459.900	837
459.917	970
459.981	1236
459.986	1187
460.054	1183
460.061	1132
460.123	1363
460.141	1551
460.191	2122
460.222	2257
460.260	2371
460.302	2959
460.328	2881
460.382	2204
460.397	2185
460.462	1955
460.465	1923
460.534	1423
460.543	1388
460.602	3082
460.623	3819
460.671	6043
460.703	7831
460.739	7146
460.783	5613
460.808	4666
460.864	2072
460.876	1961
460.944	1192
460.945	1178
461.013	1270
461.024	1183
461.081	1482
461.104	1880
461.150	1984
461.184	1782
461.218	1652
461.264	1609
461.286	1534
461.345	1220
461.355	1233
461.423	1577
461.425	1563
461.491	1187
461.505	1333
461.559	1738
461.585	1761
461.628	2005
461.665	2467
461.696	2850
461.745	3008
461.764	2703
461.825	2083
461.832	2072
461.901	1300
461.905	1306
461.969	1272
461.985	1195
462.037	1900
462.065	2239
462.105	1769
462.145	1408
462.173	1736
462.225	2401
462.241	2417
462.305	2089
462.310	2087
462.378	2374
462.385	2351
462.446	1914
462.465	1933
462.514	2060
462.545	1982
462.582	1826
462.625	1777
462.650	1704
462.705	1595
462.718	1653
462.785	2009
462.786	2013
462.854	1939
462.865	1944
462.922	2484
462.945	2704
462.990	2421
463.025	2076
463.058	2181
463.104	2449
463.126	2232
463.184	1634
463.194	1695
463.262	2018
463.264	2039
463.330	2480
463.344	2503
463.398	2651
463.424	2638
463.466	2153
463.504	2019
463.533	2306
463.583	2537
463.601	2493
463.663	2135
463.669	2105
463.737	2094
463.743	2093
463.805	3026
463.823	3256
463.873	3400
463.903	3521
463.940	3480
463.982	3409
464.008	3108
464.062	2304
464.076	2296
464.142	2305
464.144	2282
464.211	1332
464.221	1182
464.279	2128
464.301	2537
464.347	2681
464.381	2750
464.414	2436
464.461	2013
464.482	2256
464.540	2932
464.550	2920
464.617	2541
464.620	2535
464.685	2954
464.699	2985
464.753	2976
464.779	2980
464.820	3047
464.859	3149
464.888	3120
464.938	3012
464.956	3087
465.018	3353
465.023	3382
465.091	3624
465.098	3646
465.158	3190
465.177	3057
465.226	3197
465.257	3249
465.293	3026
465.336	2633
465.361	3071
465.416	4329
465.428	4317
465.495	4188
465.496	4194
465.563	3910
465.575	3891
465.631	4700
465.654	5072
465.698	3890
465.734	2828
465.765	2916
465.813	2926
465.833	2859
465.893	2824
465.900	2802
465.968	2541
465.972	2513
466.035	2618
466.052	2645
466.102	2539
466.131	2451
466.170	2283
466.210	2133
466.237	2406
466.290	2940
466.304	3032
466.369	3337
466.372	3321
466.439	2710
466.449	2600
466.506	2757
466.528	2848
466.573	3965
466.607	4722
466.641	5172
466.687	5886
466.708	6413
466.766	7767
466.775	7425
466.842	4768
466.845	4630
466.909	3865
466.925	3697
466.977	3640
467.004	3588
467.044	3600
467.083	3598
467.111	3517
467.163	3357
467.178	3469
467.242	3895
467.245	3922
467.312	4339
467.321	4388
467.379	4131
467.400	4024
467.446	4340
467.480	4558
467.559	3656
467.638	4329
467.717	3829
467.796	4418
467.875	5704
467.955	4549
468.034	4679
468.113	6594
468.192	8650
468.271	5126
468.350	6177
468.429	9282
468.508	8799
468.588	6444
468.667	5157
468.746	4231
468.825	3182
468.904	3985
468.983	3899
469.062	5219
469.141	4638
469.220	3880
469.299	3908
469.378	3245
469.456	4287
469.535	4046
469.614	3373
469.693	3346
469.772	4201
469.851	4650
469.930	4421
470.009	5037
470.088	4249
470.166	5054
470.245	8065
470.324	9371
470.403	6473
470.482	5420
470.560	4684
470.639	4606
470.718	4856
470.797	4655
470.875	4079
470.954	4473
471.033	4535
471.111	3619
471.190	3801
471.269	3392
471.347	2770
471.426	3607
471.505	3239
471.583	4391
471.662	3491
471.740	2824
471.819	3517
471.898	3365
471.976	3006
472.055	3704
472.133	3209
472.212	5011
472.290	3719
472.369	4031
472.447	3472
472.526	3363
472.604	3537
472.683	4899
472.761	4726
472.839	3176
472.918	3614
472.996	3181
473.075	4089
473.153	3654
473.231	3161
473.310	4839
473.388	4840
473.466	4367
473.545	3936
473.623	5952
473.701	6920
473.780	5117
473.858	3786
473.936	5703
474.014	4329
474.093	4572
474.171	4121
474.249	4024
474.327	4302
474.405	4059
474.484	4513
474.562	3641
474.640	3569
474.718	3827
474.796	3671
474.874	3454
474.952	3214
475.030	3310
475.108	2982
475.187	3818
475.265	4433
475.343	6318
475.421	6645
475.499	3593
475.577	3826
475.655	4783
475.733	4624
475.811	5146
475.889	5246
475.966	5263
476.044	3614
476.122	5436
476.200	5907
476.278	4661
476.356	3752
476.434	4358
476.512	4092
476.590	4831
476.667	5435
476.745	3415
476.823	4382
476.901	3954
476.979	3797
477.056	4398
477.134	3867
477.212	4342
477.290	3510
477.367	4050
477.445	3503
477.523	3468
477.601	3205
477.678	3439
477.756	3370
477.834	3354
477.911	2690
477.989	3183
478.066	2838
478.144	4139
478.222	4681
478.299	7539
478.377	6793
478.454	3133
478.532	3859
478.609	3371
478.687	4352
478.764	4022
478.842	4119
478.919	4287
478.997	4514
479.074	3755
479.152	3695
479.229	3972
479.307	2483
479.384	4402
479.461	3384
479.539	3571
479.616	3263
479.694	3119
479.771	3848
479.848	3677
479.926	2392
480.003	4909
480.080	3250
480.157	3790
480.235	3726
480.312	3528
480.389	2675
480.467	3801
480.544	4522
480.621	3461
480.698	3514
480.775	3794
480.853	3910
480.930	4438
481.007	3252
481.084	3631
481.161	3782
481.238	3890
481.315	2733
481.392	3513
481.470	3401
481.547	3840
481.624	2949
481.701	2453
481.778	3471
481.855	4142
481.932	3157
482.009	4566
482.086	5163
482.163	4651
482.240	5822
482.317	9446
482.393	7483
482.470	3832
482.547	4421
482.624	4052
482.701	3406
482.778	3567
482.855	2796
482.932	4312
483.009	3184
483.085	4149
483.162	3203
483.239	4565
483.316	4466
483.393	4810
483.469	3651
483.546	4509
483.623	3928
483.699	4129
483.776	3965
483.853	3540
483.930	3478
484.006	6095
484.083	8178
484.160	5824
484.236	7935
484.313	6717
484.389	5972
484.466	6422
484.543	5302
484.619	6624
484.696	7349
484.772	5995
484.849	6125
484.925	5033
485.002	5009
485.078	4657
485.155	4764
485.231	4291
485.308	4414
485.384	4386
485.461	4686
485.537	6406
485.614	7553
485.690	5354
485.766	4766
485.843	5396
485.919	9502
485.995	10135
486.072	4938
486.148	3747
486.224	4083
486.301	4006
486.377	4669
486.453	4221
486.530	3997
486.606	5312
486.682	5452
486.758	5814
486.835	6207
486.911	5770
486.987	9733
487.063	16668
487.139	26643
487.215	19696
487.292	8713
487.368	6770
487.444	6994
487.520	10205
487.596	11740
487.672	24943
487.748	79966
487.824	128029
487.900	38422
487.976	10452
488.052	6404
488.128	7416
488.204	5721
488.280	5921
488.356	5387
488.432	7083
488.508	8039
488.584	6324
488.660	5583
488.736	5313
488.812	5765
488.888	8195
488.964	10547
489.039	25529
489.115	42090
489.191	26070
489.267	5764
489.343	5569
489.418	4359
489.494	3497
489.570	2581
489.646	4994
489.722	3697
489.797	4906
489.873	4555
489.949	6433
490.024	6527
490.100	4878
490.176	4622
490.251	6035
490.327	9166
490.403	5794
490.478	4119
490.554	4994
490.629	4534
490.705	4724
490.781	4075
490.856	4491
490.932	5161
491.007	5653
491.083	4293
491.158	3919
491.234	4270
491.309	6233
491.385	5492
491.460	4343
491.536	4713
491.611	4710
491.686	5311
491.762	8133
491.837	17271
491.913	28962
491.988	37030
492.063	53090
492.139	11150
492.214	5720
492.289	4326
492.365	4407
492.440	5005
492.515	4911
492.590	4217
492.666	4238
492.741	5302
492.816	4414
492.891	4051
492.967	4158
493.042	4075
493.117	4055
493.192	4796
493.267	5038
493.342	6988
493.418	7566
493.493	5039
493.568	4469
493.643	3771
493.718	4899
493.793	5582
493.868	8070
493.943	7906
494.018	5577
494.093	4121
494.168	4679
494.243	3874
494.318	4393
494.393	4091
494.468	4465
494.543	5005
494.618	5294
494.693	4709
494.768	4546
494.842	4798
494.917	4465
494.992	4343
495.067	4194
495.142	3921
495.217	4013
495.292	5157
495.366	6392
495.441	6033
495.516	7617
495.591	10751
495.665	35189
495.740	90283
495.815	41959
495.890	5909
495.964	4466
496.039	6474
496.114	5117
496.188	4884
496.263	4935
496.338	4542
496.412	4833
496.487	5308
496.561	6782
496.636	6717
496.710	5668
496.785	5582
496.860	5068
496.934	4475
497.009	5595
497.083	4902
497.158	4710
497.232	6201
497.307	5232
497.381	5756
497.455	6194
497.530	5636
497.604	5663
497.679	5191
497.753	5518
497.827	5248
497.902	6203
497.976	6457
498.050	10321
498.125	30797
498.199	36616
498.273	12100
498.348	9510
498.422	8466
498.496	8269
498.570	9689
498.645	6163
498.719	3848
498.793	4639
498.867	6194
498.941	6642
499.016	11990
499.090	33227
499.164	18082
499.238	5941
499.312	5301
499.386	7898
499.460	7477
499.534	6402
499.609	7305
499.683	6397
499.757	4806
499.831	7283
499.905	20671
499.979	23829
500.053	6552
500.127	7991
500.201	9503
500.275	6215
500.349	5379
500.422	6572
500.496	9355
500.570	19076
500.644	24199
500.718	27509
500.792	9638
500.866	4457
500.940	4146
501.013	4150
501.087	4242
501.161	11383
501.235	10473
501.309	9948
501.382	17588
501.456	20846
501.530	7578
501.603	7233
501.677	4143
501.751	2160
501.825	4984
501.898	5775
501.972	7586
502.046	7307
502.119	3452
502.193	6511
502.266	9859
502.340	6274
502.413	4738
502.487	8100
502.561	5601
502.634	4460
502.708	4355
502.781	4291
502.855	3523
502.928	2924
503.002	2623
503.075	2283
503.149	3086
503.222	3211
503.295	2415
503.369	3762
503.442	2747
503.516	5930
503.589	14112
503.662	11891
503.736	6231
503.809	9741
503.882	10018
503.956	14312
504.029	21921
504.102	49753
504.175	76435
504.249	25762
504.322	8445
504.395	5794
504.468	4171
504.542	3827
504.615	3034
504.688	3816
504.761	2898
504.834	4108
504.907	5748
504.980	10210
505.053	5214
505.127	5743
505.200	8792
505.273	3602
505.346	3037
505.419	2759
505.492	3721
505.565	2715
505.638	2822
505.711	2145
505.784	2523
505.857	2363
505.930	2956
506.003	1607
506.076	4861
506.149	3256
506.221	2528
506.294	4737
506.367	3735
506.440	10336
506.513	10240
506.586	4126
506.659	2670
506.731	3885
506.804	4516
506.877	6040
506.950	3804
507.022	2679
507.095	2021
507.168	3338
507.241	3625
507.313	2608
507.386	3714
507.459	5563
507.531	4373
507.604	3554
507.677	3460
507.749	2088
507.822	3529
507.894	6412
507.967	7167
508.040	3462
508.112	3327
508.185	3923
508.257	3606
508.330	7643
508.402	3718
508.475	2274
508.547	3091
508.620	2895
508.692	3533
508.765	3734
508.837	2122
508.909	3117
508.982	2418
509.054	4482
509.127	2701
509.199	2994
509.271	1563
509.344	3143
509.416	1427
509.488	2738
509.560	3257
509.633	3363
509.705	4767
509.777	3932
509.849	6052
509.922	2860
509.994	3279
510.066	3434
510.138	920
510.210	5099
510.283	2715
510.355	3397
510.427	3687
510.499	3538
510.571	3534
510.643	3170
510.715	7778
510.787	6852
510.859	5059
510.931	4108
511.003	7753
511.076	8941
511.148	2468
511.219	2516
511.291	4033
511.363	3421
511.435	3647
511.507	2173
511.579	3221
511.651	4160
511.723	2340
511.795	3712
511.867	3265
511.939	2971
512.010	3222
512.082	4269
512.154	1907
512.226	4215
512.298	4772
512.369	7014
512.441	4701
512.513	6058
512.585	4091
512.656	5016
512.728	4930
512.800	2985
512.871	3412
512.943	3721
513.015	2797
513.086	3220
513.158	4580
513.230	2997
513.301	5945
513.373	9179
513.444	4681
513.516	2801
513.588	2652
513.659	4722
513.731	5424
513.802	4599
513.874	10393
513.945	20809
514.016	6952
514.088	3774
514.159	3613
514.231	6239
514.302	6800
514.374	4874
514.445	2394
514.516	6633
514.588	3786
514.659	4026
514.730	3795
514.802	6156
514.873	2629
514.944	5027
515.016	4014
515.087	5916
515.158	5251
515.229	5957
515.301	3257
515.372	4787
515.443	2909
515.514	2939
515.585	2341
515.656	4107
515.728	3732
515.799	2633
515.870	4348
515.941	4875
516.012	2579
516.083	5755
516.154	4652
516.225	8364
516.296	8480
516.367	7378
516.438	7789
516.509	10624
516.580	15570
516.651	42895
516.722	157638
516.793	81893
516.864	15101
516.935	13462
517.006	14152
517.077	18650
517.148	45182
517.219	136266
517.289	224125
517.360	42686
517.431	13661
517.502	6979
517.573	6456
517.643	5489
517.714	5217
517.785	6625
517.856	6923
517.926	9338
517.997	10193
518.068	12248
518.138	18332
518.209	25948
518.280	82342
518.350	294189
518.421	137414
518.492	21112
518.562	12525
518.633	13325
518.703	14412
518.774	30514
518.845	80023
518.915	81550
518.986	21613
519.056	11612
519.127	16550
519.197	20072
519.268	22768
519.338	13541
519.408	6758
519.479	12473
519.549	8350
519.620	6603
519.690	4754
519.760	4993
519.831	4944
519.901	5363
519.971	4524
520.042	4042
520.112	3978
520.182	6647
520.253	7456
520.323	4207
520.393	3546
520.463	7948
520.534	1559
520.604	7623
520.674	5034
520.744	3539
520.814	6456
520.885	9033
520.955	5894
521.025	13699
521.095	7825
521.165	4573
521.235	3229
521.305	3129
521.375	4215
521.445	4725
521.515	6149
521.585	8546
521.655	6861
521.725	6713
521.795	5632
521.865	2121
521.935	5093
522.005	3392
522.075	3150
522.145	4711
522.215	2618
522.285	4722
522.355	4955
522.424	6657
522.494	5911
522.564	7523
522.634	14620
522.704	49575
522.774	22380
522.843	5594
522.913	4282
522.983	6300
523.053	5290
523.122	5229
523.192	6840
523.262	23638
523.331	27606
523.401	5992
523.471	3516
523.540	4500
523.610	2921
523.680	4512
523.749	3134
523.819	4116
523.888	2750
523.958	2839
524.027	4053
524.097	4098
524.166	4451
524.236	3354
524.305	5855
524.375	3002
524.444	2797
524.514	5136
524.583	3596
524.653	3537
524.722	4570
524.791	3472
524.861	4649
524.930	3160
524.999	4400
525.069	6586
525.138	4433
525.207	3774
525.277	4286
525.346	5135
525.415	4624
525.484	5677
525.554	4081
525.623	5938
525.692	6026
525.761	6593
525.830	7663
525.900	10585
525.969	15137
526.038	27353
526.107	49776
526.176	151438
526.245	124232
526.314	38248
526.383	74850
526.452	104182
526.522	141414
526.591	148013
526.660	38987
526.729	21212
526.797	22828
526.867	36368
526.935	135266
527.004	268533
527.073	162080
527.142	20472
527.211	8757
527.280	8974
527.349	8571
527.418	4753
527.487	5672
527.555	3496
527.624	4565
527.693	3029
527.762	5139
527.831	3936
527.899	4612
527.968	4988
528.037	2616
528.106	5809
528.174	8719
528.243	6776
528.312	8015
528.380	11833
528.449	4404
528.518	5507
528.586	3100
528.655	4774
528.723	4336
528.792	3814
528.861	3559
528.929	3216
528.998	5842
529.066	6553
529.135	9422
529.203	9353
529.272	10507
529.340	15693
529.409	13817
529.477	11229
529.545	11780
529.614	13893
529.682	13861
529.751	16936
529.819	18686
529.887	19840
529.956	17102
530.024	17244
530.092	16161
530.161	17058
530.229	19999
530.297	17904
530.365	18367
530.434	18930
530.502	18328
530.570	16644
530.638	14108
530.707	16265
530.775	15842
530.843	13141
530.911	16080
530.979	15684
531.047	18025
531.115	18698
531.183	14610
531.252	14802
531.320	13705
531.388	14299
531.456	17656
531.524	16150
531.592	18315
531.660	22096
531.728	17801
531.796	17193
531.864	17409
531.932	17263
532.000	17546
532.067	19381
532.135	20356
532.203	22465
532.271	22480
532.339	25277
532.407	36319
532.475	30970
532.542	21898
532.610	22466
532.678	24570
532.746	48173
532.814	105787
532.881	47259
532.949	22386
533.017	20181
533.084	18522
533.152	18454
533.220	18627
533.287	19230
533.355	18809
533.423	19212
533.490	19375
533.558	18548
533.625	18155
533.693	17121
533.761	17435
533.828	17071
533.896	16856
533.963	21482
534.031	24119
534.098	29925
534.166	21358
534.233	17079
534.300	17377
534.368	17025
534.435	15915
534.503	16092
534.570	16655
534.637	18498
534.705	19618
534.772	21334
534.840	24527
534.907	69361
534.974	93859
535.041	21527
535.109	15067
535.176	13670
535.243	14481
535.310	14462
535.378	13689
535.445	14491
535.512	13714
535.579	13169
535.646	11820
535.714	12814
535.781	12522
535.848	13453
535.915	13166
535.982	12655
536.049	12596
536.116	14053
536.183	11488
536.250	11051
536.317	10763
536.384	12193
536.451	13815
536.518	14680
536.585	11178
536.652	14901
536.719	17010
536.786	14669
536.853	12037
536.920	14648
536.987	19106
537.053	18812
537.120	51931
537.187	54260
537.254	12303
537.321	11339
537.388	12292
537.454	9517
537.521	9151
537.588	9677
537.654	11301
537.721	10477
537.788	10834
537.855	9747
537.921	10252
537.988	9921
538.055	9961
538.121	8910
538.188	10382
538.254	12041
538.321	17214
538.388	15078
538.454	9827
538.521	10321
538.587	10593
538.654	9826
538.720	9883
538.787	9870
538.853	10498
538.920	10378
538.986	8444
539.053	9147
539.119	9984
539.185	9356
539.252	11475
539.318	13958
539.385	13215
539.451	9867
539.517	11780
539.583	12006
539.650	17627
539.716	45570
539.782	18338
539.849	9018
539.915	9702
539.981	9367
540.047	10959
540.114	9963
540.180	11006
540.246	9863
540.312	12208
540.378	15971
540.444	19886
540.510	18865
540.576	49666
540.643	23612
540.709	8008
540.775	8904
540.841	8273
540.907	9560
540.973	9908
541.039	10421
541.105	12984
541.171	9514
541.237	8764
541.303	10003
541.369	11298
541.435	11307
541.500	15737
541.566	12121
541.632	8553
541.698	9252
541.764	9271
541.830	7801
541.896	7471
541.961	9001
542.027	7941
542.093	9464
542.159	9655
542.224	8256
542.290	10417
542.356	13218
542.421	18302
542.487	11820
542.553	8210
542.618	9172
542.684	8961
542.750	9385
542.815	10590
542.881	13873
542.947	40014
543.012	38611
543.078	9264
543.143	8553
543.209	9500
543.274	9548
543.340	10443
543.405	18112
543.471	31572
543.536	11993
543.602	8368
543.667	8107
543.732	9243
543.798	7785
543.863	7934
543.928	8319
543.994	7060
544.059	8648
544.124	8939
544.190	8849
544.255	9926
544.320	9846
544.386	8753
544.451	11237
544.516	11711
544.581	12649
544.646	25977
544.712	47630
544.777	13684
544.842	10666
544.907	9108
544.972	9264
545.037	9458
545.102	10397
545.168	10376
545.233	11195
545.298	11787
545.363	10972
545.428	12483
545.493	18472
545.558	37550
545.623	20333
545.688	10918
545.753	11157
545.818	10546
545.883	11921
545.947	9887
546.012	12372
546.077	12106
546.142	13353
546.207	13033
546.272	15087
546.337	14686
546.401	14648
546.466	14364
546.531	13063
546.596	15054
546.661	16899
546.725	17114
546.790	17274
546.855	19174
546.919	19345
546.984	22278
547.049	23394
547.113	25762
547.178	28005
547.243	31517
547.307	37421
547.372	40162
547.436	40384
547.501	42045
547.565	45008
547.630	43323
547.695	42211
547.759	39595
547.823	40401
547.888	41187
547.952	42655
548.017	43036
548.081	45371
548.146	44431
548.210	45794
548.274	48205
548.339	48407
548.403	44606
548.468	41714
548.532	41255
548.596	43075
548.660	43339
548.725	48209
548.789	50929
548.853	50147
548.917	47054
548.982	46876
549.046	42857
549.110	39144
549.174	39419
549.238	45030
549.303	49822
549.367	51446
549.431	49025
549.495	46738
549.559	46514
549.623	53586
549.687	59096
549.751	61140
549.815	67044
549.879	68465
549.943	64418
550.007	68597
550.071	68013
550.135	65394
550.199	60982
550.263	60798
550.327	57067
550.391	57603
550.455	62496
550.519	66374
550.582	70007
550.646	81753
550.710	84236
550.774	78765
550.838	79431
550.901	80350
550.965	86226
551.029	87623
551.093	93346
551.156	96556
551.220	102238
551.284	112473
551.347	97412
551.411	88833
551.475	85780
551.538	88214
551.602	83597
551.666	81417
551.729	75441
551.793	75307
551.856	75448
551.920	74761
551.983	74858
552.047	75033
552.110	73890
552.174	74446
552.237	76704
552.301	72950
552.364	69747
552.428	67690
552.491	70564
552.554	72090
552.618	71087
552.681	74025
552.745	70886
552.808	75957
552.871	82359
552.934	76346
552.998	73658
553.061	70731
553.124	70227
553.187	68988
553.251	72007
553.314	71338
553.377	72191
553.440	75667
553.503	79403
553.567	82130
553.630	79769
553.693	79358
553.756	80277
553.819	81330
553.882	78266
553.945	79765
554.008	80053
554.071	82123
554.134	80664
554.197	79066
554.260	78340
554.323	78982
554.386	78749
554.449	80998
554.512	82579
554.575	77246
554.638	76268
554.701	76649
554.764	76947
554.827	74210
554.889	73603
554.952	69447
555.015	67594
555.078	68505
555.141	69867
555.203	66921
555.266	67012
555.329	67948
555.391	65379
555.454	64953
555.517	61631
555.580	58563
555.642	57611
555.705	57402
555.768	56217
555.830	54918
555.893	52389
555.955	50667
556.018	48948
556.080	49914
556.143	50463
556.206	49836
556.268	48800
556.330	48188
556.393	46972
556.455	45114
556.518	45076
556.580	44943
556.643	41979
556.705	41429
556.767	39908
556.830	39807
556.892	41135
556.955	42046
557.017	40420
557.079	37993
557.142	36422
557.204	36487
557.266	41639
557.328	38540
557.391	30472
557.453	30617
557.515	30250
557.577	31348
557.639	30934
557.701	29887
557.764	28640
557.826	27948
557.888	29280
557.950	29103
558.012	30951
558.074	33725
558.136	52443
558.198	113246
558.260	54486
558.322	29142
558.384	29007
558.446	31044
558.508	31490
558.570	35613
558.632	42574
558.694	55430
558.756	61303
558.818	127270
558.880	289818
558.942	129588
559.003	114229
559.065	68173
559.127	32008
559.189	31286
559.251	32615
559.312	40371
559.374	71543
559.436	211011
559.498	128236
559.559	33773
559.621	30145
559.683	32391
559.744	44279
559.806	108102
559.868	176160
559.929	48770
559.991	31800
560.052	40522
560.114	100566
560.176	75008
560.237	58540
560.299	100249
560.360	31029
560.422	17431
560.483	15962
560.545	14979
560.606	15520
560.667	14253
560.729	13149
560.790	13154
560.852	13693
560.913	13414
560.974	13036
561.036	13341
561.097	14092
561.158	13961
561.220	13275
561.281	12677
561.342	13900
561.403	15444
561.465	15728
561.526	23766
561.587	32404
561.648	14545
561.709	12773
561.771	12479
561.832	12673
561.893	11806
561.954	12281
562.015	12277
562.076	11562
562.137	12542
562.198	11818
562.259	13073
562.320	11704
562.381	12366
562.442	13888
562.503	14105
562.564	11854
562.625	11409
562.686	10951
562.747	11223
562.808	10763
562.869	11744
562.930	11618
562.991	10599
563.051	11769
563.112	10609
563.173	10362
563.234	9815
563.294	10620
563.355	10986
563.416	11252
563.477	10745
563.537	10251
563.598	10345
563.659	10132
563.720	10596
563.780	9755
563.841	11197
563.901	10352
563.962	10413
564.023	9596
564.083	10031
564.144	11106
564.204	10103
564.265	10045
564.325	9904
564.386	10429
564.446	10909
564.507	9869
564.567	10252
564.628	9415
564.688	10016
564.749	10825
564.809	10481
564.869	11305
564.930	10613
564.990	10325
565.050	9413
565.111	10496
565.171	10275
565.231	10424
565.292	11686
565.352	9967
565.412	10723
565.472	11079
565.532	10551
565.593	10684
565.653	9340
565.713	10816
565.773	10686
565.833	11065
565.893	13769
565.953	10804
566.013	10957
566.074	10217
566.134	10982
566.194	10363
566.254	12206
566.314	11228
566.374	10366
566.434	9249
566.494	10082
566.554	9983
566.614	10374
566.673	10434
566.733	10249
566.793	10083
566.853	10662
566.913	10241
566.973	10769
567.033	10395
567.092	10674
567.152	9899
567.212	9873
567.272	10394
567.331	10430
567.391	9040
567.451	10104
567.511	11532
567.570	10431
567.630	10598
567.690	10301
567.749	9793
567.809	10522
567.868	10619
567.928	10565
567.988	9224
568.047	9306
568.107	9769
568.166	10550
568.226	9804
568.285	9994
568.345	10193
568.404	10351
568.464	9538
568.523	9014
568.582	9298
568.642	9753
568.701	9719
568.761	10552
568.820	8760
568.879	9701
568.939	9648
568.998	9707
569.057	9878
569.116	10040
569.176	9516
569.235	9330
569.294	10110
569.353	9235
569.413	8660
569.472	9718
569.531	9396
569.590	9519
569.649	9197
569.708	9107
569.767	9806
569.827	10323
569.886	9315
569.945	9739
570.004	9475
570.063	9168
570.122	10141
570.181	11058
570.240	10444
570.299	10997
570.358	9945
570.417	9434
570.475	10521
570.534	11168
570.593	9464
570.652	10115
570.711	10712
570.770	9786
570.829	10517
570.887	9711
570.946	10925
571.005	10393
571.064	10451
571.122	11754
571.181	9600
571.240	9805
571.299	9902
571.357	9855
571.416	9436
571.475	9987
571.533	10458
571.592	9680
571.650	9433
571.709	9882
571.768	10442
571.826	11525
571.885	9774
571.943	10320
572.002	10074
572.060	9352
572.119	9402
572.177	9729
572.236	9869
572.294	10480
572.352	9922
572.411	10253
572.469	9361
572.528	9584
572.586	10052
572.644	10091
572.703	8661
572.761	8445
572.819	9827
572.877	9400
572.936	9348
572.994	8990
573.052	9272
573.110	9092
573.169	9394
573.227	9142
573.285	8757
573.343	9972
573.401	8920
573.459	10331
573.517	8431
573.576	9148
573.634	9173
573.692	8942
573.750	8125
573.808	8724
573.866	8645
573.924	8996
573.982	8853
574.040	8229
574.098	7196
574.155	7273
574.213	8197
574.271	7883
574.329	8650
574.387	8840
574.445	7606
574.503	7636
574.560	7387
574.618	7874
574.676	7724
574.734	8628
574.792	7779
574.849	8058
574.907	6254
574.965	7715
575.022	7051
575.080	7203
575.138	7879
575.195	7493
575.253	6583
575.311	7600
575.368	7488
575.426	7304
575.483	7828
575.541	7581
575.598	7617
575.656	6797
575.713	6945
575.771	8296
575.828	6797
575.886	7434
575.943	7612
576.001	7199
576.058	6849
576.115	6862
576.173	8086
576.230	7944
576.287	8091
576.345	7669
576.402	5794
576.459	7710
576.517	7234
576.574	7473
576.631	7323
576.688	7047
576.746	7098
576.803	6219
576.860	6739
576.917	7139
576.974	6994
577.031	6257
577.089	6740
577.146	5511
577.203	7296
577.260	6898
577.317	6733
577.374	7214
577.431	6221
577.488	7115
577.545	7413
577.602	7217
577.659	6542
577.716	7523
577.773	7001
577.830	6845
577.886	6909
577.943	7339
578.000	6905
578.057	6166
578.114	7384
578.171	7033
578.227	7551
578.284	7120
578.341	7109
578.398	7231
578.454	7007
578.511	7482
578.568	7576
578.625	6592
578.681	6639
578.738	6994
578.794	7339
578.851	7762
578.908	8861
578.964	8616
579.021	9590
579.077	7963
579.134	7774
579.190	8050
579.247	6988
579.303	8161
579.360	7133
579.416	7700
579.473	7117
579.529	7194
579.586	7576
579.642	8856
579.698	7575
579.755	8013
579.811	7921
579.867	8173
579.924	8331
579.980	8306
580.036	8179
580.093	8659
580.149	9341
580.205	9451
580.261	8148
580.317	9106
580.374	8910
580.430	9524
580.486	9137
580.542	8955
580.598	8509
580.619	9064
580.654	10032
580.692	9529
580.710	9283
580.765	9035
580.767	9025
580.823	9818
580.838	9785
580.879	9686
580.911	9301
580.935	9037
580.984	9609
580.991	9687
581.047	9623
581.057	9468
581.103	8791
581.130	9416
581.159	10058
581.203	9700
581.215	9608
581.270	9997
581.276	9909
581.326	9028
581.349	9161
581.382	9369
581.422	9541
581.438	9606
581.494	9634
581.494	9636
581.550	9665
581.567	9944
581.606	10512
581.640	10303
581.661	10145
581.713	11122
581.717	11203
581.773	9955
581.786	10057
581.829	10447
581.859	11364
581.885	12074
581.932	11874
581.940	11864
581.996	12503
582.004	12450
582.052	11848
582.077	11836
582.107	11920
582.150	11792
582.163	11741
582.219	12367
582.223	12345
582.274	12150
582.296	12534
582.330	13048
582.368	12836
582.386	12778
582.441	13226
582.441	13222
582.497	13178
582.514	13086
582.552	13083
582.587	13631
582.608	13929
582.659	13725
582.663	13704
582.719	14374
582.732	14383
582.774	14481
582.805	14485
582.830	14442
582.877	15669
582.885	15910
582.941	16574
582.950	16767
582.996	17982
583.023	19100
583.052	20127
583.095	20670
583.107	20677
583.162	19158
583.168	19093
583.218	18484
583.240	17875
583.273	17195
583.313	17524
583.328	17616
583.384	16565
583.385	16541
583.439	15554
583.458	15423
583.494	15504
583.531	15634
583.549	15751
583.603	16169
583.605	16174
583.660	16208
583.676	16116
583.715	16042
583.748	16089
583.770	16007
583.820	16072
583.825	16115
583.881	16411
583.893	16416
583.936	16355
583.965	16294
583.991	16386
584.038	16941
584.046	16996
584.101	16496
584.110	16487
584.156	16626
584.183	17000
584.211	17342
584.255	17713
584.266	17875
584.321	17535
584.328	17601
584.376	18104
584.400	18466
584.431	18891
584.472	18371
584.486	18314
584.541	19814
584.545	19838
584.596	20185
584.617	20083
584.651	19908
584.689	20134
584.706	20315
584.761	21005
584.762	20990
584.816	21102
584.834	21456
584.871	22105
584.906	21721
584.926	21500
584.978	21451
584.980	21478
585.035	22411
585.051	22361
585.090	22394
585.123	22919
585.145	23298
585.195	23320
585.200	23316
585.254	23582
585.267	23780
585.309	25103
585.340	25733
585.364	26235
585.412	27082
585.419	27256
585.473	29974
585.484	30572
585.528	34238
585.556	37147
585.583	43022
585.628	57751
585.637	63448
585.692	112722
585.700	122545
585.747	162288
585.772	144179
585.801	99302
585.845	46798
585.856	40385
585.910	32138
585.917	31230
585.965	28812
585.989	28411
586.019	28548
586.061	28251
586.074	28190
586.128	27941
586.133	27890
586.183	27295
586.205	26990
586.237	26719
586.277	26200
586.292	26244
586.346	26356
586.349	26330
586.401	26466
586.421	26272
586.455	25776
586.493	25281
586.509	25374
586.564	24955
586.565	24932
586.618	26483
586.637	26640
586.672	26718
586.709	27078
586.727	27623
586.781	29069
586.781	29121
586.835	28008
586.853	27600
586.889	26901
586.925	26441
586.944	26308
586.996	26087
586.998	26168
587.052	27052
587.068	27283
587.106	27921
587.140	28065
587.161	27753
587.212	27263
587.215	27355
587.269	28344
587.284	28464
587.323	28980
587.356	29039
587.377	29065
587.427	29822
587.431	29915
587.485	29098
587.499	29004
587.539	29494
587.571	29896
587.593	30488
587.643	31282
587.648	31282
587.702	30237
587.715	29951
587.755	30691
587.786	31356
587.810	31379
587.858	30918
587.864	31167
587.917	32646
587.930	32954
587.971	32527
588.001	32201
588.025	32206
588.073	31783
588.079	31934
588.133	32581
588.145	32730
588.187	33359
588.217	33330
588.241	33214
588.288	33062
588.295	33296
588.348	35018
588.360	35077
588.402	35598
588.431	36344
588.456	36721
588.503	36644
588.510	36867
588.564	38417
588.575	38645
588.617	39907
588.646	40906
588.671	42243
588.718	43935
588.725	44594
588.778	49795
588.789	50918
588.832	67859
588.861	80930
588.886	113385
588.932	179940
588.939	187425
588.993	244676
589.004	248256
589.047	150106
589.075	88281
589.100	71280
589.147	47109
589.154	46735
589.207	44123
589.218	43605
589.261	44386
589.290	44520
589.314	45276
589.361	46979
589.368	48068
589.421	56358
589.433	58353
589.475	89881
589.504	113187
589.528	148078
589.576	221445
589.582	215579
589.635	133982
589.647	116204
589.689	72358
589.718	45425
589.742	43690
589.790	40172
589.795	40178
589.849	39204
589.861	38899
589.902	39590
589.932	39887
589.955	39175
590.004	37346
590.009	37585
590.062	39304
590.075	39417
590.115	39480
590.146	39553
590.168	39980
590.218	40565
590.222	40743
590.275	41489
590.289	41462
590.328	42258
590.360	42624
590.381	42458
590.431	41722
590.435	41911
590.488	42719
590.503	42937
590.541	43468
590.574	43309
590.594	43760
590.645	44564
590.647	44740
590.700	45588
590.716	45626
590.753	46190
590.787	46640
590.806	47080
590.859	47479
590.859	47641
590.912	47895
590.930	47908
590.965	49122
591.001	49813
591.018	50287
591.071	51418
591.072	51254
591.124	50987
591.143	50583
591.177	50973
591.214	51294
591.230	52043
591.283	53737
591.285	53615
591.336	53163
591.356	52785
591.389	52894
591.427	52604
591.442	52625
591.495	51851
591.498	51620
591.547	51942
591.569	51852
591.600	52337
591.640	52535
591.653	52904
591.706	53660
591.711	53547
591.759	54325
591.782	54478
591.811	55208
591.853	55754
591.864	56302
591.917	58039
591.924	58084
591.969	58399
591.995	58219
592.022	58552
592.066	58595
592.075	58995
592.127	60115
592.137	60102
592.180	59900
592.208	59459
592.233	59659
592.279	59332
592.285	59781
592.338	61809
592.350	62051
592.390	61752
592.421	61103
592.443	61714
592.491	62398
592.495	62606
592.548	62388
592.562	62113
592.600	62399
592.633	62227
592.653	62358
592.704	61784
592.705	62175
592.775	63956
592.846	64413
592.916	66361
592.987	65605
593.058	67101
593.128	63910
593.199	66926
593.270	67171
593.341	68473
593.411	67394
593.482	70031
593.553	70191
593.623	70887
593.694	70532
593.764	71645
593.835	72135
593.906	72682
593.976	71750
594.047	74359
594.117	76307
594.188	77869
594.258	76834
594.329	77268
594.399	78041
594.470	78827
594.540	80214
594.611	81939
594.681	82310
594.751	81518
594.822	83669
594.892	86186
594.963	86477
595.033	87703
595.103	90327
595.174	91200
595.244	92350
595.314	95235
595.384	95979
595.455	97189
595.525	99876
595.595	101979
595.665	103200
595.736	100782
595.806	101582
595.876	105822
595.946	103295
596.016	107680
596.087	110681
596.157	111421
596.227	111588
596.297	117695
596.367	120091
596.437	126959
596.507	128316
596.577	127767
596.647	131008
596.717	134842
596.787	136786
596.857	136241
596.927	137978
596.997	136970
597.067	139098
597.137	142235
597.207	143662
597.277	145865
597.347	141266
597.417	141027
597.487	142622
597.557	143203
597.626	145792
597.696	149541
597.766	148667
597.836	143171
597.906	139835
597.975	139730
598.045	139410
598.115	143697
598.185	152196
598.254	164695
598.324	172838
598.394	178854
598.464	173895
598.533	172975
598.603	166312
598.672	164286
598.742	165807
598.812	165676
598.881	170334
598.951	172454
599.020	173858
599.090	177978
599.159	181622
599.229	178036
599.299	176141
599.368	182254
599.437	181225
599.507	174570
599.576	172886
599.646	173637
599.715	172085
599.785	173490
599.854	171782
599.924	174373
599.993	174333
600.062	179822
600.132	183077
600.201	188130
600.270	206991
600.340	217323
600.409	214527
600.478	216094
600.547	221377
600.617	215039
600.686	193839
600.755	189417
600.824	188730
600.894	188969
600.963	189466
601.032	194806
601.101	192883
601.170	193273
601.239	193818
601.308	198603
601.378	203382
601.447	204575
601.516	207450
601.585	212953
601.654	218173
601.723	220278
601.792	224512
601.861	232081
601.930	241350
601.999	251214
602.068	248399
602.137	250179
602.206	250384
602.275	252823
602.343	256754
602.412	261577
602.481	260334
602.550	259625
602.619	266327
602.688	264792
602.756	271195
602.825	269773
602.894	276708
602.963	274506
603.032	280282
603.100	281554
603.169	274679
603.238	287521
603.307	274268
603.375	274615
603.444	288573
603.513	265479
603.581	271667
603.650	286920
603.719	246041
603.787	236367
603.856	238584
603.924	242922
603.993	250610
604.061	255944
604.130	261961
604.198	268443
604.267	270901
604.335	275911
604.404	274657
604.472	283944
604.541	282802
604.609	294051
604.678	298862
604.746	302328
604.815	314063
604.883	305979
604.951	299385
605.020	305004
605.088	292053
605.156	277768
605.225	277257
605.293	275643
605.361	278985
605.429	275998
605.498	283072
605.566	278939
605.634	292050
605.702	293080
605.771	295614
605.839	304973
605.907	284271
605.975	295450
606.043	284106
606.111	275865
606.180	298169
606.248	275261
606.316	269517
606.384	290732
606.452	247854
606.520	213982
606.588	216017
606.656	218040
606.724	215080
606.792	205889
606.860	189022
606.928	178920
606.996	172316
607.064	170831
607.132	172835
607.200	179863
607.267	185420
607.335	188208
607.403	192364
607.471	188743
607.539	182124
607.607	183457
607.674	166426
607.742	166256
607.810	164787
607.878	165182
607.946	166172
608.013	171974
608.081	174110
608.149	176931
608.216	180883
608.284	187721
608.352	186071
608.419	182641
608.487	179666
608.555	176694
608.622	181430
608.690	186870
608.757	199332
608.825	203680
608.893	200384
608.960	193154
609.028	185229
609.095	185284
609.163	184818
609.230	171423
609.298	159907
609.365	166847
609.432	174845
609.500	188494
609.567	209809
609.635	235520
609.702	246090
609.769	237802
609.837	195849
609.904	169557
609.971	167910
610.039	175714
610.106	187330
610.173	238657
610.241	380269
610.308	297259
610.375	202291
610.442	181347
610.509	172540
610.577	176621
610.644	178755
610.711	182529
610.778	189616
610.845	194070
610.912	204755
610.980	210188
611.047	209557
611.114	207302
611.181	202665
611.248	204634
611.315	212006
611.382	217646
611.449	223753
611.516	227056
611.583	223816
611.650	224218
611.717	224790
611.784	225626
611.851	231173
611.918	231455
611.984	246490
612.051	272825
612.118	346731
612.185	554182
612.252	443298
612.319	271382
612.386	264241
612.452	254517
612.519	246516
612.586	246550
612.653	252390
612.719	260778
612.786	252379
612.853	241892
612.919	236868
612.986	241401
613.053	229133
613.120	219636
613.186	214985
613.253	216437
613.319	216226
613.386	217794
613.453	220641
613.519	223381
613.586	221843
613.652	231989
613.719	224880
613.785	225316
613.852	224880
613.918	222164
613.985	226391
614.051	233014
614.118	232874
614.184	227617
614.250	225062
614.317	232325
614.383	228643
614.449	231373
614.516	229592
614.582	230627
614.648	229735
614.715	230641
614.781	227619
614.847	226536
614.914	227289
614.980	221720
615.046	222722
615.112	227773
615.179	227982
615.245	230604
615.311	228334
615.377	230909
615.443	233042
615.509	234467
615.575	239075
615.642	236177
615.708	238111
615.774	243418
615.840	250323
615.906	251028
615.972	259576
616.038	290505
616.104	390289
616.170	601346
616.236	558991
616.302	311526
616.368	289083
616.434	258750
616.500	253861
616.565	257821
616.631	279097
616.697	263173
616.763	264622
616.829	294440
616.895	380671
616.961	367630
617.026	262953
617.092	245552
617.158	245863
617.224	246250
617.289	237945
617.355	229878
617.421	230087
617.487	230841
617.552	224604
617.618	223627
617.684	223403
617.749	226952
617.815	222948
617.880	221818
617.946	221576
618.012	225027
618.077	230990
618.143	226323
618.208	223912
618.274	235580
618.339	236199
618.405	213055
618.470	210560
618.536	214288
618.601	212240
618.667	203752
618.732	202164
618.798	202012
618.863	200474
618.928	196487
618.994	198265
619.059	197985
619.124	204127
619.190	198021
619.255	198344
619.320	198768
619.386	200215
619.451	198238
619.516	196513
619.581	201758
619.647	205596
619.712	206753
619.777	204265
619.842	204728
619.907	207453
619.972	209314
620.038	207748
620.103	203503
620.168	204855
620.233	210069
620.298	209323
620.363	209780
620.428	214034
620.493	215352
620.558	215975
620.623	221343
620.688	220348
620.753	217956
620.818	220077
620.883	221797
620.948	219796
621.013	221744
621.078	220347
621.143	219039
621.207	220826
621.272	217231
621.337	217459
621.402	216798
621.467	217219
621.532	215655
621.596	216456
621.661	215080
621.726	213675
621.791	215886
621.855	216876
621.920	218736
621.985	217458
622.049	221206
622.114	220695
622.179	220474
622.243	221115
622.308	226006
622.373	230735
622.437	229736
622.502	223371
622.566	221050
622.631	217931
622.695	224093
622.760	221133
622.824	223739
622.889	222815
622.953	224661
623.018	234507
623.082	236638
623.147	229437
623.211	226721
623.276	225457
623.340	220506
623.404	219441
623.469	219439
623.533	217562
623.597	216317
623.662	214770
623.726	208692
623.790	201494
623.854	198002
623.919	202936
623.983	200880
624.047	202422
624.111	201769
624.176	204014
624.240	205145
624.304	206889
624.368	203443
624.432	204311
624.496	204368
624.560	208859
624.625	207857
624.689	206194
624.753	210906
624.817	205649
624.881	200577
624.945	193349
625.009	187461
625.073	188980
625.137	190997
625.201	197226
625.265	199049
625.329	191319
625.393	188281
625.456	190429
625.520	190748
625.584	189253
625.648	193432
625.712	192801
625.776	194452
625.839	186907
625.903	169030
625.967	157613
626.031	166187
626.095	177559
626.158	169170
626.222	150123
626.286	143752
626.349	141954
626.413	134953
626.477	134704
626.540	133029
626.604	131246
626.668	130856
626.731	129757
626.795	127104
626.858	124463
626.922	120684
626.986	120353
627.049	120158
627.113	123534
627.176	121596
627.240	116700
627.303	115136
627.366	112336
627.430	113105
627.493	112742
627.557	108940
627.620	112557
627.684	113090
627.747	109505
627.810	102761
627.874	97637
627.937	93022
628.000	98922
628.064	95963
628.127	87771
628.190	87617
628.253	85602
628.317	83732
628.380	78688
628.443	79908
628.506	78953
628.569	77110
628.632	73717
628.696	73907
628.759	72669
628.822	70096
628.885	68799
628.948	67545
629.011	68047
629.074	66177
629.137	64066
629.200	62725
629.263	63022
629.326	60810
629.389	61964
629.452	60643
629.515	58428
629.578	58058
629.641	57734
629.704	57308
629.767	58374
629.830	56303
629.892	55252
629.955	54487
630.018	55216
630.081	54173
630.144	55598
630.207	54310
630.269	54059
630.332	50501
630.395	49690
630.458	48913
630.520	47308
630.583	48769
630.646	48834
630.708	48429
630.771	49136
630.834	51080
630.896	47919
630.959	48303
631.021	46760
631.084	47203
631.146	47645
631.209	47030
631.272	44387
631.334	46306
631.397	46308
631.459	44860
631.522	45932
631.584	44825
631.646	45859
631.709	47414
631.771	46915
631.834	45071
631.896	44490
631.958	44452
632.021	44246
632.083	42772
632.145	43370
632.208	43639
632.270	43109
632.332	42952
632.395	41939
632.457	44177
632.519	41943
632.581	42437
632.643	40663
632.706	42386
632.768	39409
632.830	41810
632.892	42213
632.954	41188
633.016	42378
633.078	41945
633.141	41633
633.203	41489
633.265	41083
633.327	41738
633.389	40548
633.451	42257
633.513	42573
633.575	41918
633.637	40722
633.698	42703
633.760	41693
633.822	43171
633.884	42382
633.946	41641
634.008	41649
634.070	41560
634.132	41885
634.193	42414
634.255	42492
634.317	42636
634.379	44317
634.441	40993
634.502	41324
634.564	39970
634.626	38565
634.687	38370
634.749	37814
634.811	39923
634.873	38362
634.934	38455
634.996	39224
635.057	37973
635.119	38442
635.181	39114
635.242	39180
635.304	37543
635.365	41027
635.427	37937
635.488	39821
635.550	37924
635.611	38215
635.673	36402
635.734	39620
635.796	39348
635.857	41121
635.918	39422
635.980	41485
636.041	39861
636.102	42167
636.164	41307
636.225	41883
636.286	39304
636.348	39794
636.409	37666
636.470	38362
636.531	38919
636.593	37320
636.654	38278
636.715	37516
636.776	37848
636.838	37795
636.899	37980
636.960	37107
637.021	36774
637.082	36685
637.143	37708
637.204	35102
637.265	35927
637.326	36968
637.387	38159
637.448	36432
637.509	37513
637.570	36901
637.631	37394
637.692	35288
637.753	36168
637.814	36287
637.875	35868
637.936	37155
637.997	36885
638.058	36204
638.119	37693
638.179	36266
638.240	35803
638.301	36972
638.362	35556
638.423	35724
638.483	37576
638.544	34619
638.605	35153
638.666	34211
638.726	37260
638.787	36626
638.848	35412
638.908	35905
638.969	35131
639.030	34628
639.090	34688
639.151	36134
639.211	36687
639.272	37704
639.332	41605
639.393	36777
639.453	35459
639.514	35656
639.574	35130
639.635	34624
639.695	34909
639.756	34046
639.816	35265
639.877	34740
639.937	39074
639.997	39772
640.058	34568
640.118	32884
640.178	34518
640.239	33726
640.299	33982
640.359	33835
640.420	34860
640.480	34554
640.540	35524
640.600	34825
640.661	35158
640.721	33843
640.781	36300
640.841	34052
640.901	34624
640.961	34824
641.021	34832
641.082	35933
641.142	36736
641.202	35022
641.262	32585
641.322	33530
641.382	33105
641.442	32847
641.502	33015
641.562	33927
641.622	33931
641.682	34164
641.742	34653
641.802	34161
641.861	33404
641.921	32578
641.981	33379
642.041	31774
642.101	33886
642.161	31581
642.221	30846
642.280	31259
642.340	31583
642.400	30062
642.460	32759
642.519	32349
642.579	33021
642.639	32303
642.698	30104
642.758	34043
642.818	32814
642.877	32303
642.937	32237
642.997	34334
643.056	35481
643.116	31357
643.175	33601
643.235	32156
643.294	31711
643.354	33239
643.414	33961
643.473	34231
643.532	34447
643.592	35828
643.651	41921
643.711	53017
643.770	77291
643.830	142725
643.889	281412
643.948	102611
644.008	39912
644.067	35105
644.126	31324
644.186	30634
644.245	31197
644.304	28905
644.363	30909
644.423	28499
644.482	29316
644.541	29814
644.600	28657
644.659	31581
644.719	32120
644.778	36491
644.837	44083
644.896	64384
644.955	124063
645.014	60365
645.073	33468
645.132	29589
645.191	30582
645.250	29255
645.309	30134
645.368	29718
645.427	31436
645.486	34789
645.545	48047
645.604	31102
645.663	29596
645.722	27271
645.781	29590
645.840	28728
645.898	30441
645.957	33162
646.016	36281
646.075	49317
646.134	73075
646.192	149631
646.251	226153
646.310	59563
646.369	33135
646.427	31149
646.486	28040
646.545	27998
646.603	27360
646.662	26903
646.721	25326
646.779	24710
646.838	24034
646.896	26413
646.955	28148
647.014	32811
647.072	43953
647.131	85791
647.189	55999
647.248	24227
647.306	24418
647.365	24161
647.423	22296
647.481	24461
647.540	21327
647.598	22763
647.657	22495
647.715	22405
647.773	20846
647.832	22202
647.890	20136
647.948	21306
648.007	21181
648.065	20525
648.123	20840
648.181	21248
648.240	20129
648.298	19626
648.356	19227
648.414	20978
648.472	19007
648.531	20135
648.589	18916
648.647	18723
648.705	18266
648.763	18280
648.821	18335
648.879	18422
648.937	19789
648.995	18727
649.053	18976
649.111	22872
649.169	27976
649.227	37293
649.285	61012
649.343	149142
649.401	92511
649.459	32244
649.516	25893
649.574	18145
649.632	19406
649.690	17978
649.748	19662
649.806	20923
649.863	29825
649.921	58943
649.979	48512
650.037	17991
650.094	14893
650.152	15439
650.210	14796
650.268	15429
650.325	15269
650.383	13976
650.440	13630
650.498	13680
650.556	15059
650.613	12767
650.671	14189
650.728	13587
650.786	14190
650.843	14979
650.901	13073
650.958	14062
651.016	13532
651.073	12202
651.131	12524
651.188	11140
651.246	12238
651.303	11573
651.360	12889
651.418	11680
651.475	12926
651.532	11295
651.590	12637
651.647	10669
651.704	11006
651.762	11500
651.819	11584
651.876	11330
651.933	11988
651.990	11617
652.048	9378
652.105	9861
652.162	11475
652.219	10683
652.276	10796
652.333	10904
652.390	10937
652.448	10697
652.505	11837
652.562	11074
652.619	10862
652.676	10155
652.733	11808
652.790	11539
652.847	10162
652.904	10880
652.961	9216
653.017	10008
653.074	11172
653.131	10145
653.188	9347
653.245	9478
653.302	10625
653.359	9736
653.415	10383
653.472	10284
653.529	9480
653.586	9844
653.642	10181
653.699	10844
653.756	9358
653.813	9860
653.869	9768
653.926	8799
653.983	9507
654.039	8942
654.096	9704
654.152	9517
654.209	9694
654.266	9279
654.322	8727
654.379	9910
654.435	9904
654.492	9199
654.548	11169
654.605	10440
654.661	11268
654.717	9108
654.774	9995
654.830	9644
654.887	9340
654.943	9833
655.000	9507
655.056	8906
655.112	9775
655.168	8342
655.225	9452
655.281	8503
655.337	8940
655.394	8707
655.450	9273
655.506	9272
655.562	9221
655.618	10265
655.675	8872
655.731	8587
655.787	8378
655.843	9551
655.899	8414
655.955	8402
656.011	9784
656.067	8167
656.123	8741
656.179	8985
656.235	9596
656.291	8143
656.347	9609
656.403	7644
656.459	9313
656.515	8551
656.571	8841
656.627	9190
656.683	8681
656.739	8541
656.795	8953
656.850	8795
656.906	8895
656.962	9253
657.018	8534
657.074	9558
657.129	10688
657.185	11863
657.241	18492
657.297	14000
657.352	10618
657.408	8054
657.464	9684
657.519	7539
657.575	7869
657.630	9009
657.686	8439
657.742	7295
657.797	8120
657.853	8006
657.908	9249
657.964	7555
658.019	8840
658.075	8235
658.130	9807
658.186	7047
658.241	8776
658.297	7270
658.352	7794
658.407	8386
658.463	7121
658.518	8205
658.573	8462
658.629	6855
658.684	8021
658.739	8722
658.795	8178
658.850	8282
658.905	8589
658.960	8179
659.016	7644
659.071	6790
659.126	7939
659.181	7968
659.236	10475
659.291	11255
659.346	8055
659.401	8130
659.457	8268
659.512	8246
659.567	8620
659.622	7813
659.677	8388
659.732	7560
659.787	7763
659.842	7537
659.897	7823
659.952	7743
660.007	8518
660.061	8202
660.116	6676
660.171	7486
660.226	7697
660.281	8140
660.336	8029
660.391	8317
660.445	6988
660.500	7253
660.555	7738
660.610	7142
660.664	8892
660.719	7172
660.774	7393
660.828	8556
660.883	8639
660.938	7065
660.992	7305
661.047	7578
661.101	7768
661.156	7301
661.211	7422
661.265	7950
661.320	7562
661.374	7709
661.429	7564
661.483	8313
661.538	7460
661.592	7179
661.647	7741
661.701	7083
661.755	7120
661.810	7913
661.864	7338
661.919	6983
661.973	8038
662.027	7557
662.081	7054
662.136	6285
662.190	7420
662.244	7176
662.299	7536
662.353	6813
662.407	8053
662.461	6757
662.515	7700
662.569	6132
662.624	8157
662.678	6790
662.732	6614
662.786	6756
662.840	7123
662.894	6650
662.948	7028
663.002	6379
663.056	6992
663.110	6838
663.164	7816
663.218	8050
663.272	8116
663.326	6878
663.380	7274
663.434	7219
663.488	6766
663.542	6992
663.595	8002
663.649	6818
663.703	6730
663.757	6812
663.811	6153
663.864	6175
663.918	7893
663.972	6794
664.026	7114
664.079	6473
664.133	8019
664.187	6919
664.240	6691
664.294	6505
664.348	7444
664.401	7353
664.455	7499
664.508	6579
664.562	6839
664.615	6316
664.669	6515
664.722	6419
664.776	5864
664.829	6449
664.883	6137
664.936	6357
664.990	6338
665.043	7266
665.097	6416
665.150	7436
665.203	6050
665.257	6527
665.310	6956
665.363	6576
665.417	7957
665.470	6275
665.523	6688
665.576	7089
665.630	6827
665.683	6004
665.736	6451
665.789	6502
665.842	6449
665.895	6987
665.949	6899
666.002	6287
666.055	6837
666.108	6980
666.161	6758
666.214	6560
666.267	6928
666.320	7397
666.373	7253
666.426	5848
666.479	6173
666.532	6347
666.585	6705
666.638	6982
666.691	6579
666.744	6793
666.796	6653
666.849	6379
666.902	7127
666.955	6412
667.008	5994
667.060	6895
667.113	6334
667.166	6575
667.219	7329
667.271	6050
667.324	6980
667.377	6810
667.430	7177
667.482	6674
667.535	6910
667.587	7361
667.640	7625
667.693	6919
667.745	8308
667.798	8450
667.850	7339
667.903	6317
667.955	6064
668.008	5965
668.060	6581
668.113	6380
668.165	6636
668.218	7003
668.270	6113
668.322	5848
668.375	5133
668.427	7335
668.479	5908
668.532	6442
668.584	6628
668.636	5231
668.689	5877
668.741	5987
668.793	6656
668.845	5718
668.898	6648
668.950	5866
669.002	5957
669.054	5110
669.106	5799
669.158	6079
669.211	6835
669.263	5713
669.315	6194
669.367	5685
669.419	5650
669.471	7187
669.523	5649
669.575	6101
669.627	5885
669.679	5702
669.731	6508
669.783	5902
669.835	6076
669.886	5658
669.938	6316
669.990	6408
670.042	6256
670.094	5639
670.146	6298
670.197	6195
670.249	7624
670.301	7145
670.353	9074
670.404	9209
670.456	11382
670.508	16415
670.560	24976
670.611	39806
670.663	69151
670.715	147736
670.766	231693
670.818	90414
670.869	21342
670.921	12300
670.972	9891
671.024	7407
671.075	7291
671.127	7111
671.178	7481
671.230	5792
671.281	6781
671.333	5866
671.384	6000
671.436	5576
671.487	6956
671.538	8226
671.590	10404
671.641	13898
671.692	21114
671.744	40291
671.795	27769
671.846	10891
671.897	6166
671.949	5604
672.000	6023
672.051	5892
672.102	6546
672.153	4768
672.204	5572
672.256	4949
672.307	4787
672.358	5654
672.409	5295
672.460	4898
672.511	4827
672.562	4402
672.613	4949
672.664	3889
672.715	5001
672.766	3859
672.817	4897
672.868	4520
672.919	4948
672.970	4368
673.021	4508
673.071	4122
673.122	4713
673.173	4583
673.224	4573
673.275	4230
673.326	5493
673.376	4296
673.427	3924
673.478	3735
673.528	4645
673.579	4266
673.630	4624
673.680	4040
673.731	4492
673.782	3767
673.832	4540
673.883	3599
673.934	3997
673.984	4262
674.035	4376
674.085	4098
674.136	5189
674.186	4003
674.237	4518
674.287	4294
674.338	4354
674.388	3838
674.438	4101
674.489	4256
674.539	4183
674.589	4317
674.640	4326
674.690	3591
674.740	3578
674.791	4038
674.841	4179
674.891	4010
674.942	3977
674.992	3698
675.042	3983
675.092	2845
675.142	3652
675.193	2926
675.243	2850
675.293	3602
675.343	3847
675.393	3250
675.443	3976
675.493	3653
675.543	4402
675.593	3589
675.643	3744
675.693	3793
675.743	3687
675.793	2689
675.843	3198
675.893	3093
675.943	4125
675.993	3551
676.043	3390
676.093	4356
676.142	2892
676.192	3603
676.242	3273
676.292	2850
676.341	3244
676.391	3161
676.441	3666
676.491	2937
676.540	3693
676.590	3047
676.640	3725
676.689	3130
676.739	2502
676.789	3932
676.838	3265
676.888	3106
676.937	3094
676.987	2589
677.037	3799
677.086	2444
677.136	3736
677.185	2904
677.235	3678
677.284	3028
677.333	2736
677.383	2685
677.432	2254
677.482	2021
677.531	3559
677.580	3294
677.630	2885
677.679	3320
677.728	4069
677.778	2616
677.827	2760
677.876	3018
677.925	3134
677.975	2855
678.024	3821
678.073	2615
678.122	3434
678.171	2525
678.220	2720
678.269	2832
678.319	4069
678.368	2919
678.417	2989
678.466	3210
678.515	3435
678.564	2184
678.613	2519
678.662	2505
678.711	3031
678.760	2420
678.809	3892
678.857	2172
678.906	2891
678.955	2512
679.004	2913
679.053	2130
679.102	2564
679.151	2934
679.199	3082
679.248	2721
679.297	2978
679.346	2129
679.394	2141
679.443	2952
679.492	2550
679.540	3032
679.589	3993
679.638	2012
679.686	2950
679.735	3277
679.784	2906
679.832	2600
679.881	2828
679.929	2524
679.978	2844
680.026	2323
680.075	3610
680.123	2654
680.172	2809
680.220	1924
680.268	2183
680.317	2680
680.365	2405
680.414	2260
680.462	2907
680.510	2311
680.559	2326
680.607	2472
680.655	2824
680.703	2531
680.752	2747
680.800	2141
680.848	2423
680.896	1785
680.945	2020
680.993	3015
681.041	2563
681.089	2124
681.137	2113
681.185	2545
681.233	2929
681.258	2719
681.281	2491
681.329	1967
681.377	2528
681.380	2584
681.425	2989
681.473	3239
681.502	3101
681.521	2954
681.569	2541
681.617	3087
681.624	3085
681.665	2827
681.713	3209
681.745	2617
681.761	2283
681.809	3131
681.857	4021
681.867	3971
681.904	3663
681.952	3165
681.989	3037
682.000	2960
682.048	3369
682.096	3245
682.111	3446
682.143	3801
682.191	3731
682.233	4419
682.239	4483
682.286	4075
682.334	3414
682.354	3884
682.382	4468
682.430	4105
682.476	4242
682.477	4216
682.525	4155
682.572	4640
682.598	4213
682.620	3772
682.667	3849
682.715	4198
682.720	4244
682.763	4388
682.810	4044
682.841	4522
682.857	4745
682.905	4268
682.952	4579
682.963	4649
683.000	4734
683.047	4368
683.085	5141
683.095	5322
683.142	4618
683.190	4890
683.206	5170
683.237	5564
683.284	5322
683.328	5344
683.332	5326
683.379	5073
683.426	5049
683.449	5035
683.473	4980
683.521	6021
683.568	4799
683.571	4898
683.615	5804
683.662	5280
683.693	5782
683.709	6039
683.757	6116
683.804	6314
683.814	6295
683.851	6106
683.898	6210
683.936	6196
683.945	6157
683.992	6374
684.039	6258
684.057	6270
684.086	6294
684.133	5832
684.179	6951
684.180	6964
684.227	6730
684.274	7170
684.300	6880
684.321	6632
684.368	6763
684.415	6872
684.422	6904
684.462	6927
684.509	6532
684.543	7055
684.556	7231
684.603	7000
684.649	7601
684.665	7603
684.696	7557
684.743	7549
684.786	7391
684.790	7349
684.837	7283
684.883	6990
684.908	7232
684.930	7516
684.977	7590
685.023	8022
685.029	7975
685.070	7387
685.117	7678
685.150	7525
685.164	7468
685.210	8173
685.257	7993
685.272	8313
685.303	8870
685.350	8032
685.393	7860
685.396	7833
685.443	7939
685.490	8405
685.514	8086
685.536	7836
685.583	8921
685.629	8237
685.636	8277
685.675	8457
685.722	8736
685.757	8904
685.768	8953
685.815	9321
685.861	9202
685.878	9136
685.908	8868
685.954	8594
686.000	8549
686.000	8542
686.047	9417
686.093	9151
686.121	9401
686.139	9547
686.185	9426
686.232	9720
686.242	9626
686.278	9373
686.324	10350
686.363	9701
686.370	9560
686.416	9744
686.463	10012
686.484	9779
686.509	9453
686.555	9751
686.601	9979
686.606	9939
686.647	9768
686.693	9776
686.727	10364
686.739	10493
686.785	10098
686.831	9285
686.848	9384
686.877	9662
686.923	9931
686.969	9697
686.969	9695
687.015	9902
687.061	10449
687.090	10444
687.107	10366
687.153	11074
687.199	10781
687.211	10525
687.245	9871
687.291	10252
687.332	10731
687.336	10791
687.382	10920
687.428	10512
687.453	11024
687.474	11375
687.520	11321
687.565	10824
687.574	10907
687.611	11254
687.657	10621
687.695	11278
687.702	11426
687.748	11202
687.794	11679
687.816	11639
687.839	11481
687.885	12079
687.931	11141
687.937	11222
687.976	11797
688.022	11493
688.058	12050
688.067	12210
688.113	11671
688.158	11640
688.179	11906
688.204	12179
688.249	12341
688.295	12759
688.300	12704
688.340	12288
688.386	12502
688.421	12185
688.431	12146
688.477	12069
688.522	12335
688.542	12502
688.567	12709
688.613	13416
688.658	12785
688.663	12843
688.703	13147
688.749	12598
688.784	12717
688.794	12859
688.839	12901
688.884	13896
688.905	13839
688.930	13482
688.975	13104
689.020	12121
689.026	12146
689.065	12876
689.110	12720
689.146	13356
689.155	13482
689.201	13156
689.246	13740
689.267	13407
689.291	13101
689.336	13709
689.381	13642
689.388	13580
689.426	13194
689.471	13673
689.509	13135
689.516	13100
689.561	13395
689.606	13579
689.630	13621
689.651	13515
689.696	13570
689.741	13259
689.750	13234
689.785	13615
689.830	13776
689.871	14414
689.875	14439
689.920	13949
689.965	14080
689.992	13457
690.010	13288
690.054	13918
690.099	13958
690.112	14117
690.144	14288
690.189	13494
690.233	13948
690.233	13969
690.278	13314
690.323	14021
690.354	13932
690.367	13958
690.412	14239
690.457	13915
690.474	14138
690.501	14418
690.546	13961
690.590	14566
690.595	14499
690.635	14165
690.680	14575
690.716	13952
690.724	13913
690.769	14698
690.813	15579
690.836	15776
690.857	15929
690.902	16006
690.946	16643
690.957	16721
690.991	18123
691.035	19879
691.077	22209
691.080	22241
691.124	20561
691.168	19427
691.198	18984
691.213	18679
691.257	17466
691.301	16529
691.318	15861
691.346	15615
691.390	15989
691.434	15947
691.439	15955
691.478	16158
691.522	16086
691.559	15888
691.567	15933
691.611	16378
691.655	16511
691.680	16479
691.699	16379
691.743	16694
691.787	16284
691.800	16293
691.831	16340
691.875	16206
691.919	16345
691.921	16308
691.964	16309
692.008	16589
692.041	16519
692.052	16496
692.096	16374
692.139	16724
692.162	16628
692.183	16655
692.227	16621
692.271	16603
692.282	16565
692.315	16466
692.359	16642
692.402	16493
692.403	16523
692.447	16623
692.490	16604
692.523	16570
692.534	16658
692.578	16497
692.622	16852
692.643	16803
692.666	16784
692.709	16915
692.753	17070
692.763	17050
692.797	17095
692.840	17028
692.884	17127
692.884	17163
692.928	17153
692.971	17577
693.004	17551
693.015	17486
693.059	17237
693.102	17136
693.124	16976
693.146	17029
693.189	16938
693.233	17051
693.245	16927
693.276	16864
693.320	17558
693.363	17630
693.365	17602
693.407	17788
693.450	17931
693.485	18258
693.493	18403
693.537	18654
693.580	18876
693.605	19119
693.624	19788
693.667	21010
693.710	22274
693.725	22771
693.753	25403
693.797	29388
693.840	33954
693.845	34247
693.883	31629
693.926	29174
693.966	26908
693.970	26670
694.013	23906
694.056	21104
694.086	19034
694.099	19049
694.142	19242
694.185	19107
694.206	19056
694.229	19188
694.272	19300
694.315	19747
694.326	19718
694.358	19353
694.401	18824
694.444	18875
694.446	18796
694.487	18356
694.530	18509
694.566	18165
694.573	18175
694.616	18278
694.659	18279
694.686	18279
694.702	18443
694.745	18937
694.787	19048
694.806	19207
694.830	19356
694.873	19655
694.916	19605
694.926	19545
694.959	19471
695.002	19446
695.044	19536
695.046	19486
695.087	19652
695.130	19983
695.166	20044
695.172	20077
695.215	20224
695.258	20023
695.286	20061
695.301	20136
695.343	19876
695.386	20249
695.406	20050
695.428	20065
695.471	20467
695.514	20588
695.526	20636
695.556	21064
695.599	21453
695.641	21748
695.646	21746
695.684	21643
695.726	21522
695.766	21232
695.769	21260
695.811	21130
695.854	20680
695.886	20491
695.896	20667
695.938	20953
695.981	21405
696.005	21600
696.023	21783
696.065	22223
696.108	22515
696.125	22568
696.150	22419
696.192	22122
696.235	21818
696.245	21681
696.277	22286
696.319	23164
696.361	23854
696.365	23858
696.404	23650
696.446	23395
696.485	23079
696.488	23131
696.530	23069
696.572	23041
696.604	23010
696.614	23047
696.656	22813
696.698	22611
696.724	22476
696.740	22561
696.783	22525
696.825	22658
696.844	22633
696.867	22682
696.909	22591
696.951	22373
696.964	22343
696.992	22667
697.034	22835
697.076	23215
697.083	23194
697.118	23272
697.160	23398
697.202	23451
697.203	23394
697.244	23183
697.286	22861
697.323	22646
697.327	22761
697.369	23171
697.411	23678
697.442	23918
697.453	23939
697.494	23839
697.536	23763
697.562	23662
697.578	23678
697.620	23413
697.661	23246
697.682	23085
697.703	23593
697.744	24559
697.786	25533
697.801	25802
697.828	25493
697.869	24869
697.911	24308
697.921	24102
697.952	23897
697.994	23550
698.035	23205
698.040	23101
698.077	23373
698.118	23631
698.160	23932
698.160	23872
698.201	24131
698.243	24383
698.279	24476
698.284	24584
698.325	25033
698.367	25490
698.399	25777
698.408	25901
698.449	26146
698.491	26442
698.518	26521
698.532	26482
698.573	26211
698.614	25911
698.638	25675
698.656	25802
698.697	25939
698.738	26074
698.757	26067
698.779	26149
698.820	26183
698.862	26224
698.877	26166
698.903	26234
698.944	26238
698.985	26244
698.996	26178
699.026	26376
699.067	26562
699.116	26715
699.235	25945
699.354	26542
699.474	25305
699.593	24991
699.713	26129
699.832	24814
699.951	25814
700.070	26069
700.190	24994
700.309	23484
700.428	23781
700.547	24723
700.667	23591
700.786	24671
700.905	24771
701.024	23098
701.143	22853
701.262	24204
701.381	24504
701.500	24729
701.619	24686
701.738	23777
701.857	23761
701.976	23295
702.095	23747
702.214	23890
702.333	23530
702.452	23695
702.571	23284
702.690	23536
702.809	23751
702.928	22996
703.047	22739
703.165	22661
703.284	23214
703.403	20958
703.522	21537
703.640	21759
703.759	21625
703.878	22045
703.997	21737
704.115	21628
704.234	23067
704.353	22043
704.471	21943
704.590	21655
704.708	21259
704.827	21295
704.946	20658
705.064	20858
705.183	21603
705.301	20988
705.420	21229
705.538	21660
705.656	21002
705.775	18926
705.893	21193
706.012	21077
706.130	20531
706.249	21373
706.367	21208
706.485	21148
706.604	20713
706.722	19723
706.840	20859
706.958	19934
707.077	20018
707.195	19720
707.313	20601
707.431	18856
707.549	19280
707.668	18567
707.786	20267
707.904	19236
708.022	18730
708.140	19105
708.258	18919
708.376	19947
708.494	18754
708.612	18905
708.730	19270
708.848	19848
708.966	19292
709.084	19441
709.202	19667
709.320	18377
709.438	18736
709.556	18949
709.674	18506
709.791	19025
709.909	19452
710.027	18486
710.145	18763
710.263	17898
710.380	17922
710.498	18190
710.616	19146
710.733	16978
710.851	17872
710.969	18247
711.086	16982
711.204	17778
711.322	18430
711.439	17874
711.557	18130
711.674	17631
711.792	17632
711.909	16987
712.027	17920
712.144	16724
712.262	16914
712.379	17501
712.497	17468
712.614	18160
712.732	17559
712.849	17080
712.966	16245
713.084	17079
713.201	17293
713.318	16986
713.436	17659
713.553	16811
713.670	17121
713.787	16484
713.905	16254
714.022	17072
714.139	16829
714.256	17133
714.373	17633
714.490	20717
714.608	27280
714.725	69310
714.842	78570
714.959	20039
715.076	17625
715.193	16728
715.310	17201
715.427	16582
715.544	16452
715.661	15866
715.778	15930
715.895	15289
716.011	16001
716.128	16308
716.245	16558
716.362	15509
716.479	14328
716.596	15047
716.713	14974
716.829	14919
716.946	15268
717.063	14914
717.180	15326
717.296	16037
717.413	15434
717.530	15075
717.646	14326
717.763	14456
717.880	14631
717.996	14135
718.113	14679
718.229	15031
718.346	14447
718.462	13793
718.579	15000
718.695	15406
718.812	15422
718.928	14312
719.045	14779
719.161	13827
719.277	14190
719.394	15047
719.510	13714
719.626	14036
719.743	15348
719.859	15505
719.975	17219
720.092	31747
720.208	56300
720.324	19588
720.440	14639
720.557	13435
720.673	14680
720.789	14026
720.905	14063
721.021	13934
721.137	13090
721.253	13693
721.369	14052
721.486	13102
721.602	13874
721.718	13941
721.834	13633
721.950	12876
722.066	13212
722.181	12654
722.297	13012
722.413	13353
722.529	13224
722.645	13349
722.761	13594
722.877	13231
722.993	12673
723.108	13105
723.224	12261
723.340	13021
723.456	12849
723.571	12632
723.687	14031
723.803	13178
723.918	12763
724.034	13068
724.150	12368
724.265	11871
724.381	12376
724.497	12662
724.612	12918
724.728	11729
724.843	12209
724.959	11953
725.074	12993
725.190	12861
725.305	12276
725.421	11895
725.536	11767
725.651	12635
725.767	11729
725.882	12134
725.997	12581
726.113	12535
726.228	12105
726.343	12753
726.459	12072
726.574	12617
726.689	11937
726.804	11794
726.920	11369
727.035	12860
727.150	12552
727.265	11429
727.380	12070
727.495	12335
727.610	12343
727.725	10958
727.841	11430
727.956	11786
728.071	11269
728.186	11383
728.301	10949
728.416	11225
728.531	11401
728.645	10444
728.760	11846
728.875	11582
728.990	11292
729.105	10560
729.220	10973
729.335	11896
729.449	11605
729.564	11471
729.679	11143
729.794	10500
729.908	11681
730.023	11317
730.138	11809
730.253	11336
730.367	11518
730.482	10757
730.596	9846
730.711	11297
730.826	12332
730.940	11492
731.055	12027
731.169	10997
731.284	11272
731.398	10687
731.513	11235
731.627	10920
731.742	12156
731.856	11600
731.970	12036
732.085	12500
732.199	12358
732.313	13549
732.428	19313
732.542	39240
732.656	30390
732.771	14313
732.885	11838
732.999	12772
733.113	14431
733.227	13765
733.342	14306
733.456	12482
733.570	12823
733.684	12487
733.798	12077
733.912	13038
734.026	13109
734.140	12992
734.254	14232
734.368	12857
734.482	12797
734.596	13034
734.710	12415
734.824	13245
734.938	13384
735.052	12476
735.166	12830
735.280	12422
735.393	13053
735.507	13076
735.621	11647
735.735	13003
735.849	11809
735.962	12303
736.076	11855
736.190	11573
736.303	11856
736.417	12659
736.531	12179
736.644	11891
736.758	11819
736.872	12298
736.985	11846
737.099	11552
737.212	11265
737.326	11368
737.439	10891
737.553	11343
737.666	11528
737.780	10926
737.893	11466
738.007	11640
738.120	11626
738.233	11138
738.347	11140
738.460	10236
738.573	11589
738.687	11150
738.800	11744
738.913	11502
739.026	11125
739.140	11163
739.253	10685
739.366	10821
739.479	10916
739.592	10637
739.705	10868
739.818	11600
739.932	11942
740.045	11058
740.158	10373
740.271	11143
740.384	10960
740.497	10200
740.610	10849
740.723	10540
740.836	10707
740.949	10422
741.062	11362
741.174	10712
741.287	9939
741.400	10237
741.513	10426
741.626	10365
741.739	10954
741.851	11034
741.964	10818
742.077	9648
742.189	9686
742.302	9810
742.415	10482
742.527	10250
742.640	10682
742.753	9811
742.865	10081
742.978	9921
743.090	10003
743.203	9638
743.316	9956
743.428	9123
743.541	10589
743.653	9323
743.766	10016
743.878	9921
743.990	9569
744.103	9958
744.215	9724
744.327	9676
744.440	10568
744.552	9902
744.664	9125
744.777	9762
744.889	9521
745.001	9650
745.113	8811
745.226	9813
745.338	9432
745.450	9171
745.562	10119
745.674	9747
745.786	9560
745.898	9160
746.010	9010
746.122	9189
746.234	9468
746.347	9648
746.459	9091
746.570	8738
746.682	9042
746.794	9457
746.906	9205
747.018	9330
747.130	8686
747.242	9022
747.354	9236
747.466	9637
747.577	8704
747.689	8910
747.801	8779
747.913	9190
748.024	8343
748.136	8141
748.248	7628
748.359	8647
748.471	8606
748.583	9465
748.694	8553
748.806	9220
748.918	8669
749.029	8138
749.141	8685
749.252	8876
749.364	8934
749.475	8438
749.587	8110
749.698	8419
749.809	8739
749.921	8015
750.032	8765
750.144	8300
750.255	8409
750.366	8230
750.478	8418
750.589	8992
750.700	8107
750.811	8536
750.923	7700
751.034	8669
751.145	9085
751.256	8142
751.367	8123
751.479	8959
751.590	8286
751.701	7159
751.812	7883
751.923	7593
752.034	8811
752.145	7641
752.256	7618
752.367	7755
752.478	7675
752.589	7851
752.700	7913
752.811	7855
752.922	7509
753.032	7883
753.143	8884
753.254	6950
753.365	8257
753.476	7044
753.586	9252
753.697	8394
753.808	8351
753.919	7692
754.029	7777
754.140	6414
754.251	7469
754.361	7647
754.472	7997
754.582	8002
754.693	8222
754.804	8590
754.914	7927
755.025	7329
755.135	7261
755.246	6994
755.356	7785
755.466	6972
755.577	8066
755.687	8003
755.798	6779
755.908	8026
756.018	8009
756.129	7145
756.239	8110
756.349	8396
756.460	7248
756.570	7309
756.680	8378
756.790	7632
756.900	8532
757.011	8057
757.121	7748
757.231	6915
757.341	7674
757.451	6831
757.561	7464
757.671	7123
757.781	7773
757.891	7321
758.001	7455
758.111	7348
758.221	7946
758.331	8040
758.441	7387
758.551	7818
758.661	7149
758.771	7541
758.880	7630
758.990	7533
759.100	6935
759.210	7618
759.320	7874
759.429	7533
759.539	7879
759.649	6689
759.758	7236
759.868	8061
759.978	6944
760.087	6817
760.197	7231
760.307	7393
760.416	7185
760.526	7085
760.635	9012
760.745	7351
760.854	7674
760.964	7978
761.073	7258
761.182	7454
761.292	7575
761.401	7772
761.511	7309
761.620	7136
761.729	8426
761.839	7544
761.948	8320
762.057	7607
762.166	8856
762.276	7292
762.385	8164
762.494	8113
762.603	8895
762.712	8565
762.822	8419
762.931	9762
763.040	7774
763.149	8368
763.258	8280
763.367	9020
763.476	8776
763.585	8588
763.694	9680
763.803	9048
763.912	9580
764.021	9851
764.130	9525
764.238	10061
764.347	10953
764.456	11237
764.565	11417
764.674	11334
764.783	11940
764.891	12849
765.000	14464
765.109	14849
765.217	16559
765.326	19243
765.435	20932
765.543	25517
765.652	29281
765.761	36284
765.869	48603
765.978	70648
766.086	107867
766.195	176364
766.303	297113
766.412	365783
766.520	309446
766.629	285801
766.737	173013
766.846	106402
766.954	72201
767.062	54147
767.171	41322
767.279	33536
767.387	28309
767.496	24159
767.604	22195
767.712	19155
767.820	18358
767.928	16724
768.037	15615
768.145	14716
768.253	15241
768.361	14517
768.469	14648
768.577	14159
768.685	14548
768.793	15430
768.901	15691
769.009	18136
769.117	19255
769.225	25156
769.333	32875
769.441	47562
769.549	76979
769.657	144499
769.765	279475
769.873	312061
769.981	257070
770.088	144306
770.196	77540
770.304	51259
770.412	36413
770.519	29074
770.627	22912
770.735	19262
770.842	17599
770.950	15760
771.058	14742
771.165	14054
771.273	13959
771.380	12710
771.488	12486
771.595	12217
771.703	11610
771.810	11489
771.918	10968
772.025	10702
772.133	11908
772.240	11168
772.348	12290
772.455	10969
772.562	10228
772.670	9357
772.777	10522
772.884	10200
772.991	10080
773.099	10455
773.206	9974
773.313	10452
773.420	10167
773.528	8807
773.635	8952
773.742	8764
773.849	8559
773.956	8852
774.063	8355
774.170	8563
774.277	8696
774.384	8612
774.491	8644
774.598	9032
774.705	9245
774.812	7867
774.919	8885
775.026	8503
775.133	8378
775.239	7944
775.346	9088
775.453	7685
775.560	8595
775.667	8372
775.773	6765
775.880	8053
775.987	8481
776.093	8263
776.200	9043
776.307	7148
776.413	8114
776.520	7402
776.627	8047
776.733	7121
776.840	6694
776.946	8326
777.053	7508
777.159	7297
777.266	7504
777.372	7662
777.478	7202
777.585	7361
777.691	6958
777.798	7295
777.904	7548
778.010	7118
778.117	6681
778.223	6942
778.329	6224
778.435	6364
778.542	8219
778.648	7805
778.754	6882
778.860	7321
778.966	7480
779.072	6811
779.178	6627
779.284	6905
779.391	6812
779.497	6387
779.603	8493
779.708	7340
779.815	10874
779.920	23501
780.026	51751
780.132	13029
780.238	7280
780.344	6398
780.450	7307
780.556	6192
780.661	6247
780.767	5993
780.873	5912
780.979	5817
781.085	5897
781.190	6538
781.296	6548
781.402	5567
781.507	5763
781.613	6387
781.719	5410
781.824	6800
781.930	5789
782.035	5462
782.141	6422
782.246	5582
782.352	6022
782.457	5543
782.563	6228
782.668	6253
782.773	5775
782.879	5068
782.984	6456
783.090	6464
783.195	6957
783.300	5522
783.405	6677
783.511	5324
783.616	5326
783.721	5734
783.826	5662
783.932	5971
784.037	5240
784.142	5617
784.247	5713
784.352	5792
784.457	5159
784.562	5777
784.667	4747
784.772	5375
784.877	5067
784.982	6045
785.087	5857
785.192	5078
785.297	5494
785.402	5219
785.507	5280
785.611	5210
785.716	5540
785.821	5017
785.926	5511
786.031	4679
786.135	5067
786.240	5165
786.345	4881
786.450	4809
786.554	5581
786.659	4048
786.763	4381
786.868	6066
786.973	4910
787.077	4504
787.182	5615
787.286	5166
787.391	5625
787.495	4281
787.600	4408
787.704	4760
787.809	4807
787.913	4592
788.017	5758
788.122	5047
788.226	5032
788.330	3883
788.435	5229
788.539	5202
788.643	4953
788.747	4608
788.852	5243
788.956	4859
789.060	5593
789.164	4519
789.268	5211
789.372	5139
789.476	4202
789.580	4358
789.684	4554
789.788	5354
789.892	3813
789.996	4249
790.100	4089
790.204	5110
790.308	4893
790.412	4822
790.516	4969
790.620	3791
790.724	5141
790.828	4940
790.931	3493
791.035	5319
791.139	5466
791.242	4478
791.346	5608
791.450	4316
791.554	3575
791.657	3670
791.761	5312
791.864	4507
791.968	4468
792.072	4710
792.175	4478
792.279	4959
792.382	4718
792.486	4197
792.589	3401
792.693	4807
792.796	3064
792.899	4316
793.003	5146
793.106	3053
793.209	3351
793.313	4878
793.416	3235
793.519	4463
793.623	4712
793.726	4946
793.829	3770
793.932	4020
794.035	3855
794.138	4400
794.242	5591
794.345	4294
794.448	4694
794.551	5061
794.654	13773
794.757	27877
794.860	8991
794.963	5141
795.066	3880
795.169	4349
795.272	4216
795.375	4431
795.477	3838
795.580	3680
795.683	4021
795.786	4262
795.889	3327
795.991	4929
796.094	4482
796.197	2860
796.300	6044
796.402	4302
796.505	3776
796.608	3623
796.710	4215
796.813	4620
796.915	3882
797.018	3895
797.120	3923
797.223	3108
797.326	4612
797.428	3808
797.530	3768
797.633	3235
797.735	3666
797.838	3322
797.940	4869
798.042	3532
798.145	3532
798.247	4150
798.349	2851
798.452	4001
798.554	4212
798.656	2994
798.758	3935
798.860	3991
798.962	3528
799.065	3266
799.167	2970
799.269	4504
799.371	4124
799.473	3764
799.575	3012
799.677	4165
799.779	4039
799.881	2673
799.983	4813
800.085	3882
800.187	2747
800.289	2670
800.390	3371
800.492	4169
800.594	4660
800.696	3505
800.798	3213
800.899	3475
801.001	3393
801.103	3079
801.205	3025
801.306	3489
801.408	2376
801.509	3412
801.611	3647
801.713	3186
801.814	2735
801.916	3787
802.017	2596
802.119	2225
802.220	3815
802.322	2077
802.423	4263
802.525	2483
802.626	3424
802.727	3978
802.829	4365
802.930	1520
803.031	4591
803.133	3009
803.234	3675
803.335	3524
803.436	2199
803.538	3630
803.639	2708
803.740	3287
803.841	3317
803.942	3674
804.043	4042
804.144	2476
804.245	2937
804.346	2634
804.447	3583
804.548	2631
804.649	3909
804.750	2740
804.851	2702
804.952	2975
805.053	2999
805.154	1860
805.255	3594
805.355	3390
805.456	3254
805.557	3259
805.658	2363
805.758	3331
805.859	3361
805.960	3074
806.061	2572
806.161	2328
806.262	2626
806.362	2573
806.463	2998
806.564	2658
806.664	2440
806.765	2802
806.865	3230
806.966	3089
807.066	1974
807.166	3692
807.267	3510
807.367	2992
807.468	4194
807.568	2199
807.668	3285
807.769	3449
807.869	2804
807.969	3337
808.069	4073
808.170	3437
808.270	2746
808.370	3045
808.470	3387
808.570	2479
808.670	3149
808.770	3144
808.870	2524
808.970	3178
809.070	2897
809.170	2169
809.271	3671
809.370	2682
809.470	4214
809.570	2504
809.670	2889
809.770	2593
809.870	3272
809.970	2757
810.070	2762
810.169	3694
810.269	2483
810.369	3685
810.469	2804
810.568	2318
810.668	3377
810.768	3319
810.867	3133
810.967	2647
811.066	2820
811.166	2355
811.265	3638
811.365	2047
811.464	2070
811.564	2295
811.663	3560
811.763	2465
811.862	3006
811.962	3131
812.061	3479
812.160	2146
812.260	3172
812.359	3396
812.458	3069
812.557	4089
812.657	3449
812.756	2943
812.855	2069
812.954	3203
813.053	2706
813.153	2312
813.252	2142
813.351	2382
813.450	2798
813.549	3327
813.648	2976
813.747	2863
813.846	3006
813.945	2485
814.044	2812
814.143	2555
814.242	3563
814.341	2122
814.439	3244
814.538	2963
814.637	2576
814.736	2347
814.835	3110
814.933	2540
815.032	3333
815.131	3434
815.229	3470
815.328	6217
815.427	4328
815.525	4520
815.624	4361
815.722	3583
815.821	4277
815.919	4255
816.018	3676
816.116	5115
816.215	3624
816.313	3765
816.412	4469
816.510	4666
816.609	5418
816.707	5004
816.805	5135
816.904	4655
817.002	5100
817.100	5698
817.198	4331
817.296	4844
817.395	4585
817.493	4776
817.591	4517
817.689	4736
817.787	4015
817.885	4919
817.983	4604
818.081	4144
818.179	5178
818.277	5428
818.375	5366
818.473	4497
818.571	4571
818.669	4470
818.767	4784
818.865	4545
818.963	3636
819.061	4507
819.158	4601
819.256	5493
819.354	4781
819.452	6100
819.549	5070
819.647	4677
819.745	4224
819.842	4047
819.940	3766
820.038	3792
820.135	4751
820.233	5257
820.330	3836
820.428	4016
820.525	5067
820.623	3925
820.720	4116
820.818	4412
820.915	4594
821.012	4272
821.110	3139
821.207	4209
821.304	3207
821.402	3467
821.499	5255
821.596	3821
821.693	4648
821.791	3602
821.888	3355
821.985	4987
822.082	3060
822.179	4342
822.276	3751
822.373	3035
822.470	3159
822.567	4559
822.664	2999
822.761	3583
822.858	2625
822.955	4033
823.052	3182
823.149	3256
823.246	3360
823.343	3393
823.440	4164
823.536	3082
823.633	3649
823.730	3112
823.827	3712
823.923	4191
824.020	4451
824.117	3291
824.213	3085
824.310	3865
824.407	3451
824.503	3583
824.600	3732
824.696	3208
824.793	4879
824.889	3086
824.986	3277
825.082	3308
825.179	3234
825.275	2767
825.371	3072
825.468	3311
825.564	2171
825.660	3872
825.757	5297
825.853	3516
825.949	3075
826.045	3400
826.142	2630
826.238	3597
826.334	3323
826.430	3372
826.526	2855
826.622	2538
826.718	3674
826.814	2917
826.910	3431
827.006	2960
827.102	2238
827.198	3745
827.294	2999
827.390	3086
827.486	3711
827.582	1711
827.678	2435
827.774	4022
827.869	2907
827.965	3431
828.061	2406
828.157	2647
828.252	3831
828.348	1984
828.444	2972
828.539	2338
828.635	3199
828.731	3075
828.826	1697
828.922	2808
829.017	2798
829.113	2836
829.208	2740
829.304	2172
829.399	4054
829.495	2630
829.590	2715
829.685	2588
829.781	3446
829.876	3317
829.971	2417
830.066	2662
830.162	2739
830.257	3160
830.352	2961
830.447	3250
830.543	2814
830.638	2389
830.733	3364
830.828	2679
830.923	3374
831.018	2599
831.113	3194
831.208	1445
831.303	2721
831.398	2158
831.493	2681
831.588	3370
831.683	1816
831.778	1654
831.873	2787
831.967	3220
832.062	2868
832.157	2172
832.252	3329
832.346	2293
832.441	3600
832.536	2799
832.631	3701
832.725	3532
832.820	2415
832.914	2769
833.009	2350
833.104	2453
833.198	2890
833.293	1961
833.387	3059
833.482	2778
833.576	2443
833.670	2503
833.765	1813
833.859	1773
833.954	2876
834.048	2396
834.142	2735
834.237	1849
834.331	1956
834.425	2945
834.519	2197
834.613	2796
834.708	2163
834.802	1966
834.896	2199
834.990	3056
835.084	3101
835.178	1476
835.272	2418
835.366	2233
835.460	2713
835.554	2688
835.648	2073
835.742	2032
835.836	2040
835.930	1188
836.024	3252
836.117	3047
836.211	3003
836.305	2429
836.399	3001
836.493	1448
836.586	3779
836.680	1920
836.774	1961
836.867	3543
836.961	1804
837.055	1357
837.148	1936
837.242	2171
837.335	2019
837.429	2102
837.522	1634
837.616	3182
837.709	2417
837.803	1531
837.896	3411
837.989	2293
838.083	2849
838.176	1445
838.269	1716
838.363	2607
838.456	1719
838.549	3201
838.642	2499
838.735	3133
838.829	3228
838.922	1366
839.015	1877
839.108	1368
839.201	1846
839.294	2605
839.387	2469
839.480	996
839.573	3020
839.666	1705
839.759	1520
839.852	1679
839.945	2104
840.038	1572
840.131	2231
840.223	1758
840.316	2668
840.409	2858
840.502	1639
840.594	2151
840.687	1275
840.780	2760
840.873	1460
840.965	659
841.058	2523
841.150	2072
841.243	1473
841.336	2388
841.428	2268
841.521	580
841.613	1210
841.706	2168
841.798	2015
841.890	2475
841.983	1126
842.075	1652
842.167	2397
842.260	1500
842.352	2569
842.444	1885
842.537	1800
842.629	1879
842.721	1456
842.813	1917
842.905	1326
842.997	2636
843.090	2076
843.182	2698
843.274	921
843.366	2701
843.458	1867
843.550	2741
843.642	2277
843.734	1470
843.826	2044
843.918	2351
844.009	2299
844.101	2395
844.193	1073
844.285	1620
844.377	2192
844.469	2238
844.560	2771
844.652	724
844.744	1334
844.835	1911
844.927	1812
845.019	1138
845.110	1470
845.202	2130
845.293	2172
845.385	1907
845.476	1536
845.568	2560
845.659	1087
845.751	2793
845.842	1660
845.934	1954
846.025	1410
846.116	2911
846.208	2043
846.299	1825
846.390	2226
846.482	2341
846.573	1750
846.664	1836
846.755	1167
846.846	1810
846.937	665
847.029	1582
847.120	1272
847.211	908
847.302	2265
847.393	1343
847.484	1709
847.575	1016
847.666	1475
847.757	1167
847.847	1215
847.938	1861
848.029	1060
848.120	1713
848.211	1942
848.302	1081
848.392	1708
848.483	1814
848.574	1576
848.664	1262
848.755	2015
848.846	1572
848.936	864
849.027	1101
849.118	1251
849.208	1449
849.299	1686
849.389	1763
849.480	2540
849.570	2413
849.661	3637
849.751	5420
849.841	2644
849.932	1456
850.022	1504
850.112	1902
850.203	1504
850.293	911
850.383	1154
850.474	978
850.564	1528
850.654	2224
850.744	1314
850.834	1724
850.924	1723
851.014	1850
851.104	1632
851.194	1413
851.284	1474
851.374	1970
851.464	966
851.554	1223
851.644	871
851.734	2024
851.824	1672
851.914	1513
852.004	2641
852.094	1648
852.183	1541
852.273	2371
852.363	1773
852.452	1242
852.542	2176
852.632	1354
852.721	909
852.811	1616
852.901	2126
852.990	1960
853.080	1195
853.169	1056
853.259	1895
853.348	1090
853.438	1836
853.527	1285
853.617	914
853.706	2880
853.795	3940
853.885	5442
853.974	8728
854.063	12986
854.152	17493
854.242	8442
854.331	2906
854.420	779
854.509	1694
854.598	1641
854.687	1512
854.777	2004
854.866	1203
854.955	1685
855.044	1660
855.133	1536
855.222	1702
855.311	531
855.400	1409
855.488	568
855.577	1725
855.666	1010
855.755	1320
855.844	1756
855.933	1609
856.021	1288
856.110	2224
856.199	850
856.288	2005
856.376	2338
856.465	1163
856.554	1411
856.642	1426
856.731	1890
856.819	1709
856.908	1063
856.996	1303
857.085	1683
857.173	906
857.262	1167
857.350	1080
857.438	1040
857.527	2135
857.615	551
857.703	1837
857.792	1709
857.880	1400
857.968	1820
858.056	2517
858.145	1765
858.233	1144
858.321	810
858.409	1714
858.497	1594
858.585	1091
858.673	1685
858.761	2111
858.849	963
858.937	1460
859.025	1236
859.113	1536
859.201	1256
859.289	1362
859.377	1382
859.465	1217
859.552	1019
859.640	800
859.728	1204
859.816	886
859.903	963
859.991	441
860.079	1577
860.166	1203
860.254	1349
860.342	1110
860.429	454
860.517	1708
860.604	1663
860.692	1466
860.779	426
860.867	886
860.954	1565
861.042	1660
861.129	1118
861.216	871
861.304	1104
861.391	1764
861.478	1831
861.565	1003
861.653	1719
861.740	1804
861.827	1055
861.914	1520
862.001	1057
862.089	1541
862.176	1318
862.263	1274
862.350	1251
862.437	1448
862.524	967
862.611	1341
862.698	1606
862.785	1002
862.871	1161
862.958	1323
863.045	930
863.132	533
863.219	1278
863.306	819
863.392	1924
863.479	1108
863.566	1405
863.652	1400
863.739	952
863.826	1178
863.912	1611
863.999	1715
864.086	1504
864.172	2188
864.259	1672
864.345	1713
864.432	1813
864.518	1817
864.604	1102
864.691	910
864.777	1238
864.863	1890
864.950	1618
865.036	2191
865.122	3373
865.209	3872
865.295	3483
865.381	3159
865.467	3498
865.553	3383
865.639	3102
865.726	3572
865.812	5049
865.898	5786
865.984	7780
866.070	12392
866.156	13471
866.242	5460
866.328	3581
866.414	3654
866.499	3297
866.585	3066
866.671	2861
866.757	2289
866.843	3182
866.928	3378
867.014	2193
867.100	3755
867.186	2522
867.271	2793
867.357	2768
867.442	2741
867.528	2691
867.614	3341
867.699	2654
867.785	4063
867.870	1922
867.956	2860
868.041	3391
868.127	1957
868.212	1723
868.297	2786
868.383	2917
868.468	3844
868.553	3291
868.639	3953
868.724	3196
868.809	2830
868.894	2696
868.979	2522
869.065	2852
869.150	1541
869.235	2379
869.320	1998
869.405	2036
869.490	1904
869.575	2493
869.660	2223
869.745	2101
869.830	2681
869.915	1676
870.000	2420
870.085	1933
870.169	2670
870.254	2394
870.339	1538
870.424	1987
870.509	2809
870.593	2468
870.678	3104
870.763	2763
870.847	2815
870.932	1778
871.016	2950
871.101	2009
871.186	2627
871.270	2629
871.355	1894
871.439	1259
871.523	2646
871.608	2811
871.692	2077
871.777	2057
871.861	2674
871.945	2466
872.030	2643
872.114	1610
872.198	1980
872.282	2179
872.367	2018
872.451	2066
872.535	1982
872.619	2474
872.703	1860
872.787	2188
872.871	2264
872.955	812
873.039	1292
873.123	1517
873.207	2888
873.291	1974
873.375	1586
873.459	2513
873.543	2021
873.627	2001
873.711	1764
873.794	1575
873.878	1613
873.962	1882
874.045	1495
874.129	968
874.137	1091
874.213	2324
874.245	2186
874.296	1964
874.352	1334
874.380	1026
874.460	1459
874.464	1478
874.547	1592
874.568	1712
874.631	2053
874.676	2014
874.714	1987
874.784	2248
874.798	2290
874.881	2648
874.892	2477
874.965	1404
874.999	1635
875.048	1922
875.107	1599
875.131	1459
875.215	2432
875.215	2431
875.298	1318
875.323	1420
875.381	1712
875.430	1994
875.465	2182
875.538	2292
875.548	2306
875.631	1841
875.646	1723
875.714	1126
875.753	1193
875.798	1279
875.861	1751
875.881	1891
875.964	1703
875.968	1689
876.047	1580
876.076	1733
876.130	1987
876.183	1410
876.213	1059
876.291	1860
876.296	1919
876.379	1062
876.398	1215
876.462	1661
876.506	1594
876.545	1569
876.613	1406
876.628	1361
876.711	1520
876.721	1583
876.794	2155
876.828	1835
876.877	1290
876.935	1275
876.960	1319
877.043	1523
877.043	1522
877.125	972
877.150	1375
877.208	2422
877.258	1872
877.291	1491
877.365	909
877.374	836
877.456	1378
877.472	1282
877.539	927
877.579	982
877.622	1038
877.687	1281
877.704	1310
877.787	913
877.794	920
877.869	1038
877.901	1291
877.952	1772
878.008	1600
878.034	1557
878.115	1103
878.117	1089
878.199	1406
878.222	1347
878.282	1333
878.329	1345
878.364	1389
878.437	1685
878.447	1686
878.529	763
878.544	846
878.611	1280
878.651	1172
878.694	1298
878.758	1567
878.776	1538
878.858	1082
878.865	1105
878.941	1393
878.972	1192
879.023	938
879.078	812
879.105	817
879.185	1588
879.187	1599
879.269	1178
879.292	1223
879.351	1269
879.399	1014
879.433	883
879.506	1926
879.516	2063
879.598	1033
879.613	1139
879.680	1708
879.720	1758
879.762	1717
879.827	1091
879.844	914
879.926	894
879.933	903
880.007	1006
880.040	1021
880.089	1127
880.147	1472
880.171	1582
880.253	1973
880.254	1972
880.335	2054
880.360	2169
880.417	2452
880.467	3015
880.499	3499
880.574	4157
880.580	4080
880.662	3085
880.680	2727
880.744	1825
880.787	1425
880.825	1311
880.893	1589
880.907	1639
880.989	1351
881.000	1331
881.070	1130
881.106	1151
881.152	1299
881.213	1096
881.233	979
881.315	1140
881.319	1132
881.396	1321
881.426	1475
881.478	1519
881.532	1226
881.559	1169
881.639	1192
881.641	1187
881.722	1089
881.745	1099
881.803	1426
881.852	1534
881.885	1355
881.958	1181
881.966	1232
882.047	1223
882.064	1313
882.129	1260
882.171	1227
882.210	1376
882.277	1730
882.291	1720
882.372	1287
882.383	1317
882.454	1728
882.489	1510
882.535	1279
882.596	1137
882.616	1057
882.697	1002
882.702	996
882.778	848
882.808	930
882.859	1316
882.914	1285
882.940	1094
883.020	440
883.021	441
883.102	1439
883.127	1450
883.183	1559
883.233	1965
883.264	1921
883.339	1419
883.345	1366
883.426	1001
883.445	872
883.507	727
883.551	657
883.587	895
883.657	1352
883.668	1380
883.749	1635
883.763	1640
883.830	1089
883.869	783
883.910	743
883.975	834
883.991	848
884.072	1048
884.081	1026
884.152	969
884.187	1036
884.233	1141
884.292	1329
884.314	1332
884.394	1116
884.398	1099
884.475	413
884.504	296
884.555	448
884.610	518
884.636	571
884.716	1094
884.716	1099
884.797	1360
884.821	1656
884.877	1689
884.927	1331
884.958	1070
885.033	887
885.038	880
885.118	521
885.139	531
885.199	663
885.244	560
885.279	702
885.350	1061
885.359	1097
885.439	1470
885.456	1497
885.520	1300
885.561	1221
885.600	1059
885.667	910
885.680	922
885.760	1030
885.773	1006
885.840	1057
885.878	1217
885.920	941
885.984	263
886.000	323
886.080	759
886.089	854
886.160	1449
886.195	1451
886.240	1104
886.300	788
886.320	872
886.400	1597
886.406	1610
886.480	715
886.511	375
886.560	501
886.616	785
886.640	824
886.720	1017
886.722	1017
886.800	569
886.827	478
886.879	617
886.932	624
886.959	900
887.038	1762
887.039	1758
887.119	1297
887.143	1103
887.198	1073
887.248	1114
887.278	1031
887.354	817
887.358	788
887.437	90
887.459	-48
887.517	690
887.564	1245
887.596	925
887.669	192
887.676	240
887.755	815
887.774	976
887.835	691
887.880	458
887.914	466
887.985	506
887.994	529
888.073	755
888.090	811
888.153	1297
888.195	1563
888.232	1459
888.300	1323
888.311	1284
888.391	1003
888.405	947
888.470	622
888.510	425
888.549	468
888.615	582
888.628	568
888.708	500
888.720	485
888.787	968
888.825	1216
888.866	896
888.930	487
888.945	526
889.024	695
889.035	717
889.103	1208
889.140	1485
889.182	1342
889.245	1087
889.261	1015
889.340	733
889.349	700
889.419	683
889.454	662
889.498	649
889.559	670
889.577	711
889.656	899
889.664	923
889.735	1394
889.768	1618
889.814	1325
889.873	938
889.978	219
890.083	1594
890.187	1702
890.292	805
890.397	842
890.501	1007
890.606	376
890.710	1137
890.815	1260
890.919	1763
891.024	453
891.128	821
891.233	266
891.337	1298
891.442	376
891.546	1284
891.650	231
891.755	1157
891.859	2054
891.963	1138
892.068	1294
892.172	904
892.276	534
892.380	572
892.484	1091
892.589	1051
892.693	727
892.797	936
892.901	44
893.005	420
893.109	1120
893.213	1272
893.317	855
893.421	770
893.525	598
893.629	-128
893.733	102
893.837	1171
893.941	546
894.045	914
894.148	277
894.252	1144
894.356	1300
894.460	1647
894.564	1225
894.667	369
894.771	770
894.875	874
894.978	1002
895.082	618
895.186	452
895.289	932
895.393	203
895.496	445
895.600	932
895.703	447
895.807	1245
895.910	1330
896.014	977
896.117	398
896.221	863
896.324	983
896.427	453
896.531	113
896.634	303
896.737	1743
896.840	230
896.944	418
897.047	1138
897.150	554
897.253	-116
897.356	691
897.460	625
897.563	221
897.666	1620
897.769	648
897.872	73
897.975	819
898.078	173
898.181	383
898.284	903
898.387	462
898.490	992
898.593	451
898.695	828
898.798	233
898.901	1463
899.004	511
899.107	446
899.209	424
899.312	840
899.415	927
899.518	805
899.620	-188
899.723	270
899.826	1304
899.928	1908
900.031	70
900.133	-43
900.236	646
900.338	1584
900.441	727
900.543	659
900.646	1044
900.748	380
900.851	1025
900.953	363
901.055	690
901.158	595
901.260	82
901.362	534
901.465	1098
901.567	936
901.669	1042
901.771	234
901.873	109
901.976	500
902.078	1148
902.180	941
902.282	-271
902.384	378
902.486	1547
902.588	1491
902.690	527
902.792	792
902.894	467
902.996	496
903.098	825
903.200	462
903.302	1173
903.404	295
903.505	578
903.607	357
903.709	998
903.811	527
903.913	435
904.014	-11
904.116	558
904.218	-11
904.319	691
904.421	1037
904.523	1680
904.624	751
904.726	1143
904.827	395
904.929	696
905.030	374
905.132	1007
905.233	598
905.335	112
905.436	676
905.537	310
905.639	937
905.740	295
905.841	771
905.943	648
906.044	230
906.145	387
906.247	338
906.348	1028
906.449	681
906.550	1231
906.651	318
906.752	606
906.854	23
906.955	425
907.056	-28
907.157	692
907.258	1082
907.359	819
907.460	-65
907.561	617
907.662	298
907.762	685
907.863	1006
907.964	538
908.065	536
908.166	152
908.267	350
908.367	851
908.468	575
908.569	253
908.670	777
908.770	1198
908.871	403
908.971	622
909.072	1271
909.173	662
909.273	211
909.374	794
909.474	52
909.575	336
909.675	270
909.776	1306
909.876	184
909.977	421
910.077	412
910.177	265
910.278	920
910.378	3
910.478	573
910.579	258
910.679	754
910.779	208
910.879	229
910.980	712
911.080	301
911.180	252
911.280	-894
911.380	960
911.480	1088
911.580	290
911.680	657
911.780	1322
911.880	525
911.980	663
912.080	303
912.180	938
912.280	507
912.380	120
912.480	1050
912.580	888
912.679	127
912.779	1125
912.879	632
912.979	422
913.078	-52
913.178	939
913.278	1424
913.377	-322
913.477	823
913.577	-18
913.676	251
913.776	1333
913.875	1080
913.975	1205
914.074	104
914.174	355
914.273	-424
914.373	890
914.472	1375
914.572	238
914.671	397
914.770	1376
914.870	1606
914.969	256
915.068	1133
915.167	1180
915.267	430
915.366	-60
915.465	337
915.564	741
915.663	241
915.763	725
915.862	1720
915.961	457
916.060	535
916.159	523
916.258	172
916.357	1118
916.456	1426
916.555	1287
916.654	65
916.752	625
916.851	676
916.950	572
917.049	875
917.148	382
917.247	356
917.345	349
917.444	217
917.543	846
917.642	582
917.740	822
917.839	934
917.937	1115
918.036	-56
918.135	321
918.233	149
918.332	-410
918.430	616
918.529	802
918.627	-10
918.726	140
918.824	1056
918.923	220
919.021	710
919.119	662
919.218	115
919.316	501
919.414	393
919.512	339
919.611	1400
919.709	309
919.807	940
919.905	1294
920.003	781
920.102	190
920.200	617
920.298	938
920.396	259
920.494	1171
920.592	834
920.690	902
920.788	915
920.886	1003
920.984	1599
921.082	585
921.180	1001
921.277	1335
921.375	528
921.473	826
921.571	852
921.669	1109
921.766	1056
921.864	2157
921.962	2310
922.060	1327
922.157	1221
922.255	1701
922.352	1510
922.450	2252
922.548	1128
922.645	1755
922.743	1967
922.840	3462
922.938	4627
923.035	3824
923.133	4066
923.230	3727
923.327	4597
923.425	4887
923.522	4790
923.619	4034
923.717	3832
923.814	3802
923.911	2885
924.008	4120
924.106	3578
924.203	3150
924.300	3573
924.397	3758
924.494	4818
924.591	3778
924.688	3140
924.786	3536
924.883	3914
924.979	3183
925.077	3537
925.173	2884
925.270	3611
925.367	3427
925.464	3766
925.561	4296
925.658	3902
925.755	3506
925.852	3362
925.948	3633
926.045	3352
926.142	3781
926.239	3761
926.335	3400
926.432	3068
926.529	3059
926.625	3683
926.722	3448
926.818	2951
926.915	3157
927.011	4105
927.108	3774
927.204	3562
927.301	3271
927.397	2373
927.494	3899
927.590	3443
927.687	2202
927.783	4202
927.879	3767
927.976	2227
928.072	2696
928.168	2739
928.264	3424
928.361	2211
928.457	3855
928.553	2700
928.649	2595
928.745	2808
928.841	2499
928.937	2003
929.033	2963
929.129	3094
929.225	3552
929.321	2554
929.417	2019
929.513	2598
929.609	2480
929.705	2551
929.801	2416
929.897	2234
929.993	3087
930.089	2218
930.184	2283
930.280	2949
930.376	3572
930.471	2800
930.567	1779
930.663	3135
930.758	1969
930.854	2214
930.950	2958
931.045	2523
931.141	2746
931.236	3930
931.332	2002
931.427	1458
931.523	2862
931.618	2441
931.714	1881
931.809	1511
931.905	3335
932.000	1293
932.095	1209
932.191	3079
932.286	3416
932.381	2953
932.476	1481
932.572	2724
932.667	1739
932.762	2230
932.857	1894
932.952	1934
933.047	2074
933.142	1553
933.237	3301
933.332	2171
933.427	2822
933.522	2423
933.617	2129
933.712	2082
933.807	1648
933.902	2464
933.997	3197
934.092	1629
934.187	1847
934.282	2845
934.376	1926
934.471	3019
934.566	3005
934.661	1815
934.755	1811
934.850	2904
934.945	1521
935.039	1522
935.134	1179
935.228	1412
935.323	3506
935.417	2696
935.512	1452
935.606	1037
935.701	1551
935.795	2003
935.890	2716
935.984	1872
936.079	1318
936.173	2158
936.267	2132
936.362	1759
936.456	2126
936.550	2743
936.644	2423
936.738	1490
936.833	1975
936.927	1070
937.021	805
937.115	2000
937.209	1268
937.303	2160
937.397	1599
937.491	1864
937.585	2431
937.679	1786
937.773	1608
937.867	1364
937.961	908
938.055	1972
938.149	1872
938.243	1325
938.337	1227
938.430	358
938.524	1573
938.618	1526
938.712	1199
938.805	1349
938.899	2005
938.993	1812
939.086	2084
939.180	528
939.274	679
939.367	2036
939.461	2334
939.554	1847
939.648	470
939.741	1546
939.835	1003
939.928	2214
940.022	1973
940.115	955
940.208	1487
940.302	1886
940.395	2556
940.488	787
940.582	1485
940.675	1074
940.768	2164
940.861	1291
940.954	2050
941.048	1264
941.141	474
941.234	816
941.327	1538
941.420	1067
941.513	1761
941.606	1351
941.699	2263
941.792	969
941.885	1849
941.978	1901
942.071	2048
942.164	907
942.257	428
942.349	314
942.442	1646
942.535	735
942.628	768
942.721	1381
942.813	916
942.906	2081
942.999	1487
943.091	651
943.184	882
943.277	1027
943.369	1749
943.462	-354
943.554	1434
943.647	1208
943.739	1577
943.832	1215
943.924	359
944.017	703
944.109	224
944.201	731
944.294	640
944.386	795
944.478	1222
944.571	826
944.663	1131
944.755	490
944.847	1462
944.940	1066
945.032	557
945.124	560
945.216	1464
945.308	971
945.400	1335
945.492	909
945.584	684
945.676	1304
945.768	1326
945.860	1662
945.952	1052
946.044	1207
946.136	1140
946.228	1081
946.320	264
946.412	648
946.503	1164
946.595	1887
946.687	419
946.779	1115
946.870	907
946.962	474
947.054	1174
947.145	917
947.237	987
947.329	519
947.420	1360
947.512	1060
947.603	196
947.695	1084
947.786	584
947.878	9
947.969	921
948.061	426
948.152	1251
948.243	822
948.335	622
948.426	123
948.517	1100
948.609	1174
948.700	910
948.791	666
948.882	963
948.973	586
949.065	908
949.156	1879
949.247	778
949.338	1506
949.429	296
949.520	882
949.611	1122
949.702	1969
949.793	1143
949.884	138
949.975	876
950.066	539
950.157	107
950.247	-276
950.338	845
950.429	705
950.520	279
950.611	307
950.701	394
950.792	1003
950.883	1566
950.973	1103
951.064	587
951.155	1215
951.245	833
951.336	1437
951.427	828
951.517	1557
951.608	1117
951.698	92
951.788	510
951.879	-93
951.969	1126
952.060	1189
952.150	-244
952.240	1651
952.331	-699
952.421	1831
952.511	430
952.602	627
952.692	94
952.782	249
952.872	-186
952.962	454
953.052	409
953.143	186
953.233	649
953.323	1191
953.413	514
953.503	1169
953.593	597
953.683	53
953.773	-302
953.863	899
953.953	-101
954.042	1354
954.132	1126
954.222	434
954.312	-121
954.402	496
954.492	938
954.581	227
954.671	274
954.761	928
954.850	1234
954.940	45
955.030	69
955.119	-39
955.209	12
955.298	-243
955.388	701
955.477	769
955.567	391
955.656	380
955.746	1158
955.835	431
955.925	455
956.014	123
956.103	936
956.193	1374
956.282	970
956.371	413
956.461	1359
956.550	625
956.639	1055
956.728	215
956.817	1216
956.906	274
956.995	848
957.085	1080
957.174	516
957.263	261
957.352	113
957.441	10
957.530	-281
957.619	630
957.708	280
957.796	861
957.885	198
957.974	-466
958.063	792
958.152	-254
958.241	30
958.329	354
958.418	810
958.507	-156
958.596	1133
958.684	693
958.773	976
958.861	128
958.950	80
959.039	909
959.127	745
959.216	1500
959.304	984
959.393	165
959.481	177
959.570	380
959.658	-533
959.746	15
959.835	1281
959.923	45
960.011	756
960.100	503
960.188	-195
960.276	889
960.365	107
960.453	-197
960.541	848
960.629	-128
960.717	-177
960.805	-312
960.893	694
960.981	702
961.069	1410
961.158	663
961.245	1894
961.333	603
961.421	458
961.509	917
961.597	617
961.685	275
961.773	592
961.861	229
961.949	1212
962.036	-587
962.124	3
962.212	348
962.299	257
962.387	241
962.475	302
962.562	350
962.650	653
962.738	655
962.825	609
962.913	226
963.000	-489
963.088	712
963.175	201
963.263	1366
963.350	154
963.438	90
963.525	273
963.612	784
963.700	102
963.787	1231
963.874	1474
963.962	594
964.049	799
964.136	475
964.223	149
964.310	217
964.398	507
964.485	370
964.572	763
964.659	670
964.746	752
964.833	428
964.920	-17
965.007	704
965.094	856
965.181	-170
965.268	565
965.355	1166
965.441	774
965.528	-9
965.615	1769
965.702	225
965.789	739
965.875	453
965.962	229
966.049	40
966.136	580
966.222	459
966.309	713
966.395	396
966.482	1389
966.569	-78
966.655	941
966.742	-224
966.828	84
966.915	-169
967.001	-211
967.087	302
967.174	528
967.260	313
967.347	573
967.433	105
967.519	802
967.605	714
967.692	451
967.778	939
967.864	805
967.950	-362
968.036	294
968.123	615
968.209	416
968.295	-109
968.381	1225
968.467	500
968.553	-488
968.639	778
968.725	-49
968.811	1079
968.897	962
968.983	287
969.069	-150
969.154	-333
969.240	-90
969.326	-56
969.412	112
969.497	-466
969.583	79
969.669	348
969.755	1064
969.840	328
969.926	1072
970.012	427
970.097	1601
970.183	480
970.268	1059
970.354	-31
970.439	132
970.525	652
970.610	166
970.696	562
970.781	841
970.866	-217
970.952	190
971.037	122
971.122	300
971.208	543
971.293	1252
971.378	-879
971.463	136
971.549	165
971.634	231
971.719	166
971.804	467
971.889	790
971.974	714
972.059	453
972.144	-127
972.229	-133
972.314	185
972.399	238
972.484	340
972.569	97
972.654	34
972.739	1170
972.824	33
972.908	0
972.993	-120
973.078	-52
973.163	-575
973.247	574
973.332	-354
973.417	590
973.501	433
973.586	811
973.671	-433
973.755	314
973.840	793
973.924	-7
974.009	836
974.093	-58
974.178	989
974.262	226
974.346	146
974.431	507
974.515	357
974.600	69
974.684	733
974.768	639
974.852	1481
974.937	-616
975.021	696
975.105	587
975.189	477
975.273	422
975.358	-820
975.442	162
975.526	60
975.610	-542
975.694	-619
975.778	671
975.862	-133
975.946	-1340
976.030	1119
976.114	-353
976.198	425
976.281	819
976.365	656
976.449	536
976.533	5
976.617	621
976.700	521
976.784	2
976.868	74
976.951	861
977.035	246
977.119	293
977.202	-574
977.286	188
977.369	545
977.453	745
977.536	970
977.620	366
977.703	992
977.787	-122
977.870	629
977.953	967
978.037	-688
978.120	1173
978.203	68
978.287	126
978.370	43
978.453	522
978.536	338
978.620	830
978.703	322
978.786	-195
978.869	-255
978.952	-866
979.035	1742
979.118	1117
979.201	-707
979.284	390
979.367	-457
979.450	674
979.533	-100
979.616	327
979.699	192
979.782	550
979.865	-189
979.948	-205
980.030	-56
980.113	185
980.196	-57
980.279	-43
980.361	27
980.444	-82
980.526	147
980.609	678
980.692	580
980.774	181
980.857	-34
980.939	1013
981.022	198
981.104	711
981.187	61
981.269	220
981.352	189
981.434	-215
981.516	359
981.599	1267
981.681	511
981.763	-284
981.846	-717
981.928	-75
982.010	95
982.092	-428
982.174	455
982.256	-868
982.339	469
982.421	-290
982.503	-257
982.585	-1391
982.667	391
982.749	154
982.831	268
982.913	-560
982.995	723
983.077	-749
983.158	661
983.240	-563
983.322	598
983.404	645
983.486	971
983.568	198
983.649	817
983.731	537
983.813	242
983.894	326
983.976	351
984.058	466
984.139	632
984.221	-168
984.302	886
984.384	499
984.465	-340
984.547	240
984.628	-172
984.710	1896
984.791	356
984.872	580
984.954	228
985.035	501
985.116	-508
985.198	-145
985.279	945
985.360	-279
985.441	-249
985.522	329
985.604	133
985.685	-812
985.766	697
985.847	515
985.928	-335
986.009	-468
986.090	-191
986.171	214
986.252	15
986.333	359
986.414	792
986.495	347
986.576	375
986.656	-243
986.737	1279
986.818	52
986.899	253
986.980	-314
987.060	537
987.141	-280
987.222	537
987.302	999
987.383	895
987.464	550
987.544	539
987.625	719
987.705	846
987.786	478
987.866	579
987.947	272
988.027	1158
988.108	367
988.188	959
988.268	-89
988.349	469
988.429	114
988.509	1293
988.589	848
988.670	-947
988.750	1366
988.830	370
988.910	362
988.990	486
989.070	-89
989.151	-274
989.231	212
989.311	593
989.391	-621
989.471	225
989.551	876
989.631	-235
989.711	887
989.791	139
989.870	281
989.950	388
990.030	698
990.110	259
990.190	-280
990.269	103
990.349	-336
990.429	402
990.509	342
990.588	-419
990.668	-58
990.747	189
990.827	-394
990.907	-127
990.986	-927
991.066	163
991.145	-376
991.225	438
991.304	48
991.383	559
991.463	-635
991.542	806
991.622	-299
991.701	-278
991.780	-326
991.859	-391
991.939	-61
992.018	34
992.097	306
992.176	-71
992.256	-248
992.335	-580
992.414	425
992.493	-792
992.572	-322
992.651	1214
992.730	77
992.809	-94
992.888	-798
992.967	-16
993.046	-912
993.125	-514
993.203	42
993.282	539
993.361	257
993.440	656
993.519	-797
993.597	-5
993.676	-194
993.755	223
993.834	-406
993.912	-211
993.991	-313
994.069	-527
994.148	-197
994.226	-395
994.305	241
994.384	-362
994.462	966
994.540	-595
994.619	-891
994.697	50
994.776	-1125
994.854	307
994.932	-1285
995.011	-292
995.089	-284
995.167	-201
995.245	-101
995.324	247
995.402	189
995.480	-17
995.558	-460
995.636	-1212
995.714	-169
995.792	1098
995.870	-707
995.948	-117
996.026	-441
996.104	-500
996.182	-294
996.260	-547
996.338	-712
996.416	-1307
996.494	-827
996.572	171
996.649	-232
996.727	-848
996.805	-486
996.883	-257
996.960	-732
997.038	-240
997.116	-131
997.193	-331
997.271	148
997.348	-838
997.426	-819
997.504	227
997.581	300
997.658	-741
997.736	-868
997.813	-564
997.891	102
997.968	-541
998.046	-353
998.123	104
998.200	-269
998.277	-712
998.355	-62
998.432	-1120
998.509	-812
998.586	408
998.663	-471
998.741	-141
998.818	-1333
998.895	-538
998.972	-227
999.049	-50
999.126	-797
999.203	-216
999.280	-425
999.357	155
999.434	-1526
999.511	-91
999.587	-266
999.664	-1296
999.741	-434
999.818	-23
999.895	-1121
999.971	-948
1000.048	-817
1000.125	10
1000.202	-989
1000.278	-831
1000.355	-596
1000.431	-384
1000.508	-470
1000.584	-320
1000.661	-1059
1000.738	-1042
1000.814	-870
1000.890	-292
1000.967	-734
1001.043	-85
1001.120	-1033
1001.196	-259
1001.272	-950
1001.349	123
1001.425	-242
1001.501	-908
1001.577	-678
1001.654	-379
1001.730	-559
1001.806	-696
1001.882	-1200
1001.958	-411
1002.034	-175
1002.110	-438
1002.186	-1004
1002.262	-525
1002.338	-968
1002.414	125
1002.490	115
1002.566	-1458
1002.642	-383
1002.718	28
1002.794	-842
1002.870	-752
1002.945	-514
1003.021	-321
1003.097	-1412
1003.173	77
1003.248	-778
1003.324	86
1003.400	-326
1003.475	-237
1003.551	-1054
1003.626	-555
1003.702	-720
1003.777	-101
1003.853	-460
1003.928	-1005
1004.004	-605
1004.079	460
1004.155	-355
1004.230	-1239
1004.305	149
1004.381	-662
1004.456	-713
1004.531	-540
1004.607	-855
1004.682	266
1004.757	-459
1004.832	-1030
1004.907	-632
1004.982	-209
1005.057	-192
1005.133	-702
1005.208	-559
1005.283	-682
1005.358	44
1005.433	-1660
1005.508	-1062
1005.583	-1054
1005.657	-1419
1005.732	-485
1005.807	-1239
1005.882	-419
1005.957	-1066
1006.032	-1312
1006.106	-541
1006.181	-1280
1006.256	-746
1006.331	-630
1006.405	-936
1006.480	-556
1006.554	-877
1006.629	-527
1006.704	-773
1006.778	-565
1006.853	-157
1006.927	-245
1007.002	-1139
1007.076	178
1007.150	-1515
1007.225	-739
1007.299	-646
1007.373	-1420
1007.448	-674
1007.522	-539
1007.596	-894
1007.671	-1240
1007.745	-983
1007.819	-1219
1007.893	-1139
1007.967	-996
1008.041	-1075
1008.115	-497
1008.190	-1634
1008.264	196
1008.338	-1660
1008.412	-617
1008.486	-451
1008.560	-651
1008.633	-835
1008.707	-1074
1008.781	-183
1008.855	-1395
1008.929	-693
1009.003	-1122
1009.076	-602
1009.150	-1002
1009.224	-963
1009.298	37
1009.371	-871
1009.445	176
1009.519	-722
1009.592	-1884
1009.666	-657
1009.739	-603
1009.813	-1343
1009.886	-482
1009.960	-862
1010.033	-438
1010.107	-820
1010.180	-708
1010.253	-1699
1010.327	-1442
1010.400	-643
1010.473	-1081
1010.547	-152
1010.620	-142
1010.693	-1342
1010.766	-2094
1010.840	-1058
1010.913	-786
1010.986	-1276
1011.059	-712
1011.132	-896
1011.205	-850
1011.278	-992
1011.351	-644
1011.424	-1110
1011.497	-910
1011.570	-1112
1011.643	-932
1011.716	-869
1011.789	-1629
1011.862	-690
1011.934	-425
1012.007	-1384
1012.080	-451
1012.153	-1589
1012.225	464
1012.298	-1252
1012.371	-1649
1012.443	-477
1012.516	-1737
1012.588	-613
1012.661	-649
1012.733	-1673
1012.806	-983
1012.879	-1137
1012.951	-1273
1013.023	-753
1013.096	-1181
1013.168	-1515
1013.241	-1317
1013.313	-1424
1013.385	-1488
1013.458	-639
1013.530	-749
1013.602	-2160
1013.674	-72
1013.746	-777
1013.819	-1587
1013.891	-774
1013.963	-1639
1014.035	-116
1014.107	-764
1014.179	-1401
1014.251	-1779
1014.323	-1237
1014.395	-893
1014.467	-479
1014.539	-911
1014.611	-1549
1014.683	-817
1014.754	-1159
1014.826	-1649
1014.898	-796
1014.970	-1602
1015.042	-563
1015.113	-570
1015.185	-1037
1015.257	-1912
1015.328	-915
1015.400	-1208
1015.471	-1229
1015.543	-1777
1015.615	-1000
1015.686	-1433
1015.757	-1623
1015.829	-918
1015.901	-1488
1015.972	-1415
1016.043	-1683
1016.115	-1119
1016.186	-1257
1016.257	-1703
1016.328	-1353
1016.400	-975
1016.471	-2056
1016.542	-1988
1016.613	-763
1016.685	-1311
1016.756	-1584
1016.827	-1712
1016.898	-2362
1016.969	-1032
1017.040	-1206
1017.111	-1447
1017.182	-1655
1017.253	-999
1017.324	-1213
1017.395	-1359
1017.466	-930
1017.537	-1087
1017.608	-994
1017.678	-1056
1017.749	-1373
1017.820	-633
1017.891	-2541
1017.961	-1589
1018.032	-1770
1018.103	-678
1018.173	-1683
1018.244	-1636
1018.315	-1761
1018.385	-726
1018.456	-1552
1018.526	-2127
1018.597	-965
1018.667	-1678
1018.738	-1488
1018.808	-1870
1018.878	-1469
1018.949	-1655
1019.019	-1118
1019.089	-831
1019.160	-566
1019.230	-1099
1019.300	-1027
1019.371	-1640
1019.441	-858
1019.511	-1183
1019.581	-814
1019.651	-1526
1019.721	-1517
1019.791	-1175
1019.861	-1656
1019.931	-822
1020.001	-1731
1020.071	-1083
1020.141	-1884
1020.211	-1633
1020.281	-950
1020.351	-1916
1020.421	-1068
1020.491	-994
1020.560	-2061
1020.630	-1345
1020.700	-1162
1020.770	-2134
1020.839	-1807
1020.909	-1545
1020.979	-650
1021.048	-977
1021.118	-1785
1021.187	-1773
1021.257	-1591
1021.326	-1392
1021.396	-1237
1021.465	-1382
1021.535	-1085
1021.604	-1788
1021.674	-1441
1021.743	-409
1021.812	-1730
1021.882	-1339
1021.951	-1236
1022.020	-1121
1022.089	-1168
1022.159	-1146
1022.228	-1281
1022.297	-1848
1022.366	-1551
1022.435	-332
1022.504	-1705
1022.573	-2109
1022.642	-1273
1022.711	-1110
1022.781	-1819
1022.849	-1374
1022.918	-1629
1022.987	-1540
1023.056	-1442
1023.125	-1794
1023.194	-1402
1023.263	-1355
1023.331	-1571
1023.400	-1355
1023.469	-1950
1023.538	-1178
1023.606	-1144
1023.675	-1421
1023.744	-931
1023.812	-1437
1023.881	-1402
1023.949	-1114
1024.018	-1258
1024.086	-1193
1024.155	-2068
1024.223	-1734
1024.292	-803
1024.360	-1198
1024.429	-1742
1024.497	-2062
1024.565	-1427
1024.634	-1684
1024.702	-437
1024.770	-424
1024.838	-1944
1024.907	-174
1024.975	-986
1025.043	-1300
1025.111	-2202
1025.179	-1768
1025.247	-1466
1025.315	-834
1025.383	-1436
1025.451	-2308
1025.519	-2140
1025.587	-1706
1025.655	-1305
1025.723	-1389
1025.791	-1757
1025.859	-1389
1025.927	-1105
1025.995	-1532
1026.062	-504
1026.130	-1129
1026.198	-1434
1026.266	-1032
1026.333	-999
1026.401	-748
1026.469	-2145
1026.536	-711
1026.604	-2759
1026.671	-2087
1026.739	-1205
1026.806	-1067
1026.874	-1615
1026.941	-759
1027.009	-1603
1027.076	-1147
1027.144	-1342
1027.211	-2048
1027.278	-1788
1027.345	-1077
1027.413	-1195
1027.480	-1874
1027.547	-2338
1027.614	-1567
1027.682	-1653
1027.749	-1203
1027.816	-1469
1027.883	-1281
1027.950	-990
1028.017	-1583
1028.084	-1340
1028.151	-1597
1028.218	-1311
1028.285	-1807
1028.352	-1289
1028.419	-1597
1028.486	-1841
1028.553	-1361
1028.619	-1920
1028.686	-1624
1028.753	-1382
1028.820	-1070
1028.886	-1678
1028.953	-1417
1029.020	-1944
1029.086	-1511
1029.153	-946
1029.220	-1870
1029.286	-1147
1029.353	-975
1029.419	-1018
1029.486	-1749
1029.552	-1942
1029.619	-1432
1029.685	-891
1029.751	-1376
1029.818	-1451
1029.884	-1427
1029.951	-837
1030.017	-1085
1030.083	-1922
1030.149	-1822
1030.216	-1982
1030.282	-1777
1030.348	-1287
1030.414	-1420
1030.480	-1865
1030.546	-1356
1030.612	-1420
1030.678	-1603
1030.744	-1383
1030.810	-1606
1030.876	-1783
1030.942	-2547
1031.008	-2392
1031.074	-2371
1031.140	-2155
1031.206	-1045
1031.272	-1388
1031.337	-1665
1031.403	-858
1031.469	-1525
1031.534	-1428
1031.600	-1332
1031.666	-1850
1031.731	-1696
1031.797	-1242
1031.863	-1195
1031.928	-1397
1031.994	-2290
1032.059	-1707
1032.125	-997
1032.190	-1968
1032.256	-1753
1032.321	-2371
1032.386	-1323
1032.452	-1151
1032.517	-1423
1032.582	-1719
1032.647	-2016
1032.713	-1868
1032.778	-1005
1032.843	-1514
1032.908	-1028
1032.974	-982
1033.039	-1881
1033.104	-1122
1033.169	-1611
1033.234	-1027
1033.299	-1404
1033.364	-1332
1033.429	-1661
1033.494	-1521
1033.559	-1715
1033.624	-1575
1033.688	-1361
1033.753	-2063
1033.818	-1912
1033.883	-865
1033.948	-1667
1034.013	-1799
1034.077	-1274
1034.142	-792
1034.207	-1221
1034.271	-437
1034.336	611
1034.400	-274
1034.465	-232
1034.530	-1737
1034.594	-742
1034.658	-2531
1034.723	-1633
1034.787	-1478
1034.852	-1455
1034.916	-1874
1034.981	-672
1035.045	-979
1035.109	-1325
1035.173	-1459
1035.238	-1498
1035.302	-1093
1035.366	-1187
1035.430	-1056
1035.495	-1536
1035.559	-1464
1035.623	-809
1035.687	-1598
1035.751	-1570
1035.815	-1916
1035.879	-1554
1035.943	-1327
1036.007	-1769
1036.071	-1078
1036.135	-783
1036.198	-1531
1036.262	-1455
1036.326	-2268
1036.390	-1985
1036.454	-2063
1036.517	-1322
1036.581	-1422
1036.645	-630
1036.709	-1229
1036.772	-2431
1036.836	-1077
1036.900	-468
1036.963	-864
1037.026	-1794
1037.090	-863
1037.154	-1853
1037.217	-1284
1037.280	-1809
1037.344	-1672
1037.407	-1076
1037.471	-1465
1037.534	-1305
1037.597	-1557
1037.661	-1376
1037.724	-1746
1037.787	-1857
1037.850	-2193
1037.913	-1051
1037.977	-788
1038.040	-1470
1038.103	-1344
1038.166	-1598
1038.229	-1398
1038.292	-578
1038.355	-1314
1038.418	-1378
1038.481	-904
1038.544	-1726
1038.607	-1495
1038.670	-1263
1038.732	-2024
1038.795	-1731
1038.858	-1527
1038.921	-1312
1038.984	-1690
1039.046	-1294
1039.109	-1404
1039.172	-917
1039.234	-1754
1039.297	-1806
1039.360	-1136
1039.422	-1510
1039.485	-1734
1039.547	-1697
1039.610	-1523
1039.672	-1495
1039.734	-1723
1039.797	-1877
1039.859	-1943
1039.922	-1997
1039.984	-1234
1040.046	-1848
1040.109	-1529
1040.171	-2109
1040.233	-1881
1040.295	-1729
1040.358	-802
1040.420	-1746
1040.482	-2311
1040.544	-1190
1040.606	-1209
1040.668	-1699
1040.730	-1944
1040.792	-1363
1040.854	-1337
1040.916	-1804
1040.978	-2082
1041.040	-818
1041.102	-1759
1041.164	-1375
1041.225	-2751
1041.287	-2297
1041.349	-1628
1041.411	-1896
1041.472	-1761
1041.534	-1844
1041.596	-2328
1041.657	-1209
1041.719	-1768
1041.781	-2002
1041.842	-1739
1041.904	-1979
1041.965	-1978
1042.027	-1933
1042.088	-1687
1042.150	-1863
1042.211	-1721
1042.272	-1133
1042.334	-1082
1042.395	-1258
1042.456	-2432
1042.518	-1206
1042.579	-1372
1042.640	-2137
1042.701	-1764
1042.763	-1428
1042.824	-1495
1042.885	-1771
1042.946	-1243
1043.007	-1865
1043.068	-1167
1043.129	-975
1043.190	-1865
1043.251	-1124
1043.312	-1161
1043.373	-781
1043.434	-1971
1043.495	-1832
1043.556	-1339
1043.616	-1867
1043.677	-2106
1043.738	-1592
1043.799	-1170
1043.859	-1217
1043.920	-1591
1043.981	-1662
1044.041	-1665
1044.102	-1437
1044.162	-871
1044.223	-1736
1044.284	-1642
1044.344	-1375
1044.405	-2333
1044.465	-1265
1044.525	-1313
1044.586	-1906
1044.646	-1847
1044.707	-1119
1044.767	-1328
1044.827	-2184
1044.887	-2083
1044.948	-1275
1045.008	-1569
1045.068	-1264
1045.128	-1464
1045.188	-1570
1045.249	-574
1045.309	-893
1045.369	-1413
1045.429	-1437
1045.489	-1904
1045.549	-1184
1045.609	-1540
1045.669	-1515
1045.729	-1780
1045.789	-1984
1045.848	-2005
1045.908	-1102
1045.968	-1183
1046.028	-1449
1046.088	-1371
1046.147	-1324
1046.207	-1811
1046.267	-1256
1046.326	-2048
1046.386	-870
1046.446	-1388
1046.505	-1068
1046.565	-1107
1046.624	-840
1046.684	-780
1046.743	-462
1046.803	100
1046.862	-58
1046.922	0
