'Start Wavelength	183.907
'End Wavelength	1046.922
'Gate Delay	5.000
'Gate Width (ms)	1.050
'Laser Output Level	0.000
'X Position	0.000
'Y Position	0.000
'Z Position	0.000
'Grid Point Number	1.000
'Shot Number	100.000
183.907	-67.000
183.977	-28.000
184.047	488
184.116	341
184.186	431
184.256	432
184.325	-278
184.395	-621
184.465	337
184.534	-198
184.604	-731
184.674	-817
184.743	267
184.813	-114
184.883	-551
184.952	75
185.022	-143
185.092	41
185.161	-147
185.231	126
185.301	-612
185.370	572
185.440	-514
185.509	-497
185.579	43
185.649	105
185.718	-33
185.788	369
185.857	-419
185.927	-111
185.996	-1137
186.066	-301
186.136	-452
186.205	-47
186.275	41
186.344	-322
186.414	214
186.483	-387
186.553	319
186.622	-275
186.692	-302
186.761	476
186.831	-455
186.900	-118
186.970	30
187.039	448
187.109	381
187.178	-98
187.248	-70
187.317	255
187.387	-888
187.456	687
187.526	320
187.595	-609
187.664	-11
187.734	529
187.803	-6
187.873	95
187.942	-921
188.012	-111
188.081	-607
188.150	-190
188.220	-59
188.289	0
188.358	-436
188.428	-493
188.497	-354
188.567	-152
188.636	-603
188.705	-375
188.775	-132
188.844	-449
188.913	344
188.983	-728
189.052	-281
189.121	428
189.191	-788
189.260	-134
189.329	-245
189.399	-423
189.468	-12
189.537	112
189.606	-700
189.676	-30
189.745	-380
189.814	-224
189.883	-132
189.953	-577
190.022	-300
190.091	-71
190.161	-230
190.230	-556
190.299	-472
190.368	141
190.437	-713
190.507	87
190.576	-650
190.645	-293
190.714	-162
190.783	-910
190.853	-465
190.922	464
190.991	-280
191.060	-226
191.129	-359
191.198	167
191.268	-482
191.337	-321
191.406	912
191.475	-494
191.544	-1008
191.613	-218
191.682	-957
191.752	-557
191.821	99
191.890	-110
191.959	-253
192.028	-376
192.097	-689
192.166	221
192.235	-339
192.304	-201
192.373	-76
192.442	-603
192.511	214
192.580	-70
192.650	39
192.719	280
192.788	-920
192.857	-25
192.926	-703
192.995	-317
193.064	575
193.133	-527
193.202	-1143
193.271	-874
193.340	-679
193.409	-782
193.478	-690
193.547	-372
193.615	-571
193.684	-725
193.753	-961
193.822	113
193.891	-319
193.960	-399
194.029	-453
194.098	-55
194.167	-784
194.236	465
194.305	106
194.374	81
194.443	-461
194.512	-56
194.580	-26
194.649	-883
194.718	440
194.787	-184
194.856	-672
194.925	236
194.994	-948
195.062	-234
195.131	77
195.200	168
195.269	-271
195.338	147
195.407	58
195.475	-269
195.544	-20
195.613	273
195.682	-319
195.751	-159
195.819	363
195.888	-22
195.957	64
196.026	395
196.094	85
196.163	-487
196.232	-194
196.301	-533
196.369	-475
196.438	-727
196.507	-860
196.576	-733
196.644	-195
196.713	-275
196.782	-475
196.850	-385
196.919	-530
196.988	-293
197.056	-367
197.125	-978
197.194	-192
197.262	-350
197.331	-288
197.400	-558
197.468	-109
197.537	-1337
197.606	-601
197.674	-200
197.743	-247
197.812	459
197.880	320
197.949	-944
198.017	-653
198.086	-101
198.155	-714
198.223	-364
198.292	-1014
198.360	-133
198.429	-145
198.497	-315
198.566	-452
198.635	213
198.703	-71
198.772	276
198.840	140
198.909	-1005
198.977	-47
199.046	-102
199.114	-169
199.183	-302
199.251	-32
199.320	-377
199.388	-162
199.457	-630
199.525	-544
199.594	-206
199.662	-202
199.731	-58
199.799	75
199.867	40
199.936	293
200.004	-128
200.073	-261
200.141	81
200.210	-364
200.278	-141
200.346	-123
200.415	-541
200.483	-701
200.552	-709
200.620	346
200.688	-680
200.757	114
200.825	143
200.893	-152
200.962	-1023
201.030	-305
201.098	-1135
201.167	-166
201.235	-521
201.303	-73
201.372	271
201.440	21
201.508	594
201.577	-91
201.645	-241
201.713	-348
201.781	-659
201.850	-98
201.918	-372
201.986	-488
202.055	-159
202.123	-425
202.191	-190
202.259	-751
202.327	-56
202.396	-274
202.464	-186
202.532	-826
202.600	-118
202.669	17
202.737	-917
202.805	-806
202.873	-460
202.941	-128
203.009	-682
203.078	-142
203.146	9
203.214	-502
203.282	-767
203.350	-957
203.418	-615
203.487	-205
203.555	50
203.623	101
203.691	-55
203.759	-1302
203.827	-338
203.895	-790
203.963	2
204.031	-720
204.099	555
204.168	259
204.236	94
204.304	-316
204.372	-64
204.440	-185
204.508	-865
204.576	-546
204.644	422
204.712	-274
204.780	-992
204.848	-746
204.916	-586
204.984	-466
205.052	-562
205.120	-862
205.188	-327
205.256	38
205.324	-978
205.392	-615
205.460	215
205.528	-426
205.596	-98
205.664	-691
205.732	-887
205.799	-987
205.867	-552
205.935	115
206.003	-46
206.071	-636
206.139	-90
206.207	-235
206.275	-137
206.343	-628
206.411	-469
206.478	-190
206.546	-495
206.614	-146
206.682	-732
206.750	-936
206.818	-681
206.885	-236
206.953	-1248
207.021	338
207.089	-580
207.157	-634
207.225	-608
207.292	-701
207.360	-224
207.428	-1108
207.496	-1306
207.563	-254
207.631	-522
207.699	-529
207.767	-716
207.834	-470
207.902	-805
207.970	-815
208.038	-1394
208.105	-117
208.173	-667
208.241	-823
208.309	-174
208.376	-566
208.444	-503
208.512	-1219
208.579	-933
208.647	-790
208.715	-367
208.782	-1211
208.850	-735
208.918	-852
208.985	-184
209.053	-400
209.120	-899
209.188	-633
209.256	-785
209.323	-1162
209.391	-599
209.459	57
209.526	31
209.594	-1342
209.661	61
209.729	-253
209.796	-280
209.864	-415
209.932	-999
209.999	391
210.067	-238
210.134	-1401
210.202	-329
210.269	-324
210.337	-676
210.404	-851
210.472	-300
210.539	-391
210.607	-656
210.674	-449
210.742	130
210.809	-399
210.877	-479
210.944	-1046
211.012	-1612
211.079	-285
211.146	37
211.214	-612
211.281	-1369
211.349	-528
211.416	-531
211.484	-451
211.551	-736
211.618	-394
211.686	-967
211.753	-522
211.821	-940
211.888	-230
211.955	-753
212.023	-185
212.090	230
212.157	-793
212.225	-588
212.292	-613
212.359	11
212.427	-550
212.494	-644
212.561	-1212
212.629	-414
212.696	-704
212.763	-365
212.831	-993
212.898	40
212.965	-828
213.032	-617
213.100	-1169
213.167	-513
213.234	112
213.301	-589
213.369	-1019
213.436	-1088
213.503	-1001
213.570	-39
213.638	-810
213.705	-486
213.772	-981
213.839	-523
213.906	-294
213.973	-378
214.041	-677
214.108	299
214.175	-72
214.242	-636
214.309	-1159
214.376	-825
214.444	-1061
214.511	-163
214.578	-455
214.645	-364
214.712	-443
214.779	-651
214.846	-426
214.913	69
214.980	-490
215.048	113
215.115	-552
215.182	-1286
215.249	-512
215.316	-252
215.383	92
215.450	-502
215.517	-678
215.584	-420
215.651	-606
215.718	-428
215.785	142
215.852	-242
215.919	-933
215.986	-179
216.053	-606
216.120	-890
216.187	-580
216.254	-449
216.321	-70
216.388	-591
216.455	-401
216.522	-1288
216.589	-1193
216.656	-547
216.722	-1001
216.789	-609
216.856	-46
216.923	-173
216.990	-282
217.057	-697
217.124	-754
217.191	-621
217.258	-420
217.324	-729
217.391	-601
217.458	208
217.525	54
217.592	-106
217.659	-1865
217.725	-108
217.792	-1466
217.859	44
217.926	-222
217.993	-949
218.059	266
218.126	-523
218.193	-1061
218.260	-777
218.327	-1477
218.393	-437
218.460	-405
218.527	-298
218.594	-231
218.660	38
218.727	61
218.794	-1614
218.860	-712
218.927	-749
218.994	-853
219.061	-618
219.127	-591
219.194	-655
219.261	-302
219.327	176
219.394	-36
219.461	-1116
219.527	-378
219.594	-866
219.661	-876
219.727	-716
219.794	-16
219.860	-815
219.927	-1182
219.994	-966
220.060	-644
220.127	-480
220.193	339
220.260	-832
220.326	-902
220.393	-393
220.460	-495
220.526	-1339
220.593	-1054
220.659	857
220.726	-1092
220.792	6
220.859	-1519
220.925	453
220.992	-132
221.058	-475
221.125	-838
221.191	-271
221.258	-548
221.324	-256
221.391	-680
221.457	-645
221.524	-835
221.590	159
221.657	-351
221.723	-607
221.789	-1014
221.856	145
221.922	-851
221.989	-268
222.055	-891
222.121	-887
222.188	-229
222.254	-391
222.321	-1436
222.387	-162
222.453	-788
222.520	-557
222.586	-441
222.652	-140
222.719	-601
222.785	-153
222.851	-121
222.918	-468
222.984	-311
223.050	-910
223.116	-1282
223.183	-139
223.249	-645
223.315	-405
223.382	-1324
223.448	-617
223.514	-712
223.580	-933
223.647	-1423
223.713	-823
223.779	-911
223.845	-1452
223.911	-355
223.978	-480
224.044	-1103
224.110	-599
224.176	-1106
224.242	-1105
224.309	-1221
224.375	-248
224.441	-154
224.507	-900
224.573	-898
224.639	-141
224.705	-753
224.772	-748
224.838	-485
224.904	93
224.970	-915
225.036	-622
225.102	-1616
225.168	-308
225.234	-872
225.300	-86
225.366	-952
225.432	-406
225.499	-937
225.565	-981
225.631	-1686
225.697	-489
225.763	-682
225.829	-373
225.895	-329
225.961	-614
226.027	-774
226.093	-926
226.159	-831
226.225	-479
226.291	-732
226.357	-347
226.423	-647
226.489	-636
226.554	-919
226.620	-434
226.686	-986
226.752	-811
226.818	-42
226.884	519
226.950	-147
227.016	-852
227.082	-482
227.148	-657
227.214	-779
227.279	-828
227.345	-546
227.411	-599
227.477	-11
227.543	172
227.609	-431
227.674	-292
227.740	-678
227.806	-471
227.872	-1720
227.938	-767
228.003	-626
228.069	-1142
228.135	-1266
228.201	289
228.267	-680
228.332	-904
228.398	-1536
228.464	-639
228.530	-451
228.595	-585
228.661	-1127
228.727	-877
228.792	735
228.858	-719
228.924	-1891
228.990	399
229.055	-1178
229.121	-562
229.187	-790
229.252	-1357
229.318	-1118
229.384	-362
229.449	-1181
229.515	-1669
229.581	-1733
229.646	446
229.712	-572
229.777	-697
229.843	-789
229.909	-444
229.974	-523
230.040	-558
230.105	-732
230.171	-1147
230.236	-648
230.302	-771
230.368	-942
230.433	-755
230.499	-623
230.564	-58
230.630	-689
230.695	-16
230.761	-376
230.826	-2041
230.892	-574
230.957	-1182
231.023	-757
231.088	-818
231.154	-885
231.219	-383
231.284	-1643
231.350	-565
231.415	-1158
231.481	-142
231.546	-442
231.612	-617
231.677	-1086
231.742	-1894
231.808	-135
231.873	-788
231.939	-2270
232.004	287
232.069	-136
232.135	-1704
232.200	-1358
232.265	-657
232.331	-1118
232.396	-243
232.461	-580
232.527	-129
232.592	-1613
232.657	-397
232.723	-659
232.788	-699
232.853	-111
232.918	-554
232.984	-1165
233.049	-762
233.114	-1402
233.179	-311
233.245	176
233.310	243
233.375	-1672
233.440	1
233.506	-1464
233.571	-769
233.636	-1059
233.701	-1086
233.766	-1056
233.832	-336
233.897	-515
233.962	-1676
234.027	248
234.092	212
234.157	-906
234.222	-1275
234.288	-488
234.353	-970
234.418	74
234.483	-1034
234.548	-898
234.613	-749
234.678	-642
234.743	-1122
234.808	-77
234.873	-1680
234.938	-127
235.004	-878
235.069	-632
235.134	-913
235.199	-501
235.264	-42
235.329	-1505
235.394	-49
235.459	-112
235.524	-1622
235.589	-48
235.654	-1190
235.719	-1502
235.784	-77
235.849	-131
235.913	-595
235.978	-652
236.043	-296
236.108	-878
236.173	-1357
236.238	-208
236.303	-1615
236.368	-1871
236.433	-84
236.498	-1142
236.563	-153
236.627	-493
236.692	-231
236.757	-418
236.822	-685
236.887	-1012
236.952	-480
237.017	-1907
237.081	-685
237.146	-1338
237.211	-526
237.276	-99
237.341	256
237.405	-891
237.470	-730
237.535	-183
237.600	-4
237.664	-472
237.729	-1276
237.794	-2084
237.859	265
237.923	-1249
237.988	-909
238.053	-755
238.118	-866
238.182	-805
238.247	707
238.312	-1615
238.376	-441
238.441	-1520
238.506	776
238.570	-996
238.635	352
238.700	-474
238.764	-1381
238.829	-275
238.893	-1702
238.958	51
239.023	-932
239.087	-1168
239.152	-672
239.216	-1764
239.281	-646
239.346	-525
239.410	-668
239.475	-1264
239.539	-258
239.604	-1988
239.668	-679
239.733	-503
239.797	-399
239.862	-9
239.926	512
239.991	-307
240.055	-499
240.120	-1350
240.184	-952
240.249	-567
240.313	-995
240.378	-1234
240.442	-856
240.507	-1168
240.571	-836
240.635	-1482
240.700	-985
240.764	-461
240.829	-1041
240.893	-1178
240.957	54
241.022	-832
241.086	-240
241.151	-1645
241.215	-2098
241.279	-762
241.344	-1178
241.408	-806
241.472	-1273
241.537	256
241.601	-66
241.665	-1886
241.730	-1430
241.794	-518
241.858	-1760
241.922	-901
241.987	-871
242.051	-1340
242.115	-1556
242.179	-711
242.244	-916
242.308	-793
242.372	-722
242.436	-1101
242.501	-925
242.565	-1513
242.629	-949
242.693	-350
242.757	-1804
242.822	-1048
242.886	-76
242.950	-732
243.014	-1289
243.078	-1299
243.142	-847
243.206	-1584
243.271	-1207
243.335	-1497
243.399	-28
243.463	-860
243.527	450
243.591	-620
243.655	-605
243.719	-1925
243.783	-364
243.847	-727
243.911	217
243.975	-1005
244.040	-1951
244.104	223
244.168	-594
244.232	-1071
244.296	-973
244.360	-886
244.424	-1200
244.488	-1065
244.552	-628
244.615	-1805
244.679	-331
244.743	-778
244.807	-2259
244.871	-1057
244.935	-686
244.999	-1620
245.063	-398
245.127	-335
245.191	-1025
245.255	-1252
245.319	-811
245.383	-1977
245.446	171
245.510	-1334
245.574	-674
245.638	-700
245.702	-1827
245.766	-362
245.829	-216
245.893	-1554
245.957	-1125
246.021	-521
246.085	-985
246.149	-1148
246.212	-505
246.276	-1586
246.340	-1705
246.404	-1295
246.467	-656
246.531	-2265
246.595	-284
246.659	-182
246.722	-2115
246.786	-604
246.850	-928
246.913	-731
246.977	-1476
247.041	-1703
247.104	-1310
247.168	-1080
247.232	-929
247.295	-611
247.359	-810
247.423	-921
247.486	-1412
247.550	-809
247.614	-433
247.677	-1255
247.741	-498
247.804	-1582
247.868	-549
247.932	-1918
247.995	-156
248.059	-918
248.122	-1913
248.186	-422
248.249	-355
248.313	-864
248.376	113
248.440	-1739
248.503	-1896
248.567	150
248.630	-1551
248.694	-1693
248.757	-29
248.821	-750
248.884	238
248.948	-1359
249.011	-105
249.075	-511
249.138	-18
249.202	-1565
249.265	-2071
249.328	-146
249.392	-1593
249.455	-1009
249.519	-952
249.582	-1268
249.645	-504
249.709	-1013
249.772	-1368
249.835	-280
249.899	-1043
249.962	-1439
250.025	-945
250.089	-861
250.152	-10
250.215	-839
250.279	-1466
250.342	-706
250.405	-566
250.468	-1553
250.532	-1166
250.595	362
250.658	-403
250.721	1354
250.785	-787
250.848	572
250.911	-1363
250.974	-247
251.038	-1088
251.101	-249
251.164	-981
251.227	-860
251.290	-1369
251.354	-361
251.417	1192
251.480	628
251.543	432
251.606	3006
251.669	1184
251.732	-576
251.795	-288
251.859	-723
251.922	893
251.985	52
252.048	579
252.111	-1140
252.174	-806
252.237	-163
252.300	-232
252.363	-352
252.426	2679
252.489	-826
252.552	-199
252.615	-1498
252.678	-109
252.741	-804
252.804	-141
252.867	2375
252.930	526
252.993	-456
253.056	219
253.119	-878
253.182	-839
253.245	-989
253.308	-814
253.371	-1076
253.434	-1523
253.497	117
253.559	-239
253.622	-1860
253.685	-599
253.748	-1406
253.811	-1791
253.874	-508
253.937	-1986
254.000	-795
254.062	-1382
254.125	-1093
254.188	-124
254.251	-618
254.314	-637
254.376	-1769
254.439	-725
254.502	-864
254.565	-1738
254.628	-148
254.690	-833
254.753	-1049
254.816	-1091
254.878	-2067
254.941	-236
255.004	-535
255.067	-1237
255.129	-1483
255.192	-458
255.255	-1963
255.317	-1285
255.380	-866
255.443	-1125
255.505	-695
255.568	-1960
255.631	-2026
255.693	-1361
255.756	-1927
255.819	-552
255.881	-1283
255.944	-624
256.006	-823
256.069	-1936
256.132	-1539
256.194	-886
256.257	-716
256.319	-468
256.382	-1462
256.444	-631
256.507	-821
256.569	-1208
256.632	-1672
256.694	-1739
256.757	-324
256.819	195
256.882	-1662
256.944	-1699
257.007	-1135
257.069	-2137
257.132	-1225
257.194	-613
257.257	-1194
257.319	-2178
257.381	-1903
257.444	-330
257.506	225
257.569	-338
257.631	-524
257.693	-1286
257.756	-1276
257.818	-1506
257.880	-1567
257.943	321
258.005	-1319
258.067	-1447
258.130	-1542
258.192	-1624
258.254	-807
258.317	-1250
258.379	-606
258.441	-1248
258.503	-1048
258.566	-1827
258.628	-509
258.690	-1158
258.753	-344
258.815	-983
258.877	-1107
258.939	-712
259.001	-576
259.064	-1258
259.126	-1656
259.188	-1219
259.250	-629
259.312	-1604
259.375	-1335
259.437	-1523
259.499	-1721
259.561	-1436
259.623	-1570
259.685	-1547
259.747	-990
259.809	-1288
259.872	-944
259.934	-878
259.996	-295
260.058	-1309
260.120	-1817
260.182	-753
260.244	-933
260.306	-1153
260.368	-481
260.430	-1486
260.492	-1138
260.554	-926
260.616	-1253
260.678	-847
260.740	-1388
260.802	-1611
260.864	-1007
260.926	-1764
260.988	-807
261.050	-995
261.112	-1108
261.174	323
261.236	-1417
261.298	-1565
261.359	-1737
261.421	-218
261.483	-2317
261.545	-1017
261.607	-1830
261.669	-363
261.731	-1594
261.793	-408
261.854	-3009
261.916	-860
261.978	-1289
262.040	-1612
262.102	-204
262.164	-1155
262.225	-1316
262.287	-1297
262.349	-1718
262.411	-1015
262.472	-1096
262.534	-1603
262.596	-1214
262.658	-974
262.719	-1968
262.781	-898
262.843	-1874
262.904	-1021
262.966	-786
263.028	-1067
263.090	-1189
263.151	471
263.213	-1510
263.275	-1981
263.336	-891
263.398	-336
263.459	-1788
263.521	-1503
263.583	-1396
263.644	-992
263.706	-1755
263.767	-2304
263.829	-773
263.891	-1230
263.952	-1083
264.014	-1855
264.075	-1565
264.137	-783
264.198	260
264.260	-2094
264.321	-1166
264.383	-988
264.444	-614
264.506	-1854
264.567	-1405
264.629	-355
264.690	-1734
264.752	-899
264.813	-1837
264.875	-1585
264.936	-338
264.998	-1213
265.059	-1646
265.120	-905
265.182	-2039
265.243	-766
265.305	-1429
265.366	-515
265.427	-1065
265.489	-851
265.550	-2711
265.611	-1062
265.673	-1039
265.734	-1031
265.795	-320
265.857	-1667
265.918	-1893
265.979	-656
266.040	-602
266.102	-481
266.163	-1018
266.224	-974
266.286	-1103
266.347	-2121
266.408	-1299
266.469	-1282
266.530	-1196
266.592	-805
266.653	-1162
266.714	-1049
266.775	-1039
266.836	-1285
266.898	-1922
266.959	-1218
267.020	-924
267.081	-667
267.142	-1152
267.203	-1091
267.264	-1706
267.326	-459
267.387	-1339
267.448	-1809
267.509	-880
267.570	-1453
267.631	-1138
267.692	-2458
267.753	-817
267.814	-2244
267.875	-985
267.936	-1237
267.997	-1036
268.058	-1484
268.119	-1588
268.180	-1358
268.241	-759
268.302	-1530
268.363	-1743
268.424	-1522
268.485	-902
268.546	-1890
268.607	-1351
268.668	-1464
268.729	-1362
268.790	-1992
268.851	-1697
268.912	-1437
268.972	-919
269.033	-973
269.094	-2832
269.155	-1889
269.216	-1411
269.277	-1325
269.338	-910
269.398	-868
269.459	-2123
269.520	-1195
269.581	-1807
269.642	-1363
269.702	-1667
269.763	-1780
269.824	-1808
269.885	-1690
269.945	-1165
270.006	-305
270.067	-1866
270.128	-1168
270.188	-2047
270.249	-1222
270.310	-1895
270.370	-1405
270.431	-1327
270.492	-1243
270.553	-976
270.613	-1374
270.674	-483
270.734	-1378
270.795	-1334
270.856	-1580
270.916	-1585
270.977	-1465
271.038	-1482
271.098	-1538
271.159	-1367
271.219	-1052
271.280	-1327
271.340	-1198
271.401	-1818
271.462	-992
271.522	-908
271.583	-1461
271.643	-1055
271.704	-1219
271.764	-761
271.825	-631
271.885	-197
271.946	-462
272.006	-1388
272.066	-967
272.127	-414
272.187	-662
272.248	-1033
272.308	-1382
272.369	-490
272.429	-1026
272.489	-968
272.550	-1029
272.610	-541
272.671	-1082
272.731	-1090
272.791	-1380
272.852	-1364
272.912	-1342
272.972	-1373
273.033	-1222
273.093	-1864
273.153	-969
273.214	-554
273.274	-1314
273.334	-631
273.394	-1211
273.455	-1516
273.515	-461
273.575	-1102
273.635	-363
273.696	-492
273.756	-1186
273.816	-1240
273.876	-346
273.936	-1433
273.997	-1345
274.057	-1457
274.117	-1176
274.177	-1018
274.237	-721
274.297	-1301
274.358	-1487
274.418	-754
274.478	-1077
274.538	-984
274.598	-1319
274.658	-560
274.718	-1338
274.778	-870
274.838	-1405
274.898	-1561
274.958	-1298
275.018	-1195
275.078	-565
275.138	-1431
275.198	-1397
275.258	-1245
275.318	-1476
275.378	-1441
275.438	-1628
275.498	-1197
275.558	-1009
275.618	73
275.678	-1712
275.738	-827
275.798	-661
275.858	-1375
275.918	-1554
275.978	-841
276.038	-1025
276.098	-1155
276.157	-1786
276.217	-1521
276.277	-1049
276.337	-1304
276.397	-1589
276.457	-1201
276.517	-1267
276.576	-1004
276.636	-1716
276.696	-1746
276.756	-1066
276.815	-1461
276.875	-953
276.935	-1767
276.995	-1370
277.055	-1058
277.114	-1205
277.174	-1519
277.234	-498
277.293	-1466
277.353	-1089
277.413	-825
277.472	-486
277.532	-1672
277.592	-1031
277.651	-332
277.711	1713
277.771	-748
277.830	1634
277.890	713
277.950	22
278.009	4067
278.069	959
278.128	479
278.188	1742
278.248	-679
278.307	1360
278.367	677
278.426	-583
278.486	-1373
278.545	-1271
278.605	-591
278.664	-925
278.724	-799
278.783	-591
278.843	-279
278.902	-1031
278.962	-766
279.021	-804
279.081	525
279.140	-627
279.199	-1278
279.259	-685
279.318	-441
279.378	-19
279.437	77
279.496	4898
279.556	23620
279.615	14330
279.675	3335
279.734	1385
279.793	1569
279.853	1337
279.912	-380
279.971	-375
280.031	-806
280.090	-241
280.149	-50
280.208	2397
280.268	15487
280.327	12442
280.386	1578
280.445	236
280.505	-154
280.564	55
280.623	-640
280.682	-650
280.742	-704
280.801	-1086
280.860	-995
280.919	-1286
280.978	-1509
281.037	-1174
281.097	-1683
281.156	-393
281.215	-1999
281.274	-897
281.333	-751
281.392	-870
281.451	-1277
281.510	-1280
281.569	-838
281.628	-1449
281.688	-335
281.747	-368
281.806	-1684
281.865	-858
281.924	-1228
281.983	-1647
282.042	-1551
282.101	-953
282.160	-867
282.219	-1011
282.278	-1445
282.337	-1210
282.396	-1617
282.454	-1467
282.513	-1451
282.572	-1311
282.631	-1168
282.690	-1520
282.749	-1896
282.808	-496
282.867	-852
282.926	-1233
282.985	-1659
283.043	-761
283.102	-1413
283.161	-1404
283.220	-508
283.279	-574
283.338	-1275
283.396	-1416
283.455	-676
283.514	-801
283.573	-1760
283.631	-780
283.690	-716
283.749	-1407
283.808	-1543
283.866	-631
283.925	-2059
283.984	-646
284.043	-799
284.101	-659
284.160	-1660
284.219	-724
284.277	-965
284.336	298
284.395	-580
284.453	-564
284.512	21
284.570	-366
284.629	349
284.688	421
284.746	886
284.805	589
284.863	1650
284.922	2105
284.981	2429
285.039	4898
285.098	7787
285.156	9980
285.215	12688
285.273	9544
285.332	10000
285.390	8351
285.449	4966
285.507	4020
285.566	2214
285.624	1703
285.683	1378
285.741	324
285.799	-87
285.858	9
285.916	-1501
285.975	-79
286.033	-566
286.091	-469
286.150	-1177
286.208	-780
286.267	-1060
286.325	-1177
286.383	-758
286.442	-1064
286.500	-1906
286.558	-1184
286.616	-928
286.675	-594
286.733	-710
286.791	-1561
286.850	-913
286.908	-1336
286.966	-1082
287.024	-601
287.083	-1746
287.141	-1684
287.199	-1043
287.257	-837
287.315	-1051
287.374	-457
287.432	-1356
287.490	-1217
287.548	-1365
287.606	-917
287.664	-558
287.723	-983
287.781	-649
287.839	-1357
287.897	-1278
287.955	-853
288.013	-1792
288.071	-544
288.129	2055
288.187	7663
288.245	1785
288.303	-755
288.361	-556
288.419	-881
288.477	-1570
288.535	-1756
288.593	-1357
288.651	-925
288.709	-1685
288.767	-1633
288.825	-1830
288.883	-612
288.941	-1571
288.999	-1369
289.057	-1882
289.115	-1964
289.173	-1611
289.231	-1493
289.289	-1723
289.346	-881
289.404	-1426
289.462	-1496
289.520	-1027
289.578	-1685
289.636	-1071
289.694	-1271
289.751	-1685
289.809	-1441
289.867	-1188
289.925	-1348
289.983	-1325
290.040	-1613
290.098	-1453
290.156	-1358
290.214	-1886
290.271	-1702
290.329	-1056
290.387	-1756
290.444	-1324
290.502	-1256
290.560	-1181
290.617	-2491
290.675	-1081
290.733	-1700
290.790	-1422
290.848	-884
290.906	-2187
290.963	-1691
291.021	-960
291.078	-1359
291.136	-1497
291.194	-1700
291.251	-1616
291.309	-498
291.366	-1225
291.424	-1672
291.481	-1761
291.539	-1108
291.596	-1570
291.654	-1379
291.711	-772
291.769	-1565
291.826	-1163
291.884	-1374
291.941	-1331
291.999	-1520
292.056	-1049
292.114	-1722
292.171	-1543
292.228	-1080
292.286	-1234
292.343	-1311
292.401	-1756
292.458	-1313
292.515	-1493
292.573	-1772
292.630	-1601
292.687	-1129
292.745	-1785
292.802	-940
292.859	-580
292.917	-983
292.974	-1406
293.031	-842
293.089	-1956
293.146	-1353
293.203	-1442
293.260	-1414
293.318	-1677
293.375	-1684
293.432	-1383
293.489	-1538
293.546	-1526
293.604	-709
293.661	-1150
293.718	346
293.775	-814
293.832	-935
293.889	-594
293.947	-953
294.004	-1279
294.061	-1492
294.118	-1095
294.175	-613
294.232	-234
294.289	-1135
294.346	-1499
294.403	-1428
294.460	-1444
294.517	-1729
294.574	-2092
294.631	-1551
294.688	-1205
294.745	-1252
294.802	-8
294.859	59
294.916	-1256
294.973	-1939
295.030	-2061
295.087	-1414
295.144	-1486
295.201	-1362
295.258	-1072
295.315	-1495
295.372	-1536
295.429	-515
295.486	-1384
295.542	-1755
295.599	-1410
295.656	-625
295.713	-1623
295.770	-481
295.827	-1172
295.883	-1256
295.940	-2076
295.997	-1457
296.054	-1901
296.111	-1059
296.167	-1408
296.224	-1278
296.281	-1880
296.338	-1625
296.394	-1893
296.451	-1446
296.508	-1334
296.564	-974
296.621	-606
296.678	-596
296.734	-663
296.791	-402
296.848	-1099
296.904	-1198
296.961	-1632
297.018	-42
297.074	-1135
297.131	-1360
297.187	-1469
297.244	-800
297.301	-59
297.357	108
297.414	-1279
297.470	-1544
297.527	-1841
297.583	-1768
297.640	-1625
297.696	-1881
297.753	-1961
297.809	-2368
297.866	-1324
297.922	-2349
297.979	-1285
298.035	-1551
298.092	-1791
298.148	-872
298.204	-1138
298.261	-1138
298.317	-749
298.374	-653
298.430	-1655
298.486	-2124
298.543	-2135
298.599	-1852
298.656	-1821
298.712	-1754
298.768	-1001
298.824	-1470
298.881	-1259
298.937	-1365
298.993	-549
299.050	-1824
299.106	-2135
299.162	-1519
299.218	-863
299.275	-1454
299.331	-1816
299.387	-1134
299.443	-1023
299.500	1524
299.556	-387
299.612	-630
299.668	-317
299.724	420
299.780	540
299.837	-1048
299.893	-1905
299.949	-36
300.005	859
300.061	108
300.117	1507
300.173	161
300.229	-1023
300.285	-2004
300.341	-954
300.397	-1495
300.453	-1751
300.510	-1708
300.566	-1365
300.622	-1128
300.678	583
300.734	2167
300.790	311
300.845	470
300.901	-89
300.957	1010
301.013	-14
301.069	-1504
301.125	-1997
301.181	-1307
301.237	-1447
301.293	-1854
301.349	-1647
301.405	-1335
301.461	-2003
301.516	-1624
301.572	-2839
301.628	-1077
301.684	-2001
301.740	-2095
301.796	-1378
301.851	-1722
301.907	-1739
301.963	-177
302.019	-1443
302.074	862
302.130	1368
302.186	236
302.242	-1746
302.297	-1946
302.353	-1513
302.409	-1096
302.464	-1509
302.520	-1896
302.576	-772
302.631	-105
302.687	-821
302.743	-1456
302.798	-1906
302.854	-1699
302.910	-1093
302.965	-2093
303.021	-1505
303.076	-1114
303.132	-1396
303.187	-1920
303.243	-2121
303.299	-1900
303.354	-1491
303.410	-2376
303.465	-2220
303.521	-1673
303.576	-1589
303.632	-1545
303.687	-1661
303.743	-850
303.798	-834
303.853	-1865
303.909	-1961
303.964	-1351
304.020	-2209
304.075	-1199
304.130	-1679
304.186	-1698
304.241	-366
304.297	-1322
304.352	-1339
304.358	-1354
304.407	-1478
304.449	-1990
304.463	-2162
304.518	-2085
304.539	-2076
304.573	-2075
304.629	-1220
304.630	-1230
304.684	-1759
304.720	-1311
304.739	-1081
304.794	-587
304.811	-644
304.850	-799
304.902	-1581
304.905	-1634
304.960	-809
304.992	-1478
305.015	-1956
305.071	-1317
305.083	-1333
305.126	-1408
305.173	-1693
305.181	-1737
305.236	-1383
305.264	-1380
305.292	-1400
305.347	-1509
305.354	-1525
305.402	-1558
305.445	-1374
305.457	-1345
305.512	-1162
305.535	-1571
305.567	-2053
305.622	-1443
305.626	-1428
305.678	-1246
305.716	-880
305.733	-694
305.788	-30
305.807	-171
305.843	-552
305.897	-549
305.898	-547
305.953	412
305.988	-510
306.008	-1112
306.063	-1275
306.078	-1331
306.118	-1277
306.168	-1107
306.173	-1102
306.228	-1120
306.259	-1190
306.283	-1214
306.338	-1840
306.349	-1652
306.393	-956
306.440	-1276
306.448	-1323
306.503	-1336
306.530	-1411
306.558	-1465
306.613	-1319
306.620	-1260
306.668	-690
306.711	-316
306.723	-326
306.778	-504
306.801	-570
306.833	-534
306.888	-555
306.892	-576
306.943	-706
306.982	-506
306.997	-435
307.052	-596
307.072	-719
307.107	-1046
307.162	-810
307.163	-817
307.217	-987
307.253	-847
307.272	-860
307.327	-680
307.343	-835
307.381	-991
307.434	-891
307.436	-880
307.491	54
307.524	186
307.546	242
307.600	-71
307.614	-41
307.655	-284
307.704	-608
307.710	-601
307.765	-666
307.795	-694
307.819	-645
307.874	-340
307.885	-402
307.929	-606
307.975	2
307.984	78
308.038	307
308.065	108
308.093	442
308.148	2047
308.156	2532
308.202	5700
308.246	7413
308.257	7141
308.312	3049
308.336	1748
308.366	1179
308.421	461
308.426	390
308.475	34
308.517	-71
308.530	-57
308.585	380
308.607	297
308.639	170
308.694	207
308.697	221
308.748	501
308.787	295
308.803	178
308.857	10
308.877	-43
308.912	48
308.967	464
308.967	465
309.021	1301
309.058	1665
309.076	1846
309.130	3351
309.148	3790
309.185	6893
309.238	11733
309.239	11802
309.293	15145
309.328	15684
309.348	13703
309.402	6145
309.418	4244
309.457	3025
309.508	2201
309.511	2218
309.566	2755
309.598	3545
309.620	4824
309.674	8259
309.688	9199
309.729	8948
309.778	7179
309.783	6941
309.837	3294
309.868	1752
309.892	1703
309.946	1925
309.959	2024
310.001	1874
310.049	1680
310.055	1674
310.109	1245
310.139	999
310.163	751
310.218	563
310.229	481
310.272	363
310.319	418
310.326	335
310.381	-437
310.409	-891
310.435	-594
310.489	126
310.499	230
310.543	-71
310.589	-13
310.598	83
310.652	77
310.679	235
310.706	103
310.760	-363
310.769	-421
310.814	-40
310.859	317
310.868	276
310.923	-102
310.948	-190
310.977	209
311.031	812
311.038	884
311.085	251
311.128	-320
311.139	-262
311.193	-32
311.218	99
311.247	216
311.301	405
311.308	413
311.356	509
311.398	659
311.410	570
311.464	10
311.488	-265
311.518	-25
311.572	595
311.578	650
311.626	72
311.668	-554
311.680	-443
311.734	173
311.758	423
311.788	134
311.842	-370
311.847	-426
311.896	307
311.937	928
311.950	832
312.004	406
312.027	209
312.058	212
312.112	222
312.117	222
312.165	345
312.207	449
312.297	399
312.386	816
312.476	165
312.566	649
312.656	684
312.745	18
312.835	504
312.925	-68
313.015	546
313.104	316
313.194	190
313.284	304
313.374	562
313.463	-42
313.553	593
313.643	-449
313.732	644
313.822	-257
313.912	552
314.001	37
314.091	504
314.180	-83
314.270	883
314.360	654
314.449	298
314.539	334
314.628	236
314.718	181
314.808	219
314.897	370
314.987	938
315.076	90
315.166	950
315.255	322
315.345	574
315.434	-376
315.524	565
315.613	907
315.703	1440
315.792	2022
315.881	8047
315.971	2503
316.060	713
316.150	227
316.239	506
316.328	142
316.418	439
316.507	1369
316.597	716
316.686	883
316.775	1037
316.865	982
316.954	837
317.043	577
317.133	438
317.222	58
317.311	-320
317.400	-418
317.490	1415
317.579	483
317.668	544
317.757	927
317.847	2990
317.936	11957
318.025	4621
318.114	2514
318.203	973
318.293	731
318.382	970
318.471	1109
318.560	1642
318.649	3216
318.738	790
318.828	574
318.917	-4
319.006	722
319.095	922
319.184	2889
319.273	2091
319.362	872
319.451	-179
319.540	89
319.629	426
319.718	704
319.807	745
319.896	627
319.985	4584
320.074	1276
320.163	282
320.252	76
320.341	36
320.430	-112
320.519	271
320.608	-22
320.697	943
320.786	602
320.875	554
320.964	434
321.053	440
321.142	1087
321.230	1625
321.319	562
321.408	2344
321.497	988
321.586	972
321.675	531
321.764	1006
321.852	833
321.941	662
322.030	237
322.119	977
322.207	1872
322.296	1798
322.385	1082
322.474	1897
322.562	2400
322.651	2193
322.740	219
322.829	1436
322.917	489
323.006	1320
323.095	875
323.183	371
323.272	850
323.361	1095
323.449	3901
323.538	1018
323.626	1479
323.715	1644
323.804	587
323.892	1477
323.981	1131
324.069	206
324.158	770
324.246	797
324.335	725
324.424	621
324.512	808
324.601	499
324.689	788
324.778	1436
324.866	584
324.954	609
325.043	-597
325.131	416
325.220	1584
325.308	780
325.397	434
325.485	166
325.574	828
325.662	-75
325.750	55
325.839	734
325.927	-17
326.015	1033
326.104	143
326.192	796
326.280	-109
326.369	99
326.457	-635
326.545	422
326.634	187
326.722	36
326.810	-241
326.898	143
326.987	253
327.075	-174
327.163	677
327.251	331
327.340	220
327.428	1400
327.516	476
327.604	-201
327.692	-97
327.781	348
327.869	-616
327.957	342
328.045	-303
328.133	509
328.221	250
328.309	-122
328.397	387
328.485	243
328.574	306
328.662	1077
328.750	473
328.838	748
328.926	263
329.014	399
329.102	586
329.190	718
329.278	-156
329.366	-191
329.454	507
329.542	295
329.630	-457
329.718	650
329.806	-397
329.893	687
329.981	-13
330.069	477
330.157	94
330.245	967
330.333	-22
330.421	585
330.509	-368
330.597	494
330.684	-130
330.772	738
330.860	-146
330.948	560
331.036	164
331.123	577
331.211	-87
331.299	-317
331.387	-303
331.475	1173
331.562	-390
331.650	335
331.738	-930
331.825	94
331.913	-447
332.001	264
332.089	627
332.176	54
332.264	675
332.352	947
332.439	-23
332.527	78
332.614	-97
332.702	236
332.790	-72
332.877	526
332.965	1056
333.052	1459
333.140	601
333.228	3775
333.315	650
333.403	646
333.490	449
333.578	590
333.665	4091
333.753	2196
333.840	116
333.928	940
334.015	811
334.103	1445
334.190	4561
334.278	2202
334.365	1377
334.452	2421
334.540	520
334.627	875
334.715	664
334.802	1145
334.889	4278
334.977	7693
335.064	3819
335.151	919
335.239	741
335.326	1283
335.413	2000
335.501	4088
335.588	-7
335.675	755
335.762	458
335.850	953
335.937	575
336.024	3137
336.111	9175
336.199	8675
336.286	2290
336.373	1506
336.460	-218
336.547	556
336.635	673
336.722	613
336.809	-15
336.896	-349
336.983	470
337.070	2429
337.157	4144
337.245	2324
337.332	1933
337.419	307
337.506	772
337.593	1
337.680	454
337.767	3342
337.854	502
337.941	837
338.028	-194
338.115	544
338.202	735
338.289	365
338.376	1853
338.463	770
338.550	1613
338.637	2047
338.724	-189
338.811	904
338.898	-117
338.984	334
339.071	-321
339.158	496
339.245	10
339.332	-179
339.419	402
339.506	452
339.593	-307
339.679	1062
339.766	55
339.853	407
339.940	-178
340.027	438
340.113	-618
340.200	213
340.287	315
340.374	-81
340.460	206
340.547	-722
340.634	529
340.720	601
340.807	-120
340.894	327
340.980	239
341.067	761
341.154	636
341.240	264
341.327	116
341.414	658
341.500	-364
341.587	574
341.674	1
341.760	600
341.847	384
341.933	-143
342.020	-1045
342.106	171
342.193	-107
342.279	151
342.366	-777
342.452	1053
342.539	-620
342.625	-23
342.712	396
342.798	-382
342.885	-168
342.971	539
343.058	163
343.144	-17
343.230	133
343.317	200
343.403	-1136
343.490	-52
343.576	-389
343.662	292
343.749	-404
343.835	302
343.921	-55
344.008	2227
344.094	6026
344.180	1410
344.267	-518
344.353	902
344.439	695
344.525	306
344.612	157
344.698	158
344.784	-927
344.870	563
344.957	-641
345.043	523
345.129	-658
345.215	505
345.301	-805
345.387	-33
345.474	-227
345.560	-294
345.646	-308
345.732	-137
345.818	-723
345.904	389
345.990	136
346.076	153
346.162	-601
346.249	534
346.335	-681
346.421	562
346.507	-737
346.593	1905
346.679	-757
346.765	598
346.851	-107
346.937	-402
347.023	73
347.108	460
347.194	-556
347.280	-205
347.366	406
347.452	1425
347.538	2709
347.624	3084
347.710	1555
347.796	479
347.882	245
347.967	186
348.053	-542
348.139	118
348.225	-636
348.311	-75
348.397	-561
348.482	74
348.568	-73
348.654	477
348.740	344
348.825	493
348.911	859
348.997	1385
349.083	2758
349.168	816
349.254	-254
349.340	-127
349.425	136
349.511	34
349.597	-158
349.682	-328
349.768	1269
349.854	871
349.939	-151
350.025	-287
350.110	144
350.196	631
350.282	-529
350.367	452
350.453	-892
350.538	526
350.624	-220
350.709	26
350.795	-796
350.880	-187
350.966	413
351.051	995
351.137	421
351.222	125
351.308	-260
351.393	1060
351.479	-229
351.564	202
351.649	-29
351.735	915
351.820	-561
351.906	-396
351.991	-429
352.076	324
352.162	1070
352.247	812
352.332	83
352.418	441
352.503	-40
352.588	1842
352.673	232
352.759	669
352.844	-1079
352.929	335
353.014	-1124
353.100	740
353.185	-627
353.270	-571
353.355	64
353.441	594
353.526	-307
353.611	-240
353.696	-91
353.781	201
353.866	-670
353.952	-11
354.037	-612
354.122	777
354.207	273
354.292	-99
354.377	-498
354.462	463
354.547	-151
354.632	463
354.717	431
354.802	-557
354.887	-339
354.972	251
355.057	100
355.142	-369
355.227	288
355.312	-273
355.397	-122
355.482	802
355.567	217
355.652	828
355.737	288
355.822	1642
355.907	929
355.991	327
356.076	-1182
356.161	-13
356.246	-693
356.331	680
356.416	-354
356.501	3509
356.585	2564
356.670	-342
356.755	478
356.840	70
356.924	697
357.009	6854
357.094	2261
357.179	763
357.263	127
357.348	748
357.433	8
357.517	132
357.602	-336
357.687	459
357.771	-185
357.856	1111
357.941	382
358.025	776
358.110	7700
358.195	3388
358.279	-423
358.364	-198
358.448	370
358.533	3176
358.617	1021
358.702	1908
358.787	869
358.871	424
358.956	-65
359.040	42
359.125	83
359.209	637
359.294	37
359.378	567
359.462	104
359.547	841
359.631	-1167
359.716	-873
359.800	639
359.885	1483
359.969	-627
360.053	948
360.138	-3
360.222	240
360.306	-588
360.391	193
360.475	-209
360.559	1092
360.644	75
360.728	-91
360.812	719
360.896	4995
360.981	1321
361.065	-134
361.149	-263
361.233	414
361.318	-1201
361.402	30
361.486	204
361.570	99
361.654	-180
361.739	-36
361.823	1454
361.907	5345
361.991	798
362.075	-417
362.159	-172
362.243	2058
362.327	2495
362.411	7530
362.495	1602
362.580	1296
362.664	757
362.748	162
362.832	46
362.916	1279
363.000	8808
363.084	19981
363.168	10941
363.252	2141
363.336	848
363.420	980
363.503	2092
363.587	3276
363.671	677
363.755	-187
363.839	1072
363.923	-11
364.007	189
364.091	1186
364.175	218
364.258	7672
364.342	9020
364.426	26217
364.510	15073
364.594	3652
364.677	1994
364.761	4006
364.845	2626
364.929	715
365.013	-706
365.096	-177
365.180	-61
365.264	1205
365.347	5541
365.431	2806
365.515	-1105
365.598	-707
365.682	662
365.766	-578
365.849	-156
365.933	-124
366.017	365
366.100	-429
366.184	-24
366.267	887
366.351	-1147
366.435	-40
366.518	-675
366.602	-15
366.685	-530
366.769	-587
366.852	394
366.936	125
367.019	-610
367.103	-5
367.186	522
367.270	-3
367.353	-774
367.436	606
367.520	-210
367.603	-195
367.687	-707
367.770	-1002
367.853	361
367.937	1469
368.020	1386
368.104	-490
368.187	342
368.270	330
368.353	96
368.437	800
368.520	718
368.603	464
368.687	-39
368.770	2245
368.853	77
368.936	1487
369.020	903
369.103	271
369.186	-643
369.269	88
369.352	375
369.436	-293
369.519	163
369.602	-1138
369.685	908
369.768	-114
369.851	160
369.934	-475
370.018	-775
370.101	-928
370.184	2228
370.267	748
370.350	-160
370.433	142
370.516	1133
370.599	5209
370.682	331
370.765	1856
370.848	1516
370.931	1962
371.014	1412
371.097	-13
371.180	528
371.263	240
371.346	-435
371.429	441
371.511	-435
371.594	71
371.677	886
371.760	1685
371.843	379
371.926	2672
372.009	5619
372.091	3965
372.174	596
372.257	3710
372.340	735
372.423	841
372.505	1843
372.588	391
372.671	787
372.754	2217
372.836	1246
372.919	1653
373.002	3686
373.085	864
373.167	702
373.250	529
373.332	1965
373.415	4042
373.498	8197
373.580	4868
373.663	6756
373.746	9474
373.828	762
373.911	1498
373.993	-406
374.076	2227
374.159	1912
374.241	1021
374.324	1475
374.406	1240
374.489	2042
374.571	7508
374.654	2349
374.736	1214
374.819	3837
374.901	6654
374.983	5865
375.066	1503
375.148	141
375.231	2642
375.313	3652
375.395	983
375.478	422
375.560	879
375.643	426
375.725	1560
375.807	4196
375.890	5097
375.972	102
376.054	893
376.136	312
376.219	544
376.301	1185
376.383	3783
376.465	1631
376.548	100
376.630	75
376.712	4281
376.794	1249
376.877	-30
376.959	-763
377.041	783
377.123	-385
377.205	-152
377.287	-584
377.369	153
377.452	-285
377.534	494
377.616	-143
377.698	127
377.780	-936
377.862	-85
377.944	53
378.026	-710
378.108	568
378.190	-573
378.272	449
378.354	-169
378.436	-540
378.518	-278
378.600	83
378.682	613
378.764	916
378.846	590
378.928	-295
379.010	-525
379.091	211
379.173	218
379.255	-805
379.337	-586
379.419	-792
379.501	2852
379.583	674
379.664	260
379.746	-316
379.828	1342
379.910	479
379.991	2164
380.073	-371
380.155	85
380.237	-1149
380.318	643
380.400	362
380.482	-293
380.564	216
380.645	-317
380.727	282
380.809	447
380.890	-913
380.972	-503
381.053	-368
381.135	1073
381.217	258
381.298	2161
381.380	58
381.461	310
381.543	2366
381.624	4174
381.706	279
381.787	-20
381.869	43
381.951	1310
382.032	5269
382.113	5940
382.195	-889
382.276	1564
382.358	663
382.439	2285
382.521	3999
382.602	7337
382.684	3786
382.765	4949
382.846	9817
382.928	31756
383.009	18583
383.090	8527
383.172	33035
383.253	57702
383.334	18071
383.416	8328
383.497	5685
383.578	3074
383.659	6679
383.741	24239
383.822	72783
383.903	41431
383.984	9243
384.066	8773
384.147	3853
384.228	1712
384.309	1165
384.390	1820
384.471	665
384.553	518
384.634	1018
384.715	1280
384.796	254
384.877	348
384.958	1235
385.039	789
385.120	-108
385.201	925
385.282	233
385.363	1223
385.444	-285
385.525	1068
385.606	1923
385.687	2422
385.768	-40
385.849	-468
385.930	2596
386.011	6495
386.092	828
386.173	195
386.254	-7
386.335	753
386.416	-192
386.496	343
386.577	1016
386.658	510
386.739	-1231
386.820	1595
386.901	-588
386.981	654
387.062	220
387.143	287
387.224	812
387.304	2933
387.385	1564
387.466	-671
387.547	1314
387.627	325
387.708	940
387.789	2671
387.869	2854
387.950	1859
388.031	-450
388.111	-1335
388.192	1291
388.273	1398
388.353	905
388.434	202
388.514	-242
388.595	2473
388.676	3258
388.756	1787
388.837	1263
388.917	431
388.998	-1682
389.078	763
389.159	201
389.239	-1127
389.320	863
389.400	-1545
389.480	87
389.561	959
389.641	1483
389.722	305
389.802	-891
389.883	965
389.963	2284
390.043	1586
390.124	-1232
390.204	315
390.284	890
390.365	368
390.445	836
390.525	2233
390.605	2058
390.686	-473
390.766	1145
390.846	678
390.927	-414
391.007	-479
391.087	486
391.167	-412
391.247	-1772
391.328	768
391.408	432
391.488	748
391.568	-1000
391.648	-310
391.728	361
391.808	1425
391.888	-233
391.969	577
392.049	410
392.129	1578
392.209	131
392.289	2987
392.369	1588
392.449	1481
392.529	268
392.609	664
392.689	911
392.769	3108
392.849	2382
392.929	3864
393.009	4967
393.089	6292
393.169	11290
393.248	29576
393.328	97420
393.408	115474
393.488	42767
393.568	13213
393.648	6081
393.728	3464
393.807	1155
393.887	2829
393.967	1778
394.047	889
394.127	356
394.206	690
394.286	2137
394.366	13472
394.446	18262
394.525	2920
394.605	-50
394.685	679
394.764	1079
394.844	2360
394.924	2656
395.003	687
395.083	-70
395.163	604
395.242	-579
395.322	441
395.402	-1713
395.481	1059
395.561	136
395.640	4278
395.720	7042
395.799	4644
395.879	1885
395.958	530
396.038	2574
396.117	16764
396.197	22348
396.276	5671
396.356	734
396.435	1551
396.515	2437
396.594	2812
396.673	8445
396.753	28778
396.832	90310
396.912	73006
396.991	17522
397.070	6391
397.150	739
397.229	3590
397.308	3561
397.388	8409
397.467	3769
397.546	1142
397.625	-1569
397.705	1732
397.784	500
397.863	-321
397.942	386
398.022	343
398.101	-128
398.180	3359
398.259	330
398.338	744
398.417	-374
398.497	-267
398.576	596
398.655	-603
398.734	216
398.813	-1079
398.892	75
398.971	2900
399.050	924
399.129	-708
399.208	-521
399.287	-223
399.366	-472
399.445	-135
399.524	-492
399.603	-1448
399.682	-578
399.761	281
399.840	3447
399.919	3249
399.998	-797
400.077	-510
400.156	-2013
400.235	1709
400.313	-656
400.392	-597
400.471	117
400.550	847
400.629	-1222
400.708	-146
400.786	-1429
400.865	-401
400.944	-1171
401.023	997
401.102	-1366
401.180	-338
401.259	-961
401.338	-350
401.416	-333
401.495	-631
401.574	-461
401.652	-605
401.731	-482
401.810	-831
401.888	-1250
401.967	-674
402.046	-1198
402.124	336
402.203	-1714
402.281	-187
402.360	-63
402.438	-153
402.517	-1140
402.596	-453
402.674	-691
402.753	-492
402.831	-275
402.910	-553
402.988	-1204
403.066	-662
403.145	503
403.223	650
403.302	-1397
403.380	398
403.459	-561
403.537	-462
403.615	-855
403.694	-1586
403.772	-83
403.850	-364
403.929	-1256
404.007	-1497
404.085	583
404.164	-361
404.242	-1019
404.320	400
404.398	224
404.477	222
404.555	2988
404.633	4244
404.711	284
404.789	163
404.868	-990
404.946	-1044
405.024	-577
405.102	-719
405.180	-1743
405.258	-1375
405.336	101
405.415	-1305
405.493	-725
405.571	257
405.649	-820
405.727	-1600
405.805	273
405.883	-499
405.961	-420
406.039	-1339
406.117	-1361
406.195	73
406.273	-1588
406.351	3530
406.429	2548
406.507	-1387
406.585	-1096
406.663	-420
406.740	-1096
406.818	-1035
406.896	-1997
406.974	6
407.052	-1974
407.130	1042
407.208	1508
407.285	-238
407.363	-1955
407.441	-409
407.519	-1410
407.596	-11
407.674	-964
407.752	-232
407.830	528
407.907	-351
407.985	-1621
408.063	-259
408.141	-1513
408.218	393
408.296	-2124
408.373	-1082
408.451	-1233
408.529	-695
408.606	-1595
408.684	-576
408.762	-653
408.839	-1141
408.917	-1104
408.994	46
409.072	-1481
409.149	-277
409.227	188
409.304	1098
409.382	305
409.459	148
409.537	1851
409.614	1529
409.692	65
409.769	83
409.846	950
409.924	3182
410.001	-461
410.079	-29
410.156	468
410.233	-77
410.311	-901
410.388	-755
410.465	-640
410.543	-1212
410.620	-728
410.697	-539
410.775	-922
410.852	-1143
410.929	0
411.006	439
411.083	-1578
411.161	-788
411.238	-687
411.315	-544
411.392	-855
411.469	-290
411.547	-791
411.624	-1181
411.701	-1252
411.778	-995
411.855	-1010
411.932	-1552
412.009	-1100
412.086	-291
412.163	-637
412.240	-1061
412.317	-883
412.394	-1397
412.471	-94
412.548	-857
412.625	-871
412.702	-613
412.779	-195
412.856	-372
412.933	-1646
413.010	-862
413.087	-1239
413.164	-423
413.241	-395
413.318	-1184
413.395	-312
413.471	-1112
413.548	-989
413.625	-244
413.702	-1357
413.779	225
413.855	-699
413.932	-1879
414.009	-1398
414.086	-410
414.162	-891
414.239	-942
414.316	-350
414.393	1389
414.469	-1160
414.546	-551
414.623	-1397
414.699	-447
414.776	-1129
414.853	-751
414.929	-1005
415.006	-603
415.082	-971
415.159	-953
415.236	-889
415.312	-6
415.389	-299
415.465	-1286
415.542	-911
415.618	-1128
415.695	-285
415.771	-893
415.848	-1156
415.924	-776
416.000	-1098
416.077	364
416.153	-1546
416.230	-1487
416.306	-460
416.383	-977
416.459	-198
416.535	-746
416.612	-1086
416.688	-1044
416.764	-1380
416.841	-600
416.917	-1772
416.993	-589
417.069	-1048
417.146	-1173
417.222	-1377
417.298	-1119
417.374	-1931
417.451	-568
417.527	-1528
417.603	-779
417.679	-949
417.755	-606
417.831	-1722
417.908	-235
417.984	-1122
418.060	-1593
418.136	-599
418.212	-1338
418.288	-929
418.364	-458
418.440	-1896
418.516	-310
418.592	-1132
418.668	-1043
418.744	-596
418.820	-17
418.896	-908
418.972	-1013
419.048	-1946
419.124	41
419.200	-1701
419.276	-846
419.352	-1367
419.428	-806
419.504	-1263
419.579	-318
419.655	-1348
419.731	-419
419.807	-972
419.883	-682
419.959	-784
420.034	-491
420.110	-1462
420.186	-733
420.262	466
420.337	-605
420.413	-834
420.489	-719
420.565	-175
420.640	-951
420.716	-569
420.792	-1525
420.867	-476
420.943	-694
421.019	-1362
421.094	-855
421.170	75
421.245	-1061
421.321	-20
421.397	-1048
421.472	152
421.548	-472
421.623	-391
421.699	-135
421.774	392
421.850	-481
421.925	371
422.001	881
422.076	701
422.152	1347
422.227	1846
422.302	4267
422.378	6044
422.453	11682
422.529	24813
422.604	46643
422.679	52811
422.755	49423
422.830	31959
422.905	15975
422.981	8263
423.056	5497
423.131	3651
423.207	2378
423.282	1477
423.357	1737
423.432	898
423.508	1214
423.583	-64
423.658	665
423.733	-350
423.808	32
423.883	213
423.959	226
424.034	143
424.109	676
424.184	-122
424.259	-959
424.334	-1025
424.409	-720
424.484	-1316
424.559	-488
424.634	-1614
424.709	-254
424.784	-342
424.859	-1149
424.934	-1524
425.009	326
425.084	-102
425.159	-29
425.234	-597
425.309	-1833
425.384	-744
425.459	-1808
425.534	-142
425.609	-1562
425.683	-1607
425.758	-793
425.833	-624
425.908	86
425.983	-1397
426.058	396
426.132	-991
426.207	-769
426.282	98
426.357	-602
426.431	-1370
426.506	-885
426.581	-974
426.655	-456
426.730	-1139
426.805	-1191
426.879	-745
426.954	-1231
427.029	-1709
427.103	213
427.178	1505
427.253	562
427.327	-829
427.402	-1575
427.476	-1074
427.551	-905
427.625	-950
427.700	-590
427.774	-2247
427.849	-806
427.923	-1660
427.998	-1617
428.072	-1629
428.147	121
428.221	2414
428.296	13558
428.370	9952
428.444	389
428.519	-1077
428.593	-634
428.667	-1146
428.742	-334
428.816	-290
428.890	6559
428.965	15214
429.039	3894
429.113	-518
429.188	-742
429.262	-967
429.336	-354
429.410	-436
429.485	-74
429.559	-570
429.633	-772
429.707	-1183
429.781	-445
429.855	5781
429.930	13357
430.004	3417
430.078	1723
430.152	3029
430.226	16394
430.300	21243
430.374	2789
430.448	120
430.522	41
430.596	1428
430.670	2342
430.744	9917
430.818	15662
430.892	1849
430.966	-572
431.040	-422
431.114	-995
431.188	-2772
431.262	-1396
431.336	-1211
431.410	87
431.484	-1591
431.557	354
431.631	-776
431.705	-400
431.779	1904
431.853	13833
431.927	10778
432.000	642
432.074	-614
432.148	-672
432.222	-1475
432.295	-34
432.369	-1084
432.443	-1098
432.516	-455
432.590	1779
432.664	-200
432.737	-836
432.811	-1724
432.885	-788
432.958	-1264
433.032	-1271
433.106	-1165
433.179	-1031
433.253	-1221
433.326	-1705
433.400	-1246
433.473	-297
433.547	-1164
433.620	-774
433.694	-1205
433.767	-852
433.841	-1145
433.914	-1098
433.988	-1370
434.061	-871
434.134	-1215
434.208	-1007
434.281	-2008
434.355	-1007
434.428	-619
434.501	-966
434.575	-2088
434.648	-867
434.721	-1179
434.795	-1601
434.868	-1104
434.941	-1446
435.014	-1855
435.088	-1424
435.161	-1417
435.234	-444
435.307	-1178
435.381	-1098
435.454	-571
435.527	673
435.600	488
435.673	340
435.746	-1103
435.819	-879
435.892	-1595
435.966	-1376
436.039	-1430
436.112	-688
436.185	-1629
436.258	-986
436.331	-1775
436.404	-1169
436.477	-953
436.550	-1173
436.623	-678
436.696	-1292
436.769	-887
436.842	-715
436.915	-1594
436.987	-851
437.060	-981
437.133	-1771
437.206	-1688
437.279	-199
437.352	-1422
437.425	-1135
437.498	-1247
437.570	-1007
437.643	-1561
437.716	-621
437.789	-1117
437.861	-544
437.934	-1457
438.007	-1602
438.080	-1775
438.152	-1176
438.225	-709
438.298	577
438.370	3828
438.443	1543
438.516	-1300
438.588	-656
438.661	-1678
438.734	-1421
438.806	-1175
438.879	-726
438.951	-1597
439.024	-1365
439.096	-2042
439.169	-1503
439.241	-1410
439.314	-1852
439.386	-1186
439.459	-1559
439.531	-2092
439.604	-1749
439.676	-1313
439.749	-1329
439.821	-1753
439.893	-1080
439.966	-1754
440.038	-1188
440.110	-807
440.183	-824
440.255	-1599
440.327	-1373
440.400	-967
440.472	922
440.544	414
440.617	-1378
440.689	-1204
440.761	-1052
440.833	-555
440.905	-684
440.978	-1633
441.050	-1085
441.122	-722
441.194	-1567
441.266	-1340
441.338	-1031
441.411	-1470
441.483	-563
441.555	-435
441.627	-299
441.699	-965
441.771	-1282
441.843	-1949
441.915	-1096
441.987	-1327
442.059	-935
442.131	-1435
442.203	-605
442.275	-1146
442.347	280
442.419	89
442.491	7320
442.563	23939
442.635	11420
442.706	560
442.778	-18
442.850	-1259
442.922	-817
442.994	-1031
443.066	-421
443.137	-462
443.209	-617
443.281	-352
443.353	1831
443.425	7062
443.496	34229
443.568	42369
443.640	18404
443.711	2499
443.783	278
443.855	-945
443.926	-259
443.998	-1328
444.070	-256
444.141	-707
444.213	-489
444.285	-1090
444.356	-1371
444.428	-869
444.499	-959
444.571	-741
444.642	-702
444.714	-1381
444.785	-290
444.857	-2013
444.928	-255
445.000	-363
445.071	-15
445.143	-964
445.214	-248
445.285	-156
445.357	4289
445.428	17873
445.500	48748
445.571	36512
445.642	25223
445.714	6494
445.785	2741
445.856	-484
445.928	-566
445.999	-580
446.070	-963
446.141	-1102
446.213	-807
446.284	-1586
446.355	-849
446.426	-2233
446.497	-686
446.569	-1637
446.640	-1082
446.711	-859
446.782	-557
446.853	-689
446.924	-313
446.995	-1425
447.066	-1286
447.138	-1271
447.209	-1276
447.280	-1502
447.351	-1237
447.422	-2463
447.493	-1462
447.564	-1213
447.635	-897
447.706	-1128
447.777	-509
447.847	-1437
447.918	-1195
447.989	-1182
448.060	-1008
448.131	-1458
448.202	-879
448.273	-1693
448.344	-720
448.414	-1401
448.485	-1246
448.556	-1114
448.627	-1275
448.698	-718
448.768	-1395
448.839	-1540
448.910	-1198
448.981	-913
449.051	-506
449.122	-1812
449.193	-998
449.263	-1578
449.334	-1688
449.405	-900
449.475	-805
449.546	-1005
449.616	-1013
449.687	-745
449.758	-1495
449.828	-1341
449.899	-1468
449.969	-1088
450.040	-755
450.110	-1136
450.181	-1282
450.251	-1892
450.322	-915
450.392	-545
450.463	-954
450.533	-1258
450.604	-1392
450.674	-976
450.744	-725
450.815	-1366
450.885	-632
450.955	-936
451.026	-1589
451.096	-1833
451.166	-871
451.237	-1630
451.307	-182
451.377	-1172
451.447	-1423
451.518	-1315
451.588	-720
451.658	-1440
451.728	-1228
451.799	-831
451.869	235
451.939	-1627
452.009	-1076
452.079	-1457
452.149	-627
452.219	-1012
452.289	-195
452.360	-660
452.430	-996
452.500	-1755
452.570	-763
452.640	-325
452.710	2929
452.780	3467
452.850	1053
452.920	-831
452.990	-159
453.060	-479
453.129	-1526
453.199	-1293
453.269	-39
453.339	634
453.409	1319
453.479	947
453.549	2259
453.619	2344
453.688	410
453.758	-1106
453.828	-1780
453.898	-975
453.968	-1602
454.037	-1276
454.087	-1650
454.107	-1815
454.168	-2050
454.177	-2095
454.247	-668
454.249	-689
454.316	-1485
454.330	-1315
454.386	-649
454.411	-1024
454.456	-1768
454.492	-1160
454.525	-579
454.574	-684
454.595	-776
454.655	-1063
454.665	-1108
454.734	-1213
454.736	-1201
454.804	-982
454.817	-994
454.873	-1118
454.898	-1024
454.943	-902
454.979	-1128
455.013	-1301
455.060	-636
455.082	-340
455.141	-1572
455.152	-1815
455.221	-410
455.222	-405
455.291	-777
455.303	-681
455.360	-140
455.384	-181
455.430	-284
455.465	-365
455.499	-497
455.546	-422
455.569	-439
455.627	-15
455.638	79
455.707	-1219
455.708	-1210
455.777	-1177
455.789	-1077
455.846	-505
455.869	-556
455.916	-746
455.950	-933
455.985	-1075
456.031	-829
456.054	-758
456.112	-1315
456.124	-1427
456.193	-580
456.193	-585
456.262	-1134
456.274	-1049
456.332	-638
456.355	-689
456.401	-894
456.436	-813
456.470	-701
456.516	-766
456.540	-851
456.597	-737
456.609	-669
456.678	-352
456.678	-361
456.747	-192
456.759	-279
456.817	-593
456.840	-666
456.886	-871
456.920	-874
456.955	-838
457.001	-741
457.024	-765
457.082	-712
457.093	-689
457.162	-408
457.163	-401
457.232	-587
457.243	-639
457.301	-846
457.324	-656
457.370	-336
457.405	0
457.439	396
457.485	7
457.508	-270
457.566	-149
457.577	-94
457.646	-373
457.647	-360
457.715	1031
457.727	1281
457.784	3274
457.808	4779
457.853	6616
457.889	8251
457.922	8335
457.969	4813
457.991	4526
458.050	5257
458.060	5535
458.129	11763
458.130	11946
458.198	12359
458.211	10913
458.267	5616
458.292	3656
458.336	1755
458.372	1442
458.405	2297
458.453	3799
458.474	5096
458.533	10882
458.543	11364
458.611	19881
458.614	20015
458.680	12845
458.694	9713
458.749	3129
458.775	2351
458.818	1404
458.855	492
458.887	-19
458.936	65
458.955	95
459.016	-78
459.024	-83
459.093	667
459.097	636
459.162	-315
459.177	-167
459.230	490
459.257	560
459.299	678
459.338	477
459.368	74
459.418	-224
459.437	-225
459.499	256
459.505	313
459.574	-14
459.579	4
459.643	143
459.659	27
459.711	-239
459.740	8
459.780	22
459.820	-303
459.849	-169
459.900	710
459.917	840
459.981	317
459.986	266
460.054	255
460.061	259
460.123	347
460.141	307
460.191	409
460.222	410
460.260	1
460.302	-282
460.328	-29
460.382	455
460.397	420
460.462	441
460.465	459
460.534	968
460.543	957
460.602	1352
460.623	1753
460.671	3347
460.703	4602
460.739	4177
460.783	3158
460.808	2556
460.864	550
460.876	397
460.944	-42
460.945	-44
461.013	654
461.024	617
461.081	-217
461.104	-236
461.150	78
461.184	27
461.218	41
461.264	405
461.286	516
461.345	408
461.355	294
461.423	-238
461.425	-249
461.491	297
461.505	404
461.559	435
461.585	471
461.628	962
461.665	1323
461.696	1149
461.745	888
461.764	961
461.825	1084
461.832	1042
461.901	430
461.905	419
461.969	241
461.985	218
462.037	860
462.065	1169
462.105	1099
462.145	961
462.173	702
462.225	93
462.241	295
462.305	1390
462.310	1367
462.378	1041
462.385	960
462.446	526
462.465	460
462.514	404
462.545	379
462.582	680
462.625	1266
462.650	1171
462.705	281
462.718	262
462.785	741
462.786	746
462.854	706
462.865	744
462.922	1096
462.945	1193
462.990	1216
463.025	1231
463.058	1078
463.104	723
463.126	433
463.184	-71
463.194	79
463.262	906
463.264	945
463.330	1440
463.344	1429
463.398	1322
463.424	1395
463.466	995
463.504	614
463.533	923
463.583	1454
463.601	1207
463.663	326
463.669	401
463.737	1335
463.743	1378
463.805	898
463.823	835
463.873	1055
463.903	1183
463.940	854
463.982	707
464.008	839
464.062	794
464.076	815
464.142	928
464.144	927
464.211	854
464.221	839
464.279	885
464.301	833
464.347	733
464.381	815
464.414	891
464.461	960
464.482	1144
464.540	1643
464.550	1543
464.617	752
464.620	721
464.685	1517
464.699	1717
464.753	1100
464.779	750
464.820	905
464.859	1011
464.888	844
464.938	685
464.956	965
465.018	1885
465.023	1863
465.091	1432
465.098	1388
465.158	1485
465.177	1534
465.226	1522
465.257	1544
465.293	1605
465.336	1511
465.361	1345
465.416	1079
465.428	1239
465.495	2038
465.496	2036
465.563	914
465.575	774
465.631	1338
465.654	1510
465.698	1444
465.734	1456
465.765	1690
465.813	1779
465.833	1437
465.893	599
465.900	685
465.968	1456
465.972	1498
466.035	1135
466.052	1049
466.102	1413
466.131	1575
466.170	1300
466.210	1018
466.237	1200
466.290	1645
466.304	1623
466.369	1355
466.372	1381
466.439	2075
466.449	2169
466.506	1619
466.528	1396
466.573	1631
466.607	1812
466.641	1896
466.687	1979
466.708	2153
466.766	2668
466.775	2602
466.842	2032
466.845	2001
466.909	1981
466.925	1971
466.977	2434
467.004	2667
467.044	2090
467.083	1547
467.111	1629
467.163	1721
467.178	1871
467.242	2513
467.245	2500
467.312	2151
467.321	2102
467.379	1906
467.400	1829
467.446	1797
467.480	1770
467.559	2466
467.638	171
467.717	1860
467.796	1626
467.875	1855
467.955	1085
468.034	1905
468.113	2785
468.192	3654
468.271	2538
468.350	2487
468.429	4049
468.508	4905
468.588	3437
468.667	2458
468.746	1639
468.825	1202
468.904	1385
468.983	2335
469.062	2825
469.141	2789
469.220	706
469.299	1775
469.378	251
469.456	2822
469.535	2131
469.614	2344
469.693	1074
469.772	2487
469.851	2237
469.930	3045
470.009	1502
470.088	2396
470.166	1652
470.245	4337
470.324	4269
470.403	2779
470.482	1943
470.560	1743
470.639	1996
470.718	1912
470.797	1738
470.875	1246
470.954	1448
471.033	1652
471.111	1613
471.190	1668
471.269	539
471.347	1977
471.426	1641
471.505	1342
471.583	1334
471.662	2341
471.740	1724
471.819	2301
471.898	1126
471.976	3127
472.055	994
472.133	1905
472.212	2135
472.290	1628
472.369	1096
472.447	2073
472.526	432
472.604	1918
472.683	1643
472.761	1956
472.839	2064
472.918	2410
472.996	1706
473.075	1842
473.153	2038
473.231	1703
473.310	1600
473.388	2136
473.466	1763
473.545	2129
473.623	1770
473.701	1785
473.780	1326
473.858	1609
473.936	2081
474.014	2156
474.093	1666
474.171	1802
474.249	2291
474.327	2212
474.405	119
474.484	1244
474.562	723
474.640	1889
474.718	1595
474.796	1960
474.874	1055
474.952	1551
475.030	1155
475.108	1340
475.187	1749
475.265	1585
475.343	1321
475.421	2620
475.499	1516
475.577	2955
475.655	2115
475.733	2876
475.811	2600
475.889	2165
475.966	1892
476.044	1156
476.122	1354
476.200	2573
476.278	1260
476.356	1186
476.434	1598
476.512	2409
476.590	1385
476.667	1862
476.745	468
476.823	2401
476.901	1951
476.979	1894
477.056	1072
477.134	2061
477.212	1266
477.290	1324
477.367	1292
477.445	1646
477.523	1002
477.601	1064
477.678	1757
477.756	1754
477.834	1836
477.911	1715
477.989	633
478.066	1668
478.144	686
478.222	1049
478.299	1050
478.377	1472
478.454	1346
478.532	1712
478.609	790
478.687	1732
478.764	708
478.842	2366
478.919	731
478.997	1404
479.074	1172
479.152	2450
479.229	719
479.307	1544
479.384	1306
479.461	1754
479.539	515
479.616	1070
479.694	930
479.771	1852
479.848	1966
479.926	576
480.003	3001
480.080	2082
480.157	1674
480.235	1792
480.312	955
480.389	1350
480.467	1763
480.544	1430
480.621	1432
480.698	2168
480.775	2047
480.853	2119
480.930	1536
481.007	1872
481.084	1117
481.161	1419
481.238	2224
481.315	1670
481.392	739
481.470	1627
481.547	987
481.624	688
481.701	586
481.778	1464
481.855	2007
481.932	1651
482.009	2098
482.086	1058
482.163	1946
482.240	2047
482.317	1075
482.393	819
482.470	1230
482.547	1249
482.624	1455
482.701	1799
482.778	1067
482.855	1597
482.932	643
483.009	1689
483.085	855
483.162	993
483.239	1572
483.316	1805
483.393	1702
483.469	1827
483.546	1480
483.623	1817
483.699	1477
483.776	1403
483.853	602
483.930	1865
484.006	1522
484.083	4401
484.160	1960
484.236	4488
484.313	1839
484.389	1831
484.466	3345
484.543	1190
484.619	2539
484.696	4168
484.772	2467
484.849	2240
484.925	2044
485.002	2200
485.078	1746
485.155	2115
485.231	1436
485.308	1891
485.384	1695
485.461	2147
485.537	1920
485.614	3408
485.690	1550
485.766	2375
485.843	1474
485.919	1704
485.995	1957
486.072	1393
486.148	862
486.224	2337
486.301	1175
486.377	2037
486.453	722
486.530	2333
486.606	2071
486.682	2097
486.758	2181
486.835	2251
486.911	1325
486.987	3227
487.063	2223
487.139	2709
487.215	1522
487.292	2993
487.368	1946
487.444	2645
487.520	3327
487.596	5114
487.672	11843
487.748	39701
487.824	59429
487.900	16442
487.976	4251
488.052	3207
488.128	1632
488.204	1688
488.280	2251
488.356	1875
488.432	2391
488.508	2816
488.584	1105
488.660	2120
488.736	1661
488.812	1820
488.888	960
488.964	1594
489.039	1958
489.115	2785
489.191	1537
489.267	2346
489.343	1513
489.418	1776
489.494	1790
489.570	943
489.646	2153
489.722	1894
489.797	1051
489.873	3003
489.949	1475
490.024	2087
490.100	814
490.176	1329
490.251	215
490.327	1375
490.403	400
490.478	443
490.554	1697
490.629	1843
490.705	1487
490.781	1665
490.856	1120
490.932	868
491.007	985
491.083	1481
491.158	1317
491.234	1372
491.309	2564
491.385	2098
491.460	657
491.536	1986
491.611	926
491.686	2006
491.762	754
491.837	1754
491.913	2211
491.988	2743
492.063	3152
492.139	2730
492.214	1663
492.289	1083
492.365	1067
492.440	1770
492.515	1108
492.590	1341
492.666	625
492.741	1287
492.816	1334
492.891	1903
492.967	1634
493.042	1677
493.117	422
493.192	1706
493.267	1805
493.342	1969
493.418	3187
493.493	2214
493.568	1508
493.643	1715
493.718	1865
493.793	2351
493.868	1217
493.943	2747
494.018	1698
494.093	1571
494.168	1508
494.243	850
494.318	1166
494.393	1493
494.468	1740
494.543	1576
494.618	1480
494.693	1629
494.768	1608
494.842	2258
494.917	2221
494.992	1739
495.067	1610
495.142	1039
495.217	1836
495.292	1550
495.366	1264
495.441	1779
495.516	2139
495.591	1602
495.665	2656
495.740	5192
495.815	2450
495.890	2352
495.964	710
496.039	2673
496.114	1419
496.188	1718
496.263	1640
496.338	2125
496.412	559
496.487	1984
496.561	1739
496.636	1321
496.710	1867
496.785	2094
496.860	1354
496.934	1980
497.009	2648
497.083	2523
497.158	1824
497.232	2908
497.307	1434
497.381	2905
497.455	1953
497.530	2198
497.604	1653
497.679	2469
497.753	1856
497.827	2420
497.902	522
497.976	3040
498.050	3546
498.125	11922
498.199	12411
498.273	3072
498.348	2036
498.422	1921
498.496	3142
498.570	3229
498.645	1501
498.719	1223
498.793	1455
498.867	2104
498.941	1954
499.016	5183
499.090	11746
499.164	5024
499.238	2085
499.312	3186
499.386	2111
499.460	3031
499.534	3206
499.609	3864
499.683	2001
499.757	1792
499.831	2118
499.905	6686
499.979	7575
500.053	1982
500.127	1913
500.201	1119
500.275	2907
500.349	2735
500.422	2093
500.496	3461
500.570	2970
500.644	7232
500.718	10501
500.792	2872
500.866	1627
500.940	1518
501.013	2058
501.087	1708
501.161	1723
501.235	869
501.309	3213
501.382	5502
501.456	6341
501.530	1527
501.603	1040
501.677	1508
501.751	364
501.825	1896
501.898	1614
501.972	2652
502.046	1629
502.119	54
502.193	1020
502.266	2755
502.340	1745
502.413	1694
502.487	2496
502.561	1367
502.634	1087
502.708	1283
502.781	-782
502.855	1237
502.928	124
503.002	261
503.075	661
503.149	960
503.222	-227
503.295	1487
503.369	830
503.442	1298
503.516	2495
503.589	4616
503.662	2732
503.736	2166
503.809	3333
503.882	3330
503.956	4234
504.029	9040
504.102	20772
504.175	33554
504.249	8988
504.322	3029
504.395	1708
504.468	1042
504.542	-316
504.615	-239
504.688	645
504.761	454
504.834	1623
504.907	546
504.980	403
505.053	339
505.127	-1579
505.200	2906
505.273	21
505.346	19
505.419	606
505.492	1302
505.565	103
505.638	1239
505.711	209
505.784	-192
505.857	707
505.930	1577
506.003	-1081
506.076	1942
506.149	260
506.221	-501
506.294	1766
506.367	362
506.440	2775
506.513	3255
506.586	1122
506.659	486
506.731	1266
506.804	537
506.877	-1111
506.950	572
507.022	851
507.095	-639
507.168	505
507.241	1281
507.313	-192
507.386	-113
507.459	687
507.531	576
507.604	-224
507.677	1333
507.749	-594
507.822	1346
507.894	-61
507.967	1396
508.040	63
508.112	1365
508.185	59
508.257	21
508.330	1462
508.402	339
508.475	508
508.547	914
508.620	619
508.692	1072
508.765	162
508.837	50
508.909	202
508.982	692
509.054	681
509.127	744
509.199	-832
509.271	996
509.344	273
509.416	514
509.488	303
509.560	766
509.633	-90
509.705	90
509.777	-172
509.849	1182
509.922	-1126
509.994	550
510.066	1320
510.138	158
510.210	1939
510.283	644
510.355	453
510.427	1565
510.499	17
510.571	1260
510.643	-64
510.715	1268
510.787	-847
510.859	1983
510.931	70
511.003	734
511.076	1518
511.148	937
511.219	-771
511.291	1565
511.363	863
511.435	1060
511.507	-93
511.579	1440
511.651	1341
511.723	34
511.795	-230
511.867	640
511.939	96
512.010	832
512.082	544
512.154	-203
512.226	34
512.298	1523
512.369	454
512.441	965
512.513	637
512.585	473
512.656	866
512.728	753
512.800	-18
512.871	1003
512.943	377
513.015	509
513.086	617
513.158	1345
513.230	-208
513.301	851
513.373	1581
513.444	689
513.516	267
513.588	1234
513.659	-33
513.731	237
513.802	-1039
513.874	1853
513.945	610
514.016	561
514.088	449
514.159	279
514.231	1186
514.302	1052
514.374	1110
514.445	-873
514.516	2419
514.588	1387
514.659	51
514.730	466
514.802	1042
514.873	-1428
514.944	2431
515.016	1373
515.087	-767
515.158	1225
515.229	1271
515.301	-120
515.372	1126
515.443	-40
515.514	544
515.585	224
515.656	841
515.728	1083
515.799	-484
515.870	1149
515.941	1470
516.012	-19
516.083	1712
516.154	43
516.225	975
516.296	2569
516.367	1706
516.438	1619
516.509	1912
516.580	3939
516.651	14218
516.722	49598
516.793	20007
516.864	3165
516.935	3096
517.006	4797
517.077	5689
517.148	13076
517.219	56898
517.289	88833
517.360	13325
517.431	5722
517.502	740
517.573	2793
517.643	1462
517.714	1467
517.785	1777
517.856	1527
517.926	2368
517.997	4446
518.068	2828
518.138	8291
518.209	10372
518.280	35972
518.350	128435
518.421	50615
518.492	7973
518.562	5008
518.633	4115
518.703	5076
518.774	13972
518.845	37690
518.915	37572
518.986	8516
519.056	3258
519.127	3304
519.197	2327
519.268	3839
519.338	3819
519.408	1381
519.479	1386
519.549	777
519.620	2030
519.690	717
519.760	39
519.831	1584
519.901	855
519.971	1583
520.042	92
520.112	-69
520.182	1405
520.253	1279
520.323	245
520.393	781
520.463	2119
520.534	-1128
520.604	2551
520.674	2296
520.744	-438
520.814	789
520.885	1196
520.955	806
521.025	3702
521.095	1260
521.165	1170
521.235	-103
521.305	-135
521.375	1576
521.445	1135
521.515	4
521.585	1189
521.655	-446
521.725	1313
521.795	1287
521.865	-1975
521.935	1934
522.005	141
522.075	715
522.145	847
522.215	-573
522.285	1039
522.355	742
522.424	749
522.494	522
522.564	1120
522.634	698
522.704	2645
522.774	431
522.843	320
522.913	898
522.983	509
523.053	209
523.122	1172
523.192	227
523.262	962
523.331	1428
523.401	910
523.471	637
523.540	-95
523.610	722
523.680	1322
523.749	928
523.819	537
523.888	1423
523.958	319
524.027	653
524.097	633
524.166	31
524.236	-1472
524.305	2431
524.375	-647
524.444	541
524.514	1371
524.583	827
524.653	-515
524.722	1062
524.791	-500
524.861	1228
524.930	-500
524.999	717
525.069	1224
525.138	2
525.207	-72
525.277	1571
525.346	-142
525.415	1481
525.484	1138
525.554	604
525.623	1567
525.692	2264
525.761	1786
525.830	3510
525.900	3909
525.969	6855
526.038	12343
526.107	23204
526.176	73647
526.245	58005
526.314	15032
526.383	34773
526.452	46789
526.522	69017
526.591	65515
526.660	9854
526.729	5254
526.797	7571
526.867	9177
526.935	30493
527.004	106786
527.073	69342
527.142	6803
527.211	2530
527.280	1989
527.349	2461
527.418	328
527.487	2921
527.555	-540
527.624	925
527.693	-23
527.762	2404
527.831	-267
527.899	1060
527.968	1291
528.037	-205
528.106	1033
528.174	1699
528.243	344
528.312	1584
528.380	728
528.449	293
528.518	1230
528.586	-73
528.655	1737
528.723	794
528.792	-42
528.861	420
528.929	-353
528.998	1650
529.066	1002
529.135	1855
529.203	473
529.272	1062
529.340	1661
529.409	3047
529.477	634
529.545	322
529.614	3076
529.682	2336
529.751	906
529.819	4277
529.887	1284
529.956	1601
530.024	2151
530.092	965
530.161	2579
530.229	2318
530.297	1446
530.365	2583
530.434	2006
530.502	2408
530.570	2647
530.638	644
530.707	2172
530.775	2992
530.843	707
530.911	2924
530.979	2019
531.047	1575
531.115	2074
531.183	2028
531.252	2419
531.320	2691
531.388	975
531.456	2211
531.524	1263
531.592	3175
531.660	3415
531.728	927
531.796	712
531.864	2736
531.932	1161
532.000	2016
532.067	1633
532.135	3108
532.203	4017
532.271	2629
532.339	3078
532.407	3964
532.475	2282
532.542	3210
532.610	3263
532.678	1811
532.746	4697
532.814	7809
532.881	3090
532.949	3130
533.017	2135
533.084	3270
533.152	2399
533.220	3036
533.287	1380
533.355	3523
533.423	3373
533.490	2692
533.558	3020
533.625	2745
533.693	1976
533.761	3218
533.828	2511
533.896	1231
533.963	3508
534.031	3678
534.098	3478
534.166	4065
534.233	3476
534.300	5206
534.368	3540
534.435	3347
534.503	3541
534.570	4666
534.637	3682
534.705	4761
534.772	5101
534.840	7836
534.907	31822
534.974	41328
535.041	5930
535.109	3950
535.176	3415
535.243	4372
535.310	2987
535.378	3299
535.445	3687
535.512	3559
535.579	3642
535.646	2879
535.714	4109
535.781	4368
535.848	2744
535.915	4987
535.982	3678
536.049	3274
536.116	4822
536.183	2912
536.250	3102
536.317	2916
536.384	3450
536.451	3885
536.518	3679
536.585	2076
536.652	4334
536.719	3902
536.786	1612
536.853	3376
536.920	4142
536.987	3294
537.053	2108
537.120	6248
537.187	6139
537.254	3438
537.321	2638
537.388	5544
537.454	2449
537.521	3312
537.588	3134
537.654	5150
537.721	3249
537.788	5236
537.855	3085
537.921	4289
537.988	2728
538.055	4956
538.121	3384
538.188	3383
538.254	2909
538.321	4114
538.388	3565
538.454	4036
538.521	4365
538.587	4100
538.654	3448
538.720	4196
538.787	3805
538.853	4027
538.920	3332
538.986	3576
539.053	3101
539.119	4027
539.185	3044
539.252	3988
539.318	3470
539.385	5044
539.451	2539
539.517	4881
539.583	4684
539.650	3665
539.716	5368
539.782	4126
539.849	3157
539.915	3971
539.981	4182
540.047	3315
540.114	3267
540.180	5239
540.246	3458
540.312	4531
540.378	3801
540.444	5513
540.510	4825
540.576	5933
540.643	4251
540.709	3183
540.775	3010
540.841	3804
540.907	3612
540.973	4667
541.039	3329
541.105	4558
541.171	4334
541.237	3140
541.303	4269
541.369	5781
541.435	3753
541.500	4364
541.566	2183
541.632	3823
541.698	3230
541.764	4948
541.830	3549
541.896	3201
541.961	3475
542.027	3732
542.093	5195
542.159	4562
542.224	2760
542.290	4361
542.356	3778
542.421	4245
542.487	3436
542.553	3786
542.618	2960
542.684	3537
542.750	3042
542.815	4749
542.881	4100
542.947	5569
543.012	4927
543.078	4096
543.143	3157
543.209	4519
543.274	2537
543.340	3479
543.405	3952
543.471	5069
543.536	3947
543.602	4333
543.667	2881
543.732	5492
543.798	3969
543.863	4557
543.928	3832
543.994	3780
544.059	4024
544.124	4665
544.190	3509
544.255	5309
544.320	4926
544.386	4341
544.451	4713
544.516	5570
544.581	3883
544.646	4734
544.712	6166
544.777	5334
544.842	4138
544.907	3890
544.972	3821
545.037	4643
545.102	5307
545.168	5569
545.233	5007
545.298	6046
545.363	5065
545.428	5863
545.493	5928
545.558	6043
545.623	5168
545.688	5401
545.753	5846
545.818	5536
545.883	6365
545.947	6134
546.012	6101
546.077	5931
546.142	7831
546.207	6677
546.272	7387
546.337	8138
546.401	8298
546.466	8515
546.531	6824
546.596	9802
546.661	8965
546.725	10635
546.790	9761
546.855	12330
546.919	12683
546.984	14722
547.049	16486
547.113	17965
547.178	19900
547.243	24086
547.307	26317
547.372	29720
547.436	28328
547.501	29818
547.565	32566
547.630	31846
547.695	27961
547.759	29585
547.823	29174
547.888	30616
547.952	30407
548.017	32822
548.081	32483
548.146	33023
548.210	33842
548.274	36357
548.339	36003
548.403	34541
548.468	30977
548.532	30624
548.596	30985
548.660	31358
548.725	35259
548.789	37460
548.853	35703
548.917	35379
548.982	35207
549.046	31604
549.110	28496
549.174	30203
549.238	33785
549.303	37565
549.367	39249
549.431	37380
549.495	35060
549.559	35302
549.623	41281
549.687	45396
549.751	44075
549.815	51957
549.879	52875
549.943	50083
550.007	52885
550.071	52557
550.135	49304
550.199	46493
550.263	46548
550.327	45198
550.391	44592
550.455	49853
550.519	51388
550.582	54984
550.646	60270
550.710	62195
550.774	61641
550.838	63229
550.901	64926
550.965	68763
551.029	69376
551.093	73510
551.156	75720
551.220	76930
551.284	79298
551.347	73852
551.411	68375
551.475	67536
551.538	70892
551.602	68730
551.666	65722
551.729	62652
551.793	63210
551.856	62193
551.920	62133
551.983	61778
552.047	60506
552.110	62201
552.174	61926
552.237	64309
552.301	60330
552.364	58792
552.428	57442
552.491	59430
552.554	61576
552.618	59926
552.681	61137
552.745	59674
552.808	61214
552.871	65638
552.934	62515
552.998	60315
553.061	60221
553.124	59388
553.187	58479
553.251	59591
553.314	62288
553.377	62304
553.440	65856
553.503	67914
553.567	69153
553.630	69359
553.693	68280
553.756	71632
553.819	71932
553.882	71198
553.945	71479
554.008	72162
554.071	70204
554.134	72590
554.197	70575
554.260	71117
554.323	71850
554.386	72195
554.449	72782
554.512	72443
554.575	68931
554.638	70662
554.701	69825
554.764	69051
554.827	67026
554.889	66570
554.952	62174
555.015	59887
555.078	60417
555.141	60855
555.203	60360
555.266	59836
555.329	60252
555.391	57866
555.454	56761
555.517	54537
555.580	52350
555.642	51107
555.705	49027
555.768	49268
555.830	48552
555.893	46029
555.955	43603
556.018	43440
556.080	42651
556.143	43218
556.206	43073
556.268	42707
556.330	41232
556.393	40647
556.455	38580
556.518	38035
556.580	36624
556.643	36649
556.705	33764
556.767	33882
556.830	33906
556.892	33223
556.955	32283
557.017	30876
557.079	29405
557.142	29256
557.204	28446
557.266	28808
557.328	27136
557.391	25750
557.453	24307
557.515	24773
557.577	23746
557.639	23426
557.701	22751
557.764	22790
557.826	21602
557.888	23149
557.950	22336
558.012	23029
558.074	24250
558.136	35264
558.198	64256
558.260	32971
558.322	19682
558.384	20222
558.446	20927
558.508	22249
558.570	22937
558.632	24055
558.694	28077
558.756	36788
558.818	75744
558.880	163177
558.942	67473
559.003	64223
559.065	38319
559.127	20528
559.189	20219
559.251	21944
559.312	26061
559.374	44107
559.436	116354
559.498	67448
559.559	19760
559.621	19977
559.683	20751
559.744	27872
559.806	61477
559.868	92143
559.929	26112
559.991	19768
560.052	23865
560.114	56203
560.176	40224
560.237	34588
560.299	52294
560.360	17595
560.422	10507
560.483	10827
560.545	9857
560.606	9427
560.667	8754
560.729	8950
560.790	8865
560.852	9663
560.913	7688
560.974	9147
561.036	8732
561.097	8868
561.158	8355
561.220	9220
561.281	7507
561.342	7867
561.403	8487
561.465	7029
561.526	7987
561.587	9177
561.648	6278
561.709	7577
561.771	7106
561.832	6511
561.893	6709
561.954	7744
562.015	7096
562.076	7271
562.137	5919
562.198	7063
562.259	6197
562.320	5616
562.381	5828
562.442	7156
562.503	6125
562.564	6034
562.625	6518
562.686	6268
562.747	5092
562.808	6294
562.869	5007
562.930	6038
562.991	4986
563.051	5538
563.112	5166
563.173	5955
563.234	4507
563.294	6170
563.355	4570
563.416	5958
563.477	4436
563.537	4911
563.598	5461
563.659	5643
563.720	4704
563.780	4997
563.841	4192
563.901	6082
563.962	4983
564.023	5603
564.083	5589
564.144	4344
564.204	3842
564.265	5368
564.325	4583
564.386	5415
564.446	4727
564.507	5019
564.567	4378
564.628	4592
564.688	4206
564.749	4337
564.809	4969
564.869	4969
564.930	3754
564.990	5689
565.050	3742
565.111	4380
565.171	3988
565.231	4888
565.292	5247
565.352	3513
565.412	4524
565.472	4209
565.532	3958
565.593	3453
565.653	3330
565.713	4541
565.773	3622
565.833	4602
565.893	4738
565.953	3903
566.013	3758
566.074	4999
566.134	4580
566.194	3841
566.254	4864
566.314	5184
566.374	3232
566.434	4992
566.494	4264
566.554	3402
566.614	4078
566.673	4095
566.733	4503
566.793	4622
566.853	3724
566.913	4253
566.973	3906
567.033	4579
567.092	4034
567.152	3534
567.212	3586
567.272	4985
567.331	4219
567.391	4503
567.451	4656
567.511	5225
567.570	4628
567.630	5182
567.690	3884
567.749	4038
567.809	4363
567.868	5006
567.928	3569
567.988	3923
568.047	3112
568.107	4210
568.166	5122
568.226	4538
568.285	4505
568.345	5171
568.404	4126
568.464	3892
568.523	4488
568.582	3961
568.642	3716
568.701	4115
568.761	3498
568.820	4188
568.879	3802
568.939	4380
568.998	4584
569.057	4554
569.116	4306
569.176	3670
569.235	3996
569.294	4316
569.353	3671
569.413	3673
569.472	3778
569.531	4112
569.590	3236
569.649	4693
569.708	3883
569.767	4227
569.827	3502
569.886	4103
569.945	3761
570.004	5015
570.063	2898
570.122	4348
570.181	4436
570.240	4242
570.299	3615
570.358	4348
570.417	3455
570.475	4734
570.534	3725
570.593	4820
570.652	4546
570.711	4345
570.770	3943
570.829	4805
570.887	3668
570.946	3979
571.005	3838
571.064	5105
571.122	4622
571.181	4136
571.240	3925
571.299	3575
571.357	4134
571.416	4375
571.475	3614
571.533	4494
571.592	4676
571.650	3994
571.709	4676
571.768	5221
571.826	4750
571.885	4573
571.943	3951
572.002	4622
572.060	4664
572.119	4719
572.177	4250
572.236	4600
572.294	4788
572.352	4319
572.411	4370
572.469	4432
572.528	4925
572.586	4657
572.644	4109
572.703	5498
572.761	3986
572.819	4584
572.877	3150
572.936	3970
572.994	3921
573.052	4621
573.110	2809
573.169	4533
573.227	3529
573.285	4414
573.343	4620
573.401	5180
573.459	3719
573.517	4446
573.576	2906
573.634	4267
573.692	3607
573.750	3578
573.808	3165
573.866	3441
573.924	3416
573.982	4245
574.040	3244
574.098	3189
574.155	2467
574.213	3082
574.271	2828
574.329	3779
574.387	2632
574.445	3104
574.503	2951
574.560	3321
574.618	2416
574.676	2417
574.734	3158
574.792	2926
574.849	3111
574.907	3142
574.965	2472
575.022	2990
575.080	2187
575.138	2764
575.195	2859
575.253	2500
575.311	2418
575.368	3049
575.426	2073
575.483	3498
575.541	2284
575.598	2816
575.656	2525
575.713	2418
575.771	1763
575.828	2129
575.886	1761
575.943	2972
576.001	2222
576.058	2278
576.115	1961
576.173	2244
576.230	2001
576.287	2457
576.345	2702
576.402	2348
576.459	1554
576.517	2361
576.574	2913
576.631	2456
576.688	1524
576.746	2470
576.803	2314
576.860	2361
576.917	2186
576.974	2680
577.031	1784
577.089	2276
577.146	1610
577.203	2467
577.260	2106
577.317	2675
577.374	1498
577.431	2520
577.488	2302
577.545	1492
577.602	2125
577.659	2247
577.716	2206
577.773	2349
577.830	1590
577.886	3064
577.943	1428
578.000	2259
578.057	1949
578.114	2009
578.171	2667
578.227	3046
578.284	1494
578.341	3248
578.398	1879
578.454	2753
578.511	1719
578.568	2001
578.625	1472
578.681	1990
578.738	1608
578.794	1778
578.851	1888
578.908	2605
578.964	1315
579.021	2896
579.077	1732
579.134	2412
579.190	1610
579.247	1851
579.303	2148
579.360	1737
579.416	1269
579.473	1791
579.529	1802
579.586	2263
579.642	1502
579.698	1761
579.755	2456
579.811	2546
579.867	1994
579.924	2007
579.980	1048
580.036	2892
580.093	2413
580.149	2637
580.205	2510
580.261	2504
580.317	2224
580.374	2503
580.430	1853
580.486	2623
580.542	2053
580.598	2699
580.619	2585
580.654	2388
580.692	2272
580.710	2217
580.765	2972
580.767	2999
580.823	2481
580.838	2484
580.879	2483
580.911	2340
580.935	2242
580.984	1839
580.991	1784
581.047	3285
581.057	3047
581.103	2013
581.130	2546
581.159	3110
581.203	2369
581.215	2176
581.270	2539
581.276	2570
581.326	2849
581.349	2602
581.382	2261
581.422	2424
581.438	2472
581.494	2242
581.494	2232
581.550	1275
581.567	1982
581.606	3391
581.640	2190
581.661	1539
581.713	3001
581.717	3107
581.773	2004
581.786	2108
581.829	2520
581.859	2217
581.885	1934
581.932	2475
581.940	2578
581.996	2672
582.004	2636
582.052	2381
582.077	2208
582.107	2056
582.150	2527
582.163	2656
582.219	2170
582.223	2236
582.274	3083
582.296	2781
582.330	2278
582.368	2939
582.386	3297
582.441	2489
582.441	2487
582.497	2918
582.514	2634
582.552	2276
582.587	2262
582.608	2233
582.659	1823
582.663	1788
582.719	3285
582.732	3190
582.774	2855
582.805	3001
582.830	3138
582.877	2548
582.885	2434
582.941	3314
582.950	3193
582.996	2704
583.023	2999
583.052	3343
583.095	2507
583.107	2257
583.162	3203
583.168	3273
583.218	3800
583.240	3023
583.273	2062
583.313	2616
583.328	2805
583.384	2565
583.385	2570
583.439	2801
583.458	3068
583.494	3268
583.531	2441
583.549	2247
583.603	3299
583.605	3313
583.660	2670
583.676	2663
583.715	2970
583.748	3160
583.770	3218
583.820	3073
583.825	3049
583.881	2807
583.893	2857
583.936	3097
583.965	2850
583.991	2681
584.038	3194
584.046	3266
584.101	2371
584.110	2422
584.156	2787
584.183	2944
584.211	3061
584.255	3361
584.266	3442
584.321	2920
584.328	2870
584.376	2515
584.400	2820
584.431	3228
584.472	3116
584.486	3078
584.541	3118
584.545	3154
584.596	3754
584.617	3640
584.651	3519
584.689	3868
584.706	3944
584.761	3618
584.762	3616
584.816	3681
584.834	3600
584.871	3563
584.906	3804
584.926	3839
584.978	3911
584.980	3924
585.035	4407
585.051	4543
585.090	4732
585.123	4772
585.145	5009
585.195	5400
585.200	5421
585.254	6545
585.267	6673
585.309	7049
585.340	7351
585.364	7759
585.412	9304
585.419	9514
585.473	11433
585.484	11734
585.528	13576
585.556	15918
585.583	21707
585.628	34512
585.637	39821
585.692	83181
585.700	91009
585.747	119849
585.772	107928
585.801	69373
585.845	22392
585.856	17426
585.910	9989
585.917	9193
585.965	7526
585.989	6864
586.019	6720
586.061	6262
586.074	5969
586.128	6261
586.133	6133
586.183	5372
586.205	5641
586.237	5856
586.277	5334
586.292	5236
586.346	6099
586.349	6094
586.401	5788
586.421	5523
586.455	5261
586.493	5847
586.509	6131
586.564	6058
586.565	6068
586.618	7281
586.637	7702
586.672	7860
586.709	7554
586.727	7614
586.781	8095
586.781	8099
586.835	6370
586.853	6247
586.889	6548
586.925	6119
586.944	5781
586.996	5905
586.998	5935
587.052	6487
587.068	6681
587.106	6656
587.140	6110
587.161	5946
587.212	6407
587.215	6428
587.269	6583
587.284	6699
587.323	7162
587.356	6948
587.377	6703
587.427	7280
587.431	7362
587.485	7550
587.499	7704
587.539	7676
587.571	7494
587.593	7645
587.643	8175
587.648	8175
587.702	7711
587.715	7763
587.755	8328
587.786	8212
587.810	7903
587.858	7791
587.864	7839
587.917	8169
587.930	8235
587.971	8368
588.001	8291
588.025	8280
588.073	9033
588.079	9110
588.133	8431
588.145	8592
588.187	9397
588.217	9089
588.241	8817
588.288	9163
588.295	9205
588.348	9467
588.360	9469
588.402	9583
588.431	9567
588.456	9574
588.503	10183
588.510	10309
588.564	10622
588.575	10820
588.617	11709
588.646	11889
588.671	11950
588.718	12885
588.725	13205
588.778	15957
588.789	16546
588.832	21959
588.861	26741
588.886	40276
588.932	69776
588.939	73571
588.993	105392
589.004	106268
589.047	56962
589.075	28010
589.100	20735
589.147	12941
589.154	12829
589.207	11924
589.218	11842
589.261	11969
589.290	12125
589.314	12637
589.361	13893
589.368	14246
589.421	17013
589.433	17937
589.475	30702
589.504	40380
589.528	55267
589.576	89252
589.582	87011
589.635	48012
589.647	40074
589.689	21610
589.718	11505
589.742	11327
589.790	10758
589.795	10723
589.849	10729
589.861	10763
589.902	11003
589.932	10921
589.955	10695
590.004	10211
590.009	10211
590.062	10453
590.075	10453
590.115	10198
590.146	9914
590.168	9995
590.218	10272
590.222	10247
590.275	9720
590.289	9532
590.328	9951
590.360	10376
590.381	10562
590.431	11035
590.435	11068
590.488	11173
590.503	11268
590.541	11501
590.574	11615
590.594	11644
590.645	11593
590.647	11602
590.700	11578
590.716	11557
590.753	12310
590.787	13004
590.806	13079
590.859	13194
590.859	13210
590.912	13017
590.930	13053
590.965	13644
591.001	13951
591.018	13791
591.071	13488
591.072	13468
591.124	13119
591.143	12981
591.177	13379
591.214	13670
591.230	13703
591.283	14227
591.285	14216
591.336	13788
591.356	13618
591.389	13368
591.427	13046
591.442	13091
591.495	13251
591.498	13242
591.547	13497
591.569	13656
591.600	13613
591.640	13376
591.653	13511
591.706	14168
591.711	14212
591.759	14284
591.782	14344
591.811	14507
591.853	14604
591.864	14776
591.917	15663
591.924	15754
591.969	15240
591.995	14966
592.022	15387
592.066	15986
592.075	15990
592.127	15933
592.137	15903
592.180	16249
592.208	16453
592.233	16568
592.279	16685
592.285	16751
592.338	17196
592.350	17263
592.390	16415
592.421	15780
592.443	16233
592.491	17173
592.495	17242
592.548	17994
592.562	18182
592.600	18538
592.633	18829
592.653	18430
592.704	17252
592.705	17362
592.775	17991
592.846	18090
592.916	19534
592.987	19452
593.058	20088
593.128	18746
593.199	20255
593.270	19163
593.341	20510
593.411	20632
593.482	22000
593.553	22216
593.623	22220
593.694	22868
593.764	22901
593.835	23146
593.906	22978
593.976	23864
594.047	24572
594.117	24712
594.188	26178
594.258	25461
594.329	26457
594.399	26910
594.470	27744
594.540	27822
594.611	29310
594.681	28357
594.751	28141
594.822	29608
594.892	31328
594.963	31448
595.033	33613
595.103	33135
595.174	33628
595.244	34761
595.314	35883
595.384	35453
595.455	37386
595.525	38196
595.595	39844
595.665	40339
595.736	39546
595.806	39194
595.876	40337
595.946	40491
596.016	42245
596.087	43004
596.157	43684
596.227	44868
596.297	46317
596.367	48193
596.437	52623
596.507	52920
596.577	52483
596.647	53034
596.717	55640
596.787	55803
596.857	55882
596.927	56526
596.997	55777
597.067	57282
597.137	60079
597.207	58942
597.277	60360
597.347	58393
597.417	55356
597.487	55172
597.557	57307
597.626	57916
597.696	59965
597.766	59050
597.836	58067
597.906	53234
597.975	53691
598.045	52566
598.115	54636
598.185	58966
598.254	65498
598.324	71217
598.394	73702
598.464	70269
598.533	69334
598.603	64645
598.672	62099
598.742	64310
598.812	64228
598.881	66035
598.951	66216
599.020	66559
599.090	68870
599.159	70655
599.229	68507
599.299	65108
599.368	67899
599.437	67436
599.507	62207
599.576	59892
599.646	61178
599.715	59518
599.785	60042
599.854	58354
599.924	56170
599.993	57110
600.062	59035
600.132	59558
600.201	61420
600.270	72443
600.340	76097
600.409	74081
600.478	74350
600.547	75002
600.617	71085
600.686	57580
600.755	51978
600.824	48819
600.894	49268
600.963	48376
601.032	48525
601.101	47694
601.170	46862
601.239	43986
601.308	44600
601.378	45437
601.447	46192
601.516	45983
601.585	46665
601.654	46651
601.723	47966
601.792	48071
601.861	50169
601.930	51292
601.999	52149
602.068	52282
602.137	52550
602.206	51499
602.275	53924
602.343	52805
602.412	54298
602.481	54961
602.550	55016
602.619	56795
602.688	57436
602.756	58364
602.825	58750
602.894	58476
602.963	60398
603.032	60362
603.100	61854
603.169	61646
603.238	62119
603.307	61563
603.375	62940
603.444	64109
603.513	64302
603.581	63418
603.650	66814
603.719	62969
603.787	64020
603.856	65546
603.924	66965
603.993	69606
604.061	71531
604.130	73116
604.198	75775
604.267	76327
604.335	79243
604.404	77921
604.472	79646
604.541	80007
604.609	82146
604.678	81609
604.746	82969
604.815	84532
604.883	85372
604.951	84507
605.020	87529
605.088	89849
605.156	88291
605.225	91402
605.293	90458
605.361	90515
605.429	91088
605.498	93269
605.566	94303
605.634	99328
605.702	102861
605.771	106061
605.839	106539
605.907	105773
605.975	102917
606.043	98973
606.111	99545
606.180	98942
606.248	99266
606.316	97375
606.384	97823
606.452	97575
606.520	98871
606.588	103110
606.656	104436
606.724	102848
606.792	96915
606.860	87857
606.928	80680
606.996	77106
607.064	75772
607.132	76069
607.200	81640
607.267	84057
607.335	85613
607.403	88813
607.471	85180
607.539	82631
607.607	84988
607.674	73924
607.742	73755
607.810	73467
607.878	73523
607.946	74080
608.013	77976
608.081	79554
608.149	81141
608.216	83510
608.284	86449
608.352	84990
608.419	85716
608.487	83258
608.555	81891
608.622	84410
608.690	89726
608.757	96664
608.825	100464
608.893	97566
608.960	92847
609.028	88485
609.095	90365
609.163	88885
609.230	80394
609.298	74730
609.365	76981
609.432	82132
609.500	88617
609.567	102986
609.635	115247
609.702	123331
609.769	118197
609.837	94166
609.904	79920
609.971	80420
610.039	86513
610.106	97853
610.173	145410
610.241	282188
610.308	187082
610.375	92667
610.442	84561
610.509	83144
610.577	83751
610.644	83787
610.711	88653
610.778	89326
610.845	92278
610.912	98713
610.980	102767
611.047	102932
611.114	100615
611.181	97715
611.248	97815
611.315	104280
611.382	105817
611.449	108734
611.516	110723
611.583	109164
611.650	109590
611.717	109710
611.784	110601
611.851	112604
611.918	117231
611.984	125721
612.051	150356
612.118	231701
612.185	455503
612.252	338052
612.319	147125
612.386	136235
612.452	127923
612.519	122791
612.586	122036
612.653	124241
612.719	128371
612.786	125124
612.853	119114
612.919	112998
612.986	118837
613.053	112190
613.120	106894
613.186	101140
613.253	104239
613.319	103541
613.386	103929
613.453	104637
613.519	105852
613.586	102969
613.652	105918
613.719	104479
613.785	105440
613.852	106497
613.918	107077
613.985	107119
614.051	113141
614.118	111151
614.184	108088
614.250	106867
614.317	109629
614.383	107662
614.449	111703
614.516	109967
614.582	111854
614.648	109418
614.715	108759
614.781	107752
614.847	107223
614.914	105457
614.980	104539
615.046	104061
615.112	106951
615.179	106432
615.245	108369
615.311	108134
615.377	108258
615.443	108428
615.509	110080
615.575	113273
615.642	111655
615.708	113861
615.774	116682
615.840	120607
615.906	122456
615.972	132581
616.038	161250
616.104	265466
616.170	502060
616.236	460647
616.302	182569
616.368	156115
616.434	128971
616.500	123363
616.565	129428
616.631	146886
616.697	133052
616.763	132042
616.829	165338
616.895	251770
616.961	244280
617.026	134968
617.092	115835
617.158	114454
617.224	113539
617.289	106481
617.355	105087
617.421	102808
617.487	105373
617.552	101253
617.618	99843
617.684	99470
617.749	102377
617.815	98350
617.880	96426
617.946	97397
618.012	98133
618.077	99550
618.143	97711
618.208	96909
618.274	102050
618.339	104589
618.405	92072
618.470	90541
618.536	91615
618.601	89361
618.667	86777
618.732	83219
618.798	82785
618.863	81264
618.928	80652
618.994	81705
619.059	82583
619.124	82632
619.190	81416
619.255	80456
619.320	82528
619.386	82259
619.451	81683
619.516	80451
619.581	83250
619.647	83339
619.712	84436
619.777	82011
619.842	83341
619.907	83694
619.972	84482
620.038	82566
620.103	81980
620.168	83013
620.233	83596
620.298	84160
620.363	85051
620.428	86097
620.493	87383
620.558	88515
620.623	91585
620.688	91572
620.753	88818
620.818	90910
620.883	89789
620.948	89844
621.013	91645
621.078	88891
621.143	87817
621.207	90970
621.272	89666
621.337	86895
621.402	88785
621.467	87488
621.532	87180
621.596	87316
621.661	86268
621.726	84627
621.791	85796
621.855	86154
621.920	84863
621.985	86363
622.049	87070
622.114	86882
622.179	89439
622.243	89424
622.308	90905
622.373	92817
622.437	93351
622.502	88243
622.566	88751
622.631	85996
622.695	89111
622.760	87599
622.824	89731
622.889	88103
622.953	88689
623.018	92292
623.082	94232
623.147	91582
623.211	89524
623.276	90587
623.340	87788
623.404	87072
623.469	86408
623.533	86776
623.597	86152
623.662	85865
623.726	80879
623.790	77991
623.854	75553
623.919	77313
623.983	77470
624.047	77780
624.111	79186
624.176	79023
624.240	79227
624.304	82513
624.368	79768
624.432	80316
624.496	80263
624.560	82424
624.625	82284
624.689	80942
624.753	83852
624.817	81717
624.881	79035
624.945	75127
625.009	71694
625.073	73466
625.137	73885
625.201	76474
625.265	78348
625.329	73589
625.393	74397
625.456	73724
625.520	75691
625.584	74526
625.648	76303
625.712	77886
625.776	81427
625.839	79200
625.903	66918
625.967	61265
626.031	66312
626.095	73020
626.158	68770
626.222	56296
626.286	55067
626.349	53116
626.413	49745
626.477	49482
626.540	48782
626.604	48025
626.668	49280
626.731	47089
626.795	47131
626.858	45761
626.922	45068
626.986	45050
627.049	44503
627.113	45486
627.176	45007
627.240	42938
627.303	42472
627.366	41053
627.430	42440
627.493	41665
627.557	40155
627.620	42705
627.684	42777
627.747	42347
627.810	38469
627.874	36322
627.937	34198
628.000	36571
628.064	34752
628.127	31666
628.190	31782
628.253	31308
628.317	30765
628.380	28674
628.443	27098
628.506	26985
628.569	26941
628.632	24886
628.696	26218
628.759	24977
628.822	23632
628.885	23396
628.948	23414
629.011	22874
629.074	21280
629.137	20841
629.200	20376
629.263	21442
629.326	19035
629.389	20257
629.452	20272
629.515	19383
629.578	18181
629.641	18083
629.704	19175
629.767	17639
629.830	18360
629.892	16837
629.955	17613
630.018	17125
630.081	16483
630.144	17575
630.207	16362
630.269	18067
630.332	16205
630.395	16449
630.458	16298
630.520	15386
630.583	16320
630.646	15241
630.708	15762
630.771	15094
630.834	17050
630.896	16077
630.959	15472
631.021	14632
631.084	14574
631.146	15289
631.209	14643
631.272	14037
631.334	14990
631.397	14456
631.459	14784
631.522	14157
631.584	15585
631.646	15463
631.709	16702
631.771	14952
631.834	15715
631.896	14576
631.958	13607
632.021	14860
632.083	12830
632.145	14009
632.208	13213
632.270	14612
632.332	13180
632.395	12983
632.457	14501
632.519	14038
632.581	13825
632.643	11832
632.706	13123
632.768	13054
632.830	13689
632.892	13686
632.954	13929
633.016	13114
633.078	12485
633.141	13468
633.203	13172
633.265	13059
633.327	12167
633.389	11834
633.451	13792
633.513	13243
633.575	13289
633.637	12571
633.698	13871
633.760	14059
633.822	14439
633.884	14757
633.946	14166
634.008	13802
634.070	14757
634.132	14454
634.193	14949
634.255	16344
634.317	16531
634.379	17258
634.441	14897
634.502	13762
634.564	14046
634.626	12337
634.687	12555
634.749	12159
634.811	12659
634.873	11615
634.934	12557
634.996	13154
635.057	12846
635.119	12421
635.181	12974
635.242	12743
635.304	11427
635.365	14774
635.427	12484
635.488	12695
635.550	13863
635.611	12784
635.673	11205
635.734	14418
635.796	12933
635.857	14290
635.918	14684
635.980	15923
636.041	14807
636.102	15896
636.164	16710
636.225	16907
636.286	14408
636.348	13100
636.409	12979
636.470	13081
636.531	12716
636.593	12188
636.654	12704
636.715	11419
636.776	11681
636.838	11675
636.899	12991
636.960	11197
637.021	12356
637.082	10782
637.143	11591
637.204	11410
637.265	11582
637.326	11375
637.387	12667
637.448	10851
637.509	11909
637.570	11557
637.631	12216
637.692	10585
637.753	10492
637.814	10448
637.875	10628
637.936	12316
637.997	10813
638.058	11074
638.119	11409
638.179	9954
638.240	11222
638.301	10677
638.362	10069
638.423	10508
638.483	12082
638.544	9081
638.605	11022
638.666	10551
638.726	12455
638.787	10808
638.848	10542
638.908	10411
638.969	10039
639.030	9985
639.090	9991
639.151	10259
639.211	11665
639.272	10535
639.332	11577
639.393	11153
639.453	10037
639.514	9758
639.574	10036
639.635	10727
639.695	10767
639.756	9811
639.816	10959
639.877	10065
639.937	11226
639.997	10366
640.058	9710
640.118	8931
640.178	9827
640.239	9737
640.299	10073
640.359	9430
640.420	10200
640.480	10447
640.540	11780
640.600	10635
640.661	10434
640.721	9547
640.781	11700
640.841	8018
640.901	11165
640.961	9645
641.021	9961
641.082	10392
641.142	11160
641.202	10639
641.262	8289
641.322	10592
641.382	8475
641.442	10212
641.502	9723
641.562	9710
641.622	8596
641.682	9674
641.742	10615
641.802	10287
641.861	9660
641.921	8550
641.981	9311
642.041	9534
642.101	8871
642.161	8693
642.221	8574
642.280	8996
642.340	9953
642.400	8150
642.460	10011
642.519	8117
642.579	9169
642.639	9707
642.698	7622
642.758	11254
642.818	9789
642.877	8296
642.937	10230
642.997	9088
643.056	9233
643.116	7628
643.175	10520
643.235	8438
643.294	9708
643.354	9485
643.414	10185
643.473	10607
643.532	12488
643.592	14248
643.651	20022
643.711	30547
643.770	55755
643.830	121195
643.889	273103
643.948	81397
644.008	18991
644.067	12556
644.126	10152
644.186	10379
644.245	9618
644.304	7792
644.363	10011
644.423	7293
644.482	8792
644.541	8460
644.600	8024
644.659	10900
644.719	10981
644.778	15232
644.837	23973
644.896	43508
644.955	99595
645.014	38316
645.073	12029
645.132	9516
645.191	9428
645.250	8965
645.309	10318
645.368	9510
645.427	11611
645.486	15191
645.545	26446
645.604	10665
645.663	9508
645.722	7642
645.781	8058
645.840	9420
645.898	9275
645.957	13723
646.016	16049
646.075	27873
646.134	53301
646.192	130396
646.251	214193
646.310	39830
646.369	14273
646.427	11336
646.486	9318
646.545	7939
646.603	8480
646.662	8031
646.721	7608
646.779	6566
646.838	6282
646.896	8631
646.955	10319
647.014	14035
647.072	25873
647.131	65623
647.189	37295
647.248	7686
647.306	8149
647.365	7251
647.423	5190
647.481	7198
647.540	4890
647.598	5582
647.657	6263
647.715	5790
647.773	5062
647.832	5951
647.890	4944
647.948	5096
648.007	5081
648.065	4713
648.123	4691
648.181	5686
648.240	5097
648.298	4742
648.356	4818
648.414	4675
648.472	5788
648.531	5428
648.589	4316
648.647	3565
648.705	4750
648.763	3776
648.821	4731
648.879	4081
648.937	4899
648.995	4951
649.053	6374
649.111	8233
649.169	13526
649.227	22949
649.285	46096
649.343	137118
649.401	74895
649.459	10954
649.516	7120
649.574	3542
649.632	5718
649.690	6405
649.748	6500
649.806	7827
649.863	17171
649.921	44498
649.979	34554
650.037	5461
650.094	3184
650.152	3040
650.210	3617
650.268	3221
650.325	3585
650.383	2535
650.440	2059
650.498	2584
650.556	3389
650.613	2123
650.671	3150
650.728	2803
650.786	3794
650.843	3538
650.901	1936
650.958	2788
651.016	2900
651.073	1592
651.131	2066
651.188	1641
651.246	1643
651.303	569
651.360	2558
651.418	1263
651.475	2130
651.532	1484
651.590	2399
651.647	1197
651.704	2332
651.762	1928
651.819	1778
651.876	1535
651.933	1588
651.990	1907
652.048	755
652.105	1239
652.162	1559
652.219	881
652.276	1540
652.333	787
652.390	214
652.448	1384
652.505	1373
652.562	858
652.619	993
652.676	1053
652.733	2253
652.790	715
652.847	164
652.904	1012
652.961	-44
653.017	596
653.074	2019
653.131	642
653.188	654
653.245	1080
653.302	1154
653.359	1000
653.415	1590
653.472	219
653.529	1791
653.586	261
653.642	1311
653.699	1693
653.756	418
653.813	669
653.869	1939
653.926	197
653.983	777
654.039	1259
654.096	815
654.152	1824
654.209	647
654.266	1313
654.322	585
654.379	787
654.435	1226
654.492	732
654.548	1082
654.605	385
654.661	1832
654.717	296
654.774	983
654.830	1082
654.887	1194
654.943	-31
655.000	1609
655.056	107
655.112	982
655.168	144
655.225	242
655.281	977
655.337	638
655.394	712
655.450	1142
655.506	1233
655.562	1863
655.618	2451
655.675	791
655.731	292
655.787	183
655.843	1012
655.899	-182
655.955	977
656.011	1356
656.067	133
656.123	998
656.179	399
656.235	1447
656.291	-326
656.347	2185
656.403	72
656.459	-9
656.515	242
656.571	408
656.627	485
656.683	477
656.739	1216
656.795	971
656.850	482
656.906	1376
656.962	2004
657.018	50
657.074	-324
657.129	1614
657.185	3017
657.241	7424
657.297	3396
657.352	577
657.408	-736
657.464	382
657.519	379
657.575	454
657.630	346
657.686	481
657.742	-852
657.797	84
657.853	-173
657.908	1971
657.964	-783
658.019	750
658.075	492
658.130	722
658.186	12
658.241	576
658.297	-937
658.352	146
658.407	876
658.463	-410
658.518	-65
658.573	718
658.629	67
658.684	1042
658.739	-99
658.795	118
658.850	671
658.905	-4
658.960	-193
659.016	-272
659.071	-699
659.126	-139
659.181	-352
659.236	1147
659.291	1318
659.346	-389
659.401	-227
659.457	1442
659.512	-172
659.567	938
659.622	501
659.677	27
659.732	-424
659.787	672
659.842	4
659.897	73
659.952	-658
660.007	67
660.061	156
660.116	-775
660.171	-138
660.226	609
660.281	1106
660.336	36
660.391	1193
660.445	-256
660.500	-188
660.555	269
660.610	-765
660.664	808
660.719	-466
660.774	979
660.828	-96
660.883	419
660.938	309
660.992	-213
661.047	370
661.101	339
661.156	-627
661.211	53
661.265	-944
661.320	-143
661.374	168
661.429	-5
661.483	896
661.538	-406
661.592	-583
661.647	142
661.701	-57
661.755	-328
661.810	-396
661.864	-482
661.919	-286
661.973	758
662.027	637
662.081	-813
662.136	-295
662.190	-363
662.244	424
662.299	-102
662.353	207
662.407	-425
662.461	106
662.515	-12
662.569	-312
662.624	857
662.678	-240
662.732	-192
662.786	-609
662.840	664
662.894	-288
662.948	841
663.002	-381
663.056	-611
663.110	-845
663.164	218
663.218	-364
663.272	-1231
663.326	26
663.380	-316
663.434	-76
663.488	-203
663.542	-555
663.595	249
663.649	-853
663.703	-395
663.757	-292
663.811	-5
663.864	33
663.918	966
663.972	399
664.026	450
664.079	-231
664.133	-144
664.187	-148
664.240	5
664.294	-205
664.348	1003
664.401	150
664.455	158
664.508	-119
664.562	1224
664.615	78
664.669	-157
664.722	276
664.776	-29
664.829	-333
664.883	-142
664.936	-1196
664.990	328
665.043	5
665.097	-56
665.150	943
665.203	-921
665.257	-646
665.310	475
665.363	-715
665.417	488
665.470	-162
665.523	289
665.576	-470
665.630	181
665.683	233
665.736	82
665.789	-503
665.842	-344
665.895	-785
665.949	179
666.002	265
666.055	-590
666.108	620
666.161	-139
666.214	-146
666.267	380
666.320	-60
666.373	-102
666.426	-307
666.479	-152
666.532	-33
666.585	454
666.638	64
666.691	22
666.744	23
666.796	-787
666.849	-939
666.902	398
666.955	299
667.008	-67
667.060	-34
667.113	134
667.166	-12
667.219	-253
667.271	94
667.324	682
667.377	209
667.430	-34
667.482	-600
667.535	-398
667.587	50
667.640	504
667.693	-448
667.745	57
667.798	149
667.850	-297
667.903	412
667.955	649
668.008	-224
668.060	-147
668.113	-585
668.165	178
668.218	477
668.270	545
668.322	-562
668.375	67
668.427	379
668.479	-252
668.532	-449
668.584	-198
668.636	-597
668.689	-601
668.741	-955
668.793	-4
668.845	157
668.898	245
668.950	-340
669.002	17
669.054	-934
669.106	-64
669.158	-160
669.211	429
669.263	-489
669.315	692
669.367	-807
669.419	-260
669.471	83
669.523	-186
669.575	-347
669.627	-98
669.679	-153
669.731	-281
669.783	-968
669.835	230
669.886	-728
669.938	165
669.990	-81
670.042	-1110
670.094	65
670.146	-2
670.197	132
670.249	292
670.301	-840
670.353	643
670.404	26
670.456	332
670.508	853
670.560	2393
670.611	4016
670.663	7773
670.715	18740
670.766	35277
670.818	8890
670.869	1144
670.921	295
670.972	387
671.024	-686
671.075	-19
671.127	-854
671.178	-208
671.230	-327
671.281	-259
671.333	61
671.384	193
671.436	-353
671.487	1511
671.538	907
671.590	4474
671.641	7303
671.692	15171
671.744	32185
671.795	19452
671.846	3928
671.897	1689
671.949	690
672.000	644
672.051	-239
672.102	45
672.153	-1691
672.204	820
672.256	-198
672.307	-710
672.358	129
672.409	43
672.460	-258
672.511	-384
672.562	-963
672.613	-672
672.664	-595
672.715	-123
672.766	-1253
672.817	-658
672.868	-718
672.919	-797
672.970	-780
673.021	-902
673.071	-1149
673.122	-678
673.173	-645
673.224	-81
673.275	-906
673.326	-449
673.376	-244
673.427	-593
673.478	-1024
673.528	-381
673.579	-333
673.630	-601
673.680	-489
673.731	-258
673.782	-1062
673.832	-422
673.883	-1226
673.934	-667
673.984	-870
674.035	-986
674.085	-573
674.136	-298
674.186	-1141
674.237	126
674.287	-642
674.338	222
674.388	-1135
674.438	-750
674.489	-1132
674.539	-891
674.589	-754
674.640	-815
674.690	-1091
674.740	-895
674.791	-429
674.841	-619
674.891	-298
674.942	-131
674.992	-1101
675.042	-1047
675.092	-1383
675.142	-1416
675.193	-1277
675.243	-1418
675.293	-1614
675.343	-897
675.393	-721
675.443	-543
675.493	-1178
675.543	-888
675.593	-377
675.643	-544
675.693	-1331
675.743	-631
675.793	-689
675.843	-611
675.893	-1035
675.943	-1216
675.993	-1736
676.043	-474
676.093	-771
676.142	-545
676.192	-1453
676.242	-2003
676.292	-1645
676.341	-753
676.391	-879
676.441	-636
676.491	-1204
676.540	-1779
676.590	-1666
676.640	-729
676.689	-1101
676.739	-1338
676.789	-1432
676.838	-944
676.888	-962
676.937	-582
676.987	-1223
677.037	-461
677.086	-1354
677.136	-637
677.185	-1212
677.235	-547
677.284	-1126
677.333	-1226
677.383	-1613
677.432	-1690
677.482	-839
677.531	-1003
677.580	-1630
677.630	-982
677.679	-1667
677.728	-981
677.778	-733
677.827	-1158
677.876	-1574
677.925	-713
677.975	-485
678.024	-1194
678.073	-978
678.122	-213
678.171	-1153
678.220	-212
678.269	-884
678.319	-1051
678.368	-1644
678.417	-768
678.466	-1239
678.515	126
678.564	-1172
678.613	-762
678.662	-1055
678.711	-1151
678.760	-721
678.809	-745
678.857	-1858
678.906	-207
678.955	-1144
679.004	-686
679.053	-1760
679.102	-816
679.151	-1118
679.199	-1024
679.248	-1556
679.297	-980
679.346	-1534
679.394	-1674
679.443	-921
679.492	-1020
679.540	-761
679.589	-452
679.638	-1963
679.686	-1147
679.735	-1154
679.784	-1671
679.832	-1954
679.881	-1414
679.929	-1550
679.978	-1394
680.026	-1688
680.075	-584
680.123	-1108
680.172	-1264
680.220	-1195
680.268	-1088
680.317	-1631
680.365	-1528
680.414	-1779
680.462	-1470
680.510	-976
680.559	-1210
680.607	-1384
680.655	-315
680.703	-2196
680.752	-1402
680.800	-1383
680.848	-1110
680.896	-1988
680.945	-706
680.993	-2356
681.041	-1456
681.089	-1391
681.137	-1030
681.185	-2065
681.233	-1106
681.258	-1460
681.281	-1812
681.329	-800
681.377	-1342
681.380	-1292
681.425	-670
681.473	-622
681.502	-767
681.521	-900
681.569	-1247
681.617	-1011
681.624	-1022
681.665	-1245
681.713	-751
681.745	-879
681.761	-966
681.809	-1203
681.857	150
681.867	126
681.904	2
681.952	-1334
681.989	-623
682.000	-441
682.048	-837
682.096	-1021
682.111	-1124
682.143	-1383
682.191	-187
682.233	-391
682.239	-437
682.286	-497
682.334	-686
682.354	-588
682.382	-527
682.430	-974
682.476	-934
682.477	-949
682.525	100
682.572	-946
682.598	-217
682.620	385
682.667	736
682.715	-381
682.720	-246
682.763	819
682.810	90
682.841	158
682.857	173
682.905	-684
682.952	469
682.963	379
683.000	-8
683.047	-618
683.085	146
683.095	348
683.142	620
683.190	255
683.206	399
683.237	578
683.284	-275
683.328	97
683.332	114
683.379	366
683.426	-50
683.449	146
683.473	358
683.521	919
683.568	997
683.571	1006
683.615	995
683.662	431
683.693	535
683.709	514
683.757	392
683.804	1855
683.814	1467
683.851	143
683.898	1431
683.936	689
683.945	484
683.992	1163
684.039	305
684.057	427
684.086	628
684.133	277
684.179	1012
684.180	1026
684.227	543
684.274	1007
684.300	1337
684.321	1563
684.368	847
684.415	1160
684.422	1141
684.462	958
684.509	674
684.543	1451
684.556	1735
684.603	834
684.649	1353
684.665	1393
684.696	1453
684.743	1722
684.786	1335
684.790	1289
684.837	1340
684.883	1971
684.908	1427
684.930	936
684.977	1622
685.023	1489
685.029	1500
685.070	1421
685.117	1508
685.150	1522
685.164	1566
685.210	1572
685.257	1963
685.272	1988
685.303	1954
685.350	1784
685.393	1949
685.396	1949
685.443	1640
685.490	2561
685.514	2162
685.536	1850
685.583	1751
685.629	1955
685.636	1986
685.675	2095
685.722	1970
685.757	1903
685.768	1866
685.815	2110
685.861	1954
685.878	1961
685.908	2072
685.954	2087
686.000	2437
686.000	2436
686.047	1888
686.093	2153
686.121	2408
686.139	2595
686.185	2628
686.232	2253
686.242	2383
686.278	2714
686.324	2402
686.363	2647
686.370	2694
686.416	2097
686.463	3179
686.484	3079
686.509	3011
686.555	2085
686.601	3086
686.606	3031
686.647	2415
686.693	2772
686.727	2391
686.739	2277
686.785	2378
686.831	2313
686.848	2446
686.877	2641
686.923	2457
686.969	2808
686.969	2810
687.015	2585
687.061	2753
687.090	3053
687.107	3183
687.153	3479
687.199	3474
687.211	3509
687.245	3432
687.291	2818
687.332	2681
687.336	2703
687.382	3048
687.428	3030
687.453	2964
687.474	2777
687.520	3648
687.565	2945
687.574	2945
687.611	3113
687.657	3373
687.695	3385
687.702	3409
687.748	3249
687.794	4345
687.816	3997
687.839	3425
687.885	3837
687.931	3632
687.937	3510
687.976	3082
688.022	3775
688.058	4249
688.067	4328
688.113	3698
688.158	3315
688.179	3271
688.204	3364
688.249	4111
688.295	3608
688.300	3726
688.340	4402
688.386	3597
688.421	3795
688.431	3903
688.477	3648
688.522	4439
688.542	4537
688.567	4809
688.613	4831
688.658	5144
688.663	5181
688.703	4929
688.749	4020
688.784	4277
688.794	4399
688.839	4149
688.884	4522
688.905	4395
688.930	4258
688.975	4163
689.020	4027
689.026	3978
689.065	3876
689.110	3956
689.146	4460
689.155	4539
689.201	4267
689.246	4441
689.267	4054
689.291	3793
689.336	4574
689.381	4433
689.388	4419
689.426	4280
689.471	4786
689.509	4724
689.516	4715
689.561	4585
689.606	4651
689.630	4558
689.651	4501
689.696	4239
689.741	4560
689.750	4617
689.785	4759
689.830	4556
689.871	4433
689.875	4457
689.920	4630
689.965	4878
689.992	4895
690.010	4843
690.054	4900
690.099	4971
690.112	5123
690.144	5541
690.189	4914
690.233	5004
690.233	5014
690.278	4908
690.323	4754
690.354	4769
690.367	4835
690.412	5397
690.457	5101
690.474	5352
690.501	5517
690.546	4742
690.590	4828
690.595	4746
690.635	4437
690.680	5054
690.716	4432
690.724	4299
690.769	4903
690.813	5262
690.836	5168
690.857	5264
690.902	5528
690.946	5828
690.957	5927
690.991	6864
691.035	8399
691.077	9294
691.080	9267
691.124	8305
691.168	7911
691.198	7367
691.213	7082
691.257	6504
691.301	5801
691.318	5329
691.346	5191
691.390	5269
691.434	5373
691.439	5417
691.478	5494
691.522	5216
691.559	4927
691.567	4992
691.611	5579
691.655	5950
691.680	5782
691.699	5488
691.743	6153
691.787	5825
691.800	5839
691.831	6062
691.875	5801
691.919	6362
691.921	6337
691.964	5474
692.008	5554
692.041	4814
692.052	4759
692.096	5463
692.139	5520
692.162	5613
692.183	5553
692.227	5468
692.271	5364
692.282	5273
692.315	5208
692.359	5618
692.402	5587
692.403	5602
692.447	5845
692.490	5805
692.523	5867
692.534	5875
692.578	5918
692.622	6297
692.643	6250
692.666	6068
692.709	5632
692.753	5071
692.763	5060
692.797	5551
692.840	5710
692.884	6375
692.884	6391
692.928	5967
692.971	5788
693.004	5308
693.015	5200
693.059	5335
693.102	5203
693.124	5293
693.146	5464
693.189	5213
693.233	5229
693.245	5297
693.276	5658
693.320	5817
693.363	5960
693.365	5954
693.407	6017
693.450	5939
693.485	6011
693.493	6107
693.537	6261
693.580	6545
693.605	6620
693.624	6885
693.667	7898
693.710	8504
693.725	8686
693.753	10323
693.797	12887
693.840	15906
693.845	16161
693.883	14473
693.926	12699
693.966	11121
693.970	10976
694.013	9432
694.056	7538
694.086	6323
694.099	6283
694.142	5991
694.185	5724
694.206	5540
694.229	5605
694.272	5811
694.315	6225
694.326	6208
694.358	5973
694.401	5942
694.444	5960
694.446	5925
694.487	5763
694.530	5830
694.566	5858
694.573	5846
694.616	5697
694.659	5389
694.686	5364
694.702	5594
694.745	5975
694.787	6636
694.806	6702
694.830	6554
694.873	6543
694.916	6523
694.926	6512
694.959	6484
695.002	6248
695.044	6004
695.046	5977
695.087	6350
695.130	7028
695.166	7099
695.172	7087
695.215	7036
695.258	7241
695.286	7273
695.301	7267
695.343	7237
695.386	7342
695.406	7195
695.428	7340
695.471	7815
695.514	8160
695.526	8298
695.556	8894
695.599	9496
695.641	10064
695.646	10132
695.684	9882
695.726	9325
695.766	8604
695.769	8599
695.811	8592
695.854	8104
695.886	8048
695.896	8115
695.938	8072
695.981	8088
696.005	8004
696.023	8230
696.065	8921
696.108	9389
696.125	9587
696.150	9858
696.192	10322
696.235	10838
696.245	10890
696.277	10648
696.319	10533
696.361	10220
696.365	10177
696.404	10411
696.446	10472
696.485	10690
696.488	10725
696.530	10504
696.572	10475
696.604	10439
696.614	10451
696.656	10412
696.698	10236
696.724	10164
696.740	10184
696.783	10035
696.825	10014
696.844	9954
696.867	10023
696.909	10220
696.951	10081
696.964	10117
696.992	10394
697.034	10526
697.076	10708
697.083	10731
697.118	11103
697.160	11401
697.202	11605
697.203	11581
697.244	11546
697.286	11402
697.323	11170
697.327	11214
697.369	11356
697.411	11641
697.442	11643
697.453	11640
697.494	11672
697.536	11576
697.562	11522
697.578	11504
697.620	11301
697.661	11161
697.682	11052
697.703	11292
697.744	11751
697.786	12141
697.801	12256
697.828	12316
697.869	12274
697.911	12374
697.921	12328
697.952	12074
697.994	11801
698.035	11512
698.040	11443
698.077	11961
698.118	12478
698.160	13008
698.160	12974
698.201	12820
698.243	12624
698.279	12405
698.284	12490
698.325	12941
698.367	13418
698.399	13733
698.408	13801
698.449	13902
698.491	14050
698.518	14099
698.532	14217
698.573	14470
698.614	14686
698.638	14783
698.656	14773
698.697	14631
698.738	14507
698.757	14399
698.779	14425
698.820	14403
698.862	14382
698.877	14332
698.903	14456
698.944	14591
698.985	14727
698.996	14724
699.026	14459
699.067	14035
699.116	13491
699.235	14331
699.354	13903
699.474	12761
699.593	13098
699.713	13425
699.832	12903
699.951	14549
700.070	13454
700.190	12302
700.309	11872
700.428	11389
700.547	11203
700.667	12026
700.786	11949
700.905	12024
701.024	11769
701.143	11528
701.262	12870
701.381	12026
701.500	11641
701.619	11426
701.738	11477
701.857	11363
701.976	11087
702.095	11261
702.214	11909
702.333	11311
702.452	11518
702.571	11624
702.690	11427
702.809	11114
702.928	10827
703.047	11048
703.165	11239
703.284	10525
703.403	10380
703.522	9810
703.640	10195
703.759	10266
703.878	10224
703.997	9790
704.115	10363
704.234	9299
704.353	10699
704.471	9147
704.590	9341
704.708	8957
704.827	9114
704.946	9261
705.064	8943
705.183	9198
705.301	8878
705.420	9143
705.538	9855
705.656	9104
705.775	8029
705.893	8827
706.012	9834
706.130	8430
706.249	9832
706.367	8545
706.485	8544
706.604	8010
706.722	8577
706.840	9370
706.958	8417
707.077	7471
707.195	8686
707.313	8503
707.431	7677
707.549	6899
707.668	7018
707.786	8395
707.904	7713
708.022	7773
708.140	7921
708.258	7515
708.376	7802
708.494	7105
708.612	7936
708.730	7800
708.848	7265
708.966	7648
709.084	7954
709.202	8087
709.320	7570
709.438	6793
709.556	7037
709.674	6785
709.791	6576
709.909	6821
710.027	6776
710.145	6606
710.263	6757
710.380	6963
710.498	6738
710.616	7224
710.733	6436
710.851	4853
710.969	5379
711.086	6761
711.204	7093
711.322	5825
711.439	5712
711.557	5681
711.674	6254
711.792	5815
711.909	6024
712.027	5994
712.144	5854
712.262	5588
712.379	6633
712.497	6119
712.614	6093
712.732	6549
712.849	6574
712.966	6510
713.084	6446
713.201	5600
713.318	6299
713.436	7160
713.553	6139
713.670	6120
713.787	5302
713.905	5957
714.022	5917
714.139	5923
714.256	7595
714.373	8976
714.490	13617
714.608	27687
714.725	120287
714.842	166197
714.959	15535
715.076	6856
715.193	6677
715.310	6507
715.427	6189
715.544	6332
715.661	4629
715.778	5317
715.895	5535
716.011	5119
716.128	5303
716.245	6212
716.362	6248
716.479	4511
716.596	4675
716.713	4410
716.829	4860
716.946	4792
717.063	4168
717.180	4469
717.296	4923
717.413	5489
717.530	4228
717.646	4352
717.763	4502
717.880	3901
717.996	4851
718.113	4500
718.229	3866
718.346	3639
718.462	4699
718.579	4151
718.695	4556
718.812	4556
718.928	4775
719.045	4169
719.161	3685
719.277	4129
719.394	4201
719.510	4604
719.626	3800
719.743	4846
719.859	7121
719.975	10696
720.092	39087
720.208	111834
720.324	17375
720.440	4804
720.557	4447
720.673	3907
720.789	4567
720.905	4711
721.021	4387
721.137	3406
721.253	3851
721.369	3432
721.486	3476
721.602	3576
721.718	4201
721.834	3757
721.950	3298
722.066	3368
722.181	3279
722.297	3252
722.413	3419
722.529	3609
722.645	2903
722.761	2896
722.877	2719
722.993	2756
723.108	3469
723.224	3109
723.340	3397
723.456	3759
723.571	2766
723.687	2312
723.803	3992
723.918	2912
724.034	2598
724.150	3576
724.265	2597
724.381	3282
724.497	2910
724.612	2458
724.728	3378
724.843	2167
724.959	2255
725.074	2799
725.190	3483
725.305	2280
725.421	3130
725.536	3186
725.651	3175
725.767	3075
725.882	3159
725.997	2917
726.113	2803
726.228	2230
726.343	3387
726.459	2657
726.574	3188
726.689	2721
726.804	2371
726.920	2443
727.035	2820
727.150	2912
727.265	2904
727.380	2842
727.495	2961
727.610	2394
727.725	2608
727.841	2772
727.956	3111
728.071	2412
728.186	2583
728.301	2394
728.416	2979
728.531	2415
728.645	2254
728.760	2322
728.875	2592
728.990	2057
729.105	2880
729.220	2147
729.335	2650
729.449	2914
729.564	2603
729.679	976
729.794	1823
729.908	2569
730.023	2431
730.138	2393
730.253	2550
730.367	2882
730.482	2403
730.596	1927
730.711	3103
730.826	4012
730.940	3887
731.055	2597
731.169	2868
731.284	3592
731.398	2675
731.513	3232
731.627	2950
731.742	4130
731.856	5837
731.970	4365
732.085	5110
732.199	6235
732.313	8211
732.428	19461
732.542	65619
732.656	55681
732.771	9051
732.885	7094
732.999	6364
733.113	6940
733.227	7329
733.342	7504
733.456	6778
733.570	6345
733.684	7100
733.798	6372
733.912	6560
734.026	6817
734.140	6218
734.254	6194
734.368	6949
734.482	7116
734.596	6978
734.710	6235
734.824	6460
734.938	5434
735.052	6392
735.166	5891
735.280	6004
735.393	6910
735.507	6113
735.621	5248
735.735	5851
735.849	5475
735.962	5630
736.076	5685
736.190	5262
736.303	5277
736.417	6115
736.531	5058
736.644	4816
736.758	4691
736.872	5642
736.985	5251
737.099	5606
737.212	4721
737.326	4688
737.439	5543
737.553	5031
737.666	5310
737.780	4698
737.893	5057
738.007	4028
738.120	4885
738.233	4397
738.347	5299
738.460	4596
738.573	5303
738.687	4173
738.800	4302
738.913	4648
739.026	3921
739.140	4409
739.253	4711
739.366	5274
739.479	4122
739.592	5109
739.705	3586
739.818	4457
739.932	4362
740.045	3846
740.158	4533
740.271	4063
740.384	4011
740.497	3686
740.610	4974
740.723	4250
740.836	4066
740.949	4487
741.062	4413
741.174	3918
741.287	3349
741.400	3891
741.513	3443
741.626	4217
741.739	3668
741.851	2887
741.964	3768
742.077	3426
742.189	2923
742.302	3613
742.415	3084
742.527	3208
742.640	4161
742.753	3205
742.865	2824
742.978	3055
743.090	2938
743.203	2783
743.316	3271
743.428	3519
743.541	3746
743.653	3158
743.766	3229
743.878	3508
743.990	3182
744.103	4062
744.215	2924
744.327	3088
744.440	3888
744.552	2820
744.664	2585
744.777	4291
744.889	3481
745.001	2451
745.113	2485
745.226	3805
745.338	2267
745.450	3358
745.562	2866
745.674	2155
745.786	3273
745.898	2975
746.010	2792
746.122	2755
746.234	2511
746.347	2994
746.459	2251
746.570	2103
746.682	2661
746.794	3952
746.906	2709
747.018	2226
747.130	2948
747.242	2381
747.354	1774
747.466	2752
747.577	2259
747.689	2596
747.801	2861
747.913	2199
748.024	1814
748.136	2804
748.248	1800
748.359	1465
748.471	2478
748.583	1614
748.694	1989
748.806	2124
748.918	2055
749.029	2340
749.141	2684
749.252	3081
749.364	2087
749.475	1685
749.587	2897
749.698	1674
749.809	2329
749.921	2500
750.032	1921
750.144	2252
750.255	2104
750.366	2110
750.478	1861
750.589	1777
750.700	1268
750.811	2445
750.923	2225
751.034	1962
751.145	2533
751.256	1438
751.367	1546
751.479	2135
751.590	1857
751.701	2040
751.812	1910
751.923	1783
752.034	1857
752.145	2435
752.256	1995
752.367	2399
752.478	1394
752.589	1961
752.700	2291
752.811	1915
752.922	2052
753.032	2437
753.143	1877
753.254	2106
753.365	2599
753.476	2318
753.586	1695
753.697	1893
753.808	1983
753.919	1210
754.029	2026
754.140	1444
754.251	1766
754.361	2132
754.472	1544
754.582	1789
754.693	1559
754.804	2478
754.914	1770
755.025	1124
755.135	1713
755.246	1969
755.356	1634
755.466	2176
755.577	2467
755.687	1708
755.798	1227
755.908	1937
756.018	1028
756.129	1878
756.239	910
756.349	1655
756.460	2140
756.570	2311
756.680	1645
756.790	1106
756.900	2325
757.011	2037
757.121	1852
757.231	338
757.341	1970
757.451	1923
757.561	1548
757.671	1091
757.781	581
757.891	2315
758.001	997
758.111	1594
758.221	2042
758.331	1520
758.441	1259
758.551	1405
758.661	1724
758.771	1135
758.880	1721
758.990	1029
759.100	1385
759.210	1910
759.320	1983
759.429	2150
759.539	1527
759.649	1413
759.758	1968
759.868	2743
759.978	957
760.087	2355
760.197	1451
760.307	2063
760.416	1191
760.526	1295
760.635	2094
760.745	1241
760.854	2118
760.964	3049
761.073	1623
761.182	2260
761.292	1471
761.401	2355
761.511	1627
761.620	1421
761.729	1599
761.839	1937
761.948	1994
762.057	1720
762.166	1165
762.276	1742
762.385	2415
762.494	2441
762.603	1589
762.712	1402
762.822	2271
762.931	2152
763.040	1896
763.149	1868
763.258	2492
763.367	2239
763.476	1467
763.585	1568
763.694	2337
763.803	2454
763.912	2416
764.021	2048
764.130	1675
764.238	2596
764.347	2384
764.456	2887
764.565	3243
764.674	2432
764.783	2598
764.891	3146
765.000	4418
765.109	4007
765.217	4171
765.326	5349
765.435	5467
765.543	7631
765.652	8907
765.761	11693
765.869	15212
765.978	23798
766.086	38997
766.195	69483
766.303	136923
766.412	219545
766.520	192762
766.629	144864
766.737	67885
766.846	38642
766.954	24402
767.062	17792
767.171	12658
767.279	10659
767.387	8329
767.496	7565
767.604	5984
767.712	5885
767.820	4663
767.928	4912
768.037	4263
768.145	4152
768.253	4192
768.361	3991
768.469	3623
768.577	3113
768.685	4462
768.793	4080
768.901	4596
769.009	6321
769.117	5257
769.225	7024
769.333	10075
769.441	16151
769.549	27463
769.657	56429
769.765	129414
769.873	189213
769.981	138288
770.088	57238
770.196	26593
770.304	16020
770.412	11617
770.519	9975
770.627	6979
770.735	5776
770.842	4760
770.950	4725
771.058	4630
771.165	4565
771.273	3916
771.380	4703
771.488	4208
771.595	6042
771.703	4789
771.810	4944
771.918	4350
772.025	5716
772.133	5758
772.240	4916
772.348	6144
772.455	6170
772.562	4835
772.670	5724
772.777	5198
772.884	5810
772.991	5218
773.099	5045
773.206	3760
773.313	5076
773.420	4635
773.528	4595
773.635	4790
773.742	5693
773.849	4180
773.956	5010
774.063	3213
774.170	4570
774.277	4873
774.384	3579
774.491	3959
774.598	4942
774.705	3981
774.812	4658
774.919	3868
775.026	4508
775.133	3437
775.239	4173
775.346	3979
775.453	3473
775.560	4009
775.667	4084
775.773	3893
775.880	3497
775.987	3649
776.093	3982
776.200	5150
776.307	2548
776.413	3543
776.520	4140
776.627	3762
776.733	3116
776.840	1882
776.946	4971
777.053	3491
777.159	2967
777.266	1169
777.372	3083
777.478	3600
777.585	3893
777.691	2856
777.798	3390
777.904	3493
778.010	2159
778.117	3499
778.223	2940
778.329	3122
778.435	3137
778.542	3128
778.648	3339
778.754	1316
778.860	2948
778.966	2721
779.072	2697
779.178	2331
779.284	2223
779.391	972
779.497	1947
779.603	3873
779.708	2118
779.815	3446
779.920	6350
780.026	13428
780.132	4244
780.238	3023
780.344	2149
780.450	3612
780.556	2349
780.661	1476
780.767	3456
780.873	1857
780.979	1599
781.085	2060
781.190	2274
781.296	1267
781.402	2693
781.507	2702
781.613	2838
781.719	2126
781.824	2662
781.930	2651
782.035	1212
782.141	2890
782.246	1829
782.352	2313
782.457	1692
782.563	1486
782.668	1915
782.773	1493
782.879	1148
782.984	1856
783.090	3024
783.195	1349
783.300	2511
783.405	1395
783.511	893
783.616	1787
783.721	1679
783.826	2549
783.932	1403
784.037	1252
784.142	2006
784.247	1188
784.352	1570
784.457	1477
784.562	1758
784.667	2308
784.772	994
784.877	576
784.982	1882
785.087	2574
785.192	1630
785.297	1506
785.402	2053
785.507	1760
785.611	1905
785.716	812
785.821	1286
785.926	1397
786.031	1464
786.135	969
786.240	2038
786.345	836
786.450	1253
786.554	1294
786.659	1896
786.763	152
786.868	2024
786.973	2169
787.077	1201
787.182	739
787.286	1310
787.391	1251
787.495	716
787.600	709
787.704	1577
787.809	1407
787.913	499
788.017	1088
788.122	1368
788.226	611
788.330	1000
788.435	1188
788.539	1695
788.643	933
788.747	92
788.852	1187
788.956	1254
789.060	1012
789.164	1162
789.268	936
789.372	1537
789.476	1328
789.580	777
789.684	381
789.788	1627
789.892	694
789.996	768
790.100	184
790.204	1418
790.308	1884
790.412	1577
790.516	431
790.620	524
790.724	2137
790.828	1956
790.931	-580
791.035	1358
791.139	493
791.242	183
791.346	1341
791.450	349
791.554	511
791.657	-583
791.761	1527
791.864	1419
791.968	1025
792.072	983
792.175	214
792.279	637
792.382	252
792.486	278
792.589	493
792.693	671
792.796	-98
792.899	1506
793.003	317
793.106	-815
793.209	459
793.313	1755
793.416	-110
793.519	643
793.623	606
793.726	1530
793.829	355
793.932	416
794.035	-695
794.138	1246
794.242	1641
794.345	986
794.448	-154
794.551	-26
794.654	2596
794.757	6462
794.860	1693
794.963	1139
795.066	581
795.169	893
795.272	-153
795.375	1069
795.477	250
795.580	184
795.683	-604
795.786	964
795.889	-88
795.991	1208
796.094	563
796.197	-48
796.300	1270
796.402	299
796.505	-134
796.608	-79
796.710	93
796.813	155
796.915	-95
797.018	1134
797.120	1120
797.223	627
797.326	276
797.428	440
797.530	-675
797.633	-132
797.735	1322
797.838	-65
797.940	1174
798.042	290
798.145	-39
798.247	494
798.349	-750
798.452	914
798.554	525
798.656	-754
798.758	721
798.860	615
798.962	155
799.065	-311
799.167	-41
799.269	1063
799.371	566
799.473	1090
799.575	-19
799.677	718
799.779	853
799.881	-204
799.983	541
800.085	784
800.187	555
800.289	592
800.390	-275
800.492	542
800.594	937
800.696	-667
800.798	-376
800.899	56
801.001	-82
801.103	-294
801.205	-86
801.306	718
801.408	81
801.509	-350
801.611	996
801.713	541
801.814	-587
801.916	-352
802.017	-638
802.119	-527
802.220	536
802.322	-977
802.423	1000
802.525	-501
802.626	-476
802.727	49
802.829	500
802.930	-1490
803.031	1091
803.133	435
803.234	308
803.335	230
803.436	-319
803.538	340
803.639	-1142
803.740	372
803.841	-213
803.942	944
804.043	-348
804.144	-690
804.245	-8
804.346	-98
804.447	-247
804.548	-189
804.649	682
804.750	-55
804.851	-4
804.952	11
805.053	14
805.154	-754
805.255	403
805.355	-771
805.456	71
805.557	-49
805.658	-467
805.758	782
805.859	-435
805.960	-543
806.061	-260
806.161	-178
806.262	-115
806.362	-619
806.463	-261
806.564	276
806.664	62
806.765	145
806.865	97
806.966	-208
807.066	-1064
807.166	99
807.267	548
807.367	-376
807.468	647
807.568	-553
807.668	820
807.769	154
807.869	77
807.969	-811
808.069	409
808.170	84
808.270	-167
808.370	-407
808.470	253
808.570	-1019
808.670	-644
808.770	-49
808.870	-986
808.970	-502
809.070	-398
809.170	-408
809.271	20
809.370	-342
809.470	-185
809.570	-842
809.670	-773
809.770	-541
809.870	129
809.970	929
810.070	31
810.169	291
810.269	-746
810.369	573
810.469	-473
810.568	-918
810.668	-490
810.768	-578
810.867	-1104
810.967	554
811.066	-578
811.166	-732
811.265	-502
811.365	-392
811.464	-299
811.564	558
811.663	-166
811.763	-584
811.862	-6
811.962	18
812.061	-256
812.160	-580
812.260	-571
812.359	-420
812.458	-742
812.557	-774
812.657	-335
812.756	162
812.855	-330
812.954	69
813.053	-763
813.153	356
813.252	-1401
813.351	-118
813.450	-255
813.549	6
813.648	-562
813.747	-458
813.846	-33
813.945	237
814.044	-329
814.143	32
814.242	169
814.341	-458
814.439	18
814.538	484
814.637	91
814.736	-357
814.835	902
814.933	470
815.032	469
815.131	1012
815.229	1688
815.328	4410
815.427	2391
815.525	2201
815.624	2030
815.722	1607
815.821	2221
815.919	2149
816.018	1866
816.116	2251
816.215	2442
816.313	1795
816.412	2395
816.510	4333
816.609	3789
816.707	3741
816.805	3084
816.904	2129
817.002	3649
817.100	4359
817.198	3169
817.296	2752
817.395	2703
817.493	3251
817.591	1940
817.689	2581
817.787	2225
817.885	2740
817.983	1989
818.081	2307
818.179	2378
818.277	4524
818.375	2034
818.473	2541
818.571	2619
818.669	2699
818.767	2977
818.865	1952
818.963	2026
819.061	1812
819.158	2041
819.256	4051
819.354	1961
819.452	4063
819.549	2957
819.647	2858
819.745	2007
819.842	1584
819.940	1589
820.038	1684
820.135	1987
820.233	1856
820.330	1539
820.428	1647
820.525	2804
820.623	2153
820.720	1448
820.818	2065
820.915	2683
821.012	2599
821.110	800
821.207	3117
821.304	1314
821.402	2153
821.499	1858
821.596	1514
821.693	967
821.791	2203
821.888	1527
821.985	2859
822.082	1204
822.179	1633
822.276	1614
822.373	1787
822.470	1528
822.567	2262
822.664	1451
822.761	1546
822.858	1266
822.955	1673
823.052	1873
823.149	1427
823.246	2228
823.343	942
823.440	790
823.536	1357
823.633	1414
823.730	1444
823.827	1493
823.923	2623
824.020	2032
824.117	1410
824.213	1198
824.310	2234
824.407	570
824.503	717
824.600	2126
824.696	1260
824.793	2003
824.889	1070
824.986	1167
825.082	864
825.179	1612
825.275	773
825.371	2030
825.468	2267
825.564	-56
825.660	1953
825.757	2077
825.853	1766
825.949	143
826.045	233
826.142	877
826.238	783
826.334	1434
826.430	1088
826.526	977
826.622	631
826.718	779
826.814	710
826.910	2011
827.006	394
827.102	-452
827.198	1933
827.294	883
827.390	1898
827.486	1171
827.582	103
827.678	408
827.774	1987
827.869	263
827.965	1208
828.061	71
828.157	532
828.252	1276
828.348	524
828.444	792
828.539	-409
828.635	1061
828.731	1369
828.826	-220
828.922	757
829.017	385
829.113	1617
829.208	-391
829.304	-246
829.399	1956
829.495	1646
829.590	497
829.685	74
829.781	391
829.876	800
829.971	-789
830.066	-498
830.162	207
830.257	1569
830.352	387
830.447	957
830.543	-357
830.638	-89
830.733	1270
830.828	627
830.923	778
831.018	-112
831.113	97
831.208	-453
831.303	-705
831.398	-197
831.493	-216
831.588	1215
831.683	366
831.778	126
831.873	366
831.967	811
832.062	-66
832.157	-107
832.252	1290
832.346	-50
832.441	300
832.536	630
832.631	517
832.725	220
832.820	158
832.914	38
833.009	-536
833.104	-82
833.198	-55
833.293	275
833.387	584
833.482	940
833.576	-408
833.670	1200
833.765	-214
833.859	-514
833.954	874
834.048	-363
834.142	893
834.237	-541
834.331	-246
834.425	368
834.519	-332
834.613	974
834.708	122
834.802	556
834.896	-225
834.990	277
835.084	245
835.178	-94
835.272	390
835.366	1195
835.460	289
835.554	393
835.648	-936
835.742	-662
835.836	-133
835.930	-788
836.024	605
836.117	1137
836.211	232
836.305	641
836.399	-574
836.493	221
836.586	966
836.680	566
836.774	-311
836.867	498
836.961	-780
837.055	-507
837.148	124
837.242	233
837.335	-508
837.429	324
837.522	-286
837.616	-299
837.709	606
837.803	373
837.896	181
837.989	-574
838.083	160
838.176	-80
838.269	-1251
838.363	586
838.456	-238
838.549	945
838.642	224
838.735	640
838.829	225
838.922	-124
839.015	-329
839.108	-196
839.201	-297
839.294	549
839.387	106
839.480	-586
839.573	-854
839.666	-337
839.759	-99
839.852	-445
839.945	-461
840.038	292
840.131	-588
840.223	-575
840.316	230
840.409	-350
840.502	-605
840.594	558
840.687	-1647
840.780	-406
840.873	-1409
840.965	-884
841.058	122
841.150	41
841.243	-1534
841.336	-46
841.428	67
841.521	-305
841.613	-386
841.706	-483
841.798	-248
841.890	-315
841.983	-957
842.075	177
842.167	-136
842.260	-400
842.352	785
842.444	-448
842.537	-987
842.629	-296
842.721	-798
842.813	533
842.905	-1364
842.997	339
843.090	-417
843.182	732
843.274	-1305
843.366	-388
843.458	207
843.550	985
843.642	-415
843.734	-112
843.826	-370
843.918	-405
844.009	99
844.101	-1105
844.193	-150
844.285	-459
844.377	-121
844.469	22
844.560	-546
844.652	-901
844.744	-581
844.835	260
844.927	-745
845.019	309
845.110	-1309
845.202	-22
845.293	-653
845.385	-385
845.476	-374
845.568	234
845.659	-506
845.751	771
845.842	-596
845.934	-212
846.025	-522
846.116	-381
846.208	-672
846.299	-622
846.390	-353
846.482	-740
846.573	-760
846.664	-768
846.755	-794
846.846	-36
846.937	-707
847.029	-80
847.120	-818
847.211	-745
847.302	-45
847.393	-1154
847.484	-475
847.575	-959
847.666	-862
847.757	-867
847.847	-311
847.938	338
848.029	-702
848.120	103
848.211	-901
848.302	-1040
848.392	-1085
848.483	-514
848.574	-1301
848.664	155
848.755	-661
848.846	22
848.936	-1360
849.027	-756
849.118	-1467
849.208	-480
849.299	-614
849.389	578
849.480	351
849.570	2206
849.661	4401
849.751	9612
849.841	3975
849.932	150
850.022	-684
850.112	-1012
850.203	-784
850.293	-1058
850.383	-495
850.474	-639
850.564	-1492
850.654	252
850.744	-520
850.834	-233
850.924	-206
851.014	-37
851.104	-1308
851.194	-848
851.284	-441
851.374	-1143
851.464	-750
851.554	-28
851.644	-1370
851.734	-185
851.824	-1132
851.914	-871
852.004	-231
852.094	-381
852.183	-1339
852.273	80
852.363	-1552
852.452	-1073
852.542	-475
852.632	-603
852.721	-848
852.811	-337
852.901	-683
852.990	-949
853.080	-388
853.169	-738
853.259	-1191
853.348	-811
853.438	-809
853.527	313
853.617	-1024
853.706	1635
853.795	1997
853.885	6961
853.974	12145
854.063	21009
854.152	39541
854.242	18377
854.331	2520
854.420	84
854.509	-186
854.598	-205
854.687	-924
854.777	82
854.866	-641
854.955	155
855.044	-1262
855.133	-253
855.222	-1215
855.311	-925
855.400	-822
855.488	-1082
855.577	-1042
855.666	-1010
855.755	-103
855.844	-227
855.933	-1357
856.021	-1196
856.110	-1127
856.199	-1112
856.288	-808
856.376	-991
856.465	-996
856.554	-397
856.642	-1411
856.731	-78
856.819	-653
856.908	399
856.996	-215
857.085	-1624
857.173	-713
857.262	-1483
857.350	-786
857.438	-697
857.527	4
857.615	-1360
857.703	-80
857.792	-859
857.880	-1322
857.968	-1083
858.056	-277
858.145	-483
858.233	-805
858.321	-1488
858.409	-579
858.497	-331
858.585	-909
858.673	-76
858.761	-1277
858.849	-906
858.937	-1384
859.025	-347
859.113	-541
859.201	-610
859.289	-3
859.377	-566
859.465	-1622
859.552	-632
859.640	-1138
859.728	-81
859.816	-1525
859.903	-39
859.991	-1645
860.079	-1241
860.166	-45
860.254	-817
860.342	-107
860.429	-422
860.517	-884
860.604	-867
860.692	-1093
860.779	-1477
860.867	-1525
860.954	-824
861.042	-88
861.129	-326
861.216	-349
861.304	-1035
861.391	-525
861.478	-1015
861.565	-797
861.653	449
861.740	-734
861.827	-1249
861.914	-1899
862.001	-698
862.089	-937
862.176	-426
862.263	-969
862.350	-621
862.437	-502
862.524	-576
862.611	-808
862.698	-1143
862.785	-1191
862.871	-765
862.958	-834
863.045	-489
863.132	-870
863.219	-327
863.306	-1278
863.392	-130
863.479	-781
863.566	-822
863.652	-384
863.739	-1182
863.826	-941
863.912	-812
863.999	-1431
864.086	-817
864.172	-214
864.259	126
864.345	-513
864.432	-283
864.518	-164
864.604	-219
864.691	-128
864.777	-595
864.863	-386
864.950	1356
865.036	1172
865.122	2735
865.209	4796
865.295	3298
865.381	1473
865.467	2244
865.553	2511
865.639	2791
865.726	2510
865.812	5022
865.898	8284
865.984	11604
866.070	19317
866.156	26703
866.242	10085
866.328	3257
866.414	2541
866.499	2514
866.585	2394
866.671	2359
866.757	1940
866.843	2670
866.928	2074
867.014	2031
867.100	2637
867.186	1890
867.271	1187
867.357	1924
867.442	1854
867.528	1758
867.614	1485
867.699	2357
867.785	2130
867.870	1676
867.956	1514
868.041	2201
868.127	1784
868.212	1920
868.297	817
868.383	2195
868.468	1492
868.553	2442
868.639	1365
868.724	1724
868.809	2106
868.894	1537
868.979	1318
869.065	2130
869.150	891
869.235	1541
869.320	1699
869.405	1001
869.490	1466
869.575	2283
869.660	129
869.745	1399
869.830	1250
869.915	1037
870.000	879
870.085	1504
870.169	1029
870.254	2879
870.339	823
870.424	255
870.509	1687
870.593	1650
870.678	1805
870.763	1340
870.847	267
870.932	1650
871.016	1689
871.101	957
871.186	582
871.270	2452
871.355	662
871.439	1744
871.523	1889
871.608	1757
871.692	388
871.777	1114
871.861	1811
871.945	1198
872.030	1347
872.114	770
872.198	198
872.282	368
872.367	289
872.451	195
872.535	1379
872.619	557
872.703	270
872.787	1231
872.871	664
872.955	1130
873.039	-165
873.123	963
873.207	1028
873.291	258
873.375	-236
873.459	953
873.543	909
873.627	733
873.711	-33
873.794	1054
873.878	790
873.962	527
874.045	-125
874.129	487
874.137	446
874.213	36
874.245	354
874.296	870
874.352	426
874.380	210
874.460	346
874.464	352
874.547	102
874.568	265
874.631	755
874.676	643
874.714	531
874.784	1273
874.798	1430
874.881	1328
874.892	1167
874.965	7
874.999	295
875.048	697
875.107	531
875.131	474
875.215	272
875.215	272
875.298	221
875.323	176
875.381	133
875.430	728
875.465	1115
875.538	371
875.548	268
875.631	156
875.646	40
875.714	-494
875.753	-252
875.798	37
875.861	717
875.881	930
875.964	485
875.968	474
876.047	317
876.076	190
876.130	-91
876.183	418
876.213	684
876.291	997
876.296	1026
876.379	1129
876.398	1115
876.462	972
876.506	566
876.545	265
876.613	221
876.628	201
876.711	237
876.721	176
876.794	-309
876.828	-220
876.877	-61
876.935	352
876.960	511
877.043	325
877.043	323
877.125	93
877.150	213
877.208	434
877.258	447
877.291	451
877.365	-417
877.374	-506
877.456	-84
877.472	-23
877.539	34
877.579	125
877.622	346
877.687	302
877.704	241
877.787	-233
877.794	-245
877.869	-29
877.901	139
877.952	271
878.008	211
878.034	136
878.115	-262
878.117	-264
878.199	-91
878.222	-43
878.282	-12
878.329	613
878.364	1092
878.437	1016
878.447	1001
878.529	-800
878.544	-586
878.611	202
878.651	-187
878.694	-333
878.758	468
878.776	598
878.858	246
878.865	191
878.941	-340
878.972	-301
879.023	-372
879.078	-723
879.105	-685
879.185	189
879.187	194
879.269	-78
879.292	-166
879.351	-118
879.399	-157
879.433	-194
879.506	-61
879.516	-29
879.598	566
879.613	449
879.680	-148
879.720	257
879.762	615
879.827	567
879.844	524
879.926	-237
879.933	-265
880.007	-152
880.040	-114
880.089	-204
880.147	131
880.171	320
880.253	455
880.254	456
880.335	374
880.360	400
880.417	968
880.467	1700
880.499	2071
880.574	2128
880.580	2096
880.662	872
880.680	683
880.744	68
880.787	-105
880.825	-201
880.893	-167
880.907	-123
880.989	-314
881.000	-150
881.070	748
881.106	617
881.152	368
881.213	150
881.233	180
881.315	411
881.319	404
881.396	40
881.426	149
881.478	394
881.532	464
881.559	390
881.639	-452
881.641	-463
881.722	-122
881.745	-2
881.803	467
881.852	417
881.885	191
881.958	-213
881.966	-213
882.047	65
882.064	34
882.129	-444
882.171	-383
882.210	-235
882.277	-475
882.291	-491
882.372	181
882.383	208
882.454	375
882.489	297
882.535	108
882.596	-20
882.616	41
882.697	604
882.702	596
882.778	-2
882.808	-37
882.859	-155
882.914	-355
882.940	-283
883.020	296
883.021	299
883.102	-7
883.127	-42
883.183	212
883.233	375
883.264	321
883.339	377
883.345	382
883.426	134
883.445	139
883.507	349
883.551	371
883.587	243
883.657	327
883.668	385
883.749	190
883.763	220
883.830	250
883.869	114
883.910	-102
883.975	-200
883.991	-112
884.072	419
884.081	464
884.152	298
884.187	143
884.233	337
884.292	654
884.314	505
884.394	-446
884.398	-484
884.475	-147
884.504	112
884.555	-56
884.610	-287
884.636	-164
884.716	150
884.716	153
884.797	317
884.821	407
884.877	580
884.927	641
884.958	447
885.033	263
885.038	275
885.118	-62
885.139	-22
885.199	45
885.244	16
885.279	23
885.350	177
885.359	237
885.439	513
885.456	539
885.520	277
885.561	222
885.600	257
885.667	368
885.680	427
885.760	578
885.773	601
885.840	-18
885.878	-301
885.920	-305
885.984	-466
886.000	-410
886.080	280
886.089	314
886.160	284
886.195	260
886.240	275
886.300	274
886.320	181
886.400	13
886.406	-10
886.480	-37
886.511	-36
886.560	36
886.616	89
886.640	-1
886.720	-245
886.722	-256
886.800	40
886.827	217
886.879	21
886.932	-249
886.959	-146
887.038	155
887.039	153
887.119	-190
887.143	-247
887.198	420
887.248	825
887.278	586
887.354	132
887.358	133
887.437	52
887.459	107
887.517	596
887.564	748
887.596	432
887.669	-216
887.676	-235
887.755	-492
887.774	-520
887.835	-428
887.880	-349
887.914	-198
887.985	-31
887.994	-21
888.073	184
888.090	193
888.153	636
888.195	989
888.232	863
888.300	595
888.311	504
888.391	-179
888.405	-302
888.470	-82
888.510	51
888.549	124
888.615	314
888.628	279
888.708	-21
888.720	-74
888.787	349
888.825	580
888.866	300
888.930	-53
888.945	-154
889.024	-684
889.035	-766
889.103	-326
889.140	-78
889.182	-80
889.245	-54
889.261	10
889.340	298
889.349	334
889.419	227
889.454	147
889.498	357
889.559	688
889.577	567
889.656	20
889.664	-31
889.735	450
889.768	678
889.814	569
889.873	426
889.978	331
890.083	-362
890.187	790
890.292	-42
890.397	483
890.501	321
890.606	-73
890.710	-293
890.815	-43
890.919	307
891.024	213
891.128	338
891.233	523
891.337	458
891.442	745
891.546	-238
891.650	-472
891.755	-191
891.859	881
891.963	639
892.068	555
892.172	-192
892.276	224
892.380	-206
892.484	312
892.589	211
892.693	475
892.797	135
892.901	27
893.005	-106
893.109	344
893.213	638
893.317	884
893.421	285
893.525	-170
893.629	-219
893.733	661
893.837	109
893.941	-210
894.045	370
894.148	-37
894.252	-195
894.356	468
894.460	751
894.564	543
894.667	147
894.771	-252
894.875	115
894.978	207
895.082	-555
895.186	508
895.289	7
895.393	789
895.496	143
895.600	1018
895.703	-183
895.807	-328
895.910	79
896.014	-634
896.117	-257
896.221	-805
896.324	161
896.427	514
896.531	-131
896.634	626
896.737	340
896.840	574
896.944	275
897.047	5
897.150	124
897.253	-1132
897.356	-75
897.460	-71
897.563	-314
897.666	-310
897.769	555
897.872	421
897.975	-78
898.078	483
898.181	627
898.284	-199
898.387	-69
898.490	134
898.593	-431
898.695	-491
898.798	-312
898.901	337
899.004	-132
899.107	-373
899.209	-561
899.312	39
899.415	-194
899.518	-429
899.620	-722
899.723	-153
899.826	-24
899.928	-605
900.031	-594
900.133	17
900.236	-384
900.338	272
900.441	-282
900.543	881
900.646	134
900.748	-1119
900.851	-2
900.953	104
901.055	-286
901.158	-124
901.260	-77
901.362	295
901.465	-804
901.567	213
901.669	67
901.771	-298
901.873	-211
901.976	145
902.078	-1019
902.180	37
902.282	-351
902.384	-433
902.486	505
902.588	-186
902.690	-795
902.792	-95
902.894	-458
902.996	-223
903.098	-453
903.200	-932
903.302	153
903.404	136
903.505	-389
903.607	283
903.709	-184
903.811	32
903.913	-458
904.014	-268
904.116	-318
904.218	-224
904.319	-277
904.421	136
904.523	-406
904.624	-34
904.726	-1138
904.827	21
904.929	-1412
905.030	-168
905.132	-760
905.233	-606
905.335	-224
905.436	-356
905.537	-688
905.639	273
905.740	-389
905.841	-194
905.943	-260
906.044	-275
906.145	-403
906.247	362
906.348	-416
906.449	134
906.550	-739
906.651	-300
906.752	-134
906.854	1125
906.955	-496
907.056	13
907.157	84
907.258	-396
907.359	-197
907.460	-156
907.561	-534
907.662	1026
907.762	-642
907.863	207
907.964	295
908.065	82
908.166	-965
908.267	586
908.367	-417
908.468	-608
908.569	-371
908.670	-799
908.770	-609
908.871	738
908.971	186
909.072	-748
909.173	-612
909.273	-1
909.374	-301
909.474	-238
909.575	-2
909.675	-940
909.776	-284
909.876	-785
909.977	-576
910.077	153
910.177	345
910.278	510
910.378	32
910.478	97
910.579	369
910.679	-25
910.779	323
910.879	-694
910.980	-123
911.080	637
911.180	-423
911.280	-559
911.380	86
911.480	-9
911.580	-419
911.680	14
911.780	-279
911.880	19
911.980	-1378
912.080	81
912.180	-268
912.280	-521
912.380	408
912.480	-1010
912.580	-419
912.679	84
912.779	-331
912.879	941
912.979	-772
913.078	55
913.178	-838
913.278	-400
913.377	23
913.477	-440
913.577	-161
913.676	582
913.776	-516
913.875	-588
913.975	-408
914.074	370
914.174	-994
914.273	-178
914.373	-453
914.472	-587
914.572	-261
914.671	608
914.770	-180
914.870	-430
914.969	-1643
915.068	30
915.167	-544
915.267	-88
915.366	163
915.465	-714
915.564	-844
915.663	-656
915.763	-901
915.862	99
915.961	-274
916.060	-591
916.159	-46
916.258	-860
916.357	130
916.456	-62
916.555	-641
916.654	61
916.752	131
916.851	-63
916.950	-155
917.049	-705
917.148	-861
917.247	14
917.345	-222
917.444	-693
917.543	223
917.642	-60
917.740	-418
917.839	-229
917.937	725
918.036	161
918.135	-342
918.233	-474
918.332	-819
918.430	-320
918.529	-135
918.627	356
918.726	-587
918.824	-329
918.923	-905
919.021	54
919.119	-426
919.218	362
919.316	-746
919.414	247
919.512	167
919.611	506
919.709	-569
919.807	402
919.905	539
920.003	-54
920.102	-129
920.200	-81
920.298	-35
920.396	887
920.494	-10
920.592	116
920.690	431
920.788	-187
920.886	-1015
920.984	288
921.082	41
921.180	-69
921.277	-53
921.375	415
921.473	390
921.571	643
921.669	617
921.766	502
921.864	1394
921.962	-141
922.060	-483
922.157	69
922.255	557
922.352	480
922.450	621
922.548	534
922.645	893
922.743	309
922.840	1832
922.938	2887
923.035	2825
923.133	2591
923.230	2386
923.327	3308
923.425	2865
923.522	3294
923.619	2853
923.717	2554
923.814	2714
923.911	1466
924.008	1717
924.106	1874
924.203	1695
924.300	1893
924.397	1504
924.494	1895
924.591	1392
924.688	2549
924.786	1825
924.883	2200
924.979	1638
925.077	1760
925.173	1634
925.270	2095
925.367	1055
925.464	2455
925.561	1884
925.658	1658
925.755	1403
925.852	2097
925.948	2018
926.045	2397
926.142	2083
926.239	1812
926.335	1561
926.432	2002
926.529	1636
926.625	2352
926.722	2025
926.818	667
926.915	1778
927.011	1556
927.108	1547
927.204	1737
927.301	1448
927.397	1299
927.494	2279
927.590	1799
927.687	871
927.783	2009
927.879	1798
927.976	1633
928.072	1714
928.168	1536
928.264	1508
928.361	1618
928.457	2346
928.553	1477
928.649	1136
928.745	2581
928.841	1165
928.937	1361
929.033	1774
929.129	1747
929.225	1092
929.321	1087
929.417	660
929.513	1198
929.609	2394
929.705	983
929.801	1392
929.897	1176
929.993	1199
930.089	1562
930.184	1473
930.280	2168
930.376	1517
930.471	2220
930.567	974
930.663	2109
930.758	344
930.854	1073
930.950	1514
931.045	1755
931.141	1113
931.236	1888
931.332	1325
931.427	587
931.523	1423
931.618	1294
931.714	853
931.809	1013
931.905	1740
932.000	1154
932.095	678
932.191	1290
932.286	1185
932.381	1885
932.476	1165
932.572	1071
932.667	498
932.762	1158
932.857	778
932.952	1493
933.047	1535
933.142	457
933.237	652
933.332	1508
933.427	818
933.522	914
933.617	431
933.712	1029
933.807	890
933.902	2126
933.997	1180
934.092	1217
934.187	799
934.282	1106
934.376	1031
934.471	1275
934.566	819
934.661	476
934.755	593
934.850	1449
934.945	885
935.039	859
935.134	1077
935.228	353
935.323	2189
935.417	1461
935.512	447
935.606	100
935.701	1293
935.795	1891
935.890	760
935.984	1475
936.079	237
936.173	249
936.267	619
936.362	418
936.456	500
936.550	1020
936.644	535
936.738	677
936.833	460
936.927	262
937.021	835
937.115	516
937.209	628
937.303	912
937.397	18
937.491	708
937.585	1224
937.679	1239
937.773	414
937.867	800
937.961	-248
938.055	1170
938.149	1396
938.243	153
938.337	1004
938.430	323
938.524	1231
938.618	669
938.712	1287
938.805	887
938.899	1012
938.993	1971
939.086	644
939.180	612
939.274	322
939.367	415
939.461	1392
939.554	406
939.648	802
939.741	699
939.835	186
939.928	1232
940.022	1275
940.115	266
940.208	846
940.302	1009
940.395	1706
940.488	627
940.582	48
940.675	615
940.768	366
940.861	1064
940.954	1289
941.048	-110
941.141	-119
941.234	248
941.327	235
941.420	939
941.513	980
941.606	218
941.699	365
941.792	1029
941.885	266
941.978	806
942.071	456
942.164	514
942.257	140
942.349	436
942.442	138
942.535	-167
942.628	-265
942.721	1161
942.813	-117
942.906	628
942.999	448
943.091	336
943.184	-177
943.277	175
943.369	795
943.462	-78
943.554	214
943.647	857
943.739	1726
943.832	1215
943.924	430
944.017	557
944.109	-153
944.201	-260
944.294	84
944.386	994
944.478	-568
944.571	307
944.663	67
944.755	531
944.847	302
944.940	137
945.032	345
945.124	459
945.216	651
945.308	283
945.400	-249
945.492	147
945.584	-235
945.676	404
945.768	486
945.860	977
945.952	795
946.044	907
946.136	410
946.228	170
946.320	481
946.412	-693
946.503	236
946.595	623
946.687	275
946.779	947
946.870	-223
946.962	118
947.054	282
947.145	819
947.237	-4
947.329	490
947.420	-570
947.512	228
947.603	-88
947.695	-251
947.786	-277
947.878	-234
947.969	837
948.061	521
948.152	231
948.243	319
948.335	228
948.426	-241
948.517	-406
948.609	330
948.700	156
948.791	411
948.882	-232
948.973	-519
949.065	-187
949.156	88
949.247	-1020
949.338	12
949.429	-339
949.520	172
949.611	-824
949.702	523
949.793	-27
949.884	-98
949.975	546
950.066	-244
950.157	-729
950.247	48
950.338	125
950.429	-278
950.520	159
950.611	-324
950.701	137
950.792	499
950.883	-620
950.973	97
951.064	418
951.155	198
951.245	-21
951.336	85
951.427	-53
951.517	664
951.608	716
951.698	-82
951.788	-389
951.879	-368
951.969	-59
952.060	85
952.150	329
952.240	-68
952.331	-1281
952.421	837
952.511	-789
952.602	647
952.692	-321
952.782	232
952.872	-262
952.962	686
953.052	1125
953.143	-832
953.233	-158
953.323	249
953.413	-445
953.503	177
953.593	-77
953.683	643
953.773	29
953.863	-486
953.953	73
954.042	-36
954.132	199
954.222	223
954.312	-864
954.402	382
954.492	-503
954.581	-138
954.671	-736
954.761	-429
954.850	639
954.940	-931
955.030	-215
955.119	-234
955.209	-238
955.298	-504
955.388	159
955.477	775
955.567	-592
955.656	-496
955.746	-192
955.835	-737
955.925	-720
956.014	-17
956.103	-357
956.193	-198
956.282	446
956.371	421
956.461	334
956.550	-880
956.639	-838
956.728	-138
956.817	-479
956.906	369
956.995	-8
957.085	-427
957.174	-291
957.263	-627
957.352	-329
957.441	-479
957.530	64
957.619	729
957.708	-1015
957.796	13
957.885	-992
957.974	-711
958.063	302
958.152	-458
958.241	213
958.329	-42
958.418	-514
958.507	-676
958.596	-193
958.684	-538
958.773	109
958.861	-449
958.950	-398
959.039	-372
959.127	-332
959.216	909
959.304	-512
959.393	444
959.481	729
959.570	-362
959.658	-1254
959.746	-541
959.835	-193
959.923	-124
960.011	-357
960.100	-426
960.188	-554
960.276	-314
960.365	-616
960.453	-1145
960.541	-685
960.629	-756
960.717	-919
960.805	-748
960.893	-696
960.981	-699
961.069	-229
961.158	-343
961.245	-178
961.333	114
961.421	-704
961.509	-836
961.597	-128
961.685	-466
961.773	-689
961.861	-986
961.949	94
962.036	-511
962.124	-42
962.212	-869
962.299	-562
962.387	-1101
962.475	-189
962.562	-786
962.650	-224
962.738	139
962.825	-1274
962.913	-344
963.000	-965
963.088	-117
963.175	-533
963.263	-123
963.350	-729
963.438	-670
963.525	-808
963.612	-778
963.700	-1151
963.787	-366
963.874	-1088
963.962	-718
964.049	-224
964.136	-1269
964.223	-243
964.310	-851
964.398	-448
964.485	-696
964.572	-589
964.659	-762
964.746	-1348
964.833	-984
964.920	-644
965.007	-797
965.094	-843
965.181	-944
965.268	-196
965.355	205
965.441	-745
965.528	-1421
965.615	-69
965.702	-1144
965.789	-494
965.875	-713
965.962	-376
966.049	-169
966.136	-387
966.222	-613
966.309	-591
966.395	-1519
966.482	-706
966.569	-978
966.655	-874
966.742	-733
966.828	-336
966.915	-189
967.001	-569
967.087	44
967.174	-1415
967.260	-430
967.347	-1261
967.433	-589
967.519	-1192
967.605	-1421
967.692	-943
967.778	-634
967.864	-724
967.950	-449
968.036	-1046
968.123	-849
968.209	-798
968.295	-1064
968.381	43
968.467	-633
968.553	-1739
968.639	51
968.725	-1428
968.811	-771
968.897	-1114
968.983	-728
969.069	-908
969.154	-909
969.240	-643
969.326	-988
969.412	-1316
969.497	-1082
969.583	-1256
969.669	-210
969.755	-1019
969.840	-202
969.926	-444
970.012	-699
970.097	69
970.183	-352
970.268	-1506
970.354	-441
970.439	-1719
970.525	-414
970.610	-2305
970.696	-304
970.781	9
970.866	-488
970.952	267
971.037	-117
971.122	-929
971.208	-242
971.293	-729
971.378	-1479
971.463	-812
971.549	-148
971.634	-1181
971.719	-1116
971.804	-1206
971.889	-440
971.974	-1305
972.059	-1136
972.144	-635
972.229	-1118
972.314	-1693
972.399	-1190
972.484	-1204
972.569	-583
972.654	-1463
972.739	-139
972.824	-1075
972.908	-158
972.993	-1019
973.078	-1031
973.163	-506
973.247	-534
973.332	-1312
973.417	621
973.501	-974
973.586	-872
973.671	-1032
973.755	-1123
973.840	-993
973.924	-624
974.009	-1151
974.093	-967
974.178	-965
974.262	-1769
974.346	-976
974.431	-1078
974.515	-1107
974.600	-627
974.684	-350
974.768	-799
974.852	-554
974.937	-1254
975.021	-620
975.105	-769
975.189	-843
975.273	-801
975.358	-1054
975.442	-1116
975.526	-1049
975.610	-1633
975.694	-1347
975.778	-684
975.862	-1080
975.946	-2978
976.030	-101
976.114	-1340
976.198	-1487
976.281	-1429
976.365	-564
976.449	-935
976.533	28
976.617	-924
976.700	-1491
976.784	-358
976.868	-991
976.951	-363
977.035	-875
977.119	-473
977.202	-1633
977.286	-551
977.369	-148
977.453	-305
977.536	-491
977.620	-715
977.703	-657
977.787	-715
977.870	215
977.953	342
978.037	-1221
978.120	-24
978.203	-1128
978.287	-932
978.370	-1501
978.453	-970
978.536	-850
978.620	184
978.703	-975
978.786	-1550
978.869	-1243
978.952	-1702
979.035	-384
979.118	-716
979.201	-1391
979.284	-966
979.367	-1000
979.450	-257
979.533	-1956
979.616	-858
979.699	-450
979.782	-405
979.865	-634
979.948	-1665
980.030	-1772
980.113	-879
980.196	-1357
980.279	-528
980.361	-1252
980.444	-909
980.526	39
980.609	-532
980.692	-225
980.774	413
980.857	-1976
980.939	283
981.022	-853
981.104	-768
981.187	-1064
981.269	-508
981.352	-828
981.434	-1348
981.516	-1631
981.599	853
981.681	-626
981.763	-473
981.846	-903
981.928	-603
982.010	-404
982.092	-1508
982.174	-301
982.256	-594
982.339	-431
982.421	-554
982.503	-958
982.585	-1418
982.667	-1254
982.749	-1056
982.831	-1098
982.913	-776
982.995	-507
983.077	-1403
983.158	40
983.240	-930
983.322	-695
983.404	185
983.486	-522
983.568	450
983.649	-480
983.731	-133
983.813	-333
983.894	173
983.976	-1314
984.058	-742
984.139	-245
984.221	-1017
984.302	-94
984.384	-595
984.465	-1608
984.547	-202
984.628	-1820
984.710	168
984.791	-543
984.872	-585
984.954	-856
985.035	123
985.116	-1106
985.198	-637
985.279	-430
985.360	403
985.441	-575
985.522	351
985.604	-1075
985.685	-1911
985.766	-811
985.847	-3
985.928	-678
986.009	-753
986.090	-542
986.171	-208
986.252	-1043
986.333	-84
986.414	-423
986.495	-652
986.576	-987
986.656	-453
986.737	-264
986.818	-222
986.899	-1461
986.980	9
987.060	-113
987.141	25
987.222	-272
987.302	155
987.383	-460
987.464	38
987.544	-306
987.625	516
987.705	-565
987.786	1128
987.866	-487
987.947	-284
988.027	-592
988.108	-716
988.188	-471
988.268	171
988.349	-1061
988.429	-244
988.509	-212
988.589	-641
988.670	-1610
988.750	843
988.830	-1135
988.910	-62
988.990	-427
989.070	-4
989.151	-333
989.231	-776
989.311	-321
989.391	-460
989.471	-1053
989.551	32
989.631	-1205
989.711	853
989.791	-888
989.870	-1267
989.950	-309
990.030	-795
990.110	-1047
990.190	-1013
990.269	-353
990.349	-578
990.429	-670
990.509	57
990.588	-924
990.668	-436
990.747	-76
990.827	-361
990.907	-185
990.986	-455
991.066	409
991.145	-159
991.225	-835
991.304	-225
991.383	-627
991.463	-1118
991.542	104
991.622	-922
991.701	-1434
991.780	-773
991.859	-454
991.939	-196
992.018	-356
992.097	-649
992.176	-1369
992.256	-44
992.335	-406
992.414	-220
992.493	-877
992.572	-853
992.651	631
992.730	-743
992.809	-204
992.888	-1378
992.967	-446
993.046	-88
993.125	-2224
993.203	-1149
993.282	-29
993.361	-637
993.440	-816
993.519	-1271
993.597	-780
993.676	-934
993.755	-693
993.834	-153
993.912	-1371
993.991	338
994.069	-2237
994.148	-963
994.226	-1299
994.305	-471
994.384	-1807
994.462	344
994.540	-1153
994.619	-1185
994.697	-139
994.776	-188
994.854	34
994.932	-1569
995.011	-807
995.089	-263
995.167	-835
995.245	-362
995.324	-959
995.402	-96
995.480	-1582
995.558	-431
995.636	-1555
995.714	-1533
995.792	-618
995.870	-1204
995.948	-575
996.026	-238
996.104	-1590
996.182	-509
996.260	-1990
996.338	-542
996.416	-1247
996.494	-1051
996.572	-845
996.649	-1466
996.727	-1693
996.805	99
996.883	-600
996.960	-1295
997.038	-1182
997.116	-767
997.193	-594
997.271	-304
997.348	-1213
997.426	-395
997.504	-1245
997.581	-837
997.658	-706
997.736	-1562
997.813	-1034
997.891	-892
997.968	-900
998.046	-520
998.123	-1782
998.200	-951
998.277	-905
998.355	-539
998.432	-1742
998.509	-1548
998.586	-772
998.663	-722
998.741	-549
998.818	-963
998.895	-1493
998.972	-626
999.049	-1044
999.126	-619
999.203	-1455
999.280	-1258
999.357	-2291
999.434	-331
999.511	-861
999.587	-848
999.664	-2120
999.741	-1016
999.818	-906
999.895	-1127
999.971	-1325
1000.048	-379
1000.125	-579
1000.202	-947
1000.278	-1919
1000.355	-820
1000.431	-1327
1000.508	-1253
1000.584	-1375
1000.661	-1749
1000.738	-1137
1000.814	-1192
1000.890	-1047
1000.967	-1616
1001.043	-1270
1001.120	-2044
1001.196	-1365
1001.272	-1581
1001.349	-1205
1001.425	-561
1001.501	-1178
1001.577	-1625
1001.654	-243
1001.730	-983
1001.806	-1760
1001.882	-1882
1001.958	-628
1002.034	-1627
1002.110	-760
1002.186	-684
1002.262	-1911
1002.338	-1450
1002.414	-920
1002.490	-765
1002.566	-1214
1002.642	-2065
1002.718	-556
1002.794	-1093
1002.870	-1523
1002.945	-1643
1003.021	-1459
1003.097	-1218
1003.173	-1531
1003.248	-1378
1003.324	-1670
1003.400	-991
1003.475	-1851
1003.551	-1063
1003.626	-1865
1003.702	-1827
1003.777	-1168
1003.853	-1594
1003.928	-1778
1004.004	-1720
1004.079	-1436
1004.155	-1336
1004.230	-2220
1004.305	-751
1004.381	-1437
1004.456	-583
1004.531	-1304
1004.607	-2317
1004.682	-1792
1004.757	-1033
1004.832	-1324
1004.907	-1937
1004.982	-2286
1005.057	-754
1005.133	-1599
1005.208	-1083
1005.283	-2008
1005.358	-660
1005.433	-2523
1005.508	-1773
1005.583	-2143
1005.657	-1492
1005.732	-1522
1005.807	-1494
1005.882	-1980
1005.957	-1485
1006.032	-1881
1006.106	-1945
1006.181	-1721
1006.256	-1568
1006.331	-2163
1006.405	-1375
1006.480	-1275
1006.554	-1679
1006.629	-1611
1006.704	-1988
1006.778	-1934
1006.853	-465
1006.927	-2204
1007.002	-2163
1007.076	-1154
1007.150	-1969
1007.225	-1871
1007.299	-1673
1007.373	-2899
1007.448	-1357
1007.522	-1828
1007.596	-1195
1007.671	-2407
1007.745	-1461
1007.819	-2540
1007.893	-1827
1007.967	-1488
1008.041	-2416
1008.115	-1591
1008.190	-2578
1008.264	-1710
1008.338	-2121
1008.412	-2067
1008.486	-2076
1008.560	-1930
1008.633	-1947
1008.707	-2035
1008.781	-1115
1008.855	-2324
1008.929	-1939
1009.003	-2490
1009.076	-2846
1009.150	-1979
1009.224	-1916
1009.298	-1384
1009.371	-2477
1009.445	-1067
1009.519	-1682
1009.592	-2173
1009.666	-1604
1009.739	-1504
1009.813	-2064
1009.886	-1242
1009.960	-1500
1010.033	-1187
1010.107	-1406
1010.180	-2607
1010.253	-1808
1010.327	-1945
1010.400	-2095
1010.473	-2189
1010.547	-750
1010.620	-2477
1010.693	-1848
1010.766	-2556
1010.840	-1510
1010.913	-1986
1010.986	-2276
1011.059	-1561
1011.132	-2234
1011.205	-1668
1011.278	-1879
1011.351	-2612
1011.424	-2061
1011.497	-1654
1011.570	-2000
1011.643	-2351
1011.716	-2460
1011.789	-2383
1011.862	-1791
1011.934	-1433
1012.007	-2564
1012.080	-2199
1012.153	-925
1012.225	-1206
1012.298	-2271
1012.371	-1924
1012.443	-1465
1012.516	-2850
1012.588	-1922
1012.661	-2245
1012.733	-1862
1012.806	-1370
1012.879	-2384
1012.951	-1530
1013.023	-1831
1013.096	-1693
1013.168	-1682
1013.241	-698
1013.313	-1856
1013.385	-2513
1013.458	-1884
1013.530	-1997
1013.602	-3229
1013.674	-1212
1013.746	-2448
1013.819	-2114
1013.891	-1226
1013.963	-2981
1014.035	-1325
1014.107	-1509
1014.179	-1246
1014.251	-2372
1014.323	-1448
1014.395	-1848
1014.467	-2019
1014.539	-1874
1014.611	-2325
1014.683	-1525
1014.754	-2184
1014.826	-2913
1014.898	-1971
1014.970	-2963
1015.042	-1238
1015.113	-1953
1015.185	-1996
1015.257	-2342
1015.328	-2305
1015.400	-2615
1015.471	-2526
1015.543	-2671
1015.615	-1275
1015.686	-1973
1015.757	-2503
1015.829	-2419
1015.901	-2563
1015.972	-2414
1016.043	-2113
1016.115	-1234
1016.186	-1509
1016.257	-2644
1016.328	-1158
1016.400	-1102
1016.471	-2208
1016.542	-3141
1016.613	-1763
1016.685	-1980
1016.756	-1021
1016.827	-2024
1016.898	-1898
1016.969	-1557
1017.040	-2678
1017.111	-1968
1017.182	-2682
1017.253	-2173
1017.324	-1740
1017.395	-2458
1017.466	-2520
1017.537	-2095
1017.608	-1878
1017.678	-2581
1017.749	-1647
1017.820	-2411
1017.891	-2834
1017.961	-2433
1018.032	-1862
1018.103	-2037
1018.173	-1615
1018.244	-2250
1018.315	-1984
1018.385	-2099
1018.456	-2866
1018.526	-2008
1018.597	-2564
1018.667	-2750
1018.738	-2941
1018.808	-889
1018.878	-2062
1018.949	-1648
1019.019	-2895
1019.089	-2333
1019.160	-1570
1019.230	-3297
1019.300	-1270
1019.371	-3357
1019.441	-1497
1019.511	-2834
1019.581	-1563
1019.651	-1961
1019.721	-1842
1019.791	-1754
1019.861	-2031
1019.931	-2566
1020.001	-2204
1020.071	-1888
1020.141	-3159
1020.211	-2494
1020.281	-2445
1020.351	-2665
1020.421	-2770
1020.491	-1099
1020.560	-2096
1020.630	-2145
1020.700	-2048
1020.770	-2066
1020.839	-1975
1020.909	-2025
1020.979	-2290
1021.048	-2020
1021.118	-1780
1021.187	-2966
1021.257	-1676
1021.326	-1909
1021.396	-2962
1021.465	-2110
1021.535	-1544
1021.604	-2403
1021.674	-2585
1021.743	-2284
1021.812	-2315
1021.882	-2538
1021.951	-2084
1022.020	-2362
1022.089	-1953
1022.159	-2207
1022.228	-2011
1022.297	-3156
1022.366	-2196
1022.435	-2533
1022.504	-1782
1022.573	-2787
1022.642	-2263
1022.711	-2212
1022.781	-1682
1022.849	-2309
1022.918	-2040
1022.987	-2646
1023.056	-2397
1023.125	-2275
1023.194	-1787
1023.263	-2462
1023.331	-1538
1023.400	-2915
1023.469	-1822
1023.538	-2625
1023.606	-2393
1023.675	-2389
1023.744	-2325
1023.812	-2827
1023.881	-1779
1023.949	-2634
1024.018	-1438
1024.086	-2357
1024.155	-2740
1024.223	-2392
1024.292	-2141
1024.360	-2336
1024.429	-2412
1024.497	-3162
1024.565	-2116
1024.634	-2299
1024.702	-1463
1024.770	-2533
1024.838	-2629
1024.907	-2084
1024.975	-2702
1025.043	-1455
1025.111	-2050
1025.179	-2303
1025.247	-2188
1025.315	-2198
1025.383	-2444
1025.451	-2043
1025.519	-1945
1025.587	-2526
1025.655	-2090
1025.723	-1698
1025.791	-2228
1025.859	-1722
1025.927	-1890
1025.995	-2301
1026.062	-2250
1026.130	-2809
1026.198	-2077
1026.266	-2871
1026.333	-1846
1026.401	-2077
1026.469	-1697
1026.536	-1762
1026.604	-2078
1026.671	-2823
1026.739	-2181
1026.806	-2392
1026.874	-1697
1026.941	-2333
1027.009	-2713
1027.076	-2480
1027.144	-1879
1027.211	-2641
1027.278	-2872
1027.345	-2546
1027.413	-1266
1027.480	-2225
1027.547	-2234
1027.614	-2141
1027.682	-2160
1027.749	-2599
1027.816	-2757
1027.883	-2318
1027.950	-2260
1028.017	-2814
1028.084	-1613
1028.151	-2658
1028.218	-2197
1028.285	-1860
1028.352	-2052
1028.419	-2490
1028.486	-1959
1028.553	-2003
1028.619	-2650
1028.686	-2332
1028.753	-3174
1028.820	-2807
1028.886	-2589
1028.953	-2419
1029.020	-2508
1029.086	-2753
1029.153	-1833
1029.220	-3287
1029.286	-2300
1029.353	-2266
1029.419	-1585
1029.486	-2709
1029.552	-2701
1029.619	-1860
1029.685	-2079
1029.751	-2021
1029.818	-1552
1029.884	-2191
1029.951	-1291
1030.017	-2347
1030.083	-2064
1030.149	-1825
1030.216	-2507
1030.282	-1959
1030.348	-2187
1030.414	-2117
1030.480	-2737
1030.546	-2968
1030.612	-1976
1030.678	-2597
1030.744	-1725
1030.810	-3051
1030.876	-1900
1030.942	-2805
1031.008	-2751
1031.074	-2469
1031.140	-2004
1031.206	-1400
1031.272	-3312
1031.337	-2454
1031.403	-1840
1031.469	-3531
1031.534	-2327
1031.600	-2124
1031.666	-2568
1031.731	-2095
1031.797	-3042
1031.863	-2742
1031.928	-2154
1031.994	-2747
1032.059	-1977
1032.125	-2918
1032.190	-2873
1032.256	-2763
1032.321	-2355
1032.386	-2796
1032.452	-2074
1032.517	-2437
1032.582	-1771
1032.647	-2333
1032.713	-2179
1032.778	-3190
1032.843	-1700
1032.908	-2809
1032.974	-2295
1033.039	-2782
1033.104	-1527
1033.169	-2090
1033.234	-2510
1033.299	-1902
1033.364	-1585
1033.429	-2209
1033.494	-1601
1033.559	-2202
1033.624	-2166
1033.688	-2314
1033.753	-2851
1033.818	-2995
1033.883	-2553
1033.948	-2056
1034.013	-2493
1034.077	-1833
1034.142	-1842
1034.207	-2841
1034.271	-2437
1034.336	-2050
1034.400	-2311
1034.465	-2336
1034.530	-2494
1034.594	-2525
1034.658	-2428
1034.723	-2235
1034.787	-2297
1034.852	-2889
1034.916	-2159
1034.981	-2863
1035.045	-2539
1035.109	-3059
1035.173	-2111
1035.238	-1911
1035.302	-2149
1035.366	-2599
1035.430	-2346
1035.495	-2078
1035.559	-2416
1035.623	-2232
1035.687	-2260
1035.751	-2556
1035.815	-2808
1035.879	-2785
1035.943	-2052
1036.007	-2512
1036.071	-2662
1036.135	-2227
1036.198	-2448
1036.262	-3135
1036.326	-2512
1036.390	-2348
1036.454	-2086
1036.517	-2686
1036.581	-2866
1036.645	-2166
1036.709	-2340
1036.772	-2862
1036.836	-2559
1036.900	-2373
1036.963	-1749
1037.026	-1760
1037.090	-2408
1037.154	-2720
1037.217	-2864
1037.280	-2383
1037.344	-2734
1037.407	-2448
1037.471	-1757
1037.534	-3019
1037.597	-2670
1037.661	-2195
1037.724	-1961
1037.787	-2822
1037.850	-2055
1037.913	-2892
1037.977	-1472
1038.040	-2450
1038.103	-2546
1038.166	-3154
1038.229	-2465
1038.292	-2647
1038.355	-2979
1038.418	-2739
1038.481	-2247
1038.544	-2559
1038.607	-1854
1038.670	-2573
1038.732	-3168
1038.795	-2960
1038.858	-2594
1038.921	-2857
1038.984	-2340
1039.046	-2564
1039.109	-2432
1039.172	-2270
1039.234	-1828
1039.297	-2085
1039.360	-1844
1039.422	-2505
1039.485	-2416
1039.547	-3152
1039.610	-2145
1039.672	-2663
1039.734	-1929
1039.797	-2602
1039.859	-2430
1039.922	-3228
1039.984	-2077
1040.046	-2350
1040.109	-1649
1040.171	-2256
1040.233	-2031
1040.295	-2019
1040.358	-2166
1040.420	-2916
1040.482	-2453
1040.544	-2536
1040.606	-2054
1040.668	-2269
1040.730	-1902
1040.792	-2931
1040.854	-2099
1040.916	-2414
1040.978	-2740
1041.040	-2309
1041.102	-1223
1041.164	-2713
1041.225	-2629
1041.287	-2285
1041.349	-1761
1041.411	-2648
1041.472	-2381
1041.534	-3011
1041.596	-2535
1041.657	-1552
1041.719	-2802
1041.781	-2291
1041.842	-2810
1041.904	-2602
1041.965	-1840
1042.027	-2606
1042.088	-2442
1042.150	-2725
1042.211	-2032
1042.272	-2130
1042.334	-2815
1042.395	-1522
1042.456	-2517
1042.518	-2107
1042.579	-2088
1042.640	-2346
1042.701	-2328
1042.763	-2949
1042.824	-2884
1042.885	-2980
1042.946	-2023
1043.007	-2361
1043.068	-1831
1043.129	-2748
1043.190	-2562
1043.251	-1650
1043.312	-2433
1043.373	-2218
1043.434	-2234
1043.495	-2245
1043.556	-1810
1043.616	-2876
1043.677	-2340
1043.738	-2156
1043.799	-1801
1043.859	-2788
1043.920	-2044
1043.981	-1855
1044.041	-2043
1044.102	-2943
1044.162	-1990
1044.223	-2806
1044.284	-2610
1044.344	-2191
1044.405	-2545
1044.465	-2409
1044.525	-2473
1044.586	-2557
1044.646	-2329
1044.707	-1848
1044.767	-1894
1044.827	-2224
1044.887	-2582
1044.948	-2390
1045.008	-2293
1045.068	-2774
1045.128	-1885
1045.188	-2848
1045.249	-1946
1045.309	-1674
1045.369	-1981
1045.429	-1805
1045.489	-2737
1045.549	-2891
1045.609	-1871
1045.669	-2045
1045.729	-2675
1045.789	-2863
1045.848	-1356
1045.908	-2170
1045.968	-1924
1046.028	-2101
1046.088	-1363
1046.147	-1207
1046.207	-2172
1046.267	-2832
1046.326	-2235
1046.386	-1184
1046.446	-995
1046.505	-1163
1046.565	-1768
1046.624	-1781
1046.684	-1277
1046.743	-1271
1046.803	-621
1046.862	-234
1046.922	0
