'Start Wavelength	183.907
'End Wavelength	1046.922
'Gate Delay	5.000
'Gate Width (ms)	1.050
'Laser Output Level	0.000
'X Position	0.000
'Y Position	0.000
'Z Position	0.000
'Grid Point Number	1.000
'Shot Number	100.000
183.907	454.000
183.977	329.000
184.047	1143
184.116	271
184.186	571
184.256	136
184.325	814
184.395	-225
184.465	579
184.534	292
184.604	666
184.674	789
184.743	82
184.813	1283
184.883	352
184.952	347
185.022	773
185.092	41
185.161	776
185.231	426
185.301	468
185.370	302
185.440	271
185.509	258
185.579	128
185.649	316
185.718	513
185.788	688
185.857	198
185.927	193
185.996	658
186.066	257
186.136	434
186.205	-293
186.275	851
186.344	1106
186.414	174
186.483	628
186.553	1711
186.622	928
186.692	-386
186.761	742
186.831	566
186.900	591
186.970	668
187.039	1079
187.109	1345
187.178	338
187.248	1010
187.317	1169
187.387	251
187.456	1121
187.526	741
187.595	1370
187.664	1178
187.734	1016
187.803	121
187.873	1105
187.942	1588
188.012	814
188.081	308
188.150	641
188.220	2049
188.289	1380
188.358	1277
188.428	544
188.497	519
188.567	1338
188.636	813
188.705	873
188.775	702
188.844	341
188.913	986
188.983	970
189.052	-11
189.121	600
189.191	422
189.260	1330
189.329	1304
189.399	-234
189.468	681
189.537	1286
189.606	600
189.676	1008
189.745	1426
189.814	1199
189.883	873
189.953	1006
190.022	1440
190.091	2782
190.161	2970
190.230	1123
190.299	1423
190.368	-99
190.437	404
190.507	219
190.576	605
190.645	197
190.714	627
190.783	516
190.853	1611
190.922	1461
190.991	1444
191.060	447
191.129	439
191.198	592
191.268	289
191.337	1084
191.406	866
191.475	411
191.544	1052
191.613	44
191.682	735
191.752	506
191.821	856
191.890	214
191.959	978
192.028	701
192.097	785
192.166	1072
192.235	573
192.304	612
192.373	849
192.442	-135
192.511	1393
192.580	65
192.650	1221
192.719	1125
192.788	1031
192.857	1084
192.926	1145
192.995	1069
193.064	1641
193.133	2523
193.202	2753
193.271	2189
193.340	2173
193.409	2360
193.478	3387
193.547	3878
193.615	4334
193.684	3427
193.753	3021
193.822	2046
193.891	1878
193.960	1447
194.029	2088
194.098	1395
194.167	859
194.236	1353
194.305	953
194.374	554
194.443	1227
194.512	989
194.580	1628
194.649	2369
194.718	1713
194.787	935
194.856	1339
194.925	2006
194.994	2083
195.062	1916
195.131	2541
195.200	2255
195.269	2604
195.338	1431
195.407	1436
195.475	1187
195.544	2143
195.613	1646
195.682	1763
195.751	2794
195.819	2069
195.888	1720
195.957	2963
196.026	2089
196.094	3119
196.163	1955
196.232	1963
196.301	2148
196.369	2283
196.438	1758
196.507	2105
196.576	1260
196.644	1348
196.713	1625
196.782	1337
196.850	1203
196.919	680
196.988	1310
197.056	1159
197.125	1247
197.194	1657
197.262	646
197.331	1244
197.400	916
197.468	1222
197.537	1321
197.606	1546
197.674	2975
197.743	3591
197.812	2576
197.880	4353
197.949	3224
198.017	3686
198.086	2754
198.155	1707
198.223	2211
198.292	4296
198.360	2180
198.429	1452
198.497	2396
198.566	3409
198.635	2770
198.703	1758
198.772	2946
198.840	6054
198.909	3850
198.977	2189
199.046	1474
199.114	2075
199.183	1810
199.251	1673
199.320	2159
199.388	1243
199.457	1636
199.525	2069
199.594	1610
199.662	2196
199.731	1472
199.799	1977
199.867	2114
199.936	2240
200.004	1429
200.073	1882
200.141	1739
200.210	2273
200.278	1710
200.346	2767
200.415	3017
200.483	3324
200.552	1905
200.620	2326
200.688	1444
200.757	1540
200.825	1783
200.893	1244
200.962	1236
201.030	1907
201.098	1630
201.167	1979
201.235	2496
201.303	2418
201.372	2391
201.440	2097
201.508	3471
201.577	2903
201.645	2850
201.713	1319
201.781	2523
201.850	3231
201.918	1435
201.986	2265
202.055	1395
202.123	2592
202.191	1837
202.259	1980
202.327	1524
202.396	1715
202.464	2121
202.532	3683
202.600	7975
202.669	3890
202.737	2786
202.805	2349
202.873	1839
202.941	2572
203.009	1550
203.078	1655
203.146	2294
203.214	2091
203.282	1447
203.350	1800
203.418	2223
203.487	2013
203.555	1617
203.623	2330
203.691	1713
203.759	1368
203.827	2475
203.895	2273
203.963	2120
204.031	1998
204.099	1867
204.168	1642
204.236	1984
204.304	3071
204.372	2680
204.440	2385
204.508	2038
204.576	1459
204.644	2153
204.712	1950
204.780	2359
204.848	1843
204.916	1733
204.984	2121
205.052	2282
205.120	2320
205.188	1763
205.256	2682
205.324	2428
205.392	2091
205.460	2299
205.528	2344
205.596	2567
205.664	1965
205.732	2761
205.799	7079
205.867	6939
205.935	2534
206.003	2634
206.071	2638
206.139	2677
206.207	2761
206.275	2755
206.343	2539
206.411	2950
206.478	2489
206.546	2590
206.614	2554
206.682	2925
206.750	2295
206.818	3875
206.885	3615
206.953	1954
207.021	2945
207.089	2365
207.157	2879
207.225	2352
207.292	3223
207.360	3015
207.428	2440
207.496	2070
207.563	2942
207.631	2584
207.699	2388
207.767	3144
207.834	2539
207.902	3232
207.970	2569
208.038	2790
208.105	2629
208.173	3249
208.241	3344
208.309	4238
208.376	4215
208.444	5574
208.512	3515
208.579	2735
208.647	3676
208.715	3724
208.782	3875
208.850	2889
208.918	2907
208.985	2830
209.053	3660
209.120	3279
209.188	2785
209.256	2577
209.323	4062
209.391	4267
209.459	3874
209.526	2476
209.594	2968
209.661	3521
209.729	3611
209.796	3394
209.864	3693
209.932	3125
209.999	3844
210.067	3507
210.134	3601
210.202	4090
210.269	5403
210.337	4746
210.404	3046
210.472	2834
210.539	3752
210.607	3587
210.674	4506
210.742	4232
210.809	3824
210.877	4065
210.944	4518
211.012	3935
211.079	4704
211.146	4282
211.214	4084
211.281	4901
211.349	4873
211.416	4179
211.484	4081
211.551	3869
211.618	3809
211.686	3709
211.753	3261
211.821	3356
211.888	4071
211.955	3946
212.023	3787
212.090	4156
212.157	4693
212.225	4367
212.292	7316
212.359	12338
212.427	20815
212.494	9998
212.561	5758
212.629	4871
212.696	4520
212.763	4172
212.831	4078
212.898	4686
212.965	4373
213.032	4105
213.100	5001
213.167	4655
213.234	4709
213.301	4074
213.369	4367
213.436	3666
213.503	4930
213.570	4652
213.638	4696
213.705	3871
213.772	3439
213.839	4774
213.906	4999
213.973	5811
214.041	4619
214.108	4457
214.175	4533
214.242	3767
214.309	4674
214.376	4489
214.444	4538
214.511	4644
214.578	4490
214.645	4505
214.712	5793
214.779	4828
214.846	5045
214.913	5764
214.980	4909
215.048	6096
215.115	6797
215.182	6376
215.249	5898
215.316	4519
215.383	4997
215.450	5137
215.517	4304
215.584	4509
215.651	4315
215.718	4679
215.785	5636
215.852	5289
215.919	6114
215.986	4977
216.053	4530
216.120	3238
216.187	5324
216.254	4241
216.321	4411
216.388	5558
216.455	6290
216.522	6642
216.589	6826
216.656	9898
216.722	8691
216.789	7051
216.856	7158
216.923	5974
216.990	6128
217.057	6591
217.124	7741
217.191	7056
217.258	9484
217.324	9715
217.391	9200
217.458	6922
217.525	5930
217.592	5491
217.659	5112
217.725	5858
217.792	9136
217.859	6997
217.926	5406
217.993	5040
218.059	4703
218.126	5085
218.193	4710
218.260	4136
218.327	4411
218.393	5156
218.460	3840
218.527	3622
218.594	5588
218.660	7703
218.727	7788
218.794	4491
218.860	5005
218.927	4127
218.994	3860
219.061	3404
219.127	5483
219.194	6503
219.261	3920
219.327	4116
219.394	4303
219.461	3931
219.527	3665
219.594	5892
219.661	4243
219.727	3312
219.794	5447
219.860	4065
219.927	4883
219.994	8310
220.060	11119
220.127	7844
220.193	6359
220.260	5862
220.326	9529
220.393	13274
220.460	14312
220.526	10204
220.593	8189
220.659	7792
220.726	9745
220.792	15836
220.859	15393
220.925	20228
220.992	21776
221.058	21948
221.125	18535
221.191	13802
221.258	8326
221.324	5587
221.391	5868
221.457	4932
221.524	5581
221.590	7760
221.657	17352
221.723	11018
221.789	12376
221.856	9690
221.922	7557
221.989	5358
222.055	5256
222.121	5053
222.188	6586
222.254	4932
222.321	5514
222.387	3820
222.453	3973
222.520	4372
222.586	3926
222.652	4319
222.719	3879
222.785	4733
222.851	3979
222.918	3901
222.984	4699
223.050	4241
223.116	3833
223.183	3112
223.249	3473
223.315	2907
223.382	4440
223.448	3195
223.514	3331
223.580	3947
223.647	3013
223.713	3403
223.779	3948
223.845	4397
223.911	3740
223.978	3911
224.044	4137
224.110	3929
224.176	3300
224.242	3868
224.309	3467
224.375	3613
224.441	3449
224.507	3145
224.573	3631
224.639	3690
224.705	2529
224.772	2981
224.838	3323
224.904	4159
224.970	3599
225.036	3416
225.102	3373
225.168	3941
225.234	4632
225.300	3387
225.366	3636
225.432	3150
225.499	3957
225.565	4302
225.631	4930
225.697	5602
225.763	5385
225.829	5762
225.895	7384
225.961	9287
226.027	7815
226.093	7272
226.159	9381
226.225	14621
226.291	29022
226.357	34027
226.423	20687
226.489	13166
226.554	8965
226.620	9165
226.686	12427
226.752	17725
226.818	28520
226.884	45691
226.950	35395
227.016	17269
227.082	12073
227.148	9756
227.214	9672
227.279	8751
227.345	7029
227.411	7525
227.477	8508
227.543	16025
227.609	13541
227.674	8569
227.740	7161
227.806	6309
227.872	5053
227.938	6143
228.003	8923
228.069	5009
228.135	4634
228.201	4399
228.267	5078
228.332	6393
228.398	7759
228.464	5300
228.530	3715
228.595	4618
228.661	4200
228.727	7709
228.792	5498
228.858	4974
228.924	4988
228.990	5801
229.055	6411
229.121	6520
229.187	4439
229.252	5559
229.318	4133
229.384	5111
229.449	5919
229.515	3379
229.581	2978
229.646	5001
229.712	5364
229.777	11448
229.843	9455
229.909	9435
229.974	9395
230.040	8210
230.105	7569
230.171	7425
230.236	9693
230.302	11819
230.368	9360
230.433	6684
230.499	6718
230.564	7421
230.630	5257
230.695	4811
230.761	5928
230.826	4883
230.892	8599
230.957	5349
231.023	5084
231.088	5083
231.154	5286
231.219	5539
231.284	7961
231.350	8046
231.415	5916
231.481	5534
231.546	4267
231.612	4055
231.677	4376
231.742	4415
231.808	4446
231.873	4716
231.939	3886
232.004	8626
232.069	7504
232.135	5140
232.200	5108
232.265	4013
232.331	4595
232.396	4670
232.461	3346
232.527	3939
232.592	4324
232.657	5108
232.723	6467
232.788	4811
232.853	3918
232.918	3606
232.984	3598
233.049	3710
233.114	5883
233.179	5099
233.245	7848
233.310	6939
233.375	3842
233.440	4255
233.506	3373
233.571	4575
233.636	4295
233.701	4452
233.766	6402
233.832	6217
233.897	5974
233.962	4925
234.027	6363
234.092	4929
234.157	5235
234.222	5746
234.288	7761
234.353	14274
234.418	12056
234.483	10409
234.548	7880
234.613	7572
234.678	7801
234.743	9155
234.808	16940
234.873	9636
234.938	6949
235.004	6208
235.069	6785
235.134	5496
235.199	6058
235.264	5945
235.329	5497
235.394	5584
235.459	6615
235.524	5866
235.589	5891
235.654	5076
235.719	4973
235.784	5906
235.849	6389
235.913	9361
235.978	10383
236.043	9475
236.108	5889
236.173	6660
236.238	6881
236.303	5908
236.368	6255
236.433	9941
236.498	11810
236.563	10690
236.627	25387
236.692	61381
236.757	43428
236.822	20983
236.887	15651
236.952	12624
237.017	10820
237.081	12252
237.146	18040
237.211	32414
237.276	63776
237.341	76675
237.405	39028
237.470	20507
237.535	14399
237.600	10340
237.664	8643
237.729	8058
237.794	12612
237.859	18997
237.923	11833
237.988	7420
238.053	10563
238.118	9982
238.182	22693
238.247	13873
238.312	10559
238.376	7793
238.441	5782
238.506	6444
238.570	5943
238.635	6087
238.700	5565
238.764	5414
238.829	12023
238.893	9906
238.958	8865
239.023	9079
239.087	6333
239.152	6874
239.216	5367
239.281	5759
239.346	4586
239.410	5409
239.475	6553
239.539	20006
239.604	12146
239.668	6753
239.733	5908
239.797	11951
239.862	24404
239.926	18884
239.991	9147
240.055	5778
240.120	6584
240.184	5812
240.249	5167
240.313	4760
240.378	4878
240.442	14185
240.507	15154
240.571	7158
240.635	10575
240.700	9601
240.764	6351
240.829	4901
240.893	4023
240.957	5197
241.022	13434
241.086	15555
241.151	8579
241.215	4536
241.279	7828
241.344	9343
241.408	8427
241.472	8321
241.537	8695
241.601	7540
241.665	7446
241.730	7981
241.794	7065
241.858	7697
241.922	8735
241.987	7183
242.051	6995
242.115	6902
242.179	6862
242.244	6377
242.308	7549
242.372	7573
242.436	8248
242.501	7453
242.565	6481
242.629	6293
242.693	6652
242.757	6205
242.822	6514
242.886	7170
242.950	6651
243.014	6490
243.078	9570
243.142	7643
243.206	6946
243.271	7282
243.335	7761
243.399	11313
243.463	44457
243.527	69158
243.591	23870
243.655	13313
243.719	7804
243.783	9802
243.847	15660
243.911	17429
243.975	22847
244.040	14036
244.104	9186
244.168	7717
244.232	13770
244.296	16465
244.360	15993
244.424	8861
244.488	7313
244.552	6895
244.615	5181
244.679	5647
244.743	10231
244.807	8300
244.871	5948
244.935	6240
244.999	5668
245.063	6635
245.127	7425
245.191	13727
245.255	10492
245.319	11336
245.383	7604
245.446	7209
245.510	6048
245.574	7493
245.638	6775
245.702	8754
245.766	16497
245.829	10078
245.893	8303
245.957	7615
246.021	8583
246.085	8467
246.149	10315
246.212	26266
246.276	28846
246.340	14610
246.404	10785
246.467	13040
246.531	16906
246.595	10734
246.659	10146
246.722	10130
246.786	12248
246.850	13984
246.913	14069
246.977	8020
247.041	8433
247.104	9065
247.168	9359
247.232	25698
247.295	42180
247.359	18047
247.423	13276
247.486	18931
247.550	11433
247.614	9848
247.677	13576
247.741	8534
247.804	7680
247.868	9055
247.932	25897
247.995	36588
248.059	14813
248.122	9947
248.186	12011
248.249	24819
248.313	70828
248.376	62969
248.440	40364
248.503	17657
248.567	15678
248.630	23084
248.694	29844
248.757	42731
248.821	68815
248.884	39724
248.948	44931
249.011	56021
249.075	81228
249.138	58860
249.202	26769
249.265	18620
249.328	17920
249.392	16891
249.455	13809
249.519	11919
249.582	16092
249.645	24479
249.709	16398
249.772	13087
249.835	11854
249.899	11890
249.962	11910
250.025	12151
250.089	34312
250.152	32850
250.215	18252
250.279	14537
250.342	13773
250.405	13223
250.468	12939
250.532	17654
250.595	27003
250.658	92305
250.721	100055
250.785	44721
250.848	25898
250.911	15766
250.974	15308
251.038	26515
251.101	38632
251.164	21898
251.227	24176
251.290	21037
251.354	36588
251.417	113170
251.480	85133
251.543	89583
251.606	173470
251.669	114224
251.732	57738
251.795	61532
251.859	63701
251.922	114278
251.985	57919
252.048	28489
252.111	23318
252.174	22999
252.237	48822
252.300	78536
252.363	98978
252.426	130338
252.489	58297
252.552	30597
252.615	23098
252.678	28232
252.741	62743
252.804	91111
252.867	141245
252.930	86244
252.993	48539
253.056	32114
253.119	22452
253.182	19325
253.245	32000
253.308	22391
253.371	24022
253.434	18455
253.497	21309
253.559	38855
253.622	25768
253.685	38361
253.748	31902
253.811	17215
253.874	20420
253.937	18156
254.000	16401
254.062	33292
254.125	36921
254.188	41444
254.251	26460
254.314	15962
254.376	33723
254.439	30368
254.502	25149
254.565	35769
254.628	46451
254.690	28350
254.753	16480
254.816	15424
254.878	15217
254.941	33054
255.004	24090
255.067	14641
255.129	15034
255.192	8336
255.255	10000
255.317	10623
255.380	7205
255.443	6253
255.505	6632
255.568	6228
255.631	7511
255.693	8122
255.756	6838
255.819	7695
255.881	6130
255.944	5575
256.006	6236
256.069	6636
256.132	5496
256.194	9108
256.257	15738
256.319	12751
256.382	12017
256.444	10289
256.507	9231
256.569	8413
256.632	9816
256.694	12968
256.757	47092
256.819	90926
256.882	34364
256.944	17564
257.007	15259
257.069	15019
257.132	10063
257.194	9409
257.257	10513
257.319	9442
257.381	11016
257.444	32211
257.506	123820
257.569	104273
257.631	51569
257.693	29632
257.756	15866
257.818	13460
257.880	9615
257.943	8731
258.005	9378
258.067	8584
258.130	8602
258.192	12527
258.254	19013
258.317	10399
258.379	11132
258.441	27794
258.503	17426
258.566	24919
258.628	21039
258.690	9524
258.753	12944
258.815	20839
258.877	12147
258.939	8828
259.001	8171
259.064	8247
259.126	10182
259.188	10818
259.250	10328
259.312	13004
259.375	26967
259.437	15504
259.499	10152
259.561	9316
259.623	9844
259.685	8278
259.747	8528
259.809	24172
259.872	29202
259.934	58910
259.996	42170
260.058	14899
260.120	8796
260.182	7423
260.244	7780
260.306	6627
260.368	7393
260.430	7451
260.492	18041
260.554	26270
260.616	16916
260.678	40377
260.740	29980
260.802	11485
260.864	10471
260.926	9142
260.988	8511
261.050	10099
261.112	25229
261.174	43345
261.236	22185
261.298	12021
261.359	20181
261.421	18454
261.483	9343
261.545	9366
261.607	6178
261.669	7182
261.731	15173
261.793	27706
261.854	14163
261.916	10930
261.978	9868
262.040	9797
262.102	6901
262.164	12118
262.225	8675
262.287	9079
262.349	26097
262.411	13071
262.472	7342
262.534	14621
262.596	17829
262.658	8905
262.719	6275
262.781	10446
262.843	19225
262.904	8668
262.966	8621
263.028	10732
263.090	63246
263.151	96149
263.213	35726
263.275	22780
263.336	10809
263.398	8221
263.459	6494
263.521	8035
263.583	22061
263.644	12041
263.706	7000
263.767	5173
263.829	5614
263.891	4501
263.952	4791
264.014	4224
264.075	14375
264.137	22740
264.198	11463
264.260	5824
264.321	6400
264.383	23488
264.444	34557
264.506	10589
264.567	8737
264.629	20637
264.690	27543
264.752	12736
264.813	8287
264.875	6281
264.936	6577
264.998	6506
265.059	6384
265.120	6525
265.182	14046
265.243	64782
265.305	40537
265.366	11851
265.427	9225
265.489	7010
265.550	5542
265.611	8758
265.673	7483
265.734	5862
265.795	5278
265.857	6210
265.918	6600
265.979	20161
266.040	99431
266.102	53934
266.163	21425
266.224	16605
266.286	10394
266.347	7474
266.408	7226
266.469	7421
266.530	6493
266.592	6319
266.653	17349
266.714	21002
266.775	8738
266.836	5696
266.898	6822
266.959	12836
267.020	7524
267.081	7545
267.142	7243
267.203	5628
267.264	5551
267.326	8240
267.387	6598
267.448	5509
267.509	7759
267.570	6615
267.631	5875
267.692	4736
267.753	7346
267.814	6772
267.875	18046
267.936	25496
267.997	17529
268.058	14830
268.119	8944
268.180	8132
268.241	6693
268.302	6061
268.363	6937
268.424	6592
268.485	7184
268.546	5035
268.607	5363
268.668	5132
268.729	5557
268.790	5981
268.851	7642
268.912	23110
268.972	19697
269.033	11240
269.094	6798
269.155	5554
269.216	5467
269.277	6073
269.338	5342
269.398	5989
269.459	8035
269.520	12108
269.581	15500
269.642	16260
269.702	11280
269.763	8664
269.824	7488
269.885	12841
269.945	14192
270.006	7591
270.067	6051
270.128	5131
270.188	6047
270.249	6644
270.310	4253
270.370	6331
270.431	4613
270.492	4486
270.553	7162
270.613	18056
270.674	27783
270.734	10583
270.795	6667
270.856	12645
270.916	7574
270.977	6872
271.038	9629
271.098	8289
271.159	17933
271.219	10530
271.280	7197
271.340	5812
271.401	8259
271.462	13392
271.522	9513
271.583	6580
271.643	7833
271.704	7023
271.764	9734
271.825	26874
271.885	79264
271.946	71216
272.006	27378
272.066	51348
272.127	55428
272.187	19583
272.248	12506
272.308	17110
272.369	44773
272.429	18696
272.489	23404
272.550	18834
272.610	24351
272.671	13272
272.731	14724
272.791	19478
272.852	13726
272.912	12318
272.972	7946
273.033	7997
273.093	12837
273.153	11428
273.214	8702
273.274	10551
273.334	45545
273.394	56441
273.455	25261
273.515	34294
273.575	53841
273.635	21087
273.696	36985
273.756	53965
273.816	22131
273.876	14280
273.936	27926
273.997	29833
274.057	11615
274.117	11358
274.177	22473
274.237	87671
274.297	46987
274.358	36364
274.418	52128
274.478	32901
274.538	13210
274.598	11901
274.658	31768
274.718	32412
274.778	13025
274.838	9022
274.898	23219
274.958	43073
275.018	59198
275.078	31437
275.138	15075
275.198	8882
275.258	7264
275.318	10781
275.378	22500
275.438	20027
275.498	12519
275.558	29477
275.618	54770
275.678	34312
275.738	29758
275.798	18735
275.858	10733
275.918	6894
275.978	11532
276.038	7963
276.098	7019
276.157	24145
276.217	45428
276.277	19355
276.337	15879
276.397	10401
276.457	11425
276.517	7321
276.576	6200
276.636	6463
276.696	15081
276.756	31958
276.815	16917
276.875	9762
276.935	13082
276.995	9272
277.055	8148
277.114	7376
277.174	16796
277.234	36319
277.293	14288
277.353	10197
277.413	6810
277.472	9516
277.532	8336
277.592	8829
277.651	48699
277.711	49814
277.771	23523
277.830	87529
277.890	43012
277.950	54949
278.009	97757
278.069	32137
278.128	58425
278.188	52552
278.248	31093
278.307	79016
278.367	30347
278.426	13445
278.486	9957
278.545	7858
278.605	7921
278.664	7394
278.724	8900
278.783	33697
278.843	50676
278.902	15064
278.962	13986
279.021	13459
279.081	14471
279.140	13943
279.199	14577
279.259	14367
279.318	13561
279.378	18452
279.437	36183
279.496	117982
279.556	251921
279.615	136312
279.675	48124
279.734	33185
279.793	58974
279.853	68488
279.912	25627
279.971	16506
280.031	15761
280.090	40037
280.149	46841
280.208	45797
280.268	189738
280.327	118328
280.386	37256
280.445	41128
280.505	27655
280.564	15421
280.623	13387
280.682	27322
280.742	28213
280.801	10234
280.860	8890
280.919	8796
280.978	8639
281.037	7215
281.097	6077
281.156	7757
281.215	7547
281.274	12407
281.333	46572
281.392	21191
281.451	8588
281.510	8093
281.569	7062
281.628	6244
281.688	6198
281.747	9559
281.806	8230
281.865	5740
281.924	6540
281.983	6888
282.042	5649
282.101	5372
282.160	5771
282.219	5922
282.278	9618
282.337	28182
282.396	12676
282.454	7473
282.513	13963
282.572	41577
282.631	16392
282.690	8043
282.749	7422
282.808	9978
282.867	10010
282.926	8761
282.985	6484
283.043	5220
283.102	7081
283.161	7493
283.220	25788
283.279	32943
283.338	11868
283.396	8527
283.455	9554
283.514	10418
283.573	16767
283.631	11002
283.690	8993
283.749	8022
283.808	22998
283.866	17602
283.925	8966
283.984	9691
284.043	15180
284.101	12555
284.160	10328
284.219	12082
284.277	10915
284.336	23101
284.395	58743
284.453	33748
284.512	19147
284.570	28391
284.629	22106
284.688	23744
284.746	25666
284.805	31095
284.863	40261
284.922	49473
284.981	62502
285.039	93798
285.098	166495
285.156	293430
285.215	250551
285.273	309312
285.332	255193
285.390	159580
285.449	103814
285.507	71395
285.566	53381
285.624	39650
285.683	30976
285.741	25348
285.799	22097
285.858	19919
285.916	18843
285.975	15204
286.033	13552
286.091	12362
286.150	11544
286.208	11626
286.267	12062
286.325	13544
286.383	19877
286.442	14017
286.500	9418
286.558	8516
286.616	8512
286.675	12492
286.733	10507
286.791	9171
286.850	11580
286.908	16805
286.966	20488
287.024	10018
287.083	7748
287.141	6652
287.199	7936
287.257	12080
287.315	8208
287.374	11750
287.432	26341
287.490	14023
287.548	9685
287.606	7773
287.664	7986
287.723	12158
287.781	11843
287.839	8686
287.897	11040
287.955	11003
288.013	16470
288.071	41130
288.129	195811
288.187	318581
288.245	126812
288.303	52379
288.361	31744
288.419	22191
288.477	14581
288.535	11355
288.593	9129
288.651	8789
288.709	6850
288.767	7524
288.825	6366
288.883	5823
288.941	6076
288.999	7030
289.057	5101
289.115	5397
289.173	6045
289.231	5909
289.289	6141
289.346	6651
289.404	8571
289.462	14938
289.520	12239
289.578	5825
289.636	5568
289.694	5026
289.751	4165
289.809	4890
289.867	5215
289.925	7983
289.983	7116
290.040	5978
290.098	5510
290.156	7206
290.214	8515
290.271	5127
290.329	5283
290.387	4654
290.444	4116
290.502	3891
290.560	3525
290.617	4747
290.675	4779
290.733	5072
290.790	5341
290.848	3793
290.906	6323
290.963	5706
291.021	5571
291.078	4457
291.136	5308
291.194	27939
291.251	33885
291.309	9714
291.366	5776
291.424	6107
291.481	6878
291.539	6990
291.596	5758
291.654	3386
291.711	4222
291.769	6569
291.826	13816
291.884	6462
291.941	4383
291.999	4800
292.056	7989
292.114	6089
292.171	5016
292.228	6136
292.286	8239
292.343	15507
292.401	16473
292.458	8729
292.515	6957
292.573	9795
292.630	8576
292.687	6575
292.745	5543
292.802	10399
292.859	26166
292.917	42855
292.974	18045
293.031	7450
293.089	6475
293.146	5179
293.203	4837
293.260	5077
293.318	7422
293.375	9587
293.432	5257
293.489	4556
293.546	4983
293.604	8510
293.661	34958
293.718	61519
293.775	24607
293.832	16183
293.889	13850
293.947	12233
294.004	8601
294.061	8854
294.118	26404
294.175	43587
294.232	40113
294.289	16269
294.346	11667
294.403	9473
294.460	8290
294.517	6541
294.574	6464
294.631	4627
294.688	7229
294.745	26585
294.802	81287
294.859	59088
294.916	23389
294.973	15137
295.030	14056
295.087	10128
295.144	7796
295.201	5911
295.258	5511
295.315	9321
295.372	36950
295.429	42987
295.486	17088
295.542	12954
295.599	40217
295.656	43051
295.713	41624
295.770	41975
295.827	15452
295.883	9460
295.940	10789
295.997	18720
296.054	13547
296.111	7258
296.167	6293
296.224	4799
296.281	5525
296.338	5172
296.394	4168
296.451	7922
296.508	30630
296.564	36180
296.621	26432
296.678	75895
296.734	66702
296.791	23675
296.848	14667
296.904	20732
296.961	43681
297.018	58219
297.074	29064
297.131	13351
297.187	11185
297.244	17241
297.301	72952
297.357	75820
297.414	24930
297.470	12871
297.527	9868
297.583	8710
297.640	8988
297.696	7146
297.753	6053
297.809	5103
297.866	4239
297.922	4734
297.979	4263
298.035	6794
298.092	13675
298.148	38409
298.204	23789
298.261	12687
298.317	37927
298.374	68209
298.430	29447
298.486	16070
298.543	12082
298.599	11520
298.656	15522
298.712	32102
298.768	59823
298.824	29103
298.881	13102
298.937	8735
298.993	9930
299.050	11490
299.106	8912
299.162	8868
299.218	7279
299.275	5898
299.331	7240
299.387	21229
299.443	72910
299.500	52269
299.556	20899
299.612	13315
299.668	13467
299.724	19450
299.780	14188
299.837	9208
299.893	18965
299.949	64633
300.005	49108
300.061	62148
300.117	76927
300.173	29831
300.229	19280
300.285	27101
300.341	23016
300.397	11021
300.453	8210
300.510	7515
300.566	7759
300.622	12799
300.678	44387
300.734	57880
300.790	54011
300.845	51042
300.901	42091
300.957	60604
301.013	31256
301.069	14442
301.125	13582
301.181	12988
301.237	9113
301.293	7004
301.349	5791
301.405	6780
301.461	9161
301.516	10471
301.572	12218
301.628	18142
301.684	13202
301.740	29818
301.796	33217
301.851	24938
301.907	40677
301.963	32184
302.019	80929
302.074	174198
302.130	133790
302.186	55524
302.242	26425
302.297	18920
302.353	22179
302.409	38673
302.464	23500
302.520	28619
302.576	68646
302.631	61724
302.687	31828
302.743	14977
302.798	10101
302.854	8262
302.910	8904
302.965	13343
303.021	20846
303.076	19479
303.132	30586
303.187	27562
303.243	12880
303.299	9814
303.354	7437
303.410	6964
303.465	6752
303.521	5777
303.576	6042
303.632	8023
303.687	24635
303.743	56367
303.798	33200
303.853	15305
303.909	9862
303.964	9570
304.020	19856
304.075	20815
304.130	23828
304.186	41677
304.241	37927
304.297	27184
304.352	14846
304.358	14380
304.407	10579
304.449	11708
304.463	12100
304.518	10722
304.539	9394
304.573	7216
304.629	7380
304.630	7594
304.684	17714
304.720	40666
304.739	52381
304.794	52163
304.811	44108
304.850	23287
304.902	13521
304.905	12991
304.960	10481
304.992	10766
305.015	11014
305.071	10695
305.083	10153
305.126	8023
305.173	5867
305.181	5531
305.236	6016
305.264	6940
305.292	8113
305.347	10505
305.354	10664
305.402	11372
305.445	12059
305.457	12277
305.512	14756
305.535	14260
305.567	13509
305.622	13736
305.626	14477
305.678	30838
305.716	57498
305.733	67381
305.788	56064
305.807	51843
305.843	43512
305.897	62003
305.898	62248
305.953	48514
305.988	35553
306.008	28094
306.063	19723
306.078	17637
306.118	13245
306.168	9428
306.173	9183
306.228	7545
306.259	6755
306.283	6387
306.338	6697
306.349	6994
306.393	8616
306.440	9753
306.448	9836
306.503	9156
306.530	10189
306.558	14379
306.613	30676
306.620	33023
306.668	50012
306.711	66891
306.723	68025
306.778	45502
306.801	36581
306.833	25455
306.888	13429
306.892	12779
306.943	10631
306.982	9541
306.997	9344
307.052	8607
307.072	8651
307.107	9219
307.162	10793
307.163	10816
307.217	15949
307.253	19633
307.272	20801
307.327	20946
307.343	20634
307.381	18758
307.434	16708
307.436	17199
307.491	35578
307.524	51163
307.546	58085
307.600	58077
307.614	55356
307.655	34661
307.704	17579
307.710	17422
307.765	19612
307.795	23622
307.819	29562
307.874	41381
307.885	42161
307.929	35199
307.975	30080
307.984	31571
308.038	44156
308.065	55058
308.093	90017
308.148	190771
308.156	209199
308.202	329166
308.246	383133
308.257	363233
308.312	216849
308.336	163339
308.366	133584
308.421	82108
308.426	77391
308.475	51545
308.517	33502
308.530	31785
308.585	28358
308.607	26972
308.639	26406
308.694	27540
308.697	27735
308.748	42439
308.787	55062
308.803	55744
308.857	47451
308.877	45192
308.912	43527
308.967	44227
308.967	44155
309.021	61875
309.058	76847
309.076	95908
309.130	162227
309.148	187822
309.185	288221
309.238	455554
309.239	457982
309.293	505478
309.328	499976
309.348	438999
309.402	261074
309.418	213890
309.457	159792
309.508	97376
309.511	96712
309.566	88428
309.598	86186
309.620	98412
309.674	135444
309.688	143759
309.729	145309
309.778	137102
309.783	134109
309.837	95934
309.868	75931
309.892	80935
309.946	100719
309.959	106335
310.001	144015
310.049	175927
310.055	169180
310.109	99354
310.139	62834
310.163	51620
310.218	30528
310.229	26437
310.272	22368
310.319	18539
310.326	18210
310.381	15985
310.409	14830
310.435	14501
310.489	14229
310.499	14163
310.543	14249
310.589	14144
310.598	14418
310.652	16113
310.679	16815
310.706	15613
310.760	13199
310.769	12773
310.814	11951
310.859	11150
310.868	11221
310.923	11467
310.948	11634
310.977	12839
311.031	15290
311.038	15555
311.085	14943
311.128	14099
311.139	14009
311.193	13632
311.218	13287
311.247	12760
311.301	11941
311.308	11810
311.356	12478
311.398	12884
311.410	12735
311.464	11831
311.488	11455
311.518	12033
311.572	13013
311.578	13098
311.626	18156
311.668	22511
311.680	22192
311.734	20176
311.758	19272
311.788	19169
311.842	18845
311.847	18761
311.896	23667
311.937	27844
311.950	28408
312.004	30356
312.027	31101
312.058	26056
312.112	16878
312.117	15907
312.165	14467
312.207	13152
312.297	22557
312.386	20098
312.476	17592
312.566	35310
312.656	21188
312.745	12594
312.835	13489
312.925	17866
313.015	14285
313.104	14675
313.194	12644
313.284	15091
313.374	19433
313.463	21474
313.553	13239
313.643	13169
313.732	12191
313.822	12039
313.912	14389
314.001	16732
314.091	19364
314.180	27687
314.270	22911
314.360	21581
314.449	21545
314.539	14559
314.628	13395
314.718	15364
314.808	20074
314.897	14540
314.987	14028
315.076	17738
315.166	22557
315.255	18798
315.345	21285
315.434	19424
315.524	17205
315.613	21180
315.703	26816
315.792	34236
315.881	60081
315.971	37319
316.060	34564
316.150	40950
316.239	39868
316.328	21665
316.418	14235
316.507	15874
316.597	20161
316.686	20643
316.775	20634
316.865	41099
316.954	17183
317.043	12726
317.133	15646
317.222	14360
317.311	12992
317.400	14503
317.490	18400
317.579	24857
317.668	15601
317.757	22103
317.847	42442
317.936	106919
318.025	76805
318.114	39051
318.203	31672
318.293	44717
318.382	104002
318.471	79146
318.560	97393
318.649	144020
318.738	45915
318.828	22174
318.917	24889
319.006	22648
319.095	58154
319.184	166047
319.273	122291
319.362	67547
319.451	21155
319.540	18327
319.629	41675
319.718	81097
319.807	31638
319.896	59226
319.985	205997
320.074	107763
320.163	24664
320.252	31106
320.341	32196
320.430	36926
320.519	41611
320.608	31316
320.697	21996
320.786	22791
320.875	25888
320.964	33637
321.053	51641
321.142	72880
321.230	86580
321.319	56969
321.408	135137
321.497	68664
321.586	50605
321.675	50576
321.764	55340
321.852	38053
321.941	75583
322.030	60659
322.119	52551
322.207	134061
322.296	81790
322.385	45548
322.474	51956
322.562	156756
322.651	104699
322.740	54568
322.829	84725
322.917	62291
323.006	49321
323.095	44790
323.183	29182
323.272	40776
323.361	61610
323.449	143608
323.538	63815
323.626	100613
323.715	82945
323.804	27738
323.892	90706
323.981	81509
324.069	22675
324.158	44616
324.246	58310
324.335	29891
324.424	54432
324.512	22756
324.601	28024
324.689	60208
324.778	138436
324.866	57804
324.954	20334
325.043	16903
325.131	28428
325.220	41669
325.308	49789
325.397	37568
325.485	32288
325.574	13919
325.662	15376
325.750	18133
325.839	15224
325.927	11738
326.015	18002
326.104	18876
326.192	27578
326.280	14720
326.369	14279
326.457	22190
326.545	44734
326.634	24510
326.722	11851
326.810	13666
326.898	13949
326.987	15969
327.075	36973
327.163	38051
327.251	18777
327.340	45184
327.428	92548
327.516	19238
327.604	14061
327.692	13935
327.781	14110
327.869	21252
327.957	17662
328.045	20250
328.133	11117
328.221	13042
328.309	15024
328.397	12676
328.485	18533
328.574	23685
328.662	81706
328.750	54748
328.838	18202
328.926	14538
329.014	12552
329.102	20170
329.190	50615
329.278	46845
329.366	13396
329.454	11887
329.542	14434
329.630	14251
329.718	16371
329.806	21891
329.893	24100
329.981	29504
330.069	42690
330.157	165114
330.245	521551
330.333	357423
330.421	70058
330.509	36773
330.597	102959
330.684	90087
330.772	29180
330.860	34250
330.948	47933
331.036	27952
331.123	12494
331.211	12571
331.299	17417
331.387	32620
331.475	78638
331.562	23971
331.650	13323
331.738	13591
331.825	18056
331.913	12389
332.001	10648
332.089	13286
332.176	26912
332.264	45295
332.352	50739
332.439	22974
332.527	17505
332.614	12853
332.702	15004
332.790	12383
332.877	24139
332.965	55508
333.052	29971
333.140	22560
333.228	65638
333.315	28166
333.403	15036
333.490	29382
333.578	38668
333.665	81177
333.753	56508
333.840	17410
333.928	16846
334.015	31088
334.103	51824
334.190	188291
334.278	78822
334.365	27576
334.452	24421
334.540	18612
334.627	20581
334.715	26432
334.802	38217
334.889	140946
334.977	198537
335.064	41421
335.151	24193
335.239	21231
335.326	27653
335.413	83854
335.501	167605
335.588	31295
335.675	22455
335.762	26280
335.850	49330
335.937	35116
336.024	56539
336.111	202733
336.199	133193
336.286	37688
336.373	22503
336.460	16980
336.547	16558
336.635	18701
336.722	19906
336.809	15357
336.896	20598
336.983	58736
337.070	159818
337.157	217684
337.245	117247
337.332	96243
337.419	18689
337.506	14410
337.593	15464
337.680	40895
337.767	177066
337.854	60129
337.941	58354
338.028	50587
338.115	25810
338.202	23629
338.289	36419
338.376	108849
338.463	53725
338.550	79334
338.637	127327
338.724	25949
338.811	40430
338.898	14280
338.984	12730
339.071	18106
339.158	18114
339.245	49585
339.332	40350
339.419	25085
339.506	33344
339.593	10842
339.679	12681
339.766	13057
339.853	16446
339.940	40971
340.027	19362
340.113	15549
340.200	23207
340.287	17025
340.374	18063
340.460	38875
340.547	20009
340.634	21554
340.720	85671
340.807	76489
340.894	12776
340.980	12900
341.067	12823
341.154	15261
341.240	21293
341.327	55563
341.414	21768
341.500	23496
341.587	15641
341.674	12047
341.760	29847
341.847	47800
341.933	18484
342.020	8657
342.106	9011
342.193	12393
342.279	29125
342.366	20358
342.452	38129
342.539	20879
342.625	36507
342.712	109056
342.798	56345
342.885	24395
342.971	9991
343.058	8669
343.144	11172
343.230	11660
343.317	12366
343.403	13043
343.490	9043
343.576	9261
343.662	11766
343.749	14289
343.835	16540
343.921	23848
344.008	118964
344.094	375089
344.180	115991
344.267	34015
344.353	85761
344.439	126042
344.525	57720
344.612	25119
344.698	19651
344.784	17182
344.870	10592
344.957	12614
345.043	22150
345.129	16045
345.215	36652
345.301	24821
345.387	18072
345.474	9615
345.560	10032
345.646	12372
345.732	12626
345.818	15960
345.904	14620
345.990	14705
346.076	12584
346.162	23831
346.249	15317
346.335	11471
346.421	10880
346.507	30138
346.593	142860
346.679	55354
346.765	16188
346.851	14129
346.937	17251
347.023	11423
347.108	15495
347.194	15493
347.280	11794
347.366	15455
347.452	35294
347.538	161514
347.624	139862
347.710	125038
347.796	24855
347.882	14259
347.967	12091
348.053	18025
348.139	15013
348.225	11233
348.311	13154
348.397	9901
348.482	13196
348.568	20096
348.654	11209
348.740	15641
348.825	22914
348.911	21101
348.997	61153
349.083	165528
349.168	39370
349.254	13598
349.340	17396
349.425	10326
349.511	15284
349.597	20704
349.682	30396
349.768	104011
349.854	73682
349.939	15266
350.025	9815
350.110	10642
350.196	10224
350.282	10844
350.367	8284
350.453	13042
350.538	18137
350.624	17617
350.709	20461
350.795	10612
350.880	13605
350.966	12814
351.051	17144
351.137	13343
351.222	12681
351.308	29040
351.393	108933
351.479	40572
351.564	14623
351.649	11995
351.735	10857
351.820	8690
351.906	11975
351.991	14288
352.076	50089
352.162	114809
352.247	28059
352.332	15250
352.418	29798
352.503	36941
352.588	126528
352.673	161271
352.759	34427
352.844	18761
352.929	16939
353.014	28238
353.100	17306
353.185	29856
353.270	42633
353.355	48311
353.441	16570
353.526	14354
353.611	29710
353.696	48825
353.781	25831
353.866	16497
353.952	13070
354.037	30636
354.122	77804
354.207	76927
354.292	38170
354.377	14616
354.462	13193
354.547	17859
354.632	17785
354.717	24239
354.802	40255
354.887	20233
354.972	11900
355.057	10185
355.142	8924
355.227	13277
355.312	22209
355.397	47909
355.482	116448
355.567	81925
355.652	40120
355.737	46993
355.822	101140
355.907	132463
355.991	23158
356.076	13857
356.161	12877
356.246	11110
356.331	13243
356.416	24559
356.501	138534
356.585	228464
356.670	45807
356.755	23824
356.840	29484
356.924	104928
357.009	415172
357.094	245119
357.179	50569
357.263	35977
357.348	29206
357.433	35724
357.517	29576
357.602	26985
357.687	21340
357.771	30917
357.856	101612
357.941	83497
358.025	78199
358.110	384544
358.195	289585
358.279	51484
358.364	28965
358.448	71407
358.533	229501
358.617	209550
358.702	175049
358.787	89599
358.871	41073
358.956	44193
359.040	17808
359.125	13135
359.209	14460
359.294	40139
359.378	101720
359.462	43771
359.547	23627
359.631	15745
359.716	12386
359.800	13719
359.885	21755
359.969	18100
360.053	13609
360.138	13899
360.222	19898
360.306	39246
360.391	36638
360.475	46699
360.559	139311
360.644	98234
360.728	86812
360.812	74924
360.896	265034
360.981	152686
361.065	94296
361.149	26135
361.233	23894
361.318	20341
361.402	21519
361.486	19469
361.570	16306
361.654	19226
361.739	40579
361.823	144834
361.907	299307
361.991	83568
362.075	34175
362.159	78363
362.243	71432
362.327	63529
362.411	77898
362.495	44314
362.580	28132
362.664	21475
362.748	22521
362.832	28862
362.916	48901
363.000	111975
363.084	247429
363.168	365775
363.252	129721
363.336	41983
363.420	42306
363.503	115751
363.587	203425
363.671	49846
363.755	31688
363.839	44553
363.923	29392
364.007	41604
364.091	60847
364.175	59098
364.258	218844
364.342	242872
364.426	249244
364.510	164715
364.594	75560
364.677	62220
364.761	198391
364.845	222094
364.929	71792
365.013	68124
365.096	45365
365.180	62740
365.264	49606
365.347	201474
365.431	137477
365.515	41062
365.598	22018
365.682	18100
365.766	28177
365.849	47766
365.933	22945
366.017	26250
366.100	27753
366.184	12709
366.267	12801
366.351	13069
366.435	13811
366.518	11624
366.602	10799
366.685	12542
366.769	15301
366.852	24343
366.936	51920
367.019	35142
367.103	22221
367.186	47421
367.270	21774
367.353	11748
367.436	12701
367.520	13769
367.603	17414
367.687	25110
367.770	48496
367.853	31279
367.937	57174
368.020	141042
368.104	47100
368.187	31422
368.270	52305
368.353	52693
368.437	46061
368.520	70345
368.603	70044
368.687	74448
368.770	183797
368.853	66187
368.936	42171
369.020	55059
369.103	25811
369.186	16017
369.269	18413
369.352	26969
369.436	48367
369.519	34275
369.602	22532
369.685	16253
369.768	20123
369.851	17366
369.934	13790
370.018	16786
370.101	38460
370.184	35663
370.267	25202
370.350	41834
370.433	65014
370.516	114839
370.599	178723
370.682	63421
370.765	94970
370.848	120038
370.931	192839
371.014	114122
371.097	27699
371.180	19494
371.263	13141
371.346	12800
371.429	14392
371.511	15008
371.594	25695
371.677	43410
371.760	54622
371.843	43439
371.926	122205
372.009	380317
372.091	185717
372.174	77526
372.257	176056
372.340	110139
372.423	62650
372.505	88697
372.588	44872
372.671	52299
372.754	183203
372.836	139330
372.919	62618
373.002	156799
373.085	72734
373.167	40355
373.250	83759
373.332	182145
373.415	212484
373.498	470012
373.580	260497
373.663	184626
373.746	351538
373.828	119385
373.911	45513
373.993	40421
374.076	112916
374.159	159806
374.241	57281
374.324	152985
374.406	150718
374.489	107107
374.571	366801
374.654	234264
374.736	77318
374.819	207208
374.901	315023
374.983	392399
375.066	109143
375.148	33183
375.231	78818
375.313	215603
375.395	118473
375.478	32558
375.560	19637
375.643	23486
375.725	56750
375.807	242929
375.890	262008
375.972	96791
376.054	56145
376.136	63199
376.219	42313
376.301	59932
376.383	234691
376.465	141754
376.548	67514
376.630	75799
376.712	191180
376.794	146751
376.877	23408
376.959	13622
377.041	16650
377.123	29092
377.205	49873
377.287	16804
377.369	11805
377.452	13105
377.534	14687
377.616	13024
377.698	14467
377.780	12089
377.862	15269
377.944	14197
378.026	11471
378.108	10795
378.190	10915
378.272	11623
378.354	9155
378.436	9740
378.518	17817
378.600	67027
378.682	71456
378.764	103382
378.846	125618
378.928	36380
379.010	49770
379.091	34860
379.173	15484
379.255	13574
379.337	19152
379.419	45663
379.501	159517
379.583	104650
379.664	24084
379.746	42458
379.828	109309
379.910	167948
379.991	168149
380.073	44580
380.155	21087
380.237	19783
380.318	14577
380.400	15962
380.482	26043
380.564	51027
380.645	47888
380.727	54542
380.809	32989
380.890	24524
380.972	21817
381.053	18168
381.135	20981
381.217	36017
381.298	124646
381.380	94692
381.461	50580
381.543	163607
381.624	304592
381.706	88548
381.787	39424
381.869	41823
381.951	78070
382.032	309430
382.113	303118
382.195	87829
382.276	51833
382.358	76642
382.439	197307
382.521	222263
382.602	340511
382.684	210794
382.765	272650
382.846	413519
382.928	603730
383.009	471004
383.090	277607
383.172	685737
383.253	1177590
383.334	557677
383.416	363281
383.497	265616
383.578	150616
383.659	241921
383.741	607191
383.822	1384360
383.903	1031896
383.984	369005
384.066	404358
384.147	337162
384.228	99635
384.309	61644
384.390	55966
384.471	40235
384.553	40364
384.634	46706
384.715	54857
384.796	34020
384.877	35223
384.958	93557
385.039	166427
385.120	80566
385.201	34055
385.282	37614
385.363	41750
385.444	41404
385.525	53736
385.606	145810
385.687	176274
385.768	55182
385.849	50531
385.930	138784
386.011	320723
386.092	140296
386.173	35767
386.254	25054
386.335	26133
386.416	27770
386.496	64313
386.577	140858
386.658	69268
386.739	37894
386.820	33198
386.901	28823
386.981	27805
387.062	20193
387.143	28813
387.224	100385
387.304	140937
387.385	56112
387.466	38127
387.547	44072
387.627	36964
387.708	41000
387.789	161598
387.869	274291
387.950	105680
388.031	23833
388.111	21736
388.192	41515
388.273	64966
388.353	49889
388.434	27511
388.514	38055
388.595	142437
388.676	257637
388.756	157908
388.837	114651
388.917	106213
388.998	27336
389.078	22133
389.159	17643
389.239	18541
389.320	26447
389.400	30353
389.480	37423
389.561	118851
389.641	92685
389.722	27005
389.802	45857
389.883	52292
389.963	126575
390.043	116930
390.124	42863
390.204	40675
390.284	131299
390.365	123285
390.445	85712
390.525	210092
390.605	232948
390.686	106753
390.766	40890
390.846	22503
390.927	16080
391.007	18048
391.087	19482
391.167	24961
391.247	22010
391.328	20679
391.408	36040
391.488	38213
391.568	16772
391.648	22098
391.728	33384
391.808	31896
391.888	35365
391.969	58131
392.049	127965
392.129	71559
392.209	53257
392.289	133946
392.369	109143
392.449	75064
392.529	63688
392.609	42006
392.689	46533
392.769	116263
392.849	153303
392.929	85374
393.009	190416
393.089	200234
393.169	141337
393.248	319096
393.328	963543
393.408	1292261
393.488	578969
393.568	185275
393.648	92495
393.728	61132
393.807	46845
393.887	40645
393.967	35616
394.047	38874
394.127	49774
394.206	67236
394.286	160678
394.366	604846
394.446	916813
394.525	365680
394.605	101505
394.685	60790
394.764	91973
394.844	160818
394.924	152923
395.003	58471
395.083	36181
395.163	31709
395.242	28003
395.322	30753
395.402	25622
395.481	28842
395.561	54838
395.640	170619
395.720	177618
395.799	181804
395.879	192861
395.958	111427
396.038	243762
396.117	791533
396.197	1142639
396.276	564807
396.356	205711
396.435	128870
396.515	92009
396.594	86250
396.673	130203
396.753	309709
396.832	924831
396.912	992389
396.991	368100
397.070	104595
397.150	59821
397.229	42882
397.308	47119
397.388	89582
397.467	67040
397.546	28811
397.625	22118
397.705	26260
397.784	30598
397.863	21587
397.942	15130
398.022	16646
398.101	37012
398.180	142544
398.259	116248
398.338	34414
398.417	21827
398.497	17699
398.576	15963
398.655	14131
398.734	12431
398.813	12771
398.892	32252
398.971	141853
399.050	119032
399.129	20660
399.208	10564
399.287	10573
399.366	9740
399.445	10451
399.524	11355
399.603	11506
399.682	19288
399.761	46855
399.840	137531
399.919	166457
399.998	34582
400.077	11185
400.156	9755
400.235	13120
400.313	11389
400.392	15381
400.471	47154
400.550	120877
400.629	52003
400.708	17241
400.786	15087
400.865	35269
400.944	56515
401.023	30630
401.102	9618
401.180	8516
401.259	8548
401.338	11551
401.416	16783
401.495	17285
401.574	13539
401.652	11506
401.731	15881
401.810	19071
401.888	12138
401.967	7509
402.046	11444
402.124	14277
402.203	21062
402.281	15639
402.360	17150
402.438	47712
402.517	52832
402.596	17697
402.674	14976
402.753	11960
402.831	10049
402.910	11208
402.988	34190
403.066	143428
403.145	131861
403.223	46048
403.302	128818
403.380	125178
403.459	111902
403.537	65921
403.615	22578
403.694	10101
403.772	7599
403.850	7310
403.929	7967
404.007	9100
404.085	17687
404.164	31943
404.242	15207
404.320	11800
404.398	18078
404.477	42573
404.555	198892
404.633	285061
404.711	64722
404.789	16720
404.868	13331
404.946	12869
405.024	6818
405.102	6392
405.180	7978
405.258	6720
405.336	8046
405.415	8588
405.493	19818
405.571	25307
405.649	11520
405.727	8384
405.805	13119
405.883	15085
405.961	14643
406.039	20204
406.117	13197
406.195	14773
406.273	43572
406.351	196042
406.429	193209
406.507	41197
406.585	16490
406.663	11734
406.740	17292
406.818	17492
406.896	11427
406.974	10267
407.052	17472
407.130	96263
407.208	219386
407.285	71336
407.363	13074
407.441	10441
407.519	11354
407.596	10328
407.674	19111
407.752	41812
407.830	62402
407.907	43661
407.985	18516
408.063	10322
408.141	7476
408.218	14154
408.296	20554
408.373	16254
408.451	14181
408.529	13587
408.606	9041
408.684	6684
408.762	5016
408.839	5409
408.917	6311
408.994	7771
409.072	8557
409.149	9146
409.227	13870
409.304	20311
409.382	16444
409.459	16823
409.537	21534
409.614	24115
409.692	18448
409.769	18047
409.846	22225
409.924	29337
410.001	32290
410.079	23585
410.156	16827
410.233	15626
410.311	13501
410.388	10352
410.465	12893
410.543	18593
410.620	12025
410.697	8742
410.775	15306
410.852	9354
410.929	11337
411.006	20815
411.083	13920
411.161	26450
411.238	38337
411.315	21424
411.392	9713
411.469	13812
411.547	20908
411.624	13994
411.701	12937
411.778	9981
411.855	22174
411.932	19431
412.009	8724
412.086	7940
412.163	10115
412.240	12309
412.317	15069
412.394	17198
412.471	8737
412.548	6284
412.625	8083
412.702	10040
412.779	21478
412.856	21748
412.933	9608
413.010	7575
413.087	9205
413.164	46270
413.241	107460
413.318	40682
413.395	14917
413.471	26082
413.548	17222
413.625	7821
413.702	10641
413.779	11127
413.855	6128
413.932	4426
414.009	4935
414.086	6654
414.162	6066
414.239	9838
414.316	40983
414.393	130412
414.469	82374
414.546	11866
414.623	5890
414.699	6424
414.776	10323
414.853	8535
414.929	6753
415.006	8364
415.082	9423
415.159	9907
415.236	7150
415.312	6829
415.389	12239
415.465	22720
415.542	16349
415.618	7524
415.695	14640
415.771	12007
415.848	10314
415.924	8588
416.000	8931
416.077	7233
416.153	3160
416.230	3950
416.306	3514
416.383	4743
416.459	4891
416.535	4040
416.612	5079
416.688	5422
416.764	5046
416.841	6023
416.917	6962
416.993	6653
417.069	8150
417.146	11435
417.222	16398
417.298	13866
417.374	7366
417.451	7879
417.527	10888
417.603	14643
417.679	10036
417.755	8822
417.831	5496
417.908	4732
417.984	5401
418.060	4636
418.136	13479
418.212	29413
418.288	14462
418.364	7344
418.440	6694
418.516	12633
418.592	15666
418.668	28466
418.744	46301
418.820	43518
418.896	15457
418.972	6589
419.048	6571
419.124	16538
419.200	24200
419.276	8650
419.352	4113
419.428	4905
419.504	6679
419.579	11457
419.655	9737
419.731	8175
419.807	22325
419.883	50465
419.959	47376
420.034	15200
420.110	15819
420.186	66962
420.262	90406
420.337	20845
420.413	13926
420.489	9541
420.565	6731
420.640	7979
420.716	9761
420.792	7076
420.867	8579
420.943	8356
421.019	14477
421.094	17994
421.170	10505
421.245	8143
421.321	9136
421.397	11567
421.472	13458
421.548	25557
421.623	31511
421.699	20196
421.774	17320
421.850	17157
421.925	24448
422.001	28357
422.076	25204
422.152	29068
422.227	43306
422.302	54684
422.378	73074
422.453	124316
422.529	254232
422.604	594734
422.679	866261
422.755	785884
422.830	462915
422.905	193689
422.981	105578
423.056	67801
423.131	49093
423.207	37774
423.282	32648
423.357	41759
423.432	38995
423.508	28455
423.583	48944
423.658	55326
423.733	20929
423.808	20153
423.883	21069
423.959	20531
424.034	18114
424.109	15043
424.184	12120
424.259	9659
424.334	9263
424.409	8239
424.484	7425
424.559	10279
424.634	8488
424.709	11535
424.784	15874
424.859	11969
424.934	12767
425.009	46135
425.084	104313
425.159	63240
425.234	12265
425.309	7300
425.384	18346
425.459	53282
425.534	26617
425.609	8329
425.683	7913
425.758	6295
425.833	6789
425.908	10250
425.983	23386
426.058	94790
426.132	77482
426.207	15573
426.282	13955
426.357	19711
426.431	8605
426.506	6494
426.581	6620
426.655	7814
426.730	6728
426.805	7640
426.879	8962
426.954	8390
427.029	13414
427.103	58086
427.178	189537
427.253	142056
427.327	23023
427.402	15739
427.476	48990
427.551	43882
427.625	12213
427.700	11422
427.774	7530
427.849	9340
427.923	8123
427.998	7188
428.072	9172
428.147	18266
428.221	55847
428.296	210684
428.370	187562
428.444	32793
428.519	21510
428.593	38507
428.667	42656
428.742	39903
428.816	45345
428.890	107041
428.965	268905
429.039	125987
429.113	54412
429.188	32534
429.262	11152
429.336	12657
429.410	42716
429.485	46222
429.559	31147
429.633	38569
429.707	15132
429.781	22306
429.855	118769
429.930	274677
430.004	152968
430.078	157073
430.152	183500
430.226	233728
430.300	352153
430.374	98462
430.448	23746
430.522	38666
430.596	141024
430.670	132169
430.744	164401
430.818	365596
430.892	129361
430.966	20926
431.040	11158
431.114	7175
431.188	6522
431.262	6422
431.336	6794
431.410	13574
431.484	44056
431.557	49408
431.631	11976
431.705	9703
431.779	29339
431.853	158343
431.927	197890
432.000	35693
432.074	8798
432.148	8794
432.222	11532
432.295	6442
432.369	5685
432.443	9103
432.516	47240
432.590	179078
432.664	120000
432.737	18105
432.811	5420
432.885	3689
432.958	3831
433.032	4071
433.106	2958
433.179	2655
433.253	2880
433.326	4218
433.400	2621
433.473	4032
433.547	2159
433.620	3655
433.694	9555
433.767	14237
433.841	5519
433.914	3671
433.988	4105
434.061	3992
434.134	5022
434.208	3800
434.281	1379
434.355	2892
434.428	4306
434.501	4406
434.575	2812
434.648	4566
434.721	3187
434.795	3421
434.868	2777
434.941	2033
435.014	1490
435.088	3755
435.161	6767
435.234	11237
435.307	18217
435.381	10909
435.454	7434
435.527	9647
435.600	10540
435.673	9798
435.746	7767
435.819	7150
435.892	6043
435.966	5235
436.039	4824
436.112	5380
436.185	3260
436.258	3763
436.331	1921
436.404	2480
436.477	2271
436.550	2447
436.623	2575
436.696	2203
436.769	3816
436.842	4508
436.915	4718
436.987	7829
437.060	6109
437.133	2723
437.206	2111
437.279	4533
437.352	3004
437.425	2725
437.498	4055
437.570	10333
437.643	17568
437.716	6220
437.789	2515
437.861	7896
437.934	38021
438.007	32011
438.080	5644
438.152	5615
438.225	9977
438.298	54323
438.370	228095
438.443	168972
438.516	49615
438.588	14648
438.661	4077
438.734	4240
438.806	5104
438.879	7811
438.951	8731
439.024	22045
439.096	12704
439.169	4814
439.241	3273
439.314	3072
439.386	6774
439.459	10183
439.531	17259
439.604	12837
439.676	4222
439.749	2441
439.821	2972
439.893	3006
439.966	3516
440.038	5872
440.110	8512
440.183	4952
440.255	3305
440.327	5252
440.400	23840
440.472	130863
440.544	156947
440.617	26268
440.689	14989
440.761	17538
440.833	32172
440.905	28309
440.978	6878
441.050	3717
441.122	3071
441.194	3278
441.266	3551
441.338	3869
441.411	6575
441.483	36621
441.555	100421
441.627	34251
441.699	11090
441.771	13771
441.843	6497
441.915	3681
441.987	3470
442.059	3931
442.131	6213
442.203	12327
442.275	13978
442.347	15474
442.419	17664
442.491	65725
442.563	233668
442.635	161564
442.706	53426
442.778	55103
442.850	15150
442.922	7959
442.994	8375
443.066	14711
443.137	13200
443.209	10911
443.281	14541
443.353	28725
443.425	90064
443.496	351304
443.568	481227
443.640	225497
443.711	50152
443.783	18346
443.855	13129
443.926	8450
443.998	7029
444.070	10432
444.141	9322
444.213	13099
444.285	16751
444.356	12892
444.428	11132
444.499	7408
444.571	4348
444.642	4382
444.714	5725
444.785	12109
444.857	14130
444.928	28752
445.000	27479
445.071	19142
445.143	32956
445.214	23684
445.285	28662
445.357	75316
445.428	206438
445.500	561597
445.571	473629
445.642	266736
445.714	99442
445.785	72613
445.856	31383
445.928	19999
445.999	20143
446.070	16686
446.141	12000
446.213	17915
446.284	11245
446.355	9466
446.426	6516
446.497	5760
446.569	8830
446.640	17661
446.711	16066
446.782	5626
446.853	5390
446.924	6599
446.995	7300
447.066	5522
447.138	11147
447.209	10093
447.280	2517
447.351	2521
447.422	2029
447.493	5310
447.564	7204
447.635	10904
447.706	7463
447.777	2663
447.847	2067
447.918	1543
447.989	5915
448.060	8566
448.131	16842
448.202	22626
448.273	15874
448.344	7251
448.414	2815
448.485	4260
448.556	2590
448.627	1995
448.698	2158
448.768	2190
448.839	1765
448.910	8155
448.981	12758
449.051	5970
449.122	2775
449.193	2812
449.263	2325
449.334	2588
449.405	3461
449.475	13969
449.546	13396
449.616	10450
449.687	13499
449.758	5114
449.828	4018
449.899	3876
449.969	2875
450.040	2687
450.110	3745
450.181	4667
450.251	3846
450.322	2717
450.392	3104
450.463	3692
450.533	2672
450.604	2970
450.674	3514
450.744	4627
450.815	2531
450.885	4044
450.955	3199
451.026	2827
451.096	2960
451.166	5310
451.237	8442
451.307	31819
451.377	19160
451.447	4666
451.518	2709
451.588	2880
451.658	3947
451.728	5841
451.799	23391
451.869	47265
451.939	13035
452.009	3253
452.079	2533
452.149	3271
452.219	5878
452.289	29392
452.360	40323
452.430	7975
452.500	5102
452.570	6989
452.640	8972
452.710	23228
452.780	51881
452.850	34260
452.920	35310
452.990	14071
453.060	6616
453.129	8987
453.199	10839
453.269	22851
453.339	92108
453.409	161413
453.479	100264
453.549	183767
453.619	209748
453.688	115375
453.758	16409
453.828	6306
453.898	4662
453.968	4286
454.037	3820
454.087	3606
454.107	3503
454.168	3118
454.177	3043
454.247	3149
454.249	3148
454.316	2551
454.330	2943
454.386	4256
454.411	7084
454.456	11425
454.492	22579
454.525	32496
454.574	18055
454.595	11824
454.655	5807
454.665	4848
454.734	4877
454.736	5035
454.804	8519
454.817	11476
454.873	22610
454.898	30073
454.943	43422
454.979	27644
455.013	13549
455.060	8069
455.082	5882
455.141	6053
455.152	5853
455.221	13638
455.222	14075
455.291	42026
455.303	38031
455.360	20613
455.384	16175
455.430	8446
455.465	9481
455.499	9997
455.546	19817
455.569	23752
455.627	24529
455.638	24960
455.707	5301
455.708	5306
455.777	3152
455.789	3280
455.846	3886
455.869	3509
455.916	2873
455.950	2849
455.985	2588
456.031	3032
456.054	3266
456.112	2867
456.124	2796
456.193	2704
456.193	2685
456.262	3513
456.274	3751
456.332	4490
456.355	4611
456.401	4671
456.436	4370
456.470	4073
456.516	3313
456.540	3014
456.597	2780
456.609	2707
456.678	2597
456.678	2581
456.747	2225
456.759	2250
456.817	2717
456.840	2818
456.886	2650
456.920	2642
456.955	2784
457.001	2885
457.024	3006
457.082	3941
457.093	4088
457.162	5588
457.163	5613
457.232	5901
457.243	5722
457.301	4720
457.324	3884
457.370	2717
457.405	2922
457.439	3144
457.485	3680
457.508	3943
457.566	4217
457.577	4367
457.646	5888
457.647	5933
457.715	10341
457.727	11385
457.784	16687
457.808	20028
457.853	24937
457.889	33495
457.922	37489
457.969	29785
457.991	29774
458.050	29485
458.060	29530
458.129	42158
458.130	42785
458.198	53748
458.211	51101
458.267	37649
458.292	27617
458.336	16599
458.372	14382
458.405	15826
458.453	21081
458.474	25270
458.533	41786
458.543	43464
458.611	73615
458.614	74695
458.680	69043
458.694	58258
458.749	29137
458.775	20548
458.818	11065
458.855	8827
458.887	7115
458.936	5891
458.955	5610
459.016	5216
459.024	5182
459.093	5348
459.097	5375
459.162	5390
459.177	5436
459.230	6339
459.257	7053
459.299	7399
459.338	7728
459.368	8358
459.418	9467
459.437	9120
459.499	7784
459.505	7773
459.574	5310
459.579	5277
459.643	5284
459.659	5246
459.711	5084
459.740	5278
459.780	5789
459.820	6155
459.849	6328
459.900	6760
459.917	6830
459.981	7293
459.986	7308
460.054	7080
460.061	7161
460.123	8362
460.141	8519
460.191	9446
460.222	9965
460.260	10732
460.302	12886
460.328	12440
460.382	10469
460.397	10517
460.462	8583
460.465	8605
460.534	10887
460.543	11182
460.602	20830
460.623	24600
460.671	33932
460.703	44116
460.739	43331
460.783	44891
460.808	43018
460.864	13619
460.876	10357
460.944	5933
460.945	5884
461.013	6365
461.024	6444
461.081	6574
461.104	6562
461.150	6117
461.184	5980
461.218	6184
461.264	6062
461.286	5872
461.345	5411
461.355	5405
461.423	6316
461.425	6309
461.491	6496
461.505	6743
461.559	12205
461.585	14662
461.628	21050
461.665	27491
461.696	30931
461.745	42234
461.764	38726
461.825	17554
461.832	17322
461.901	7818
461.905	7777
461.969	7222
461.985	7020
462.037	6879
462.065	6690
462.105	7371
462.145	8279
462.173	11142
462.225	16658
462.241	17918
462.305	24637
462.310	24053
462.378	18130
462.385	16335
462.446	9556
462.465	8264
462.514	7315
462.545	7571
462.582	7183
462.625	7009
462.650	7162
462.705	6902
462.718	6958
462.785	7856
462.786	7911
462.854	10335
462.865	10881
462.922	13345
462.945	14824
462.990	12580
463.025	9168
463.058	8122
463.104	6720
463.126	6232
463.184	5811
463.194	5987
463.262	7073
463.264	7128
463.330	7846
463.344	7835
463.398	7964
463.424	8103
463.466	7988
463.504	7977
463.533	8040
463.583	8075
463.601	8400
463.663	9330
463.669	9562
463.737	12260
463.743	12538
463.805	19741
463.823	21901
463.873	29960
463.903	34719
463.940	37138
463.982	42291
464.008	35741
464.062	17583
464.076	16502
464.142	8226
464.144	8124
464.211	7555
464.221	7554
464.279	7567
464.301	7657
464.347	9318
464.381	10592
464.414	11215
464.461	11808
464.482	12640
464.540	15550
464.550	15271
464.617	12730
464.620	12611
464.685	12433
464.699	12382
464.753	13519
464.779	14350
464.820	15350
464.859	16082
464.888	15934
464.938	15535
464.956	15733
465.018	16519
465.023	16333
465.091	13611
465.098	13263
465.158	13472
465.177	13654
465.226	13156
465.257	12806
465.293	13631
465.336	14516
465.361	15557
465.416	17791
465.428	19092
465.495	26398
465.496	26509
465.563	37569
465.575	39482
465.631	48937
465.654	53682
465.698	36206
465.734	19815
465.765	17702
465.813	14068
465.833	13767
465.893	14156
465.900	14055
465.968	13128
465.972	13048
466.035	13814
466.052	13989
466.102	14952
466.131	15461
466.170	15640
466.210	15745
466.237	16097
466.290	16827
466.304	16972
466.369	17376
466.372	17459
466.439	19189
466.449	19390
466.506	21382
466.528	22135
466.573	28626
466.607	33423
466.641	44545
466.687	59866
466.708	66142
466.766	83534
466.775	78136
466.842	37082
466.845	35033
466.909	25701
466.925	23624
466.977	23202
467.004	23063
467.044	23752
467.083	24415
467.111	25415
467.163	27155
467.178	27550
467.242	28967
467.245	28913
467.312	26772
467.321	26443
467.379	25654
467.400	25295
467.446	26306
467.480	26956
467.559	24160
467.638	20631
467.717	20776
467.796	23235
467.875	24858
467.955	23711
468.034	34868
468.113	66153
468.192	96202
468.271	34015
468.350	22575
468.429	23887
468.508	25026
468.588	21412
468.667	19193
468.746	20003
468.825	18406
468.904	16215
468.983	20861
469.062	28530
469.141	33897
469.220	16982
469.299	15719
469.378	17408
469.456	19759
469.535	19497
469.614	18050
469.693	19003
469.772	24384
469.851	30939
469.930	24492
470.009	17533
470.088	18633
470.166	23245
470.245	32916
470.324	40717
470.403	30961
470.482	22703
470.560	19001
470.639	19024
470.718	21291
470.797	17610
470.875	20947
470.954	27165
471.033	30056
471.111	14145
471.190	13316
471.269	12350
471.347	13933
471.426	14444
471.505	17154
471.583	16989
471.662	17044
471.740	15309
471.819	15575
471.898	14457
471.976	13672
472.055	14974
472.133	16481
472.212	20969
472.290	22117
472.369	16229
472.447	12893
472.526	13111
472.604	14524
472.683	14648
472.761	17429
472.839	15248
472.918	15356
472.996	14824
473.075	16875
473.153	16916
473.231	15097
473.310	16870
473.388	17523
473.466	15591
473.545	18373
473.623	23591
473.701	24454
473.780	15525
473.858	14951
473.936	16313
474.014	14784
474.093	17794
474.171	23499
474.249	31354
474.327	23986
474.405	14163
474.484	13689
474.562	14530
474.640	15145
474.718	16075
474.796	18280
474.874	15896
474.952	14502
475.030	15677
475.108	17944
475.187	20498
475.265	22428
475.343	28956
475.421	34008
475.499	17706
475.577	16739
475.655	21019
475.733	37372
475.811	64293
475.889	56609
475.966	42488
476.044	16075
476.122	20730
476.200	26982
476.278	21548
476.356	14199
476.434	16194
476.512	19927
476.590	26151
476.667	22894
476.745	12997
476.823	15261
476.901	14116
476.979	15246
477.056	14574
477.134	15727
477.212	15570
477.290	14366
477.367	12249
477.445	12241
477.523	12780
477.601	13291
477.678	13538
477.756	16337
477.834	18577
477.911	13035
477.989	13279
478.066	12554
478.144	15974
478.222	20876
478.299	31046
478.377	32865
478.454	13278
478.532	12633
478.609	13650
478.687	15864
478.764	12843
478.842	14796
478.919	15828
478.997	14177
479.074	12342
479.152	15146
479.229	18840
479.307	13413
479.384	10681
479.461	11292
479.539	12100
479.616	15156
479.694	13714
479.771	13758
479.848	15635
479.926	19888
480.003	22318
480.080	12740
480.157	10728
480.235	11798
480.312	11735
480.389	13841
480.467	21652
480.544	28485
480.621	17074
480.698	14949
480.775	16932
480.853	16865
480.930	14021
481.007	13736
481.084	15919
481.161	16775
481.238	16881
481.315	11914
481.392	11686
481.470	13021
481.547	14275
481.624	12745
481.701	12348
481.778	14190
481.855	16070
481.932	21727
482.009	36523
482.086	30330
482.163	16048
482.240	24949
482.317	42341
482.393	37492
482.470	15183
482.547	15116
482.624	14326
482.701	14871
482.778	15050
482.855	12881
482.932	13029
483.009	12158
483.085	15047
483.162	19325
483.239	18075
483.316	13220
483.393	13351
483.469	13522
483.546	14567
483.623	16266
483.699	12235
483.776	13729
483.853	15119
483.930	23501
484.006	54875
484.083	95381
484.160	51168
484.236	58774
484.313	49826
484.389	38169
484.466	32352
484.543	32856
484.619	34024
484.696	35739
484.772	36694
484.849	37835
484.925	31969
485.002	30290
485.078	33378
485.155	35386
485.231	29633
485.308	29304
485.384	29491
485.461	37003
485.537	56771
485.614	73725
485.690	32090
485.766	28173
485.843	30799
485.919	42768
485.995	48529
486.072	27742
486.148	26136
486.224	25993
486.301	27645
486.377	33302
486.453	35432
486.530	32270
486.606	36698
486.682	43437
486.758	49961
486.835	63512
486.911	49565
486.987	76577
487.063	92425
487.139	114835
487.215	82099
487.292	40089
487.368	31635
487.444	37283
487.520	47674
487.596	52067
487.672	75422
487.748	177526
487.824	286786
487.900	137683
487.976	51109
488.052	42635
488.128	48835
488.204	40210
488.280	30992
488.356	36330
488.432	65635
488.508	107851
488.584	44574
488.660	26893
488.736	27297
488.812	27837
488.888	37082
488.964	52275
489.039	104714
489.115	168289
489.191	114683
489.267	31491
489.343	26685
489.418	23345
489.494	23451
489.570	22052
489.646	23857
489.722	23592
489.797	26152
489.873	37094
489.949	74045
490.024	77570
490.100	25095
490.176	23718
490.251	29828
490.327	39009
490.403	26476
490.478	22544
490.554	20077
490.629	20617
490.705	19435
490.781	22426
490.856	21950
490.932	26618
491.007	24632
491.083	24369
491.158	22414
491.234	30306
491.309	56898
491.385	68972
491.460	25244
491.536	23538
491.611	22215
491.686	24427
491.762	35231
491.837	67450
491.913	127008
491.988	157559
492.063	225012
492.139	65229
492.214	35910
492.289	19588
492.365	17669
492.440	22280
492.515	23835
492.590	22330
492.666	19686
492.741	24326
492.816	36588
492.891	24667
492.967	16897
493.042	16193
493.117	16334
493.192	16697
493.267	17977
493.342	23492
493.418	24017
493.493	16742
493.568	15949
493.643	16647
493.718	20784
493.793	32628
493.868	39785
493.943	27221
494.018	20434
494.093	17339
494.168	18231
494.243	15864
494.318	14272
494.393	14728
494.468	16480
494.543	16472
494.618	18703
494.693	18322
494.768	15975
494.842	18161
494.917	15104
494.992	15863
495.067	15898
495.142	15434
495.217	16809
495.292	17057
495.366	18956
495.441	24544
495.516	31678
495.591	50510
495.665	146438
495.740	351077
495.815	195378
495.890	30843
495.964	22865
496.039	24800
496.114	22928
496.188	25201
496.263	25927
496.338	23771
496.412	25531
496.487	29985
496.561	32512
496.636	35903
496.710	28013
496.785	28955
496.860	34620
496.934	31294
497.009	30828
497.083	31142
497.158	34883
497.232	39123
497.307	44720
497.381	41550
497.455	46100
497.530	56030
497.604	46866
497.679	49451
497.753	66071
497.827	88065
497.902	84771
497.976	95976
498.050	172994
498.125	472691
498.199	611365
498.273	138413
498.348	106074
498.422	93530
498.496	84693
498.570	79172
498.645	60581
498.719	55537
498.793	57441
498.867	70126
498.941	100232
499.016	210290
499.090	527611
499.164	272769
499.238	37844
499.312	34310
499.386	37661
499.460	38108
499.534	31654
499.609	36506
499.683	48753
499.757	51943
499.831	100309
499.905	326512
499.979	405055
500.053	63546
500.127	60524
500.201	46393
500.275	28913
500.349	26835
500.422	30191
500.496	45650
500.570	95103
500.644	211486
500.718	390035
500.792	121082
500.866	26196
500.940	31576
501.013	28318
501.087	26447
501.161	46458
501.235	70514
501.309	121597
501.382	316060
501.456	355633
501.530	74490
501.603	106690
501.677	58342
501.751	20598
501.825	24267
501.898	46957
501.972	126244
502.046	110496
502.119	27858
502.193	59352
502.266	141520
502.340	94465
502.413	62476
502.487	132276
502.561	83000
502.634	31976
502.708	22290
502.781	20948
502.855	17207
502.928	14912
503.002	15217
503.075	14273
503.149	16528
503.222	16188
503.295	16512
503.369	20900
503.442	32576
503.516	95275
503.589	249579
503.662	198239
503.736	59178
503.809	110884
503.882	121461
503.956	132889
504.029	168137
504.102	118146
504.175	163370
504.249	79182
504.322	38111
504.395	30194
504.468	20378
504.542	18946
504.615	14974
504.688	14090
504.761	14165
504.834	18361
504.907	23790
504.980	37318
505.053	24321
505.127	25251
505.200	30494
505.273	23545
505.346	17490
505.419	13095
505.492	11555
505.565	12235
505.638	11194
505.711	11071
505.784	11458
505.857	10775
505.930	12624
506.003	11038
506.076	13183
506.149	16813
506.221	22487
506.294	22262
506.367	54682
506.440	170199
506.513	132135
506.586	23727
506.659	16345
506.731	13485
506.804	16831
506.877	25944
506.950	19422
507.022	12011
507.095	15591
507.168	21493
507.241	13538
507.313	11746
507.386	14048
507.459	19965
507.531	14570
507.604	10264
507.677	11481
507.749	11423
507.822	15622
507.894	30315
507.967	37596
508.040	21356
508.112	17416
508.185	18299
508.257	18205
508.330	25708
508.402	19583
508.475	15007
508.547	17412
508.620	18118
508.692	25866
508.765	19889
508.837	13158
508.909	13587
508.982	12506
509.054	15195
509.127	14221
509.199	12320
509.271	12361
509.344	11213
509.416	12239
509.488	12474
509.560	13030
509.633	13870
509.705	16722
509.777	16219
509.849	22288
509.922	18002
509.994	13191
510.066	12340
510.138	14319
510.210	24213
510.283	25594
510.355	20741
510.427	19041
510.499	17983
510.571	19354
510.643	17719
510.715	29027
510.787	30322
510.859	19069
510.931	21472
511.003	28460
511.076	29111
511.148	15522
511.219	16531
511.291	24381
511.363	32505
511.435	16035
511.507	13948
511.579	14789
511.651	14480
511.723	14212
511.795	13692
511.867	14691
511.939	18012
512.010	33515
512.082	33455
512.154	17026
512.226	17450
512.298	21733
512.369	34920
512.441	27455
512.513	26521
512.585	21549
512.656	20372
512.728	24701
512.800	19899
512.871	17617
512.943	17409
513.015	16323
513.086	17253
513.158	20339
513.230	21339
513.301	28609
513.373	32811
513.444	20398
513.516	16938
513.588	17328
513.659	19328
513.731	22997
513.802	23453
513.874	42421
513.945	79964
514.016	37082
514.088	17428
514.159	20978
514.231	25785
514.302	33719
514.374	25354
514.445	24042
514.516	41174
514.588	40379
514.659	25296
514.730	41617
514.802	40346
514.873	34095
514.944	36680
515.016	31456
515.087	32795
515.158	36668
515.229	52206
515.301	40064
515.372	53905
515.443	42562
515.514	30261
515.585	24102
515.656	21449
515.728	20219
515.799	19325
515.870	19286
515.941	21394
516.012	21414
516.083	25059
516.154	29338
516.225	35102
516.296	33624
516.367	30323
516.438	34884
516.509	48675
516.580	85589
516.651	246076
516.722	804185
516.793	510680
516.864	69316
516.935	58091
517.006	66393
517.077	109619
517.148	271746
517.219	848543
517.289	1564069
517.360	448919
517.431	134304
517.502	37969
517.573	32726
517.643	31125
517.714	32669
517.785	33302
517.856	34010
517.926	40387
517.997	46981
518.068	62391
518.138	95129
518.209	188422
518.280	602293
518.350	1917077
518.421	1114357
518.492	130256
518.562	60270
518.633	55041
518.703	59664
518.774	92614
518.845	186869
518.915	205373
518.986	82632
519.056	53532
519.127	75688
519.197	114159
519.268	214293
519.338	175488
519.408	41270
519.479	48616
519.549	41100
519.620	25219
519.690	21075
519.760	19645
519.831	21719
519.901	22666
519.971	17748
520.042	19407
520.112	24188
520.182	26710
520.253	32045
520.323	23692
520.393	32569
520.463	55715
520.534	38749
520.604	73163
520.674	40440
520.744	33141
520.814	78648
520.885	89258
520.955	73346
521.025	230071
521.095	137525
521.165	20831
521.235	20236
521.305	18245
521.375	16953
521.445	19297
521.515	26228
521.585	29864
521.655	33307
521.725	24094
521.795	23373
521.865	17920
521.935	23296
522.005	25652
522.075	16072
522.145	17472
522.215	19638
522.285	27288
522.355	36720
522.424	65092
522.494	66130
522.564	38897
522.634	64640
522.704	181887
522.774	102598
522.843	20556
522.913	19657
522.983	23745
523.053	20580
523.122	20647
523.192	31211
523.262	90478
523.331	119554
523.401	26203
523.471	14049
523.540	16163
523.610	13731
523.680	14042
523.749	15311
523.819	18390
523.888	21843
523.958	14568
524.027	15539
524.097	17417
524.166	16041
524.236	17753
524.305	18448
524.375	14622
524.444	13509
524.514	17457
524.583	16977
524.653	20360
524.722	23093
524.791	18152
524.861	15704
524.930	15904
524.999	15776
525.069	23067
525.138	19827
525.207	22601
525.277	19023
525.346	16941
525.415	16574
525.484	17459
525.554	20806
525.623	20592
525.692	18034
525.761	19558
525.830	21432
525.900	27239
525.969	41075
526.038	74513
526.107	144114
526.176	397057
526.245	399703
526.314	135045
526.383	204319
526.452	341451
526.522	430373
526.591	568223
526.660	153068
526.729	73143
526.797	77669
526.867	171872
526.935	583242
527.004	1059780
527.073	758818
527.142	83100
527.211	30100
527.280	26014
527.349	28457
527.418	16525
527.487	15952
527.555	14141
527.624	13634
527.693	12274
527.762	13495
527.831	12709
527.899	13185
527.968	13836
528.037	14577
528.106	17756
528.174	32184
528.243	30350
528.312	34101
528.380	52374
528.449	20352
528.518	13987
528.586	10521
528.655	11104
528.723	11349
528.792	10930
528.861	13278
528.929	12073
528.998	11541
529.066	11492
529.135	11580
529.203	9872
529.272	10221
529.340	12521
529.409	12972
529.477	12959
529.545	16177
529.614	19357
529.682	19797
529.751	24545
529.819	22270
529.887	18826
529.956	13365
530.024	13844
530.092	13136
530.161	14670
530.229	25379
530.297	17577
530.365	11561
530.434	11584
530.502	10994
530.570	11438
530.638	9388
530.707	13465
530.775	15050
530.843	11827
530.911	11851
530.979	11560
531.047	11627
531.115	12617
531.183	12529
531.252	12010
531.320	13500
531.388	12021
531.456	12441
531.524	11374
531.592	12789
531.660	13471
531.728	12584
531.796	12103
531.864	12238
531.932	12845
532.000	12612
532.067	12807
532.135	14777
532.203	16695
532.271	19353
532.339	29509
532.407	75345
532.475	60100
532.542	22725
532.610	27096
532.678	45524
532.746	132273
532.814	389020
532.881	133754
532.949	21340
533.017	15886
533.084	14341
533.152	13468
533.220	14083
533.287	17362
533.355	13928
533.423	12641
533.490	12202
533.558	13145
533.625	14795
533.693	14397
533.761	14607
533.828	16386
533.896	16109
533.963	26697
534.031	38729
534.098	51555
534.166	31845
534.233	14970
534.300	14937
534.368	14652
534.435	14962
534.503	16880
534.570	19378
534.637	19054
534.705	21476
534.772	28805
534.840	53839
534.907	172350
534.974	295635
535.041	48503
535.109	22111
535.176	15977
535.243	14685
535.310	14671
535.378	14917
535.445	12676
535.512	13158
535.579	13536
535.646	13065
535.714	14217
535.781	16725
535.848	17575
535.915	16527
535.982	14807
536.049	15625
536.116	15614
536.183	15801
536.250	14937
536.317	16310
536.384	20298
536.451	26931
536.518	28596
536.585	21268
536.652	25810
536.719	33725
536.786	30254
536.853	22705
536.920	33011
536.987	53478
537.053	61457
537.120	173536
537.187	210529
537.254	26484
537.321	16262
537.388	16501
537.454	15124
537.521	15197
537.588	14257
537.654	17809
537.721	19166
537.788	20447
537.855	16865
537.921	16209
537.988	17112
538.055	17113
538.121	16609
538.188	19394
538.254	27094
538.321	49804
538.388	36512
538.454	19029
538.521	17444
538.587	16098
538.654	15453
538.720	15856
538.787	15728
538.853	16403
538.920	19766
538.986	21852
539.053	18508
539.119	18370
539.185	18617
539.252	20979
539.318	32956
539.385	27982
539.451	22817
539.517	24011
539.583	29566
539.650	55385
539.716	153945
539.782	62808
539.849	18926
539.915	18804
539.981	19212
540.047	22235
540.114	21234
540.180	20523
540.246	21560
540.312	28839
540.378	51436
540.444	59431
540.510	60867
540.576	168023
540.643	79829
540.709	19216
540.775	18062
540.841	18876
540.907	24362
540.973	40234
541.039	35210
541.105	34159
541.171	22588
541.237	19767
541.303	20203
541.369	23582
541.435	29302
541.500	44710
541.566	33988
541.632	19212
541.698	16965
541.764	16704
541.830	17605
541.896	15622
541.961	17952
542.027	19238
542.093	19280
542.159	20382
542.224	22209
542.290	30606
542.356	44340
542.421	53135
542.487	28520
542.553	20380
542.618	21500
542.684	19382
542.750	20688
542.815	26917
542.881	47231
542.947	135330
543.012	140220
543.078	21925
543.143	17449
543.209	20245
543.274	22763
543.340	27632
543.405	51924
543.471	104974
543.536	31362
543.602	18685
543.667	18289
543.732	17787
543.798	17642
543.863	19033
543.928	17144
543.994	15707
544.059	16907
544.124	17259
544.190	17268
544.255	18768
544.320	19345
544.386	21027
544.451	27043
544.516	33489
544.581	36939
544.646	82744
544.712	167090
544.777	42920
544.842	23067
544.907	24224
544.972	23518
545.037	20776
545.102	22031
545.168	24744
545.233	25669
545.298	25961
545.363	31507
545.428	37576
545.493	55068
545.558	122258
545.623	70285
545.688	25452
545.753	23976
545.818	23888
545.883	24593
545.947	24087
546.012	26806
546.077	28340
546.142	27423
546.207	27504
546.272	33085
546.337	35321
546.401	30636
546.466	28642
546.531	26901
546.596	29903
546.661	30179
546.725	29145
546.790	27911
546.855	29450
546.919	30601
546.984	32908
547.049	35195
547.113	41545
547.178	39908
547.243	43880
547.307	51397
547.372	56824
547.436	61026
547.501	53820
547.565	55450
547.630	59243
547.695	59197
547.759	59221
547.823	57580
547.888	51558
547.952	51864
548.017	54986
548.081	60411
548.146	67245
548.210	65876
548.274	58258
548.339	56636
548.403	54144
548.468	50109
548.532	49097
548.596	51476
548.660	51434
548.725	56358
548.789	64029
548.853	66288
548.917	59412
548.982	62898
549.046	64862
549.110	47031
549.174	46892
549.238	51711
549.303	55790
549.367	57301
549.431	55611
549.495	52791
549.559	52664
549.623	57978
549.687	68726
549.751	80195
549.815	78985
549.879	75843
549.943	69324
550.007	73878
550.071	76334
550.135	78279
550.199	71224
550.263	64542
550.327	64247
550.391	70911
550.455	72097
550.519	71505
550.582	77371
550.646	91819
550.710	103466
550.774	85273
550.838	85467
550.901	86603
550.965	93588
551.029	99849
551.093	113042
551.156	129849
551.220	173658
551.284	209297
551.347	139112
551.411	147749
551.475	172142
551.538	98399
551.602	85519
551.666	77620
551.729	74129
551.793	70689
551.856	70236
551.920	67744
551.983	69467
552.047	69816
552.110	69138
552.174	68988
552.237	70419
552.301	66715
552.364	63488
552.428	61930
552.491	63940
552.554	67799
552.618	67620
552.681	72313
552.745	77046
552.808	95883
552.871	129960
552.934	99963
552.998	75179
553.061	69484
553.124	65423
553.187	62534
553.251	64841
553.314	65685
553.377	62825
553.440	67264
553.503	72805
553.567	77469
553.630	66636
553.693	64953
553.756	65381
553.819	63271
553.882	60324
553.945	60991
554.008	61145
554.071	60461
554.134	61276
554.197	57751
554.260	56450
554.323	59057
554.386	61143
554.449	60450
554.512	60991
554.575	59319
554.638	59220
554.701	59856
554.764	56516
554.827	56807
554.889	53115
554.952	49974
555.015	50229
555.078	51228
555.141	52447
555.203	51435
555.266	50812
555.329	50730
555.391	49321
555.454	49527
555.517	50368
555.580	47694
555.642	45174
555.705	44937
555.768	46175
555.830	43898
555.893	43309
555.955	41550
556.018	41091
556.080	41763
556.143	43502
556.206	42215
556.268	42866
556.330	43000
556.393	44515
556.455	42605
556.518	49304
556.580	53514
556.643	39517
556.705	37615
556.767	37107
556.830	38829
556.892	41347
556.955	52747
557.017	49070
557.079	38743
557.142	38332
557.204	41394
557.266	62649
557.328	65423
557.391	35194
557.453	31694
557.515	33499
557.577	37886
557.639	42510
557.701	34144
557.764	33373
557.826	33843
557.888	39009
557.950	41065
558.012	47745
558.074	66665
558.136	118918
558.198	323266
558.260	166175
558.322	44146
558.384	40154
558.446	46422
558.508	54426
558.570	70380
558.632	110041
558.694	187335
558.756	237287
558.818	502235
558.880	1394647
558.942	656630
559.003	334277
559.065	219511
559.127	64322
559.189	65423
559.251	88784
559.312	136430
559.374	263781
559.436	842074
559.498	628778
559.559	90321
559.621	70439
559.683	90404
559.744	149377
559.806	367705
559.868	737721
559.929	193762
559.991	82726
560.052	113779
560.114	296424
560.176	274244
560.237	160415
560.299	327487
560.360	104541
560.422	33638
560.483	30173
560.545	28704
560.606	27848
560.667	26996
560.729	26537
560.790	25434
560.852	25383
560.913	25548
560.974	24598
561.036	23920
561.097	24805
561.158	24814
561.220	24742
561.281	26013
561.342	27308
561.403	32448
561.465	38583
561.526	68136
561.587	109725
561.648	40335
561.709	25476
561.771	25291
561.832	24871
561.893	24147
561.954	24257
562.015	23795
562.076	23016
562.137	23542
562.198	23614
562.259	24319
562.320	24451
562.381	26611
562.442	34940
562.503	34206
562.564	24209
562.625	22600
562.686	23261
562.747	26290
562.808	27449
562.869	24122
562.930	27090
562.991	27864
563.051	25699
563.112	23414
563.173	23127
563.234	23237
563.294	22927
563.355	22594
563.416	23892
563.477	23071
563.537	23846
563.598	23853
563.659	23842
563.720	23895
563.780	24284
563.841	25447
563.901	23729
563.962	24098
564.023	24088
564.083	24265
564.144	23892
564.204	24579
564.265	25331
564.325	28223
564.386	42124
564.446	47362
564.507	25614
564.567	22890
564.628	23842
564.688	23893
564.749	24496
564.809	26204
564.869	30341
564.930	26503
564.990	24842
565.050	23823
565.111	24172
565.171	23079
565.231	24109
565.292	24464
565.352	23624
565.412	25526
565.472	24649
565.532	26499
565.593	26833
565.653	24977
565.713	26964
565.773	28441
565.833	30872
565.893	39850
565.953	30711
566.013	29077
566.074	30701
566.134	35594
566.194	46035
566.254	52797
566.314	40145
566.374	32842
566.434	33128
566.494	34377
566.554	34085
566.614	35956
566.673	37614
566.733	39929
566.793	43968
566.853	44217
566.913	44378
566.973	45488
567.033	47570
567.092	47352
567.152	45966
567.212	47576
567.272	47183
567.331	49857
567.391	51940
567.451	55299
567.511	59399
567.570	63196
567.630	49168
567.690	45171
567.749	45134
567.809	48980
567.868	54562
567.928	60376
567.988	73798
568.047	87854
568.107	110545
568.166	144989
568.226	207292
568.285	291896
568.345	281824
568.404	235888
568.464	202229
568.523	190370
568.582	189312
568.642	210365
568.701	252743
568.761	333524
568.820	482941
568.879	524480
568.939	429686
568.998	334722
569.057	262169
569.116	208772
569.176	170516
569.235	141392
569.294	121141
569.353	103292
569.413	90882
569.472	80199
569.531	72767
569.590	65263
569.649	60844
569.708	55054
569.767	53104
569.827	53812
569.886	51405
569.945	41432
570.004	40600
570.063	38968
570.122	39117
570.181	38827
570.240	39101
570.299	39267
570.358	40946
570.417	33342
570.475	30403
570.534	30349
570.593	31724
570.652	31614
570.711	32671
570.770	28546
570.829	30166
570.887	29335
570.946	31066
571.005	27125
571.064	26512
571.122	28756
571.181	30578
571.240	26762
571.299	23517
571.357	24379
571.416	26356
571.475	26159
571.533	29554
571.592	24680
571.650	25090
571.709	23217
571.768	23847
571.826	24749
571.885	21831
571.943	22067
572.002	21161
572.060	22698
572.119	20759
572.177	19920
572.236	19725
572.294	19801
572.352	20394
572.411	20692
572.469	19272
572.528	20298
572.586	21710
572.644	23471
572.703	30967
572.761	24814
572.819	20144
572.877	18896
572.936	18940
572.994	18905
573.052	19002
573.110	20183
573.169	20329
573.227	19384
573.285	18795
573.343	18039
573.401	19407
573.459	18889
573.517	18138
573.576	18280
573.634	20323
573.692	19921
573.750	20148
573.808	19990
573.866	19549
573.924	23017
573.982	23852
574.040	19358
574.098	18164
574.155	19135
574.213	17429
574.271	17555
574.329	18763
574.387	18789
574.445	16971
574.503	17608
574.560	16369
574.618	16050
574.676	16604
574.734	16544
574.792	17338
574.849	16145
574.907	15889
574.965	15761
575.022	15705
575.080	16127
575.138	16099
575.195	16813
575.253	17817
575.311	18091
575.368	16996
575.426	15559
575.483	16080
575.541	16293
575.598	15845
575.656	17754
575.713	17067
575.771	17007
575.828	16689
575.886	16467
575.943	16579
576.001	17679
576.058	18081
576.115	18377
576.173	20502
576.230	22211
576.287	24571
576.345	21730
576.402	18843
576.459	18090
576.517	18345
576.574	18970
576.631	19820
576.688	18308
576.746	17116
576.803	16325
576.860	17331
576.917	16624
576.974	17405
577.031	16174
577.089	16266
577.146	17328
577.203	17245
577.260	18294
577.317	18483
577.374	19338
577.431	19752
577.488	18090
577.545	17035
577.602	17516
577.659	17049
577.716	16201
577.773	16536
577.830	16367
577.886	15931
577.943	16175
578.000	16527
578.057	17157
578.114	17640
578.171	16330
578.227	16743
578.284	16481
578.341	18215
578.398	17595
578.454	17808
578.511	19210
578.568	20714
578.625	18697
578.681	17273
578.738	17099
578.794	17080
578.851	16454
578.908	17300
578.964	17616
579.021	18623
579.077	17560
579.134	16939
579.190	16631
579.247	16769
579.303	17010
579.360	16956
579.416	16525
579.473	16937
579.529	16483
579.586	17118
579.642	16458
579.698	17578
579.755	17621
579.811	17444
579.867	16469
579.924	16862
579.980	15779
580.036	17068
580.093	16653
580.149	17052
580.205	17126
580.261	17368
580.317	17350
580.374	19118
580.430	20808
580.486	20696
580.542	18727
580.598	19710
580.619	19310
580.654	18630
580.692	18429
580.710	18347
580.765	18832
580.767	18860
580.823	19288
580.838	18958
580.879	18111
580.911	18850
580.935	19416
580.984	18220
580.991	18066
581.047	18386
581.057	18359
581.103	18242
581.130	18518
581.159	18851
581.203	19334
581.215	19485
581.270	18632
581.276	18650
581.326	18744
581.349	18915
581.382	19268
581.422	19356
581.438	19379
581.494	19958
581.494	19962
581.550	20870
581.567	20666
581.606	20257
581.640	20456
581.661	20542
581.713	20899
581.717	20940
581.773	19511
581.786	19753
581.829	20460
581.859	20402
581.885	20418
581.932	21236
581.940	21383
581.996	20760
582.004	20753
582.052	20654
582.077	20441
582.107	20216
582.150	20763
582.163	20925
582.219	21194
582.223	21211
582.274	21446
582.296	21565
582.330	21787
582.368	22564
582.386	22881
582.441	21427
582.441	21424
582.497	21434
582.514	21219
582.552	20847
582.587	22120
582.608	22870
582.659	22810
582.663	22796
582.719	22341
582.732	22154
582.774	21675
582.805	21880
582.830	22087
582.877	22612
582.885	22660
582.941	23654
582.950	23522
582.996	23133
583.023	23722
583.052	24288
583.095	24095
583.107	24046
583.162	24535
583.168	24604
583.218	25110
583.240	24780
583.273	24358
583.313	24819
583.328	24998
583.384	25414
583.385	25402
583.439	25031
583.458	25119
583.494	25267
583.531	25529
583.549	25684
583.603	26280
583.605	26305
583.660	26744
583.676	26741
583.715	26611
583.748	27227
583.770	27681
583.820	28334
583.825	28406
583.881	27641
583.893	27768
583.936	28170
583.965	28588
583.991	28740
584.038	28056
584.046	28067
584.101	29265
584.110	29286
584.156	28908
584.183	29265
584.211	29748
584.255	30256
584.266	30388
584.321	30040
584.328	30002
584.376	30039
584.400	30460
584.431	31160
584.472	32071
584.486	32240
584.541	33073
584.545	33073
584.596	33382
584.617	33170
584.651	33205
584.689	34429
584.706	34878
584.761	35094
584.762	35090
584.816	36393
584.834	36771
584.871	37785
584.906	38192
584.926	38349
584.978	38380
584.980	38418
585.035	40358
585.051	40749
585.090	42005
585.123	43129
585.145	43931
585.195	46205
585.200	46454
585.254	48390
585.267	48927
585.309	51163
585.340	53832
585.364	56167
585.412	62205
585.419	63163
585.473	72705
585.484	75158
585.528	86755
585.556	96578
585.583	113104
585.628	147928
585.637	163922
585.692	300313
585.700	332523
585.747	528703
585.772	522893
585.801	389689
585.845	186844
585.856	154057
585.910	85201
585.917	78166
585.965	68939
585.989	65930
586.019	64583
586.061	62926
586.074	62817
586.128	63070
586.133	63092
586.183	64880
586.205	65523
586.237	66345
586.277	66914
586.292	67240
586.346	68593
586.349	68621
586.401	70267
586.421	70986
586.455	72517
586.493	73548
586.509	75527
586.564	84114
586.565	84385
586.618	106814
586.637	110968
586.672	107971
586.709	98899
586.727	94004
586.781	88938
586.781	89042
586.835	89147
586.853	89046
586.889	88996
586.925	89109
586.944	89890
586.996	92599
586.998	92808
587.052	96379
587.068	97292
587.106	99991
587.140	102571
587.161	104235
587.212	107378
587.215	107762
587.269	113628
587.284	115032
587.323	119207
587.356	123069
587.377	126106
587.427	132459
587.431	133039
587.485	138298
587.499	139649
587.539	145519
587.571	150238
587.593	154289
587.643	163560
587.648	164797
587.702	175609
587.715	178164
587.755	188965
587.786	197185
587.810	203243
587.858	214445
587.864	216486
587.917	235951
587.930	240180
587.971	259726
588.001	273533
588.025	285587
588.073	309568
588.079	313734
588.133	349833
588.145	357520
588.187	391072
588.217	415032
588.241	440071
588.288	490514
588.295	499335
588.348	570481
588.360	585797
588.402	657531
588.431	709701
588.456	765908
588.503	877753
588.510	899222
588.564	1075425
588.575	1112794
588.617	1311052
588.646	1452675
588.671	1625749
588.718	1961212
588.725	2032606
588.778	2580903
588.789	2689454
588.832	3142278
588.861	3410464
588.886	3373432
588.932	3142574
588.939	3047919
588.993	2242885
589.004	2131297
589.047	2840777
589.075	3304409
589.100	3415875
589.147	3447236
589.154	3381086
589.207	2766394
589.218	2641215
589.261	2375050
589.290	2206302
589.314	2205127
589.361	2221685
589.368	2264916
589.421	2622694
589.433	2698405
589.475	3075601
589.504	3291628
589.528	3162254
589.576	2761193
589.582	2760208
589.635	2885718
589.647	2905130
589.689	3009756
589.718	2987942
589.742	2630724
589.790	1898666
589.795	1849556
589.849	1378504
589.861	1271203
589.902	1078933
589.932	937733
589.955	865064
590.004	711085
590.009	702562
590.062	600148
590.075	574485
590.115	520162
590.146	477174
590.168	456918
590.218	410414
590.222	408336
590.275	371021
590.289	360758
590.328	340420
590.360	322494
590.381	312712
590.431	288179
590.435	287629
590.488	267671
590.503	261582
590.541	251095
590.574	241136
590.594	236347
590.645	222195
590.647	222291
590.700	211741
590.716	207899
590.753	201401
590.787	194834
590.806	192394
590.859	184058
590.859	184388
590.912	176868
590.930	174069
590.965	170766
591.001	166824
591.018	165779
591.071	161121
591.072	160656
591.124	155973
591.143	153710
591.177	151434
591.214	148371
591.230	148276
591.283	146681
591.285	146213
591.336	142509
591.356	140583
591.389	139453
591.427	137126
591.442	135876
591.495	129869
591.498	129072
591.547	127355
591.569	126116
591.600	124870
591.640	122214
591.653	122257
591.706	121297
591.711	120830
591.759	120935
591.782	120525
591.811	121772
591.853	122807
591.864	122371
591.917	118072
591.924	117107
591.969	114012
591.995	111776
592.022	112198
592.066	111939
592.075	112457
592.127	113682
592.137	113592
592.180	117771
592.208	119831
592.233	117844
592.279	112844
592.285	112559
592.338	107366
592.350	105856
592.390	105711
592.421	105015
592.443	105250
592.491	104724
592.495	104902
592.548	102790
592.562	101886
592.600	101640
592.633	100836
592.653	100905
592.704	99699
592.705	100241
592.775	98468
592.846	99498
592.916	98929
592.987	98727
593.058	98537
593.128	94563
593.199	92692
593.270	92370
593.341	92138
593.411	91120
593.482	93243
593.553	92345
593.623	90739
593.694	90992
593.764	94596
593.835	92460
593.906	88836
593.976	89182
594.047	90446
594.117	95626
594.188	100545
594.258	90724
594.329	87372
594.399	88449
594.470	88173
594.540	87290
594.611	89834
594.681	89607
594.751	88254
594.822	90302
594.892	93892
594.963	94617
595.033	93992
595.103	94828
595.174	97562
595.244	106704
595.314	128170
595.384	106402
595.455	96433
595.525	98721
595.595	99815
595.665	101183
595.736	100084
595.806	98219
595.876	99053
595.946	98259
596.016	100634
596.087	102813
596.157	103388
596.227	101477
596.297	105315
596.367	109829
596.437	115934
596.507	122764
596.577	138813
596.647	124311
596.717	118436
596.787	121227
596.857	117865
596.927	118749
596.997	119352
597.067	118106
597.137	120804
597.207	122053
597.277	122420
597.347	121127
597.417	117413
597.487	115970
597.557	120530
597.626	120589
597.696	123560
597.766	126916
597.836	136365
597.906	125158
597.975	110288
598.045	109610
598.115	111627
598.185	115604
598.254	125725
598.324	133895
598.394	138669
598.464	138000
598.533	134210
598.603	127476
598.672	124024
598.742	123700
598.812	125203
598.881	127448
598.951	126975
599.020	125151
599.090	127930
599.159	130941
599.229	127219
599.299	123399
599.368	125503
599.437	126765
599.507	119235
599.576	116426
599.646	112686
599.715	112601
599.785	112482
599.854	111845
599.924	111944
599.993	113146
600.062	109248
600.132	110076
600.201	113769
600.270	127007
600.340	135538
600.409	132245
600.478	132340
600.547	131089
600.617	131709
600.686	111705
600.755	100797
600.824	97500
600.894	95901
600.963	93183
601.032	91691
601.101	90032
601.170	88032
601.239	86481
601.308	86965
601.378	88106
601.447	86502
601.516	85999
601.585	88876
601.654	92839
601.723	91470
601.792	89524
601.861	91841
601.930	95103
601.999	99218
602.068	96860
602.137	98123
602.206	103564
602.275	99899
602.343	102258
602.412	105263
602.481	100027
602.550	98738
602.619	99756
602.688	102128
602.756	101791
602.825	100218
602.894	101779
602.963	103984
603.032	104941
603.100	106443
603.169	103000
603.238	104968
603.307	107385
603.375	105207
603.444	107622
603.513	108091
603.581	111154
603.650	112949
603.719	110305
603.787	108512
603.856	112318
603.924	115012
603.993	120237
604.061	120109
604.130	125484
604.198	127154
604.267	129864
604.335	131547
604.404	131422
604.472	135234
604.541	135826
604.609	136465
604.678	137949
604.746	137084
604.815	140437
604.883	144560
604.951	142751
605.020	143191
605.088	147120
605.156	146366
605.225	150475
605.293	150481
605.361	150282
605.429	151364
605.498	153448
605.566	158156
605.634	162285
605.702	169414
605.771	172648
605.839	174536
605.907	171339
605.975	166971
606.043	162320
606.111	160722
606.180	161338
606.248	158723
606.316	158091
606.384	161882
606.452	164866
606.520	169583
606.588	169355
606.656	164012
606.724	163417
606.792	154878
606.860	142291
606.928	128662
606.996	122856
607.064	118957
607.132	122442
607.200	125795
607.267	133231
607.335	134246
607.403	138166
607.471	136192
607.539	129771
607.607	132782
607.674	121364
607.742	117886
607.810	119396
607.878	119223
607.946	119212
608.013	122951
608.081	127556
608.149	130743
608.216	129757
608.284	133912
608.352	134518
608.419	137006
608.487	140891
608.555	138477
608.622	132785
608.690	135590
608.757	147227
608.825	156523
608.893	153390
608.960	153064
609.028	153766
609.095	151049
609.163	146773
609.230	132688
609.298	118717
609.365	120490
609.432	129085
609.500	137716
609.567	154260
609.635	172372
609.702	188861
609.769	186003
609.837	164436
609.904	136090
609.971	138764
610.039	155602
610.106	198504
610.173	337854
610.241	783087
610.308	1002911
610.375	530751
610.442	222040
610.509	152790
610.577	137930
610.644	134782
610.711	136087
610.778	138921
610.845	142012
610.912	150296
610.980	154722
611.047	155873
611.114	153496
611.181	150408
611.248	147476
611.315	151021
611.382	156486
611.449	161366
611.516	165767
611.583	164257
611.650	165457
611.717	167378
611.784	171010
611.851	180846
611.918	201460
611.984	231296
612.051	306732
612.118	543281
612.185	1342416
612.252	1677120
612.319	405513
612.386	234852
612.452	208536
612.519	195304
612.586	196695
612.653	196495
612.719	190166
612.786	188182
612.853	175025
612.919	164859
612.986	168511
613.053	161842
613.120	153934
613.186	144318
613.253	146346
613.319	146248
613.386	146391
613.453	149805
613.519	153483
613.586	156160
613.652	173949
613.719	166037
613.785	164819
613.852	153301
613.918	150191
613.985	149038
614.051	153474
614.118	157494
614.184	155617
614.250	146530
614.317	151863
614.383	148840
614.449	151860
614.516	152586
614.582	153016
614.648	150714
614.715	147195
614.781	147571
614.847	144922
614.914	148740
614.980	145238
615.046	144524
615.112	146411
615.179	151415
615.245	158990
615.311	169253
615.377	209207
615.443	264482
615.509	203482
615.575	172774
615.642	167334
615.708	168445
615.774	180404
615.840	198096
615.906	230387
615.972	296972
616.038	480771
616.104	854165
616.170	1603520
616.236	2416674
616.302	687921
616.368	323276
616.434	249312
616.500	205295
616.565	207626
616.631	250798
616.697	243279
616.763	220513
616.829	274419
616.895	478015
616.961	626696
617.026	342084
617.092	187497
617.158	162932
617.224	156315
617.289	148467
617.355	141409
617.421	137365
617.487	138050
617.552	131149
617.618	126443
617.684	127052
617.749	129897
617.815	124251
617.880	120235
617.946	119913
618.012	120759
618.077	124797
618.143	122405
618.208	116244
618.274	127228
618.339	134177
618.405	118210
618.470	109626
618.536	111659
618.601	111009
618.667	108970
618.732	100265
618.798	99160
618.863	98481
618.928	98008
618.994	99507
619.059	102387
619.124	114273
619.190	111459
619.255	97353
619.320	97360
619.386	98395
619.451	96647
619.516	94189
619.581	92685
619.647	96490
619.712	98242
619.777	93909
619.842	92921
619.907	97055
619.972	95831
620.038	97366
620.103	93149
620.168	92629
620.233	92854
620.298	91724
620.363	94322
620.428	95022
620.493	98659
620.558	98100
620.623	99557
620.688	99831
620.753	98260
620.818	99833
620.883	101069
620.948	102134
621.013	100023
621.078	100884
621.143	100046
621.207	102495
621.272	102784
621.337	105062
621.402	102635
621.467	107204
621.532	114823
621.596	107361
621.661	101465
621.726	95814
621.791	96920
621.855	99041
621.920	101456
621.985	100533
622.049	107534
622.114	107015
622.179	104723
622.243	104259
622.308	109543
622.373	109801
622.437	111493
622.502	105938
622.566	102351
622.631	103891
622.695	104705
622.760	105171
622.824	102953
622.889	104679
622.953	109368
623.018	120939
623.082	138806
623.147	112812
623.211	107908
623.276	107585
623.340	105309
623.404	99676
623.469	97780
623.533	99124
623.597	99331
623.662	96350
623.726	94203
623.790	87957
623.854	85533
623.919	88112
623.983	87915
624.047	89629
624.111	88702
624.176	90939
624.240	94327
624.304	102019
624.368	95290
624.432	89997
624.496	91836
624.560	96863
624.625	103574
624.689	97494
624.753	97874
624.817	98363
624.881	93758
624.945	87828
625.009	83590
625.073	85909
625.137	89884
625.201	98605
625.265	105596
625.329	91026
625.393	89587
625.456	92567
625.520	92929
625.584	97175
625.648	104545
625.712	118932
625.776	171950
625.839	222673
625.903	157872
625.967	86736
626.031	94900
626.095	142669
626.158	116104
626.222	75860
626.286	68323
626.349	66707
626.413	65608
626.477	63776
626.540	65115
626.604	62716
626.668	62662
626.731	60817
626.795	61995
626.858	63948
626.922	62822
626.986	61203
627.049	59713
627.113	61922
627.176	60912
627.240	60209
627.303	59527
627.366	59457
627.430	59798
627.493	60620
627.557	59381
627.620	59953
627.684	61319
627.747	62046
627.810	60159
627.874	56962
627.937	53457
628.000	54505
628.064	54869
628.127	51045
628.190	48694
628.253	49147
628.317	47636
628.380	46675
628.443	45604
628.506	47645
628.569	44036
628.632	42003
628.696	42122
628.759	42104
628.822	41540
628.885	41152
628.948	39789
629.011	39344
629.074	40896
629.137	39382
629.200	38379
629.263	40680
629.326	38884
629.389	38009
629.452	37506
629.515	38683
629.578	37134
629.641	39555
629.704	39512
629.767	39896
629.830	37100
629.892	35738
629.955	35020
630.018	37432
630.081	38130
630.144	44169
630.207	41546
630.269	39687
630.332	39604
630.395	38913
630.458	34579
630.520	34216
630.583	36488
630.646	32983
630.708	34481
630.771	34251
630.834	34669
630.896	34228
630.959	35256
631.021	34276
631.084	34838
631.146	35441
631.209	39022
631.272	35849
631.334	34961
631.397	34167
631.459	33765
631.522	35426
631.584	36777
631.646	37864
631.709	39508
631.771	43488
631.834	43125
631.896	37323
631.958	35014
632.021	34873
632.083	33850
632.145	34646
632.208	33231
632.270	34558
632.332	31818
632.395	32118
632.457	32915
632.519	32502
632.581	31743
632.643	31356
632.706	31529
632.768	32282
632.830	30727
632.892	31382
632.954	32333
633.016	32702
633.078	31367
633.141	31762
633.203	32436
633.265	31794
633.327	30725
633.389	31605
633.451	32556
633.513	37817
633.575	37967
633.637	36185
633.698	36691
633.760	33464
633.822	33854
633.884	33043
633.946	34296
634.008	34288
634.070	35478
634.132	35354
634.193	38056
634.255	39656
634.317	41960
634.379	41314
634.441	39122
634.502	36750
634.564	35407
634.626	31486
634.687	30962
634.749	31922
634.811	30497
634.873	28939
634.934	29625
634.996	29872
635.057	29713
635.119	29108
635.181	30626
635.242	30785
635.304	29781
635.365	31499
635.427	29754
635.488	29831
635.550	29639
635.611	29799
635.673	29771
635.734	32149
635.796	32037
635.857	34899
635.918	35474
635.980	37655
636.041	39907
636.102	41278
636.164	42126
636.225	40244
636.286	39246
636.348	35562
636.409	31583
636.470	30034
636.531	30245
636.593	30185
636.654	31334
636.715	27946
636.776	26698
636.838	25257
636.899	26307
636.960	26630
637.021	25527
637.082	24635
637.143	25307
637.204	24751
637.265	23230
637.326	24519
637.387	24729
637.448	24119
637.509	23914
637.570	23744
637.631	24251
637.692	23733
637.753	23950
637.814	23743
637.875	23826
637.936	23913
637.997	23099
638.058	23608
638.119	24504
638.179	22804
638.240	22942
638.301	23323
638.362	22651
638.423	22895
638.483	22816
638.544	22479
638.605	22082
638.666	21189
638.726	21719
638.787	22440
638.848	22438
638.908	21746
638.969	21487
639.030	21378
639.090	21021
639.151	20893
639.211	22220
639.272	24970
639.332	34321
639.393	32509
639.453	22716
639.514	24544
639.574	22003
639.635	20462
639.695	20300
639.756	21500
639.816	20968
639.877	22145
639.937	28140
639.997	39068
640.058	27783
640.118	21033
640.178	20336
640.239	20432
640.299	19620
640.359	19255
640.420	19302
640.480	21257
640.540	21973
640.600	25050
640.661	23897
640.721	21700
640.781	24901
640.841	23434
640.901	20997
640.961	20469
641.021	20961
641.082	22660
641.142	26725
641.202	25724
641.262	18273
641.322	19911
641.382	18317
641.442	19130
641.502	18205
641.562	19090
641.622	18866
641.682	19390
641.742	21349
641.802	22856
641.861	20387
641.921	19837
641.981	20819
642.041	20614
642.101	22348
642.161	23114
642.221	18102
642.280	17855
642.340	17432
642.400	18196
642.460	18161
642.519	17628
642.579	18398
642.639	18923
642.698	16794
642.758	20030
642.818	17941
642.877	19194
642.937	19479
642.997	20916
643.056	24966
643.116	24467
643.175	20382
643.235	19759
643.294	20654
643.354	21104
643.414	23306
643.473	26154
643.532	32931
643.592	43380
643.651	63335
643.711	103019
643.770	179317
643.830	358525
643.889	1046917
643.948	718533
644.008	89293
644.067	41273
644.126	30657
644.186	25657
644.245	22996
644.304	20022
644.363	20991
644.423	20335
644.482	19517
644.541	19414
644.600	20272
644.659	24263
644.719	27170
644.778	39431
644.837	57820
644.896	98539
644.955	251384
645.014	232277
645.073	38804
645.132	24573
645.191	22775
645.250	21295
645.309	21113
645.368	21775
645.427	24939
645.486	31851
645.545	63304
645.604	43388
645.663	19865
645.722	20018
645.781	22150
645.840	24668
645.898	28844
645.957	39389
646.016	57495
646.075	94306
646.134	166926
646.192	351874
646.251	940542
646.310	381670
646.369	55328
646.427	33446
646.486	29007
646.545	21998
646.603	20307
646.662	18609
646.721	18089
646.779	17811
646.838	18752
646.896	22140
646.955	25947
647.014	37069
647.072	59217
647.131	140444
647.189	187579
647.248	33656
647.306	18110
647.365	17131
647.423	15420
647.481	15692
647.540	13625
647.598	15229
647.657	14527
647.715	14617
647.773	14198
647.832	14171
647.890	12832
647.948	13201
648.007	14610
648.065	12561
648.123	12634
648.181	14244
648.240	12867
648.298	12064
648.356	13296
648.414	13380
648.472	13335
648.531	13680
648.589	13585
648.647	12375
648.705	13321
648.763	13547
648.821	14255
648.879	15384
648.937	16150
648.995	19215
649.053	22686
649.111	31633
649.169	46856
649.227	76618
649.285	136428
649.343	366188
649.401	499594
649.459	86835
649.516	49733
649.574	22463
649.632	21163
649.690	20732
649.748	23188
649.806	29457
649.863	44352
649.921	93165
649.979	154448
650.037	35107
650.094	14637
650.152	14464
650.210	13270
650.268	13171
650.325	11931
650.383	12294
650.440	11114
650.498	11531
650.556	11776
650.613	10925
650.671	11115
650.728	11320
650.786	12858
650.843	12660
650.901	13277
650.958	11806
651.016	9604
651.073	11051
651.131	9933
651.188	9802
651.246	11340
651.303	10074
651.360	11243
651.418	9639
651.475	10738
651.532	8811
651.590	9416
651.647	9295
651.704	10168
651.762	9813
651.819	9709
651.876	9302
651.933	10389
651.990	9719
652.048	9706
652.105	8736
652.162	9540
652.219	8975
652.276	9493
652.333	9643
652.390	8730
652.448	9149
652.505	9288
652.562	9216
652.619	9408
652.676	9760
652.733	10687
652.790	9611
652.847	8154
652.904	9194
652.961	8052
653.017	9452
653.074	9325
653.131	9109
653.188	9143
653.245	8453
653.302	8901
653.359	9074
653.415	9394
653.472	9174
653.529	9080
653.586	9542
653.642	8216
653.699	9283
653.756	8086
653.813	8389
653.869	9016
653.926	8857
653.983	8428
654.039	8458
654.096	8473
654.152	9714
654.209	7826
654.266	8965
654.322	8700
654.379	10238
654.435	10720
654.492	10423
654.548	11395
654.605	17334
654.661	16556
654.717	9228
654.774	9483
654.830	9729
654.887	10031
654.943	8912
655.000	9607
655.056	9546
655.112	10220
655.168	8748
655.225	9890
655.281	10263
655.337	10643
655.394	16169
655.450	15879
655.506	12131
655.562	14707
655.618	19189
655.675	9956
655.731	9884
655.787	8334
655.843	9275
655.899	8304
655.955	8138
656.011	8592
656.067	7150
656.123	8980
656.179	8266
656.235	9417
656.291	7850
656.347	8765
656.403	7934
656.459	8819
656.515	9760
656.571	10854
656.627	9656
656.683	9009
656.739	10141
656.795	8305
656.850	9233
656.906	10062
656.962	10856
657.018	9564
657.074	9796
657.129	11077
657.185	12159
657.241	16896
657.297	23045
657.352	11367
657.408	8843
657.464	10274
657.519	9407
657.575	7524
657.630	8592
657.686	8320
657.742	8136
657.797	8723
657.853	8802
657.908	9844
657.964	8962
658.019	8200
658.075	8783
658.130	8256
658.186	7010
658.241	8212
658.297	8109
658.352	8048
658.407	8384
658.463	7467
658.518	7575
658.573	8129
658.629	8170
658.684	7408
658.739	8481
658.795	7518
658.850	7461
658.905	7202
658.960	8405
659.016	7840
659.071	8509
659.126	8483
659.181	8344
659.236	11205
659.291	14922
659.346	10747
659.401	9347
659.457	7968
659.512	8266
659.567	8585
659.622	8725
659.677	7929
659.732	8226
659.787	8122
659.842	8312
659.897	10552
659.952	9037
660.007	7763
660.061	7198
660.116	7646
660.171	7510
660.226	7920
660.281	8178
660.336	7233
660.391	8005
660.445	7799
660.500	7594
660.555	8032
660.610	7207
660.664	8549
660.719	7120
660.774	8213
660.828	7738
660.883	7546
660.938	8132
660.992	7780
661.047	8432
661.101	8255
661.156	7090
661.211	7390
661.265	6599
661.320	7292
661.374	7036
661.429	7829
661.483	8337
661.538	7296
661.592	7142
661.647	7466
661.701	8228
661.755	7838
661.810	8761
661.864	7814
661.919	7643
661.973	7453
662.027	8560
662.081	7553
662.136	6702
662.190	8047
662.244	8707
662.299	8418
662.353	8051
662.407	7121
662.461	8069
662.515	8611
662.569	7841
662.624	8461
662.678	7724
662.732	7429
662.786	7672
662.840	8352
662.894	8317
662.948	7785
663.002	7254
663.056	7825
663.110	6878
663.164	7669
663.218	7979
663.272	8049
663.326	7968
663.380	8394
663.434	8581
663.488	7675
663.542	8839
663.595	8315
663.649	7884
663.703	8707
663.757	7185
663.811	7093
663.864	7392
663.918	7953
663.972	8316
664.026	8361
664.079	7721
664.133	7908
664.187	8027
664.240	6987
664.294	7552
664.348	7526
664.401	7953
664.455	7516
664.508	6452
664.562	7604
664.615	8203
664.669	6594
664.722	7436
664.776	7227
664.829	7840
664.883	7611
664.936	7017
664.990	8538
665.043	7844
665.097	8527
665.150	9404
665.203	8260
665.257	8703
665.310	8471
665.363	8467
665.417	8725
665.470	8565
665.523	8104
665.576	8819
665.630	8365
665.683	8121
665.736	8150
665.789	8878
665.842	8063
665.895	7843
665.949	8929
666.002	8683
666.055	8708
666.108	8597
666.161	8947
666.214	9074
666.267	8867
666.320	9171
666.373	10173
666.426	8529
666.479	8308
666.532	8996
666.585	8967
666.638	10095
666.691	10020
666.744	10039
666.796	9529
666.849	9588
666.902	9142
666.955	8450
667.008	8233
667.060	7534
667.113	7624
667.166	8017
667.219	8196
667.271	7727
667.324	8545
667.377	8655
667.430	8763
667.482	8281
667.535	8612
667.587	8507
667.640	8660
667.693	9966
667.745	12493
667.798	16296
667.850	11259
667.903	9693
667.955	8687
668.008	7483
668.060	9024
668.113	10490
668.165	9786
668.218	9455
668.270	9027
668.322	9095
668.375	8687
668.427	8944
668.479	7707
668.532	9058
668.584	8561
668.636	9023
668.689	8764
668.741	8015
668.793	9010
668.845	8897
668.898	9645
668.950	8859
669.002	8336
669.054	9569
669.106	8668
669.158	9659
669.211	8790
669.263	8450
669.315	9918
669.367	9230
669.419	8890
669.471	10534
669.523	11601
669.575	12162
669.627	12763
669.679	11500
669.731	9650
669.783	10983
669.835	11185
669.886	11977
669.938	11622
669.990	11050
670.042	11845
670.094	12644
670.146	14142
670.197	15753
670.249	19390
670.301	23970
670.353	31314
670.404	42457
670.456	60942
670.508	87823
670.560	132609
670.611	200121
670.663	316200
670.715	574457
670.766	1135534
670.818	1023206
670.869	287887
670.921	84319
670.972	50654
671.024	35910
671.075	26708
671.127	22646
671.178	19079
671.230	16011
671.281	16669
671.333	14997
671.384	14129
671.436	15353
671.487	17332
671.538	19002
671.590	21329
671.641	28454
671.692	41233
671.744	72526
671.795	93838
671.846	44777
671.897	21574
671.949	16525
672.000	13251
672.051	12134
672.102	11313
672.153	9526
672.204	10580
672.256	10743
672.307	9840
672.358	10202
672.409	9634
672.460	8997
672.511	8889
672.562	8357
672.613	8082
672.664	8788
672.715	9183
672.766	9063
672.817	8442
672.868	8238
672.919	8153
672.970	8385
673.021	8255
673.071	7350
673.122	7857
673.173	7859
673.224	7727
673.275	8258
673.326	8011
673.376	7585
673.427	6825
673.478	7281
673.528	7802
673.579	7996
673.630	7776
673.680	7988
673.731	7830
673.782	7044
673.832	7405
673.883	8292
673.934	8335
673.984	7214
674.035	7513
674.085	7378
674.136	7976
674.186	8130
674.237	8295
674.287	10883
674.338	10862
674.388	8212
674.438	7365
674.489	7569
674.539	7560
674.589	8751
674.640	8132
674.690	8302
674.740	7512
674.791	8067
674.841	8563
674.891	8843
674.942	7684
674.992	7465
675.042	6926
675.092	7014
675.142	7136
675.193	7250
675.243	7227
675.293	6812
675.343	6940
675.393	7588
675.443	8077
675.493	7770
675.543	6557
675.593	7248
675.643	7837
675.693	7285
675.743	6972
675.793	7479
675.843	6174
675.893	6972
675.943	6648
675.993	7036
676.043	6454
676.093	7001
676.142	5564
676.192	6569
676.242	7244
676.292	6367
676.341	7032
676.391	7119
676.441	6031
676.491	5736
676.540	5850
676.590	6113
676.640	5572
676.689	6390
676.739	6870
676.789	6379
676.838	5607
676.888	6103
676.937	6164
676.987	6269
677.037	5496
677.086	5297
677.136	5839
677.185	5376
677.235	5501
677.284	5228
677.333	6694
677.383	5362
677.432	5800
677.482	5868
677.531	6247
677.580	5691
677.630	6612
677.679	5463
677.728	5331
677.778	5971
677.827	5142
677.876	6268
677.925	5258
677.975	4746
678.024	5530
678.073	6259
678.122	5968
678.171	6096
678.220	6147
678.269	5887
678.319	7023
678.368	6804
678.417	6055
678.466	7600
678.515	6869
678.564	6537
678.613	6698
678.662	5300
678.711	5417
678.760	5903
678.809	6301
678.857	6214
678.906	6078
678.955	5428
679.004	6730
679.053	6243
679.102	5967
679.151	5398
679.199	6039
679.248	6343
679.297	6085
679.346	5618
679.394	5610
679.443	6246
679.492	6191
679.540	5720
679.589	6152
679.638	5683
679.686	6101
679.735	4802
679.784	5643
679.832	6534
679.881	6208
679.929	5420
679.978	5430
680.026	4888
680.075	5425
680.123	5222
680.172	5514
680.220	4635
680.268	4943
680.317	5667
680.365	5280
680.414	4818
680.462	5414
680.510	5554
680.559	5178
680.607	4527
680.655	4919
680.703	5383
680.752	6074
680.800	4983
680.848	4715
680.896	5226
680.945	4953
680.993	4596
681.041	5229
681.089	5035
681.137	5278
681.185	4865
681.233	4197
681.258	4473
681.281	4715
681.329	4988
681.377	4228
681.380	4271
681.425	4713
681.473	5626
681.502	5240
681.521	4939
681.569	5670
681.617	5530
681.624	5606
681.665	5960
681.713	6101
681.745	5607
681.761	5336
681.809	4566
681.857	5214
681.867	5299
681.904	5537
681.952	6312
681.989	5633
682.000	5402
682.048	5339
682.096	5152
682.111	5192
682.143	5200
682.191	5900
682.233	5447
682.239	5360
682.286	5792
682.334	4828
682.354	5155
682.382	5580
682.430	5444
682.476	5689
682.477	5675
682.525	5737
682.572	6564
682.598	6312
682.620	6079
682.667	5536
682.715	5769
682.720	5858
682.763	6516
682.810	5878
682.841	6072
682.857	6138
682.905	6039
682.952	5669
682.963	5839
683.000	6334
683.047	5379
683.085	6249
683.095	6478
683.142	6557
683.190	5873
683.206	5840
683.237	5716
683.284	6138
683.328	5979
683.332	5954
683.379	6412
683.426	6175
683.449	6321
683.473	6411
683.521	6271
683.568	6108
683.571	6152
683.615	6528
683.662	6165
683.693	6476
683.709	6633
683.757	6467
683.804	6257
683.814	6249
683.851	6125
683.898	6711
683.936	6399
683.945	6306
683.992	6099
684.039	6925
684.057	6760
684.086	6577
684.133	7559
684.179	7022
684.180	6983
684.227	7346
684.274	7111
684.300	7087
684.321	7070
684.368	6221
684.415	6600
684.422	6591
684.462	6443
684.509	7335
684.543	6729
684.556	6515
684.603	6315
684.649	6887
684.665	6912
684.696	6889
684.743	6439
684.786	7238
684.790	7301
684.837	6960
684.883	7881
684.908	8107
684.930	8308
684.977	7825
685.023	8334
685.029	8308
685.070	7817
685.117	7948
685.150	7448
685.164	7318
685.210	7829
685.257	8759
685.272	8864
685.303	8934
685.350	8001
685.393	8674
685.396	8725
685.443	8858
685.490	8664
685.514	8670
685.536	8683
685.583	8854
685.629	9083
685.636	9050
685.675	8643
685.722	8445
685.757	8300
685.768	8275
685.815	8929
685.861	8110
685.878	8248
685.908	8452
685.954	8497
686.000	9181
686.000	9190
686.047	8986
686.093	9623
686.121	10231
686.139	10573
686.185	9487
686.232	9635
686.242	9725
686.278	9681
686.324	9643
686.363	8670
686.370	8530
686.416	8002
686.463	8514
686.484	8564
686.509	8727
686.555	8503
686.601	8986
686.606	9057
686.647	9486
686.693	9120
686.727	8707
686.739	8597
686.785	8653
686.831	9318
686.848	9158
686.877	8692
686.923	8534
686.969	8097
686.969	8095
687.015	8603
687.061	9054
687.090	8999
687.107	8988
687.153	9401
687.199	9362
687.211	9243
687.245	8832
687.291	8592
687.332	8708
687.336	8742
687.382	9465
687.428	9432
687.453	9532
687.474	9451
687.520	9039
687.565	9255
687.574	9130
687.611	8761
687.657	9003
687.695	9264
687.702	9355
687.748	9639
687.794	9652
687.816	10004
687.839	10174
687.885	9300
687.931	9159
687.937	9187
687.976	9448
688.022	9083
688.058	9482
688.067	9603
688.113	9389
688.158	9838
688.179	9697
688.204	9455
688.249	9512
688.295	9618
688.300	9614
688.340	9879
688.386	9856
688.421	10106
688.431	10128
688.477	10097
688.522	9977
688.542	9952
688.567	9939
688.613	10125
688.658	9935
688.663	9952
688.703	10199
688.749	10008
688.784	10355
688.794	10465
688.839	10206
688.884	10623
688.905	10590
688.930	10435
688.975	9794
689.020	9748
689.026	9710
689.065	9677
689.110	10027
689.146	10018
689.155	10025
689.201	10113
689.246	10269
689.267	10290
689.291	10319
689.336	10130
689.381	10048
689.388	10056
689.426	10279
689.471	10534
689.509	10781
689.516	10798
689.561	10489
689.606	10258
689.630	10272
689.651	10418
689.696	10505
689.741	10707
689.750	10801
689.785	11023
689.830	10404
689.871	10706
689.875	10740
689.920	10612
689.965	10467
689.992	10120
690.010	9936
690.054	9881
690.099	10017
690.112	10019
690.144	10207
690.189	10703
690.233	10750
690.233	10761
690.278	10308
690.323	10812
690.354	10664
690.367	10592
690.412	10490
690.457	11002
690.474	10926
690.501	10815
690.546	10701
690.590	10611
690.595	10591
690.635	10551
690.680	10570
690.716	10181
690.724	10116
690.769	10608
690.813	10655
690.836	10354
690.857	10145
690.902	10644
690.946	10536
690.957	10501
690.991	10453
691.035	10987
691.077	11292
691.080	11339
691.124	11513
691.168	11754
691.198	11911
691.213	11805
691.257	12075
691.301	11370
691.318	11369
691.346	11599
691.390	11606
691.434	11670
691.439	11651
691.478	11302
691.522	11466
691.559	11076
691.567	11127
691.611	11396
691.655	11683
691.680	11899
691.699	11876
691.743	11823
691.787	11742
691.800	11547
691.831	11439
691.875	12055
691.919	12327
691.921	12308
691.964	12220
692.008	12633
692.041	12624
692.052	12625
692.096	12762
692.139	13028
692.162	12981
692.183	12779
692.227	12122
692.271	11863
692.282	11848
692.315	12321
692.359	12478
692.402	12874
692.403	12894
692.447	12290
692.490	11897
692.523	12023
692.534	12282
692.578	12824
692.622	13108
692.643	13165
692.666	12891
692.709	12815
692.753	12447
692.763	12333
692.797	12310
692.840	12237
692.884	12526
692.884	12548
692.928	12337
692.971	12060
693.004	11929
693.015	12010
693.059	11983
693.102	12057
693.124	12049
693.146	11966
693.189	11694
693.233	12228
693.245	12179
693.276	12439
693.320	12719
693.363	12622
693.365	12616
693.407	12921
693.450	13025
693.485	13162
693.493	13201
693.537	13137
693.580	12753
693.605	12977
693.624	13235
693.667	13176
693.710	13115
693.725	13211
693.753	13523
693.797	13785
693.840	13946
693.845	13907
693.883	13766
693.926	14054
693.966	14071
693.970	14062
694.013	13879
694.056	13266
694.086	12992
694.099	12959
694.142	12768
694.185	12688
694.206	12572
694.229	12616
694.272	12835
694.315	12817
694.326	12784
694.358	13039
694.401	13412
694.444	13878
694.446	13871
694.487	14073
694.530	14165
694.566	14162
694.573	14125
694.616	13824
694.659	13386
694.686	13303
694.702	13336
694.745	12959
694.787	12837
694.806	12715
694.830	12725
694.873	12830
694.916	12840
694.926	12769
694.959	12657
695.002	12611
695.044	12700
695.046	12669
695.087	12798
695.130	13107
695.166	13291
695.172	13364
695.215	13489
695.258	13722
695.286	13815
695.301	13859
695.343	13971
695.386	14092
695.406	14148
695.428	14092
695.471	13715
695.514	13480
695.526	13361
695.556	13510
695.599	13927
695.641	14044
695.646	14040
695.684	14028
695.726	13846
695.766	13807
695.769	13852
695.811	13952
695.854	14168
695.886	14246
695.896	14261
695.938	14003
695.981	14033
696.005	14035
696.023	14100
696.065	13928
696.108	14018
696.125	13937
696.150	14110
696.192	14476
696.235	14768
696.245	14783
696.277	14638
696.319	14617
696.361	14478
696.365	14434
696.404	14656
696.446	14895
696.485	15150
696.488	15186
696.530	14980
696.572	14977
696.604	14790
696.614	14817
696.656	15001
696.698	15063
696.724	15062
696.740	14976
696.783	14724
696.825	14348
696.844	14215
696.867	14367
696.909	14566
696.951	14610
696.964	14628
696.992	14763
697.034	14877
697.076	14990
697.083	14981
697.118	15087
697.160	15106
697.202	15120
697.203	15086
697.244	15004
697.286	14801
697.323	14499
697.327	14548
697.369	14859
697.411	14946
697.442	15205
697.453	15313
697.494	15333
697.536	15497
697.562	15519
697.578	15492
697.620	15315
697.661	15212
697.682	15093
697.703	15294
697.744	15642
697.786	16068
697.801	16128
697.828	16374
697.869	16817
697.911	17119
697.921	17183
697.952	16855
697.994	16354
698.035	15787
698.040	15683
698.077	15776
698.118	15846
698.160	15930
698.160	15893
698.201	15601
698.243	15363
698.279	15096
698.284	15157
698.325	15375
698.367	15616
698.399	15733
698.408	15803
698.449	15942
698.491	16116
698.518	16203
698.532	16276
698.573	16348
698.614	16397
698.638	16409
698.656	16575
698.697	16847
698.738	17119
698.757	17201
698.779	17186
698.820	17083
698.862	16986
698.877	16902
698.903	17021
698.944	17159
698.985	17285
698.996	17281
699.026	17348
699.067	17373
699.116	17362
699.235	17137
699.354	17059
699.474	16201
699.593	16725
699.713	17914
699.832	16905
699.951	16873
700.070	17363
700.190	16565
700.309	16291
700.428	15827
700.547	15698
700.667	16001
700.786	16767
700.905	16337
701.024	16621
701.143	17086
701.262	14732
701.381	15388
701.500	15546
701.619	16018
701.738	16362
701.857	14927
701.976	14254
702.095	14061
702.214	15875
702.333	16767
702.452	15207
702.571	15240
702.690	16096
702.809	15094
702.928	15037
703.047	14370
703.165	14294
703.284	14918
703.403	15185
703.522	14469
703.640	16131
703.759	15845
703.878	18804
703.997	16835
704.115	14341
704.234	13960
704.353	13113
704.471	13829
704.590	14169
704.708	14331
704.827	13649
704.946	13969
705.064	14665
705.183	13693
705.301	14890
705.420	19733
705.538	21252
705.656	17754
705.775	15069
705.893	16915
706.012	19394
706.130	17739
706.249	18098
706.367	17236
706.485	17800
706.604	17856
706.722	17687
706.840	18708
706.958	20295
707.077	18356
707.195	17094
707.313	16936
707.431	15371
707.549	16394
707.668	16929
707.786	15600
707.904	16374
708.022	16008
708.140	16666
708.258	15908
708.376	15899
708.494	15787
708.612	15295
708.730	20206
708.848	23686
708.966	20536
709.084	20962
709.202	18394
709.320	19170
709.438	19088
709.556	20296
709.674	19341
709.791	19689
709.909	18299
710.027	18426
710.145	18506
710.263	19358
710.380	18687
710.498	19549
710.616	17785
710.733	17523
710.851	17734
710.969	18848
711.086	18337
711.204	18528
711.322	17605
711.439	18504
711.557	17843
711.674	17579
711.792	17252
711.909	17121
712.027	15968
712.144	17337
712.262	16747
712.379	18544
712.497	22217
712.614	27428
712.732	22921
712.849	20740
712.966	20779
713.084	23764
713.201	23489
713.318	22257
713.436	22937
713.553	22656
713.670	21834
713.787	23177
713.905	24327
714.022	21738
714.139	20235
714.256	23575
714.373	26578
714.490	36625
714.608	61397
714.725	211160
714.842	554362
714.959	97973
715.076	26928
715.193	22810
715.310	22329
715.427	19574
715.544	19235
715.661	19602
715.778	18941
715.895	20885
716.011	20285
716.128	20096
716.245	19231
716.362	19543
716.479	21243
716.596	19117
716.713	18620
716.829	17959
716.946	18306
717.063	18097
717.180	17292
717.296	17867
717.413	16469
717.530	17147
717.646	17588
717.763	16629
717.880	16442
717.996	16479
718.113	16053
718.229	15710
718.346	16275
718.462	16023
718.579	16725
718.695	20482
718.812	23914
718.928	18757
719.045	18507
719.161	15821
719.277	15633
719.394	15051
719.510	15011
719.626	15924
719.743	18975
719.859	21958
719.975	28456
720.092	66390
720.208	236611
720.324	107635
720.440	20313
720.557	17506
720.673	20292
720.789	24847
720.905	37128
721.021	36865
721.137	15831
721.253	15944
721.369	15295
721.486	15977
721.602	18401
721.718	17228
721.834	13864
721.950	14245
722.066	14268
722.181	13674
722.297	14162
722.413	14198
722.529	12832
722.645	14322
722.761	13447
722.877	13228
722.993	13439
723.108	14186
723.224	13041
723.340	13763
723.456	12432
723.571	12472
723.687	12766
723.803	12503
723.918	12280
724.034	12077
724.150	12661
724.265	12830
724.381	16221
724.497	28253
724.612	14904
724.728	12483
724.843	12429
724.959	13393
725.074	16124
725.190	26779
725.305	13895
725.421	12733
725.536	11327
725.651	11482
725.767	11409
725.882	11425
725.997	11186
726.113	10088
726.228	10945
726.343	10904
726.459	9846
726.574	10550
726.689	11050
726.804	10779
726.920	10860
727.035	11267
727.150	10940
727.265	10767
727.380	11038
727.495	10602
727.610	10077
727.725	10539
727.841	10420
727.956	10076
728.071	10688
728.186	11132
728.301	10282
728.416	10351
728.531	11256
728.645	10124
728.760	9222
728.875	11077
728.990	10140
729.105	9750
729.220	10180
729.335	10912
729.449	9824
729.564	9298
729.679	8529
729.794	9702
729.908	9559
730.023	10327
730.138	9522
730.253	9142
730.367	9378
730.482	8986
730.596	9037
730.711	10501
730.826	10328
730.940	9878
731.055	9802
731.169	10237
731.284	9773
731.398	8724
731.513	10306
731.627	9893
731.742	10807
731.856	13135
731.970	11446
732.085	12435
732.199	14391
732.313	18025
732.428	33135
732.542	97521
732.656	137800
732.771	28422
732.885	14217
732.999	12633
733.113	13741
733.227	12940
733.342	11700
733.456	12096
733.570	10845
733.684	10366
733.798	11363
733.912	11043
734.026	9911
734.140	10133
734.254	10689
734.368	13438
734.482	19197
734.596	11551
734.710	10396
734.824	10346
734.938	9676
735.052	10391
735.166	11013
735.280	11066
735.393	10440
735.507	10874
735.621	11233
735.735	14308
735.849	13663
735.962	9762
736.076	9351
736.190	10965
736.303	10579
736.417	14417
736.531	10521
736.644	9995
736.758	9418
736.872	8766
736.985	8192
737.099	9259
737.212	8308
737.326	9102
737.439	9245
737.553	9868
737.666	9495
737.780	8853
737.893	9241
738.007	8782
738.120	8725
738.233	8625
738.347	8041
738.460	8136
738.573	8547
738.687	9123
738.800	8583
738.913	9535
739.026	10396
739.140	8941
739.253	7713
739.366	8948
739.479	8199
739.592	8252
739.705	8388
739.818	7253
739.932	8006
740.045	8531
740.158	8711
740.271	8503
740.384	8805
740.497	7850
740.610	8708
740.723	7857
740.836	8533
740.949	10046
741.062	8600
741.174	10141
741.287	7217
741.400	8213
741.513	7423
741.626	7797
741.739	8536
741.851	7701
741.964	7770
742.077	7966
742.189	7118
742.302	8099
742.415	8074
742.527	8726
742.640	7616
742.753	7534
742.865	7556
742.978	7486
743.090	7143
743.203	7289
743.316	7059
743.428	7643
743.541	6915
743.653	6739
743.766	6655
743.878	7444
743.990	7080
744.103	9143
744.215	7067
744.327	6549
744.440	7601
744.552	8733
744.664	9121
744.777	7362
744.889	7020
745.001	6581
745.113	6601
745.226	7123
745.338	6368
745.450	6621
745.562	6891
745.674	6262
745.786	7205
745.898	6469
746.010	6276
746.122	7725
746.234	6828
746.347	6524
746.459	6325
746.570	6801
746.682	5675
746.794	6634
746.906	6956
747.018	6049
747.130	6092
747.242	6892
747.354	6157
747.466	7041
747.577	5247
747.689	5598
747.801	6293
747.913	5955
748.024	6140
748.136	5845
748.248	5600
748.359	6753
748.471	5548
748.583	5789
748.694	4921
748.806	7297
748.918	6694
749.029	7624
749.141	6413
749.252	6140
749.364	6179
749.475	8797
749.587	9090
749.698	7467
749.809	5152
749.921	5428
750.032	5697
750.144	5092
750.255	4674
750.366	5163
750.478	5538
750.589	6111
750.700	5679
750.811	6200
750.923	5771
751.034	8568
751.145	13518
751.256	7686
751.367	5949
751.479	5850
751.590	5238
751.701	5441
751.812	4755
751.923	4863
752.034	6028
752.145	5779
752.256	5153
752.367	5671
752.478	5592
752.589	5541
752.700	5156
752.811	5077
752.922	4926
753.032	5190
753.143	6948
753.254	5451
753.365	5818
753.476	6152
753.586	5084
753.697	5362
753.808	4781
753.919	5581
754.029	5612
754.140	5127
754.251	4647
754.361	5280
754.472	5697
754.582	4575
754.693	4730
754.804	4966
754.914	4473
755.025	5625
755.135	4327
755.246	4774
755.356	5203
755.466	4347
755.577	4355
755.687	5210
755.798	5202
755.908	4749
756.018	4675
756.129	4973
756.239	4169
756.349	4914
756.460	4730
756.570	5429
756.680	4790
756.790	5045
756.900	4504
757.011	4419
757.121	4396
757.231	4696
757.341	4378
757.451	4352
757.561	4207
757.671	4194
757.781	4956
757.891	5361
758.001	4279
758.111	4748
758.221	4395
758.331	4655
758.441	5735
758.551	6526
758.661	6548
758.771	5626
758.880	4911
758.990	5317
759.100	4876
759.210	5338
759.320	4517
759.429	5546
759.539	5145
759.649	4833
759.758	6137
759.868	5881
759.978	5789
760.087	6193
760.197	6068
760.307	5945
760.416	4983
760.526	5193
760.635	5256
760.745	5523
760.854	5037
760.964	6522
761.073	6043
761.182	5488
761.292	6029
761.401	6330
761.511	5494
761.620	5238
761.729	4772
761.839	4915
761.948	5355
762.057	4805
762.166	4857
762.276	3997
762.385	4672
762.494	4613
762.603	4799
762.712	5303
762.822	5712
762.931	4914
763.040	5201
763.149	4729
763.258	4218
763.367	4863
763.476	4720
763.585	5882
763.694	5127
763.803	5914
763.912	5516
764.021	5412
764.130	4704
764.238	5628
764.347	5239
764.456	5388
764.565	5428
764.674	5601
764.783	5671
764.891	5325
765.000	5472
765.109	5256
765.217	5421
765.326	6166
765.435	7022
765.543	7126
765.652	7054
765.761	7317
765.869	8661
765.978	12841
766.086	18232
766.195	39413
766.303	91902
766.412	317924
766.520	595130
766.629	137913
766.737	27567
766.846	17369
766.954	12240
767.062	11359
767.171	8475
767.279	8862
767.387	7247
767.496	6928
767.604	6450
767.712	5313
767.820	5914
767.928	6452
768.037	5526
768.145	6542
768.253	5899
768.361	5956
768.469	5985
768.577	5895
768.685	5977
768.793	5789
768.901	6125
769.009	6258
769.117	6207
769.225	6876
769.333	8559
769.441	11099
769.549	18852
769.657	37359
769.765	108716
769.873	393032
769.981	259382
770.088	29917
770.196	13216
770.304	9743
770.412	8223
770.519	8097
770.627	7441
770.735	6423
770.842	6065
770.950	6883
771.058	6131
771.165	5995
771.273	5600
771.380	7134
771.488	6256
771.595	7452
771.703	6365
771.810	7429
771.918	6186
772.025	6845
772.133	7525
772.240	7697
772.348	7535
772.455	7656
772.562	6562
772.670	7476
772.777	7284
772.884	6844
772.991	6968
773.099	6719
773.206	7152
773.313	7163
773.420	6990
773.528	7181
773.635	6489
773.742	7366
773.849	6651
773.956	6431
774.063	6627
774.170	6382
774.277	6232
774.384	6237
774.491	6278
774.598	6934
774.705	7098
774.812	7032
774.919	7087
775.026	7242
775.133	6686
775.239	6495
775.346	5854
775.453	6288
775.560	5606
775.667	5594
775.773	6855
775.880	7320
775.987	6614
776.093	6507
776.200	6668
776.307	6575
776.413	6437
776.520	6002
776.627	7019
776.733	5749
776.840	5326
776.946	7321
777.053	5963
777.159	7015
777.266	5537
777.372	6119
777.478	6018
777.585	6723
777.691	6250
777.798	6085
777.904	6931
778.010	6187
778.117	7431
778.223	6715
778.329	6842
778.435	5845
778.542	6214
778.648	5642
778.754	5086
778.860	4575
778.966	5694
779.072	5377
779.178	5678
779.284	5981
779.391	5010
779.497	5724
779.603	7000
779.708	5195
779.815	5727
779.920	6179
780.026	9711
780.132	8832
780.238	4786
780.344	5060
780.450	6238
780.556	5277
780.661	4431
780.767	5639
780.873	4939
780.979	5241
781.085	5003
781.190	5730
781.296	5170
781.402	4876
781.507	4327
781.613	4690
781.719	3687
781.824	6081
781.930	5279
782.035	5440
782.141	4517
782.246	4726
782.352	4454
782.457	4934
782.563	4159
782.668	5890
782.773	4404
782.879	4528
782.984	4791
783.090	5926
783.195	5414
783.300	7375
783.405	5146
783.511	4484
783.616	4999
783.721	4990
783.826	4575
783.932	5033
784.037	4733
784.142	5069
784.247	5445
784.352	4074
784.457	4200
784.562	4398
784.667	4572
784.772	4322
784.877	3281
784.982	4295
785.087	4632
785.192	4812
785.297	4233
785.402	3977
785.507	5232
785.611	4623
785.716	3910
785.821	4259
785.926	3938
786.031	4463
786.135	3405
786.240	4953
786.345	3083
786.450	3665
786.554	4494
786.659	4216
786.763	3427
786.868	3948
786.973	4130
787.077	3345
787.182	3907
787.286	4168
787.391	3854
787.495	3830
787.600	3990
787.704	4376
787.809	3534
787.913	3793
788.017	3899
788.122	3508
788.226	3109
788.330	2788
788.435	3542
788.539	4666
788.643	3680
788.747	3631
788.852	3525
788.956	3612
789.060	2804
789.164	3593
789.268	3584
789.372	3725
789.476	3097
789.580	3487
789.684	2735
789.788	4054
789.892	3198
789.996	3633
790.100	2594
790.204	3866
790.308	4143
790.412	3551
790.516	3042
790.620	3466
790.724	3184
790.828	3816
790.931	3046
791.035	3332
791.139	3405
791.242	3603
791.346	3695
791.450	3769
791.554	3478
791.657	3272
791.761	3580
791.864	3554
791.968	3118
792.072	3652
792.175	2695
792.279	2929
792.382	3568
792.486	3701
792.589	2736
792.693	4238
792.796	2208
792.899	3850
793.003	3383
793.106	2565
793.209	3112
793.313	3813
793.416	2645
793.519	3446
793.623	3463
793.726	5143
793.829	4329
793.932	2326
794.035	2481
794.138	3855
794.242	3772
794.345	3617
794.448	3675
794.551	3750
794.654	5534
794.757	5417
794.860	4311
794.963	3991
795.066	1949
795.169	2675
795.272	2609
795.375	2852
795.477	2156
795.580	3221
795.683	1804
795.786	2833
795.889	1860
795.991	3441
796.094	3049
796.197	2830
796.300	2292
796.402	3499
796.505	2054
796.608	2297
796.710	2026
796.813	2117
796.915	3111
797.018	2697
797.120	2281
797.223	2076
797.326	3152
797.428	2731
797.530	2366
797.633	2770
797.735	2483
797.838	3659
797.940	4846
798.042	2830
798.145	2115
798.247	3394
798.349	1662
798.452	2733
798.554	2243
798.656	2345
798.758	2700
798.860	2168
798.962	2463
799.065	3128
799.167	1790
799.269	2682
799.371	2764
799.473	2422
799.575	2619
799.677	2959
799.779	3166
799.881	3243
799.983	3334
800.085	3230
800.187	1716
800.289	2236
800.390	1892
800.492	2481
800.594	2348
800.696	2269
800.798	1539
800.899	1828
801.001	1411
801.103	2322
801.205	990
801.306	2495
801.408	1414
801.509	2796
801.611	2466
801.713	2009
801.814	1553
801.916	2152
802.017	1784
802.119	1785
802.220	2091
802.322	1327
802.423	3061
802.525	2549
802.626	2006
802.727	2838
802.829	2722
802.930	1412
803.031	2390
803.133	1909
803.234	1598
803.335	1178
803.436	1982
803.538	1571
803.639	1562
803.740	2491
803.841	1849
803.942	2414
804.043	2113
804.144	1699
804.245	2085
804.346	1213
804.447	445
804.548	2438
804.649	3474
804.750	1609
804.851	1055
804.952	1758
805.053	893
805.154	1403
805.255	1444
805.355	1832
805.456	1720
805.557	1529
805.658	649
805.758	1564
805.859	2204
805.960	1642
806.061	888
806.161	899
806.262	1624
806.362	1507
806.463	1675
806.564	2227
806.664	1238
806.765	2428
806.865	2043
806.966	1567
807.066	1165
807.166	2219
807.267	616
807.367	1719
807.468	1348
807.568	1242
807.668	1205
807.769	2300
807.869	1367
807.969	1597
808.069	2113
808.170	1174
808.270	982
808.370	1494
808.470	1254
808.570	2402
808.670	1518
808.770	1954
808.870	553
808.970	1740
809.070	748
809.170	982
809.271	1315
809.370	1163
809.470	1181
809.570	1607
809.670	799
809.770	1203
809.870	2046
809.970	1945
810.070	1801
810.169	1425
810.269	371
810.369	2984
810.469	975
810.568	1596
810.668	1068
810.768	1461
810.867	1694
810.967	1479
811.066	1097
811.166	935
811.265	1656
811.365	1486
811.464	1181
811.564	1672
811.663	1827
811.763	987
811.862	1392
811.962	1413
812.061	2151
812.160	2061
812.260	1714
812.359	1840
812.458	3014
812.557	7708
812.657	15060
812.756	10286
812.855	2306
812.954	1317
813.053	1674
813.153	1668
813.252	1704
813.351	1790
813.450	1067
813.549	2554
813.648	1582
813.747	2049
813.846	941
813.945	1519
814.044	1636
814.143	2279
814.242	2098
814.341	1384
814.439	1617
814.538	2178
814.637	2013
814.736	1675
814.835	2566
814.933	1921
815.032	2220
815.131	2238
815.229	2984
815.328	4487
815.427	3511
815.525	4021
815.624	3111
815.722	3251
815.821	3130
815.919	3403
816.018	3813
816.116	4786
816.215	4003
816.313	3825
816.412	4177
816.510	5009
816.609	5584
816.707	5369
816.805	5393
816.904	5321
817.002	5840
817.100	7079
817.198	7043
817.296	8439
817.395	8565
817.493	10398
817.591	10097
817.689	14802
817.787	18816
817.885	28469
817.983	49833
818.081	97395
818.179	212746
818.277	478645
818.375	678008
818.473	297077
818.571	94669
818.669	51667
818.767	40111
818.865	38051
818.963	41982
819.061	57782
819.158	93125
819.256	176901
819.354	358270
819.452	745770
819.549	815306
819.647	352948
819.745	131246
819.842	67306
819.940	45414
820.038	32139
820.135	24059
820.233	20396
820.330	15543
820.428	12921
820.525	11105
820.623	9182
820.720	8748
820.818	8610
820.915	7310
821.012	7017
821.110	5111
821.207	6124
821.304	5510
821.402	5334
821.499	5030
821.596	5276
821.693	4263
821.791	4661
821.888	3644
821.985	5547
822.082	7096
822.179	5338
822.276	3611
822.373	3451
822.470	3430
822.567	2893
822.664	2693
822.761	2208
822.858	2069
822.955	3244
823.052	2276
823.149	2510
823.246	3109
823.343	2959
823.440	2753
823.536	1850
823.633	2710
823.730	2561
823.827	2929
823.923	1686
824.020	3056
824.117	1779
824.213	1865
824.310	3275
824.407	2244
824.503	1686
824.600	2536
824.696	2097
824.793	2444
824.889	2087
824.986	1914
825.082	2128
825.179	1668
825.275	2224
825.371	2209
825.468	1714
825.564	707
825.660	2016
825.757	2617
825.853	1799
825.949	1181
826.045	2015
826.142	1193
826.238	1483
826.334	1261
826.430	1068
826.526	1657
826.622	1160
826.718	831
826.814	2016
826.910	2594
827.006	426
827.102	959
827.198	2121
827.294	1635
827.390	1725
827.486	2193
827.582	285
827.678	795
827.774	1858
827.869	899
827.965	1749
828.061	1153
828.157	1423
828.252	1442
828.348	1751
828.444	1252
828.539	418
828.635	522
828.731	1674
828.826	227
828.922	1454
829.017	1308
829.113	1420
829.208	945
829.304	1002
829.399	1611
829.495	1101
829.590	688
829.685	1079
829.781	908
829.876	1162
829.971	1312
830.066	1387
830.162	417
830.257	1779
830.352	265
830.447	2015
830.543	1077
830.638	1289
830.733	1917
830.828	1083
830.923	1561
831.018	1239
831.113	1128
831.208	786
831.303	399
831.398	797
831.493	305
831.588	1281
831.683	1130
831.778	927
831.873	213
831.967	619
832.062	757
832.157	692
832.252	2283
832.346	1796
832.441	1856
832.536	1833
832.631	2804
832.725	4447
832.820	2238
832.914	793
833.009	906
833.104	827
833.198	1015
833.293	938
833.387	464
833.482	1162
833.576	275
833.670	1785
833.765	503
833.859	1287
833.954	846
834.048	758
834.142	926
834.237	670
834.331	1244
834.425	1022
834.519	-128
834.613	1441
834.708	326
834.802	1132
834.896	441
834.990	82
835.084	659
835.178	630
835.272	236
835.366	1067
835.460	1735
835.554	1494
835.648	809
835.742	442
835.836	1435
835.930	331
836.024	1011
836.117	1020
836.211	889
836.305	1481
836.399	1936
836.493	1521
836.586	852
836.680	622
836.774	38
836.867	817
836.961	-408
837.055	341
837.148	19
837.242	572
837.335	384
837.429	1207
837.522	553
837.616	621
837.709	1338
837.803	2468
837.896	1357
837.989	993
838.083	1185
838.176	2180
838.269	2706
838.363	2505
838.456	80
838.549	1267
838.642	2227
838.735	3481
838.829	4171
838.922	1128
839.015	464
839.108	548
839.201	286
839.294	1415
839.387	723
839.480	607
839.573	737
839.666	2088
839.759	1385
839.852	124
839.945	510
840.038	92
840.131	-425
840.223	-128
840.316	319
840.409	679
840.502	404
840.594	1278
840.687	-208
840.780	904
840.873	-122
840.965	852
841.058	-17
841.150	2346
841.243	2230
841.336	950
841.428	327
841.521	-4
841.613	474
841.706	1312
841.798	460
841.890	526
841.983	-238
842.075	578
842.167	355
842.260	929
842.352	1655
842.444	1895
842.537	2264
842.629	4102
842.721	2675
842.813	689
842.905	-488
842.997	1007
843.090	87
843.182	95
843.274	2588
843.366	4624
843.458	8705
843.550	11931
843.642	4056
843.734	1228
843.826	772
843.918	1491
844.009	256
844.101	325
844.193	15
844.285	94
844.377	351
844.469	297
844.560	753
844.652	-24
844.744	1288
844.835	110
844.927	736
845.019	931
845.110	678
845.202	614
845.293	149
845.385	-138
845.476	388
845.568	1006
845.659	36
845.751	614
845.842	-593
845.934	182
846.025	-168
846.116	1142
846.208	-102
846.299	-693
846.390	-252
846.482	1545
846.573	711
846.664	1326
846.755	469
846.846	2370
846.937	508
847.029	202
847.120	-684
847.211	547
847.302	380
847.393	-157
847.484	968
847.575	-456
847.666	212
847.757	141
847.847	-333
847.938	939
848.029	-522
848.120	358
848.211	120
848.302	32
848.392	-22
848.483	76
848.574	-948
848.664	63
848.755	-510
848.846	-108
848.936	-94
849.027	18
849.118	-486
849.208	-150
849.299	-368
849.389	1498
849.480	1753
849.570	4767
849.661	8011
849.751	17162
849.841	16643
849.932	2876
850.022	409
850.112	-254
850.203	-173
850.293	179
850.383	354
850.474	-31
850.564	-2
850.654	226
850.744	-826
850.834	1065
850.924	-55
851.014	83
851.104	-972
851.194	625
851.284	-166
851.374	1613
851.464	433
851.554	-16
851.644	463
851.734	314
851.824	638
851.914	364
852.004	19
852.094	-188
852.183	-519
852.273	521
852.363	-628
852.452	-393
852.542	167
852.632	-807
852.721	-119
852.811	-776
852.901	193
852.990	784
853.080	237
853.169	269
853.259	1095
853.348	412
853.438	280
853.527	1033
853.617	774
853.706	3992
853.795	6236
853.885	14966
853.974	32153
854.063	52531
854.152	105533
854.242	99351
854.331	19632
854.420	3989
854.509	2208
854.598	1676
854.687	1208
854.777	896
854.866	378
854.955	764
855.044	317
855.133	-455
855.222	-529
855.311	60
855.400	-123
855.488	-9
855.577	-564
855.666	605
855.755	569
855.844	-389
855.933	-407
856.021	-362
856.110	-109
856.199	-371
856.288	-195
856.376	-207
856.465	-657
856.554	427
856.642	-473
856.731	715
856.819	1134
856.908	-263
856.996	77
857.085	286
857.173	-141
857.262	-336
857.350	-142
857.438	-217
857.527	-492
857.615	441
857.703	-712
857.792	348
857.880	-584
857.968	-264
858.056	-164
858.145	229
858.233	-761
858.321	-511
858.409	226
858.497	-663
858.585	-832
858.673	-145
858.761	-103
858.849	-777
858.937	-876
859.025	795
859.113	-578
859.201	-890
859.289	530
859.377	-511
859.465	-148
859.552	-298
859.640	-425
859.728	243
859.816	-289
859.903	-403
859.991	74
860.079	462
860.166	-685
860.254	-78
860.342	-457
860.429	-861
860.517	-351
860.604	-82
860.692	-594
860.779	-752
860.867	387
860.954	243
861.042	-493
861.129	179
861.216	23
861.304	-600
861.391	-684
861.478	-711
861.565	-600
861.653	-32
861.740	-995
861.827	-257
861.914	111
862.001	-618
862.089	-336
862.176	-167
862.263	-1157
862.350	-237
862.437	-225
862.524	-648
862.611	-255
862.698	-664
862.785	-487
862.871	-254
862.958	-107
863.045	-15
863.132	-294
863.219	68
863.306	-745
863.392	305
863.479	-1098
863.566	123
863.652	56
863.739	-786
863.826	-79
863.912	84
863.999	-91
864.086	1009
864.172	-1103
864.259	400
864.345	-776
864.432	-532
864.518	-266
864.604	-290
864.691	-271
864.777	566
864.863	813
864.950	743
865.036	342
865.122	1844
865.209	2668
865.295	1680
865.381	1224
865.467	2619
865.553	1495
865.639	2653
865.726	3342
865.812	8301
865.898	15673
865.984	25121
866.070	36881
866.156	72524
866.242	43801
866.328	7914
866.414	2500
866.499	1807
866.585	1533
866.671	1929
866.757	1439
866.843	977
866.928	864
867.014	1394
867.100	1707
867.186	1657
867.271	1900
867.357	1920
867.442	1481
867.528	2410
867.614	637
867.699	901
867.785	558
867.870	364
867.956	876
868.041	1372
868.127	894
868.212	780
868.297	1582
868.383	747
868.468	1397
868.553	2416
868.639	2490
868.724	4173
868.809	6695
868.894	3322
868.979	1052
869.065	1198
869.150	1284
869.235	672
869.320	584
869.405	1043
869.490	-1
869.575	887
869.660	28
869.745	206
869.830	273
869.915	283
870.000	110
870.085	693
870.169	372
870.254	1764
870.339	-241
870.424	115
870.509	751
870.593	731
870.678	453
870.763	669
870.847	-207
870.932	712
871.016	870
871.101	-231
871.186	-58
871.270	1210
871.355	-505
871.439	896
871.523	419
871.608	418
871.692	222
871.777	656
871.861	46
871.945	-263
872.030	-91
872.114	723
872.198	-486
872.282	-170
872.367	263
872.451	161
872.535	-492
872.619	197
872.703	-8
872.787	-12
872.871	63
872.955	565
873.039	206
873.123	-183
873.207	708
873.291	285
873.375	-89
873.459	48
873.543	-432
873.627	-188
873.711	28
873.794	-246
873.878	-429
873.962	304
874.045	-359
874.129	6
874.137	-68
874.213	-809
874.245	-167
874.296	877
874.352	226
874.380	-96
874.460	-394
874.464	-407
874.547	-590
874.568	-489
874.631	-198
874.676	127
874.714	416
874.784	754
874.798	817
874.881	311
874.892	265
874.965	-32
874.999	88
875.048	247
875.107	81
875.131	-5
875.215	66
875.215	66
875.298	-21
875.323	-124
875.381	-392
875.430	-15
875.465	263
875.538	373
875.548	387
875.631	283
875.646	264
875.714	157
875.753	60
875.798	-72
875.861	334
875.881	490
875.964	527
875.968	519
876.047	294
876.076	390
876.130	610
876.183	355
876.213	170
876.291	246
876.296	262
876.379	-314
876.398	-146
876.462	208
876.506	349
876.545	614
876.613	512
876.628	455
876.711	192
876.721	211
876.794	563
876.828	275
876.877	-235
876.935	506
876.960	790
877.043	-54
877.043	-53
877.125	402
877.150	563
877.208	957
877.258	780
877.291	595
877.365	418
877.374	410
877.456	658
877.472	564
877.539	107
877.579	429
877.622	764
877.687	715
877.704	701
877.787	456
877.794	439
877.869	360
877.901	518
877.952	737
878.008	566
878.034	432
878.115	59
878.117	56
878.199	306
878.222	279
878.282	317
878.329	383
878.364	368
878.437	601
878.447	612
878.529	77
878.544	95
878.611	403
878.651	201
878.694	52
878.758	44
878.776	-33
878.858	224
878.865	207
878.941	177
878.972	167
879.023	138
879.078	-70
879.105	-198
879.185	-38
879.187	-26
879.269	724
879.292	530
879.351	-287
879.399	-479
879.433	-506
879.506	18
879.516	102
879.598	379
879.613	326
879.680	-31
879.720	224
879.762	382
879.827	215
879.844	279
879.926	-57
879.933	10
880.007	518
880.040	612
880.089	614
880.147	187
880.171	107
880.253	2151
880.254	2156
880.335	3189
880.360	3476
880.417	4743
880.467	5920
880.499	7416
880.574	13079
880.580	13134
880.662	8313
880.680	6950
880.744	2759
880.787	1397
880.825	710
880.893	315
880.907	431
880.989	1005
881.000	957
881.070	485
881.106	663
881.152	525
881.213	433
881.233	531
881.315	-7
881.319	29
881.396	751
881.426	671
881.478	488
881.532	628
881.559	766
881.639	677
881.641	668
881.722	458
881.745	420
881.803	631
881.852	622
881.885	619
881.958	920
881.966	900
882.047	657
882.064	578
882.129	1023
882.171	1268
882.210	1414
882.277	1738
882.291	1738
882.372	1901
882.383	1785
882.454	904
882.489	780
882.535	595
882.596	261
882.616	368
882.697	788
882.702	813
882.778	633
882.808	545
882.859	331
882.914	254
882.940	313
883.020	227
883.021	232
883.102	409
883.127	526
883.183	937
883.233	1296
883.264	1200
883.339	906
883.345	880
883.426	258
883.445	217
883.507	476
883.551	404
883.587	520
883.657	836
883.668	848
883.749	1124
883.763	1138
883.830	657
883.869	349
883.910	523
883.975	816
883.991	792
884.072	510
884.081	492
884.152	775
884.187	894
884.233	849
884.292	909
884.314	886
884.394	254
884.398	243
884.475	617
884.504	682
884.555	681
884.610	740
884.636	726
884.716	603
884.716	610
884.797	1163
884.821	1261
884.877	1022
884.927	733
884.958	642
885.033	684
885.038	668
885.118	428
885.139	317
885.199	571
885.244	698
885.279	613
885.350	485
885.359	518
885.439	881
885.456	871
885.520	616
885.561	724
885.600	802
885.667	643
885.680	588
885.760	212
885.773	181
885.840	680
885.878	872
885.920	763
885.984	420
886.000	515
886.080	1487
886.089	1535
886.160	1266
886.195	1341
886.240	1442
886.300	1155
886.320	1209
886.400	1886
886.406	1901
886.480	1013
886.511	677
886.560	1163
886.616	1617
886.640	1399
886.720	750
886.722	727
886.800	669
886.827	672
886.879	968
886.932	1217
886.959	1324
887.038	1764
887.039	1769
887.119	1339
887.143	1282
887.198	1320
887.248	1067
887.278	1034
887.354	1477
887.358	1505
887.437	1537
887.459	1583
887.517	1606
887.564	1582
887.596	1323
887.669	648
887.676	631
887.755	556
887.774	462
887.835	557
887.880	801
887.914	972
887.985	1200
887.994	1221
888.073	1225
888.090	1254
888.153	1683
888.195	1933
888.232	1927
888.300	1899
888.311	1840
888.391	1307
888.405	1214
888.470	877
888.510	603
888.549	495
888.615	423
888.628	429
888.708	393
888.720	381
888.787	625
888.825	720
888.866	879
888.930	1171
888.945	1183
889.024	1240
889.035	1235
889.103	1401
889.140	1493
889.182	1169
889.245	676
889.261	788
889.340	1259
889.349	1318
889.419	908
889.454	666
889.498	585
889.559	502
889.577	572
889.656	864
889.664	891
889.735	1005
889.768	1054
889.814	1446
889.873	1957
889.978	718
890.083	991
890.187	1104
890.292	871
890.397	985
890.501	1573
890.606	1078
890.710	416
890.815	1734
890.919	777
891.024	1485
891.128	1368
891.233	358
891.337	57
891.442	974
891.546	1234
891.650	989
891.755	1690
891.859	2270
891.963	1020
892.068	1673
892.172	1103
892.276	1267
892.380	1252
892.484	1575
892.589	1565
892.693	1254
892.797	301
892.901	561
893.005	707
893.109	1491
893.213	1205
893.317	1795
893.421	516
893.525	581
893.629	912
893.733	982
893.837	884
893.941	1242
894.045	660
894.148	1394
894.252	1235
894.356	1237
894.460	1993
894.564	1375
894.667	735
894.771	1116
894.875	1018
894.978	966
895.082	1334
895.186	1026
895.289	1453
895.393	886
895.496	1270
895.600	1220
895.703	427
895.807	1218
895.910	713
896.014	1268
896.117	1013
896.221	1860
896.324	1202
896.427	1088
896.531	1015
896.634	1111
896.737	1317
896.840	912
896.944	834
897.047	1749
897.150	843
897.253	1819
897.356	1588
897.460	766
897.563	1301
897.666	590
897.769	648
897.872	909
897.975	969
898.078	970
898.181	1013
898.284	701
898.387	1231
898.490	1815
898.593	636
898.695	977
898.798	1037
898.901	917
899.004	779
899.107	1153
899.209	555
899.312	242
899.415	1699
899.518	713
899.620	279
899.723	1391
899.826	1518
899.928	2240
900.031	1330
900.133	616
900.236	1037
900.338	678
900.441	328
900.543	92
900.646	739
900.748	78
900.851	431
900.953	570
901.055	506
901.158	305
901.260	930
901.362	418
901.465	254
901.567	141
901.669	1498
901.771	706
901.873	1041
901.976	1278
902.078	799
902.180	719
902.282	-691
902.384	362
902.486	1729
902.588	1162
902.690	1314
902.792	711
902.894	1275
902.996	610
903.098	525
903.200	23
903.302	976
903.404	882
903.505	210
903.607	738
903.709	699
903.811	1629
903.913	750
904.014	486
904.116	-366
904.218	794
904.319	339
904.421	896
904.523	571
904.624	413
904.726	452
904.827	1053
904.929	98
905.030	-76
905.132	1167
905.233	1276
905.335	82
905.436	610
905.537	498
905.639	739
905.740	1269
905.841	554
905.943	-347
906.044	811
906.145	214
906.247	661
906.348	403
906.449	472
906.550	537
906.651	742
906.752	937
906.854	414
906.955	374
907.056	514
907.157	669
907.258	606
907.359	662
907.460	312
907.561	904
907.662	999
907.762	554
907.863	1311
907.964	875
908.065	292
908.166	890
908.267	50
908.367	520
908.468	294
908.569	82
908.670	592
908.770	1494
908.871	855
908.971	789
909.072	963
909.173	550
909.273	917
909.374	861
909.474	460
909.575	532
909.675	669
909.776	190
909.876	733
909.977	686
910.077	813
910.177	864
910.278	258
910.378	451
910.478	1041
910.579	784
910.679	1148
910.779	756
910.879	1228
910.980	1290
911.080	733
911.180	691
911.280	505
911.380	343
911.480	626
911.580	240
911.680	878
911.780	1075
911.880	420
911.980	-80
912.080	-5
912.180	1163
912.280	1501
912.380	121
912.480	-42
912.580	654
912.679	819
912.779	1536
912.879	1231
912.979	391
913.078	-176
913.178	358
913.278	985
913.377	189
913.477	413
913.577	298
913.676	901
913.776	845
913.875	535
913.975	385
914.074	422
914.174	54
914.273	248
914.373	333
914.472	235
914.572	674
914.671	173
914.770	301
914.870	744
914.969	-404
915.068	649
915.167	838
915.267	270
915.366	967
915.465	320
915.564	1147
915.663	945
915.763	867
915.862	180
915.961	634
916.060	447
916.159	1228
916.258	-13
916.357	797
916.456	965
916.555	273
916.654	611
916.752	654
916.851	590
916.950	556
917.049	824
917.148	543
917.247	964
917.345	122
917.444	422
917.543	144
917.642	386
917.740	-195
917.839	994
917.937	683
918.036	413
918.135	477
918.233	842
918.332	26
918.430	583
918.529	524
918.627	1339
918.726	1588
918.824	1118
918.923	481
919.021	723
919.119	495
919.218	-150
919.316	291
919.414	662
919.512	572
919.611	1225
919.709	278
919.807	782
919.905	795
920.003	920
920.102	1027
920.200	670
920.298	981
920.396	515
920.494	1101
920.592	292
920.690	164
920.788	143
920.886	167
920.984	1068
921.082	1060
921.180	585
921.277	811
921.375	839
921.473	1000
921.571	1437
921.669	1188
921.766	1674
921.864	1198
921.962	764
922.060	672
922.157	1434
922.255	1221
922.352	1523
922.450	1605
922.548	1766
922.645	915
922.743	2337
922.840	2173
922.938	3142
923.035	2687
923.133	2788
923.230	2233
923.327	3282
923.425	3445
923.522	3129
923.619	2723
923.717	2672
923.814	1917
923.911	2348
924.008	3011
924.106	3764
924.203	2520
924.300	2724
924.397	2413
924.494	2451
924.591	3163
924.688	1797
924.786	1958
924.883	2044
924.979	2413
925.077	2773
925.173	2772
925.270	2561
925.367	2335
925.464	2089
925.561	3045
925.658	3884
925.755	3029
925.852	3593
925.948	2668
926.045	2979
926.142	2867
926.239	2159
926.335	1772
926.432	3007
926.529	3121
926.625	2027
926.722	2195
926.818	1664
926.915	2555
927.011	2683
927.108	2168
927.204	2757
927.301	2306
927.397	2686
927.494	2450
927.590	2037
927.687	1682
927.783	2235
927.879	3140
927.976	1748
928.072	1932
928.168	2730
928.264	1722
928.361	1293
928.457	1917
928.553	2250
928.649	1930
928.745	2175
928.841	2124
928.937	2279
929.033	2628
929.129	1424
929.225	1830
929.321	1840
929.417	975
929.513	1632
929.609	1469
929.705	1669
929.801	2278
929.897	1401
929.993	2005
930.089	2222
930.184	1975
930.280	1938
930.376	2104
930.471	1805
930.567	1765
930.663	2164
930.758	1107
930.854	1752
930.950	1280
931.045	975
931.141	1941
931.236	2080
931.332	2129
931.427	178
931.523	2071
931.618	2876
931.714	947
931.809	2128
931.905	1680
932.000	1774
932.095	1312
932.191	1748
932.286	2088
932.381	1369
932.476	722
932.572	1202
932.667	1733
932.762	1666
932.857	1142
932.952	1575
933.047	1048
933.142	1314
933.237	1047
933.332	1900
933.427	2190
933.522	1007
933.617	743
933.712	1575
933.807	1753
933.902	2121
933.997	1880
934.092	2107
934.187	978
934.282	1662
934.376	1442
934.471	1757
934.566	1226
934.661	2256
934.755	1258
934.850	1624
934.945	2086
935.039	1426
935.134	970
935.228	764
935.323	1318
935.417	1376
935.512	668
935.606	828
935.701	685
935.795	1109
935.890	1188
935.984	1520
936.079	585
936.173	1010
936.267	1407
936.362	764
936.456	1173
936.550	1845
936.644	1634
936.738	190
936.833	1869
936.927	1024
937.021	884
937.115	1340
937.209	882
937.303	1068
937.397	1570
937.491	822
937.585	1308
937.679	1030
937.773	1467
937.867	85
937.961	1836
938.055	1147
938.149	1670
938.243	690
938.337	267
938.430	551
938.524	1765
938.618	1708
938.712	1172
938.805	817
938.899	912
938.993	1262
939.086	782
939.180	627
939.274	162
939.367	1262
939.461	886
939.554	680
939.648	626
939.741	914
939.835	703
939.928	1227
940.022	1092
940.115	964
940.208	1191
940.302	1124
940.395	1488
940.488	725
940.582	359
940.675	1655
940.768	437
940.861	394
940.954	1094
941.048	624
941.141	-197
941.234	817
941.327	1882
941.420	2200
941.513	1207
941.606	612
941.699	1136
941.792	1308
941.885	279
941.978	425
942.071	980
942.164	847
942.257	658
942.349	1372
942.442	304
942.535	262
942.628	-3
942.721	-41
942.813	578
942.906	213
942.999	447
943.091	279
943.184	-219
943.277	173
943.369	548
943.462	851
943.554	224
943.647	-218
943.739	854
943.832	653
943.924	-91
944.017	163
944.109	42
944.201	340
944.294	-93
944.386	486
944.478	865
944.571	912
944.663	-613
944.755	515
944.847	1136
944.940	426
945.032	-104
945.124	255
945.216	908
945.308	-238
945.400	399
945.492	1022
945.584	-185
945.676	1336
945.768	1411
945.860	1391
945.952	903
946.044	1285
946.136	129
946.228	583
946.320	166
946.412	858
946.503	-389
946.595	385
946.687	739
946.779	-44
946.870	-294
946.962	57
947.054	-25
947.145	811
947.237	388
947.329	-380
947.420	656
947.512	896
947.603	227
947.695	119
947.786	225
947.878	-558
947.969	-31
948.061	1058
948.152	476
948.243	816
948.335	-285
948.426	-325
948.517	-314
948.609	889
948.700	449
948.791	561
948.882	511
948.973	-204
949.065	-435
949.156	-95
949.247	-469
949.338	427
949.429	419
949.520	-516
949.611	403
949.702	173
949.793	203
949.884	-165
949.975	88
950.066	-967
950.157	384
950.247	517
950.338	267
950.429	37
950.520	280
950.611	498
950.701	314
950.792	9
950.883	168
950.973	-465
951.064	-138
951.155	822
951.245	639
951.336	164
951.427	-228
951.517	779
951.608	578
951.698	-278
951.788	-455
951.879	-264
951.969	-139
952.060	376
952.150	221
952.240	943
952.331	126
952.421	931
952.511	-451
952.602	67
952.692	-211
952.782	555
952.872	164
952.962	-67
953.052	321
953.143	122
953.233	-274
953.323	652
953.413	-94
953.503	848
953.593	-250
953.683	368
953.773	98
953.863	34
953.953	-595
954.042	661
954.132	-329
954.222	88
954.312	-38
954.402	-506
954.492	726
954.581	573
954.671	-424
954.761	212
954.850	849
954.940	488
955.030	-164
955.119	268
955.209	-21
955.298	-483
955.388	278
955.477	710
955.567	-432
955.656	-382
955.746	394
955.835	-170
955.925	207
956.014	207
956.103	97
956.193	117
956.282	223
956.371	449
956.461	304
956.550	-47
956.639	198
956.728	328
956.817	-354
956.906	-472
956.995	236
957.085	-349
957.174	549
957.263	-661
957.352	-632
957.441	-257
957.530	551
957.619	202
957.708	620
957.796	-152
957.885	79
957.974	-195
958.063	-319
958.152	-202
958.241	-200
958.329	-78
958.418	139
958.507	-378
958.596	315
958.684	68
958.773	-81
958.861	-406
958.950	-282
959.039	307
959.127	-229
959.216	89
959.304	119
959.393	26
959.481	-202
959.570	-450
959.658	-837
959.746	479
959.835	561
959.923	415
960.011	413
960.100	-869
960.188	161
960.276	883
960.365	-885
960.453	262
960.541	-519
960.629	-121
960.717	981
960.805	641
960.893	-324
960.981	-492
961.069	125
961.158	739
961.245	366
961.333	-49
961.421	-545
961.509	43
961.597	-281
961.685	-213
961.773	457
961.861	-390
961.949	-154
962.036	-374
962.124	298
962.212	-356
962.299	-580
962.387	15
962.475	-274
962.562	-394
962.650	701
962.738	-76
962.825	-305
962.913	-155
963.000	-680
963.088	521
963.175	-10
963.263	-242
963.350	24
963.438	409
963.525	162
963.612	1266
963.700	964
963.787	4279
963.874	3297
963.962	291
964.049	-900
964.136	-236
964.223	-906
964.310	611
964.398	-1016
964.485	318
964.572	470
964.659	1022
964.746	731
964.833	344
964.920	-372
965.007	-204
965.094	-85
965.181	-586
965.268	253
965.355	11
965.441	302
965.528	-4
965.615	153
965.702	-315
965.789	-437
965.875	-381
965.962	-249
966.049	53
966.136	163
966.222	-37
966.309	-32
966.395	-152
966.482	-187
966.569	-74
966.655	219
966.742	396
966.828	-118
966.915	45
967.001	-635
967.087	-1356
967.174	-379
967.260	-250
967.347	520
967.433	1727
967.519	3058
967.605	2007
967.692	139
967.778	-336
967.864	-712
967.950	-80
968.036	-670
968.123	-124
968.209	-717
968.295	-1051
968.381	-82
968.467	558
968.553	-637
968.639	-327
968.725	-308
968.811	922
968.897	831
968.983	-200
969.069	-178
969.154	-5
969.240	584
969.326	-48
969.412	-122
969.497	-601
969.583	152
969.669	92
969.755	-529
969.840	617
969.926	346
970.012	-312
970.097	501
970.183	349
970.268	96
970.354	561
970.439	-472
970.525	1797
970.610	352
970.696	-111
970.781	-906
970.866	170
970.952	266
971.037	-596
971.122	-346
971.208	-610
971.293	-457
971.378	-525
971.463	-494
971.549	-344
971.634	144
971.719	501
971.804	-28
971.889	409
971.974	54
972.059	-979
972.144	-912
972.229	390
972.314	-477
972.399	-617
972.484	-1007
972.569	-305
972.654	291
972.739	880
972.824	1151
972.908	780
972.993	-854
973.078	-298
973.163	-437
973.247	-675
973.332	-776
973.417	413
973.501	-491
973.586	337
973.671	-314
973.755	-47
973.840	45
973.924	-255
974.009	481
974.093	-312
974.178	1434
974.262	195
974.346	425
974.431	-170
974.515	-440
974.600	217
974.684	-372
974.768	-893
974.852	-206
974.937	-445
975.021	21
975.105	-597
975.189	-154
975.273	124
975.358	-408
975.442	-411
975.526	-681
975.610	-646
975.694	-172
975.778	189
975.862	-774
975.946	-1445
976.030	-27
976.114	-542
976.198	79
976.281	240
976.365	-587
976.449	-868
976.533	-1092
976.617	-631
976.700	-381
976.784	-215
976.868	-464
976.951	-205
977.035	-475
977.119	193
977.202	-75
977.286	-161
977.369	-329
977.453	42
977.536	-439
977.620	-488
977.703	-606
977.787	-681
977.870	-126
977.953	16
978.037	-766
978.120	375
978.203	5
978.287	639
978.370	-274
978.453	-822
978.536	-721
978.620	85
978.703	587
978.786	158
978.869	-622
978.952	-769
979.035	134
979.118	88
979.201	-166
979.284	-341
979.367	-732
979.450	-761
979.533	-1616
979.616	-380
979.699	-540
979.782	-54
979.865	-245
979.948	253
980.030	43
980.113	403
980.196	-1039
980.279	-761
980.361	-530
980.444	-1029
980.526	-739
980.609	49
980.692	-39
980.774	-450
980.857	-1242
980.939	-376
981.022	-227
981.104	-501
981.187	-758
981.269	337
981.352	-315
981.434	-840
981.516	-709
981.599	10
981.681	-543
981.763	-39
981.846	-73
981.928	-1138
982.010	-340
982.092	-712
982.174	-437
982.256	414
982.339	-1484
982.421	-825
982.503	-992
982.585	-1227
982.667	-17
982.749	-885
982.831	-593
982.913	-997
982.995	-932
983.077	-972
983.158	174
983.240	-952
983.322	176
983.404	-261
983.486	-19
983.568	106
983.649	337
983.731	-637
983.813	-1163
983.894	-221
983.976	-337
984.058	-354
984.139	-454
984.221	-1098
984.302	-612
984.384	-593
984.465	-412
984.547	-501
984.628	-938
984.710	-142
984.791	-1391
984.872	-717
984.954	-661
985.035	106
985.116	-1100
985.198	-535
985.279	-99
985.360	-394
985.441	-66
985.522	-900
985.604	-933
985.685	-1456
985.766	268
985.847	85
985.928	333
986.009	-243
986.090	-1440
986.171	-829
986.252	-358
986.333	-213
986.414	-365
986.495	498
986.576	-1062
986.656	-185
986.737	-1113
986.818	-89
986.899	-853
986.980	20
987.060	-871
987.141	-1668
987.222	-27
987.302	45
987.383	65
987.464	152
987.544	50
987.625	-332
987.705	945
987.786	-179
987.866	-353
987.947	-856
988.027	-603
988.108	-463
988.188	688
988.268	-486
988.349	-615
988.429	228
988.509	99
988.589	-679
988.670	-530
988.750	-511
988.830	-156
988.910	837
988.990	-1009
989.070	-534
989.151	-345
989.231	-161
989.311	469
989.391	-383
989.471	-215
989.551	-461
989.631	219
989.711	-357
989.791	-418
989.870	-434
989.950	370
990.030	-523
990.110	-174
990.190	-1244
990.269	-371
990.349	-570
990.429	396
990.509	340
990.588	403
990.668	17
990.747	34
990.827	-850
990.907	-510
990.986	-44
991.066	327
991.145	-1216
991.225	-480
991.304	-98
991.383	-300
991.463	-798
991.542	131
991.622	-537
991.701	-157
991.780	-233
991.859	-636
991.939	-380
992.018	-314
992.097	60
992.176	74
992.256	-783
992.335	-1117
992.414	235
992.493	-840
992.572	-393
992.651	283
992.730	-474
992.809	-779
992.888	-594
992.967	-400
993.046	189
993.125	-1038
993.203	-476
993.282	-243
993.361	-363
993.440	-481
993.519	-648
993.597	35
993.676	-1
993.755	-169
993.834	-778
993.912	-472
993.991	-429
994.069	-637
994.148	-853
994.226	-1307
994.305	-1818
994.384	-228
994.462	-4
994.540	-674
994.619	-1235
994.697	-542
994.776	-670
994.854	366
994.932	-408
995.011	-640
995.089	-501
995.167	725
995.245	-433
995.324	-222
995.402	166
995.480	13
995.558	-827
995.636	-1031
995.714	-506
995.792	-27
995.870	-331
995.948	-726
996.026	-783
996.104	-161
996.182	17
996.260	-1246
996.338	-625
996.416	-1498
996.494	-596
996.572	-349
996.649	204
996.727	-1228
996.805	-795
996.883	-441
996.960	305
997.038	-39
997.116	-295
997.193	-1558
997.271	331
997.348	-39
997.426	-321
997.504	-854
997.581	76
997.658	-170
997.736	-1532
997.813	-1466
997.891	-265
997.968	-841
998.046	-754
998.123	-585
998.200	-710
998.277	-1102
998.355	-452
998.432	-888
998.509	-328
998.586	-11
998.663	-339
998.741	-844
998.818	-536
998.895	-1159
998.972	-234
999.049	-866
999.126	-905
999.203	-55
999.280	-795
999.357	-1043
999.434	-1610
999.511	-406
999.587	-521
999.664	-1095
999.741	-416
999.818	-842
999.895	-669
999.971	36
1000.048	-795
1000.125	-1052
1000.202	-806
1000.278	-1047
1000.355	-1183
1000.431	-994
1000.508	-833
1000.584	-802
1000.661	-484
1000.738	-954
1000.814	-592
1000.890	-629
1000.967	-1217
1001.043	-906
1001.120	-1449
1001.196	-475
1001.272	-1062
1001.349	-327
1001.425	-914
1001.501	-341
1001.577	-1254
1001.654	-366
1001.730	-321
1001.806	-997
1001.882	-1018
1001.958	-744
1002.034	-767
1002.110	-836
1002.186	-998
1002.262	-877
1002.338	-898
1002.414	-431
1002.490	-1414
1002.566	-1355
1002.642	-1281
1002.718	36
1002.794	-1116
1002.870	-770
1002.945	-664
1003.021	-1052
1003.097	-705
1003.173	-279
1003.248	-1079
1003.324	-1364
1003.400	138
1003.475	-961
1003.551	-984
1003.626	-491
1003.702	-1138
1003.777	-676
1003.853	-1498
1003.928	-816
1004.004	-794
1004.079	-611
1004.155	-911
1004.230	-1581
1004.305	-720
1004.381	-448
1004.456	-1005
1004.531	-823
1004.607	-1498
1004.682	-608
1004.757	-785
1004.832	-1159
1004.907	-1405
1004.982	-1149
1005.057	-755
1005.133	-1458
1005.208	-1468
1005.283	-1043
1005.358	-837
1005.433	-1606
1005.508	-1171
1005.583	-1412
1005.657	-764
1005.732	-1439
1005.807	-1537
1005.882	-1257
1005.957	-1083
1006.032	-1133
1006.106	-1570
1006.181	-1131
1006.256	-1302
1006.331	-1615
1006.405	-1106
1006.480	-609
1006.554	-1699
1006.629	-1600
1006.704	-1342
1006.778	-1171
1006.853	-125
1006.927	-1820
1007.002	-973
1007.076	-828
1007.150	-1328
1007.225	-1325
1007.299	-1356
1007.373	-1282
1007.448	-615
1007.522	-865
1007.596	-362
1007.671	-950
1007.745	-479
1007.819	-1196
1007.893	-1023
1007.967	-717
1008.041	-1641
1008.115	-661
1008.190	-1936
1008.264	-548
1008.338	-1405
1008.412	-1294
1008.486	-1293
1008.560	-1148
1008.633	-1584
1008.707	-1599
1008.781	-174
1008.855	-1236
1008.929	-844
1009.003	-1036
1009.076	-884
1009.150	-1389
1009.224	-1454
1009.298	-1173
1009.371	-1100
1009.445	-1484
1009.519	-1459
1009.592	-1942
1009.666	-1437
1009.739	-1672
1009.813	-1311
1009.886	-699
1009.960	-1804
1010.033	-1196
1010.107	-1315
1010.180	-1251
1010.253	-1028
1010.327	-914
1010.400	-1398
1010.473	-1692
1010.547	-449
1010.620	-2292
1010.693	-1576
1010.766	-1661
1010.840	-998
1010.913	-1507
1010.986	-1557
1011.059	-1508
1011.132	-1602
1011.205	-972
1011.278	-955
1011.351	-1753
1011.424	-1189
1011.497	-1500
1011.570	-776
1011.643	-1435
1011.716	-1724
1011.789	-1651
1011.862	-1412
1011.934	-993
1012.007	-1151
1012.080	-1156
1012.153	-877
1012.225	-1136
1012.298	-1384
1012.371	-1370
1012.443	-846
1012.516	-1699
1012.588	-1478
1012.661	-1296
1012.733	-1495
1012.806	-827
1012.879	-2085
1012.951	-1503
1013.023	-1443
1013.096	-1313
1013.168	-1171
1013.241	-1014
1013.313	-1214
1013.385	-2133
1013.458	-991
1013.530	-1081
1013.602	-1668
1013.674	-1078
1013.746	-1090
1013.819	-1175
1013.891	-1190
1013.963	-1587
1014.035	-616
1014.107	-2051
1014.179	-552
1014.251	-1464
1014.323	-1310
1014.395	-1829
1014.467	-1533
1014.539	-1168
1014.611	-1406
1014.683	-2086
1014.754	-1036
1014.826	-1277
1014.898	-1799
1014.970	-2024
1015.042	-1311
1015.113	-1581
1015.185	-675
1015.257	-1809
1015.328	-1347
1015.400	-1331
1015.471	-2012
1015.543	-1725
1015.615	-353
1015.686	-1501
1015.757	-1129
1015.829	-458
1015.901	-1359
1015.972	-1303
1016.043	-1661
1016.115	-922
1016.186	-755
1016.257	-1913
1016.328	-940
1016.400	-1117
1016.471	-1733
1016.542	-2152
1016.613	-1300
1016.685	-1472
1016.756	-1381
1016.827	-1276
1016.898	-1448
1016.969	-734
1017.040	-1513
1017.111	-1284
1017.182	-1466
1017.253	-889
1017.324	-1878
1017.395	-2483
1017.466	-1380
1017.537	-1236
1017.608	-1117
1017.678	-1281
1017.749	-1152
1017.820	-1088
1017.891	-1910
1017.961	-1678
1018.032	-1394
1018.103	-1388
1018.173	-731
1018.244	-1861
1018.315	-1461
1018.385	-1540
1018.456	-2170
1018.526	-1765
1018.597	-1449
1018.667	-1622
1018.738	-2402
1018.808	-1572
1018.878	-1428
1018.949	-1955
1019.019	-1501
1019.089	-982
1019.160	-1024
1019.230	-1655
1019.300	-620
1019.371	-1347
1019.441	-781
1019.511	-1338
1019.581	-2226
1019.651	-976
1019.721	-1177
1019.791	-1387
1019.861	-1163
1019.931	-1121
1020.001	-1243
1020.071	-1078
1020.141	-1353
1020.211	-1290
1020.281	-663
1020.351	-1295
1020.421	-1712
1020.491	-357
1020.560	-1339
1020.630	-1490
1020.700	-1553
1020.770	-2150
1020.839	-1846
1020.909	-675
1020.979	-1698
1021.048	-1128
1021.118	-597
1021.187	-1515
1021.257	-1583
1021.326	-1945
1021.396	-1769
1021.465	-742
1021.535	-1898
1021.604	-2037
1021.674	-808
1021.743	-643
1021.812	-835
1021.882	-1414
1021.951	-1034
1022.020	-1120
1022.089	-1308
1022.159	-1218
1022.228	-1358
1022.297	-1953
1022.366	-872
1022.435	-718
1022.504	-430
1022.573	-698
1022.642	-1068
1022.711	-1531
1022.781	-1327
1022.849	-1450
1022.918	-1098
1022.987	-895
1023.056	-1701
1023.125	-1400
1023.194	-1428
1023.263	-965
1023.331	-1564
1023.400	-1648
1023.469	-1511
1023.538	-445
1023.606	-1952
1023.675	-1404
1023.744	-1644
1023.812	-1323
1023.881	-1258
1023.949	-1550
1024.018	-1391
1024.086	-1812
1024.155	-1620
1024.223	-1635
1024.292	-651
1024.360	-1346
1024.429	-707
1024.497	-2088
1024.565	-1425
1024.634	-476
1024.702	-1415
1024.770	-1308
1024.838	-1516
1024.907	-1204
1024.975	-1350
1025.043	-1163
1025.111	-1306
1025.179	-1173
1025.247	-1053
1025.315	-1659
1025.383	-1542
1025.451	-1366
1025.519	-1190
1025.587	-1698
1025.655	-1454
1025.723	-1134
1025.791	-1233
1025.859	-882
1025.927	-844
1025.995	-1675
1026.062	-1309
1026.130	-1475
1026.198	-1013
1026.266	-1795
1026.333	-414
1026.401	-341
1026.469	-1778
1026.536	-1475
1026.604	-1164
1026.671	-1151
1026.739	-812
1026.806	-2105
1026.874	-1827
1026.941	-1591
1027.009	-1141
1027.076	-1482
1027.144	-626
1027.211	-894
1027.278	-1387
1027.345	-1366
1027.413	-1142
1027.480	-958
1027.547	-1127
1027.614	-1989
1027.682	-1030
1027.749	-1050
1027.816	-1593
1027.883	-1772
1027.950	-1451
1028.017	-1217
1028.084	-317
1028.151	-1215
1028.218	-1827
1028.285	-807
1028.352	-1868
1028.419	-1827
1028.486	-1756
1028.553	-1245
1028.619	-1093
1028.686	-1795
1028.753	-1867
1028.820	-1626
1028.886	-1316
1028.953	-1479
1029.020	-1295
1029.086	-1863
1029.153	-992
1029.220	-1719
1029.286	-1912
1029.353	-1554
1029.419	-1545
1029.486	-1522
1029.552	-1663
1029.619	-2176
1029.685	-1104
1029.751	-1744
1029.818	-1321
1029.884	-1102
1029.951	-835
1030.017	-1557
1030.083	-1476
1030.149	-1203
1030.216	-1584
1030.282	-1439
1030.348	-1277
1030.414	-850
1030.480	-1335
1030.546	-1099
1030.612	-1603
1030.678	-1426
1030.744	-1589
1030.810	-1416
1030.876	-1028
1030.942	-1772
1031.008	-1575
1031.074	-1875
1031.140	-1486
1031.206	-2317
1031.272	-1981
1031.337	-2226
1031.403	-1035
1031.469	-1534
1031.534	-1636
1031.600	-1468
1031.666	-1941
1031.731	-2409
1031.797	-1464
1031.863	-1596
1031.928	-832
1031.994	-1652
1032.059	-1813
1032.125	-1383
1032.190	-1282
1032.256	-1287
1032.321	-1208
1032.386	-1439
1032.452	-1607
1032.517	-1449
1032.582	-1678
1032.647	-2118
1032.713	-1438
1032.778	-1268
1032.843	-690
1032.908	-1585
1032.974	-1714
1033.039	-1679
1033.104	-815
1033.169	-1983
1033.234	-554
1033.299	-1547
1033.364	-1621
1033.429	-1834
1033.494	-969
1033.559	-1751
1033.624	-1430
1033.688	-936
1033.753	-1779
1033.818	-1673
1033.883	-1450
1033.948	-1119
1034.013	-1641
1034.077	-2165
1034.142	-2007
1034.207	-620
1034.271	-1068
1034.336	197
1034.400	-638
1034.465	-649
1034.530	-1314
1034.594	-931
1034.658	-2023
1034.723	-1608
1034.787	-1858
1034.852	-1364
1034.916	-1740
1034.981	-1612
1035.045	-2098
1035.109	-2283
1035.173	-1664
1035.238	-1467
1035.302	-1586
1035.366	-1418
1035.430	-2048
1035.495	-1601
1035.559	-1500
1035.623	-953
1035.687	-1399
1035.751	-1428
1035.815	-1220
1035.879	-1851
1035.943	-1699
1036.007	-2015
1036.071	-1938
1036.135	-1856
1036.198	-2037
1036.262	-1447
1036.326	-1124
1036.390	-956
1036.454	-1340
1036.517	-1419
1036.581	-2230
1036.645	-1515
1036.709	-1827
1036.772	-1208
1036.836	-1089
1036.900	-1763
1036.963	-2330
1037.026	-1691
1037.090	-1872
1037.154	-1682
1037.217	-1249
1037.280	-2000
1037.344	-1933
1037.407	-2565
1037.471	-1451
1037.534	-1585
1037.597	-1286
1037.661	-1815
1037.724	-1100
1037.787	-1211
1037.850	-1265
1037.913	-2333
1037.977	-1662
1038.040	-2197
1038.103	-1566
1038.166	-2268
1038.229	-1734
1038.292	-1390
1038.355	-1800
1038.418	-1906
1038.481	-1789
1038.544	-2066
1038.607	-1354
1038.670	-1592
1038.732	-2059
1038.795	-1820
1038.858	-1755
1038.921	-1464
1038.984	-1745
1039.046	-1250
1039.109	-2063
1039.172	-1633
1039.234	-1646
1039.297	-2107
1039.360	-1305
1039.422	-2652
1039.485	-2063
1039.547	-1588
1039.610	-1327
1039.672	-2296
1039.734	-1552
1039.797	-1842
1039.859	-1643
1039.922	-1112
1039.984	-1636
1040.046	-1403
1040.109	-1963
1040.171	-2000
1040.233	-1161
1040.295	-1883
1040.358	-2349
1040.420	-2101
1040.482	-1767
1040.544	-2136
1040.606	-2170
1040.668	-2010
1040.730	-1284
1040.792	-1666
1040.854	-1552
1040.916	-2109
1040.978	-1569
1041.040	-1273
1041.102	-1544
1041.164	-1571
1041.225	-835
1041.287	-2106
1041.349	-1500
1041.411	-1798
1041.472	-2311
1041.534	-1372
1041.596	-1816
1041.657	-1368
1041.719	-2041
1041.781	-1584
1041.842	-1380
1041.904	-1515
1041.965	-1907
1042.027	-1833
1042.088	-1642
1042.150	-2054
1042.211	-1476
1042.272	-829
1042.334	-1607
1042.395	-1975
1042.456	-2077
1042.518	-1534
1042.579	-1558
1042.640	-978
1042.701	-2019
1042.763	-1553
1042.824	-1501
1042.885	-1596
1042.946	-1528
1043.007	-1491
1043.068	-1811
1043.129	-686
1043.190	-1446
1043.251	-1368
1043.312	-2009
1043.373	-1145
1043.434	-1703
1043.495	-1341
1043.556	-893
1043.616	-1643
1043.677	-1187
1043.738	-1499
1043.799	-800
1043.859	-1853
1043.920	-1495
1043.981	-2105
1044.041	-1839
1044.102	-1931
1044.162	-1297
1044.223	-1021
1044.284	-1849
1044.344	-1442
1044.405	-1335
1044.465	-1128
1044.525	-1831
1044.586	-2165
1044.646	-727
1044.707	-1527
1044.767	-1071
1044.827	-1704
1044.887	-1278
1044.948	-810
1045.008	-1830
1045.068	-862
1045.128	-1411
1045.188	-1428
1045.249	-1200
1045.309	-1355
1045.369	-1252
1045.429	-1284
1045.489	-452
1045.549	-1098
1045.609	-2090
1045.669	-1409
1045.729	-1290
1045.789	-1287
1045.848	-895
1045.908	-984
1045.968	-645
1046.028	-458
1046.088	-866
1046.147	-583
1046.207	-867
1046.267	-1039
1046.326	-760
1046.386	-578
1046.446	-815
1046.505	-860
1046.565	-590
1046.624	-526
1046.684	-496
1046.743	-460
1046.803	565
1046.862	-636
1046.922	0
