'Start Wavelength	183.907
'End Wavelength	1046.922
'Gate Delay	5.000
'Gate Width (ms)	1.050
'Laser Output Level	0.000
'X Position	0.000
'Y Position	0.000
'Z Position	0.000
'Grid Point Number	1.000
'Shot Number	100.000
183.907	39.000
183.977	-866.000
184.047	6
184.116	185
184.186	-604
184.256	365
184.325	219
184.395	681
184.465	327
184.534	435
184.604	-693
184.674	-215
184.743	150
184.813	-240
184.883	177
184.952	579
185.022	-648
185.092	244
185.161	-370
185.231	-317
185.301	152
185.370	1532
185.440	-274
185.509	902
185.579	215
185.649	342
185.718	219
185.788	-19
185.857	-237
185.927	309
185.996	245
186.066	18
186.136	189
186.205	120
186.275	128
186.344	735
186.414	-375
186.483	881
186.553	1573
186.622	705
186.692	266
186.761	565
186.831	867
186.900	476
186.970	542
187.039	1570
187.109	1106
187.178	844
187.248	744
187.317	550
187.387	134
187.456	294
187.526	571
187.595	1137
187.664	-145
187.734	815
187.803	81
187.873	548
187.942	1230
188.012	627
188.081	-193
188.150	216
188.220	1330
188.289	1906
188.358	635
188.428	310
188.497	-28
188.567	323
188.636	-167
188.705	224
188.775	487
188.844	572
188.913	369
188.983	1590
189.052	328
189.121	61
189.191	360
189.260	410
189.329	475
189.399	383
189.468	446
189.537	1162
189.606	1050
189.676	864
189.745	214
189.814	1125
189.883	260
189.953	430
190.022	445
190.091	1420
190.161	1396
190.230	458
190.299	457
190.368	531
190.437	-296
190.507	909
190.576	93
190.645	212
190.714	-193
190.783	402
190.853	685
190.922	1215
190.991	493
191.060	979
191.129	634
191.198	618
191.268	341
191.337	819
191.406	1485
191.475	980
191.544	321
191.613	526
191.682	637
191.752	777
191.821	552
191.890	-95
191.959	935
192.028	-60
192.097	285
192.166	946
192.235	629
192.304	579
192.373	-50
192.442	976
192.511	70
192.580	232
192.650	78
192.719	865
192.788	1051
192.857	345
192.926	262
192.995	1107
193.064	767
193.133	1115
193.202	1790
193.271	1952
193.340	1511
193.409	1212
193.478	1069
193.547	2746
193.615	2665
193.684	2765
193.753	1412
193.822	934
193.891	773
193.960	1129
194.029	1148
194.098	1224
194.167	671
194.236	1103
194.305	814
194.374	389
194.443	986
194.512	1430
194.580	951
194.649	1235
194.718	818
194.787	749
194.856	463
194.925	1528
194.994	1224
195.062	1133
195.131	850
195.200	982
195.269	1543
195.338	1179
195.407	683
195.475	1361
195.544	1505
195.613	871
195.682	1021
195.751	2051
195.819	1453
195.888	1372
195.957	1438
196.026	1280
196.094	1635
196.163	1269
196.232	1155
196.301	966
196.369	1171
196.438	1160
196.507	362
196.576	270
196.644	783
196.713	1032
196.782	1171
196.850	1143
196.919	490
196.988	1038
197.056	1031
197.125	1934
197.194	349
197.262	774
197.331	921
197.400	1081
197.468	592
197.537	655
197.606	620
197.674	1511
197.743	2122
197.812	1173
197.880	2693
197.949	1833
198.017	2047
198.086	1755
198.155	1138
198.223	1544
198.292	2560
198.360	1290
198.429	785
198.497	1349
198.566	2197
198.635	1836
198.703	1302
198.772	1383
198.840	3216
198.909	2648
198.977	749
199.046	1514
199.114	1700
199.183	1055
199.251	850
199.320	1483
199.388	1019
199.457	1161
199.525	1577
199.594	1334
199.662	1452
199.731	1101
199.799	962
199.867	1928
199.936	1254
200.004	1079
200.073	506
200.141	1395
200.210	1150
200.278	1102
200.346	809
200.415	1710
200.483	2377
200.552	2666
200.620	713
200.688	1058
200.757	983
200.825	1351
200.893	1175
200.962	1135
201.030	921
201.098	1129
201.167	1628
201.235	1254
201.303	1353
201.372	1884
201.440	1128
201.508	2315
201.577	1091
201.645	2239
201.713	1278
201.781	2012
201.850	2005
201.918	1408
201.986	986
202.055	1621
202.123	1350
202.191	1387
202.259	1416
202.327	2268
202.396	1268
202.464	1044
202.532	2567
202.600	5106
202.669	2354
202.737	1419
202.805	989
202.873	2006
202.941	983
203.009	1278
203.078	1496
203.146	2111
203.214	1028
203.282	727
203.350	1683
203.418	2584
203.487	1281
203.555	2006
203.623	1399
203.691	921
203.759	1348
203.827	1382
203.895	1486
203.963	1100
204.031	2146
204.099	1700
204.168	859
204.236	1170
204.304	1934
204.372	1282
204.440	1543
204.508	1503
204.576	1013
204.644	1386
204.712	1321
204.780	1857
204.848	2609
204.916	920
204.984	1463
205.052	1977
205.120	2030
205.188	1398
205.256	1133
205.324	2167
205.392	1164
205.460	2376
205.528	1719
205.596	1750
205.664	946
205.732	1772
205.799	3849
205.867	4087
205.935	1320
206.003	1781
206.071	1912
206.139	1137
206.207	1523
206.275	1078
206.343	804
206.411	2019
206.478	1237
206.546	1896
206.614	1845
206.682	1179
206.750	1935
206.818	3681
206.885	1901
206.953	1803
207.021	1575
207.089	2004
207.157	633
207.225	2005
207.292	1788
207.360	2201
207.428	1963
207.496	1624
207.563	2026
207.631	1291
207.699	1213
207.767	2574
207.834	1326
207.902	1784
207.970	1830
208.038	1982
208.105	1809
208.173	2506
208.241	2482
208.309	3018
208.376	1809
208.444	3612
208.512	2561
208.579	1829
208.647	3485
208.715	2942
208.782	2405
208.850	1880
208.918	2193
208.985	2052
209.053	1798
209.120	2304
209.188	1518
209.256	2152
209.323	2188
209.391	2529
209.459	2525
209.526	2388
209.594	2320
209.661	2820
209.729	2049
209.796	2719
209.864	2768
209.932	2904
209.999	1896
210.067	2692
210.134	2646
210.202	2773
210.269	3575
210.337	4695
210.404	2516
210.472	2547
210.539	2251
210.607	2521
210.674	2275
210.742	2106
210.809	1781
210.877	3465
210.944	3274
211.012	2740
211.079	2690
211.146	3065
211.214	3516
211.281	5197
211.349	3275
211.416	3023
211.484	3548
211.551	2232
211.618	2945
211.686	3303
211.753	2392
211.821	2477
211.888	3394
211.955	3138
212.023	2997
212.090	3455
212.157	3359
212.225	3251
212.292	4035
212.359	7986
212.427	11809
212.494	6363
212.561	4090
212.629	3001
212.696	2763
212.763	2765
212.831	2317
212.898	2895
212.965	1820
213.032	3907
213.100	3023
213.167	3555
213.234	3039
213.301	2906
213.369	3178
213.436	2570
213.503	2335
213.570	3133
213.638	2082
213.705	2276
213.772	1983
213.839	3333
213.906	2859
213.973	3364
214.041	2369
214.108	2558
214.175	3371
214.242	2909
214.309	2913
214.376	3016
214.444	3076
214.511	3266
214.578	3603
214.645	3937
214.712	3451
214.779	3909
214.846	2838
214.913	3731
214.980	4568
215.048	6035
215.115	4887
215.182	4759
215.249	3633
215.316	2935
215.383	2486
215.450	2877
215.517	3101
215.584	2671
215.651	2246
215.718	3244
215.785	3176
215.852	3265
215.919	2756
215.986	3989
216.053	2790
216.120	3073
216.187	2704
216.254	3296
216.321	3038
216.388	2540
216.455	2846
216.522	3143
216.589	4125
216.656	6135
216.722	5277
216.789	4620
216.856	4738
216.923	3646
216.990	3839
217.057	4935
217.124	4286
217.191	4759
217.258	6106
217.324	7303
217.391	6595
217.458	5007
217.525	4604
217.592	4495
217.659	3648
217.725	4154
217.792	3792
217.859	4678
217.926	2927
217.993	3129
218.059	3012
218.126	3155
218.193	2881
218.260	3115
218.327	3166
218.393	2849
218.460	2498
218.527	2713
218.594	2403
218.660	4916
218.727	4376
218.794	2603
218.860	2701
218.927	2019
218.994	1452
219.061	2466
219.127	3658
219.194	4324
219.261	2284
219.327	2410
219.394	2240
219.461	1793
219.527	2375
219.594	3226
219.661	2509
219.727	1997
219.794	3792
219.860	3248
219.927	3872
219.994	6651
220.060	10307
220.127	8228
220.193	5948
220.260	5674
220.326	6666
220.393	10317
220.460	10082
220.526	7351
220.593	5602
220.659	5656
220.726	5661
220.792	10452
220.859	10463
220.925	14817
220.992	15194
221.058	14458
221.125	11261
221.191	8946
221.258	4573
221.324	3985
221.391	3638
221.457	2853
221.524	2894
221.590	4756
221.657	10488
221.723	5823
221.789	7155
221.856	6565
221.922	3109
221.989	4103
222.055	2600
222.121	3944
222.188	4683
222.254	4354
222.321	3152
222.387	2784
222.453	1801
222.520	2959
222.586	2611
222.652	2732
222.719	2464
222.785	2406
222.851	1711
222.918	2534
222.984	1986
223.050	2308
223.116	2686
223.183	1687
223.249	1858
223.315	1649
223.382	1807
223.448	1912
223.514	2232
223.580	2351
223.647	1999
223.713	2308
223.779	1791
223.845	2653
223.911	2026
223.978	1729
224.044	1966
224.110	1351
224.176	2332
224.242	2059
224.309	1944
224.375	1386
224.441	1881
224.507	1953
224.573	1751
224.639	1557
224.705	1409
224.772	1981
224.838	1885
224.904	2292
224.970	1762
225.036	2968
225.102	2038
225.168	2526
225.234	2463
225.300	2652
225.366	1531
225.432	2734
225.499	2520
225.565	3027
225.631	2644
225.697	3935
225.763	3896
225.829	4264
225.895	3867
225.961	5591
226.027	4564
226.093	4820
226.159	5979
226.225	10116
226.291	20247
226.357	22457
226.423	12870
226.489	8463
226.554	4919
226.620	6034
226.686	7836
226.752	10456
226.818	18882
226.884	28473
226.950	21511
227.016	12236
227.082	7971
227.148	6983
227.214	4932
227.279	4312
227.345	4583
227.411	5167
227.477	8753
227.543	16237
227.609	15101
227.674	9364
227.740	5242
227.806	4070
227.872	3433
227.938	4174
228.003	4127
228.069	2800
228.135	3832
228.201	2947
228.267	2823
228.332	3267
228.398	3680
228.464	2912
228.530	1333
228.595	2738
228.661	2105
228.727	5129
228.792	3365
228.858	3067
228.924	2020
228.990	3354
229.055	2179
229.121	3949
229.187	1452
229.252	3535
229.318	1980
229.384	3102
229.449	2412
229.515	1543
229.581	733
229.646	2496
229.712	2446
229.777	6881
229.843	4004
229.909	4865
229.974	5101
230.040	4568
230.105	3530
230.171	4108
230.236	4962
230.302	6758
230.368	4704
230.433	3933
230.499	2689
230.564	4199
230.630	3007
230.695	2596
230.761	2778
230.826	2242
230.892	4138
230.957	2985
231.023	2472
231.088	3326
231.154	2974
231.219	2418
231.284	4047
231.350	4347
231.415	2853
231.481	2178
231.546	2304
231.612	2585
231.677	2277
231.742	1708
231.808	2563
231.873	1827
231.939	2352
232.004	5211
232.069	3519
232.135	2985
232.200	2740
232.265	2579
232.331	1831
232.396	1853
232.461	1621
232.527	1886
232.592	2192
232.657	2900
232.723	2968
232.788	2569
232.853	2356
232.918	2685
232.984	2504
233.049	2206
233.114	2866
233.179	4556
233.245	3843
233.310	3570
233.375	1937
233.440	2282
233.506	545
233.571	889
233.636	1816
233.701	2104
233.766	3053
233.832	3021
233.897	2531
233.962	2311
234.027	3142
234.092	3063
234.157	2797
234.222	4161
234.288	4681
234.353	7535
234.418	6290
234.483	5624
234.548	4492
234.613	4118
234.678	3180
234.743	4810
234.808	8688
234.873	4837
234.938	3438
235.004	3386
235.069	3175
235.134	2883
235.199	3451
235.264	3577
235.329	2742
235.394	4174
235.459	3484
235.524	3472
235.589	3005
235.654	3479
235.719	1821
235.784	3768
235.849	3320
235.913	4589
235.978	4674
236.043	5352
236.108	3239
236.173	4064
236.238	3413
236.303	3621
236.368	4117
236.433	5488
236.498	6445
236.563	6783
236.627	16972
236.692	38172
236.757	26530
236.822	13015
236.887	8962
236.952	7888
237.017	6672
237.081	7261
237.146	11042
237.211	22147
237.276	39834
237.341	47066
237.405	24191
237.470	12490
237.535	7075
237.600	6312
237.664	4770
237.729	4426
237.794	8430
237.859	12867
237.923	7029
237.988	5146
238.053	5093
238.118	5105
238.182	11660
238.247	8045
238.312	4605
238.376	4256
238.441	2720
238.506	4071
238.570	2339
238.635	3219
238.700	2936
238.764	3056
238.829	6217
238.893	5498
238.958	5106
239.023	5177
239.087	2661
239.152	4407
239.216	2363
239.281	3119
239.346	2884
239.410	3726
239.475	3959
239.539	10940
239.604	5663
239.668	4860
239.733	5271
239.797	15372
239.862	29596
239.926	19990
239.991	8846
240.055	5441
240.120	4282
240.184	3873
240.249	2445
240.313	3240
240.378	2763
240.442	6842
240.507	7256
240.571	3523
240.635	5197
240.700	4802
240.764	2906
240.829	3217
240.893	1679
240.957	2430
241.022	7052
241.086	7811
241.151	3924
241.215	2479
241.279	3865
241.344	4147
241.408	3699
241.472	4613
241.537	4613
241.601	4609
241.665	3959
241.730	4276
241.794	3999
241.858	4193
241.922	3657
241.987	4154
242.051	2722
242.115	3630
242.179	3878
242.244	3054
242.308	3894
242.372	3618
242.436	4314
242.501	3546
242.565	4039
242.629	3231
242.693	3713
242.757	2657
242.822	2593
242.886	4688
242.950	3785
243.014	3430
243.078	3195
243.142	4267
243.206	3111
243.271	3650
243.335	3450
243.399	6491
243.463	24544
243.527	38259
243.591	12899
243.655	6100
243.719	3483
243.783	4852
243.847	8403
243.911	9526
243.975	10268
244.040	6723
244.104	4428
244.168	3632
244.232	6503
244.296	8071
244.360	8049
244.424	4103
244.488	3998
244.552	3538
244.615	2320
244.679	2987
244.743	4924
244.807	3958
244.871	2445
244.935	3397
244.999	2221
245.063	2942
245.127	4375
245.191	7097
245.255	5210
245.319	4469
245.383	3469
245.446	3562
245.510	3075
245.574	3162
245.638	3589
245.702	4135
245.766	8050
245.829	6000
245.893	4090
245.957	4401
246.021	4208
246.085	4525
246.149	5475
246.212	13618
246.276	13813
246.340	7365
246.404	5270
246.467	6583
246.531	7111
246.595	5744
246.659	4905
246.722	4634
246.786	6467
246.850	7556
246.913	6859
246.977	4453
247.041	3484
247.104	4224
247.168	4955
247.232	13627
247.295	20438
247.359	10099
247.423	6245
247.486	8727
247.550	5769
247.614	5244
247.677	6801
247.741	4284
247.804	3705
247.868	5302
247.932	12201
247.995	17474
248.059	7613
248.122	3999
248.186	6442
248.249	12205
248.313	38212
248.376	31532
248.440	19033
248.503	8259
248.567	8103
248.630	11273
248.694	14947
248.757	21368
248.821	35913
248.884	19749
248.948	21447
249.011	27907
249.075	43175
249.138	28849
249.202	13086
249.265	9431
249.328	9614
249.392	8053
249.455	7234
249.519	7572
249.582	9103
249.645	13972
249.709	9878
249.772	7798
249.835	6297
249.899	6637
249.962	6322
250.025	6542
250.089	17903
250.152	15921
250.215	8785
250.279	7834
250.342	7164
250.405	7174
250.468	6431
250.532	9104
250.595	14026
250.658	54256
250.721	55796
250.785	23829
250.848	13292
250.911	9614
250.974	7951
251.038	14430
251.101	20433
251.164	11449
251.227	12260
251.290	11655
251.354	19797
251.417	66313
251.480	46243
251.543	49485
251.606	103206
251.669	62427
251.732	30740
251.795	31787
251.859	34312
251.922	67266
251.985	31109
252.048	15017
252.111	11151
252.174	11903
252.237	24337
252.300	41232
252.363	52387
252.426	73852
252.489	30528
252.552	15716
252.615	10559
252.678	14900
252.741	32519
252.804	49405
252.867	80109
252.930	45784
252.993	24014
253.056	16586
253.119	10248
253.182	9519
253.245	16014
253.308	11736
253.371	11361
253.434	8899
253.497	10474
253.559	19496
253.622	11705
253.685	16599
253.748	14003
253.811	7925
253.874	9235
253.937	7947
254.000	7800
254.062	16440
254.125	18450
254.188	19186
254.251	12568
254.314	7461
254.376	15016
254.439	14081
254.502	11239
254.565	16669
254.628	22207
254.690	12878
254.753	6243
254.816	6633
254.878	6853
254.941	17177
255.004	12821
255.067	7625
255.129	6168
255.192	4522
255.255	4367
255.317	4724
255.380	3676
255.443	4447
255.505	3686
255.568	2992
255.631	3505
255.693	5483
255.756	2607
255.819	4691
255.881	3733
255.944	3451
256.006	3271
256.069	3943
256.132	3531
256.194	5206
256.257	7408
256.319	7182
256.382	7359
256.444	7476
256.507	6144
256.569	4985
256.632	5519
256.694	7410
256.757	30515
256.819	56502
256.882	21135
256.944	10856
257.007	8319
257.069	7905
257.132	5818
257.194	5902
257.257	5495
257.319	5790
257.381	6967
257.444	21284
257.506	76721
257.569	63715
257.631	30544
257.693	17097
257.756	8750
257.818	7326
257.880	5479
257.943	5264
258.005	4704
258.067	5040
258.130	4271
258.192	6633
258.254	8334
258.317	5935
258.379	5598
258.441	14744
258.503	9859
258.566	13533
258.628	10845
258.690	4744
258.753	6890
258.815	9763
258.877	5288
258.939	4802
259.001	4877
259.064	5208
259.126	4608
259.188	6112
259.250	5659
259.312	6980
259.375	14313
259.437	7843
259.499	5102
259.561	5423
259.623	5215
259.685	4622
259.747	3904
259.809	12926
259.872	15927
259.934	32231
259.996	20548
260.058	7493
260.120	4412
260.182	4152
260.244	4209
260.306	3898
260.368	3947
260.430	4014
260.492	8491
260.554	14051
260.616	9560
260.678	20630
260.740	15090
260.802	5262
260.864	6059
260.926	4804
260.988	4825
261.050	4864
261.112	11022
261.174	22023
261.236	11682
261.298	5959
261.359	10025
261.421	10226
261.483	4850
261.545	5586
261.607	3059
261.669	3964
261.731	7248
261.793	14181
261.854	6600
261.916	6056
261.978	5417
262.040	4671
262.102	4306
262.164	5692
262.225	3940
262.287	5580
262.349	12700
262.411	7121
262.472	4077
262.534	7934
262.596	9009
262.658	5031
262.719	3103
262.781	6222
262.843	9230
262.904	5467
262.966	4812
263.028	5766
263.090	34017
263.151	51810
263.213	17643
263.275	11344
263.336	5665
263.398	5063
263.459	3317
263.521	4907
263.583	11654
263.644	6686
263.706	3437
263.767	2719
263.829	2602
263.891	3238
263.952	2457
264.014	2708
264.075	6858
264.137	9969
264.198	5728
264.260	3502
264.321	3365
264.383	11764
264.444	14939
264.506	5610
264.567	3892
264.629	9977
264.690	12036
264.752	6402
264.813	4288
264.875	3256
264.936	3692
264.998	4263
265.059	4563
265.120	4365
265.182	9299
265.243	43757
265.305	27279
265.366	8890
265.427	5755
265.489	5160
265.550	2905
265.611	5650
265.673	4495
265.734	3300
265.795	3248
265.857	3997
265.918	3833
265.979	13984
266.040	64419
266.102	33418
266.163	12988
266.224	8690
266.286	5387
266.347	4783
266.408	4344
266.469	4153
266.530	2517
266.592	3120
266.653	9045
266.714	10287
266.775	4413
266.836	2939
266.898	4172
266.959	6219
267.020	3626
267.081	4559
267.142	3209
267.203	3780
267.264	3476
267.326	4130
267.387	4125
267.448	2575
267.509	3873
267.570	3437
267.631	3194
267.692	3157
267.753	3917
267.814	2836
267.875	10113
267.936	12802
267.997	6713
268.058	5848
268.119	3442
268.180	3618
268.241	3232
268.302	3662
268.363	2198
268.424	3159
268.485	3815
268.546	2156
268.607	1734
268.668	3099
268.729	2756
268.790	3491
268.851	3158
268.912	11886
268.972	9560
269.033	5692
269.094	2555
269.155	3368
269.216	2701
269.277	2723
269.338	2570
269.398	3103
269.459	3459
269.520	5729
269.581	7375
269.642	7434
269.702	4657
269.763	4629
269.824	3568
269.885	6398
269.945	7352
270.006	3838
270.067	2677
270.128	2269
270.188	3452
270.249	3288
270.310	2410
270.370	3938
270.431	3116
270.492	3260
270.553	2982
270.613	9478
270.674	13627
270.734	5396
270.795	4361
270.856	6255
270.916	4301
270.977	4069
271.038	4899
271.098	4930
271.159	8111
271.219	6389
271.280	3592
271.340	4450
271.401	4046
271.462	6547
271.522	4553
271.583	3621
271.643	4036
271.704	4122
271.764	4905
271.825	12654
271.885	42429
271.946	34998
272.006	12766
272.066	27420
272.127	30528
272.187	17640
272.248	7906
272.308	10234
272.369	24673
272.429	9949
272.489	11005
272.550	9516
272.610	12661
272.671	7967
272.731	7066
272.791	9387
272.852	7126
272.912	6755
272.972	3926
273.033	4767
273.093	5333
273.153	6528
273.214	5454
273.274	6305
273.334	23751
273.394	29285
273.455	11949
273.515	17214
273.575	26913
273.635	11484
273.696	18814
273.756	28411
273.816	11296
273.876	7679
273.936	13687
273.997	15066
274.057	5827
274.117	6002
274.177	11036
274.237	45067
274.297	23056
274.358	17931
274.418	26945
274.478	16418
274.538	7292
274.598	5632
274.658	15534
274.718	15411
274.778	6669
274.838	4795
274.898	10981
274.958	21413
275.018	30163
275.078	15712
275.138	7355
275.198	4935
275.258	3787
275.318	6678
275.378	11117
275.438	9949
275.498	6819
275.558	15684
275.618	28377
275.678	18525
275.738	15897
275.798	10246
275.858	5530
275.918	4461
275.978	5709
276.038	5177
276.098	4924
276.157	12573
276.217	23057
276.277	9502
276.337	7951
276.397	5625
276.457	6761
276.517	4482
276.576	4730
276.636	5437
276.696	7995
276.756	16954
276.815	8636
276.875	6639
276.935	6195
276.995	5298
277.055	5244
277.114	6405
277.174	9664
277.234	19176
277.293	7794
277.353	5131
277.413	4076
277.472	5248
277.532	4483
277.592	4992
277.651	28843
277.711	27296
277.771	13406
277.830	49417
277.890	22788
277.950	32814
278.009	58754
278.069	20376
278.128	34458
278.188	30318
278.248	18086
278.307	46292
278.367	16744
278.426	7642
278.486	6467
278.545	5006
278.605	4456
278.664	4689
278.724	4991
278.783	18758
278.843	26783
278.902	8310
278.962	7414
279.021	7485
279.081	8169
279.140	8150
279.199	7625
279.259	7562
279.318	6640
279.378	8042
279.437	19049
279.496	68610
279.556	152943
279.615	77346
279.675	26141
279.734	18240
279.793	32638
279.853	38622
279.912	12849
279.971	10664
280.031	8830
280.090	23934
280.149	26273
280.208	25141
280.268	114733
280.327	69020
280.386	21172
280.445	22524
280.505	13253
280.564	8067
280.623	6831
280.682	14779
280.742	14162
280.801	6176
280.860	4986
280.919	5073
280.978	4594
281.037	4739
281.097	3813
281.156	4969
281.215	3662
281.274	6800
281.333	25433
281.392	11523
281.451	5632
281.510	4799
281.569	4288
281.628	3649
281.688	3724
281.747	4795
281.806	3298
281.865	4045
281.924	3618
281.983	3582
282.042	3844
282.101	3371
282.160	3534
282.219	3945
282.278	5433
282.337	15115
282.396	7507
282.454	4425
282.513	7968
282.572	21193
282.631	8631
282.690	5123
282.749	3901
282.808	6170
282.867	4724
282.926	4851
282.985	3854
283.043	4241
283.102	4016
283.161	4951
283.220	13500
283.279	18320
283.338	6444
283.396	5441
283.455	5299
283.514	6723
283.573	9193
283.631	6807
283.690	4643
283.749	5634
283.808	12024
283.866	10168
283.925	4961
283.984	6727
284.043	7421
284.101	6297
284.160	5390
284.219	6840
284.277	6407
284.336	12335
284.395	31010
284.453	18121
284.512	10010
284.570	14536
284.629	11224
284.688	12709
284.746	13548
284.805	16059
284.863	20489
284.922	25160
284.981	30027
285.039	44147
285.098	83016
285.156	177447
285.215	200966
285.273	217751
285.332	142196
285.390	82424
285.449	52068
285.507	36173
285.566	25999
285.624	18979
285.683	15265
285.741	12620
285.799	11518
285.858	9728
285.916	8994
285.975	7793
286.033	7431
286.091	7239
286.150	5895
286.208	5706
286.267	7143
286.325	7966
286.383	10021
286.442	8054
286.500	6362
286.558	5941
286.616	5072
286.675	7862
286.733	5650
286.791	5887
286.850	6192
286.908	8879
286.966	11149
287.024	5751
287.083	4628
287.141	4281
287.199	5625
287.257	6655
287.315	4666
287.374	6655
287.432	15209
287.490	7965
287.548	5827
287.606	5359
287.664	4932
287.723	7317
287.781	6591
287.839	5836
287.897	6553
287.955	6716
288.013	8772
288.071	23567
288.129	115659
288.187	194213
288.245	70645
288.303	29347
288.361	17810
288.419	11842
288.477	8185
288.535	6029
288.593	5126
288.651	5078
288.709	4167
288.767	5091
288.825	3337
288.883	4150
288.941	4086
288.999	3454
289.057	3473
289.115	3864
289.173	3921
289.231	4357
289.289	3881
289.346	4512
289.404	5226
289.462	8247
289.520	6683
289.578	4412
289.636	3558
289.694	4017
289.751	3557
289.809	4315
289.867	3725
289.925	5945
289.983	4599
290.040	4029
290.098	3220
290.156	4071
290.214	5130
290.271	4119
290.329	4194
290.387	3562
290.444	3636
290.502	3176
290.560	3696
290.617	3967
290.675	3370
290.733	2862
290.790	3620
290.848	3500
290.906	3898
290.963	4746
291.021	3166
291.078	3941
291.136	4253
291.194	14136
291.251	16857
291.309	5852
291.366	3892
291.424	4496
291.481	3718
291.539	4703
291.596	3816
291.654	3162
291.711	3746
291.769	5334
291.826	7191
291.884	4527
291.941	2957
291.999	3446
292.056	4474
292.114	4112
292.171	3431
292.228	5708
292.286	4561
292.343	7875
292.401	8662
292.458	5472
292.515	4367
292.573	6589
292.630	4751
292.687	4769
292.745	3923
292.802	5689
292.859	13273
292.917	22666
292.974	9706
293.031	5240
293.089	4218
293.146	3521
293.203	3476
293.260	3029
293.318	4578
293.375	5333
293.432	3376
293.489	3664
293.546	3242
293.604	5162
293.661	19031
293.718	32907
293.775	14019
293.832	9261
293.889	8148
293.947	7562
294.004	4455
294.061	5644
294.118	14773
294.175	23455
294.232	20320
294.289	7909
294.346	7923
294.403	6661
294.460	5633
294.517	4713
294.574	3382
294.631	3807
294.688	4680
294.745	14356
294.802	42040
294.859	28614
294.916	12696
294.973	8599
295.030	7422
295.087	6692
295.144	4580
295.201	4867
295.258	3467
295.315	5290
295.372	21620
295.429	24350
295.486	9997
295.542	6798
295.599	20021
295.656	20195
295.713	21917
295.770	23384
295.827	8254
295.883	5824
295.940	5580
295.997	10002
296.054	7316
296.111	4126
296.167	4247
296.224	4185
296.281	4645
296.338	3172
296.394	2996
296.451	4283
296.508	16884
296.564	19808
296.621	13916
296.678	41517
296.734	35104
296.791	13542
296.848	8262
296.904	10838
296.961	22102
297.018	32393
297.074	16794
297.131	9109
297.187	6423
297.244	10590
297.301	42439
297.357	44104
297.414	14980
297.470	9341
297.527	6756
297.583	6143
297.640	4990
297.696	4714
297.753	5151
297.809	3146
297.866	3884
297.922	4003
297.979	3125
298.035	4170
298.092	8830
298.148	21834
298.204	13725
298.261	7339
298.317	20501
298.374	37245
298.430	15963
298.486	9388
298.543	7461
298.599	11009
298.656	13197
298.712	18632
298.768	35365
298.824	17269
298.881	8656
298.937	5606
298.993	5665
299.050	6668
299.106	4951
299.162	5258
299.218	6076
299.275	4186
299.331	4618
299.387	12709
299.443	44934
299.500	47541
299.556	21376
299.612	11392
299.668	14313
299.724	33971
299.780	23507
299.837	9984
299.893	15730
299.949	50155
300.005	39515
300.061	46844
300.117	55625
300.173	22011
300.229	12219
300.285	16172
300.341	13120
300.397	8165
300.453	5799
300.510	7031
300.566	7303
300.622	14965
300.678	54791
300.734	52487
300.790	36626
300.845	34364
300.901	41121
300.957	49739
301.013	22218
301.069	10917
301.125	8956
301.181	8538
301.237	5892
301.293	5138
301.349	5167
301.405	5852
301.461	8754
301.516	11291
301.572	7744
301.628	10090
301.684	8574
301.740	20117
301.796	21055
301.851	15876
301.907	22435
301.963	17772
302.019	47414
302.074	100649
302.130	77019
302.186	36021
302.242	16647
302.297	12036
302.353	13640
302.409	23416
302.464	15678
302.520	16516
302.576	38318
302.631	33682
302.687	17309
302.743	9524
302.798	6299
302.854	6668
302.910	5892
302.965	8563
303.021	12722
303.076	11038
303.132	16399
303.187	14711
303.243	7555
303.299	5650
303.354	5534
303.410	5515
303.465	5065
303.521	4255
303.576	4072
303.632	5277
303.687	15391
303.743	32542
303.798	19133
303.853	9156
303.909	6774
303.964	6858
304.020	10606
304.075	12207
304.130	12745
304.186	21438
304.241	19819
304.297	14444
304.352	9471
304.358	9225
304.407	7207
304.449	7161
304.463	7149
304.518	6562
304.539	6013
304.573	5103
304.629	5694
304.630	5780
304.684	10015
304.720	23855
304.739	30941
304.794	30674
304.811	26520
304.850	14999
304.902	7768
304.905	7396
304.960	7710
304.992	7491
305.015	7307
305.071	8020
305.083	7576
305.126	5708
305.173	5030
305.181	4973
305.236	4961
305.264	5420
305.292	6072
305.347	7575
305.354	7874
305.402	9692
305.445	9685
305.457	9624
305.512	11247
305.535	10700
305.567	9803
305.622	9625
305.626	10073
305.678	22677
305.716	40571
305.733	46488
305.788	39126
305.807	36501
305.843	30790
305.897	40909
305.898	41054
305.953	32467
305.988	24227
306.008	19323
306.063	13743
306.078	12138
306.118	9321
306.168	6992
306.173	6873
306.228	6458
306.259	6246
306.283	6219
306.338	6023
306.349	6251
306.393	8184
306.440	10037
306.448	10088
306.503	8966
306.530	9111
306.558	12518
306.613	24162
306.620	25769
306.668	36770
306.711	47871
306.723	48054
306.778	33935
306.801	27877
306.833	20251
306.888	10727
306.892	10157
306.943	8828
306.982	8492
306.997	8564
307.052	8114
307.072	8086
307.107	8539
307.162	10022
307.163	10028
307.217	14506
307.253	17110
307.272	17541
307.327	18519
307.343	18276
307.381	16575
307.434	14521
307.436	15020
307.491	28908
307.524	40327
307.546	44578
307.600	46800
307.614	45431
307.655	29856
307.704	15825
307.710	15960
307.765	18284
307.795	21304
307.819	27078
307.874	39109
307.885	40778
307.929	35738
307.975	30751
307.984	32768
308.038	48219
308.065	58661
308.093	97174
308.148	196591
308.156	213739
308.202	333855
308.246	405928
308.257	383558
308.312	231739
308.336	170377
308.366	136256
308.421	78376
308.426	72847
308.475	50415
308.517	33981
308.530	32570
308.585	27651
308.607	25947
308.639	26072
308.694	27387
308.697	27480
308.748	41795
308.787	53350
308.803	53250
308.857	48562
308.877	46304
308.912	44582
308.967	44218
308.967	44095
309.021	63205
309.058	77368
309.076	97282
309.130	163630
309.148	187776
309.185	297016
309.238	472795
309.239	475703
309.293	531112
309.328	539460
309.348	474493
309.402	282728
309.418	230230
309.457	170895
309.508	97437
309.511	96708
309.566	83379
309.598	77154
309.620	86588
309.674	114287
309.688	120259
309.729	121166
309.778	116344
309.783	113907
309.837	81695
309.868	64532
309.892	68293
309.946	80798
309.959	84037
310.001	113636
310.049	142049
310.055	136643
310.109	81575
310.139	51859
310.163	43748
310.218	28218
310.229	25021
310.272	21916
310.319	18867
310.326	18716
310.381	17218
310.409	16590
310.435	15971
310.489	14546
310.499	14270
310.543	14613
310.589	14764
310.598	14889
310.652	15639
310.679	15750
310.706	15018
310.760	13653
310.769	13398
310.814	12974
310.859	12403
310.868	12488
310.923	12761
310.948	12941
310.977	14268
311.031	16570
311.038	16869
311.085	16917
311.128	16399
311.139	16164
311.193	15105
311.218	14442
311.247	13882
311.301	12815
311.308	12644
311.356	13049
311.398	13308
311.410	13279
311.464	12866
311.488	12658
311.518	12709
311.572	12722
311.578	12688
311.626	16775
311.668	20229
311.680	19946
311.734	18221
311.758	17401
311.788	18394
311.842	20141
311.847	20244
311.896	21884
311.937	23200
311.950	23688
312.004	25394
312.027	26036
312.058	22978
312.112	17342
312.117	16711
312.165	15017
312.207	13455
312.297	19206
312.386	18551
312.476	17000
312.566	32617
312.656	21771
312.745	13049
312.835	14931
312.925	17952
313.015	16281
313.104	16933
313.194	15731
313.284	17384
313.374	20818
313.463	21405
313.553	16877
313.643	17883
313.732	16897
313.822	17897
313.912	20279
314.001	22086
314.091	24252
314.180	28802
314.270	26996
314.360	26790
314.449	27051
314.539	21203
314.628	19538
314.718	22545
314.808	25538
314.897	22949
314.987	23264
315.076	27168
315.166	32393
315.255	28615
315.345	28963
315.434	27314
315.524	25635
315.613	33579
315.703	44712
315.792	87570
315.881	327054
315.971	172957
316.060	47689
316.150	49109
316.239	50220
316.328	31392
316.418	22429
316.507	24981
316.597	30650
316.686	32164
316.775	33133
316.865	53505
316.954	25735
317.043	20478
317.133	21836
317.222	19893
317.311	18577
317.400	19553
317.490	24096
317.579	31070
317.668	29156
317.757	53205
317.847	141171
317.936	511069
318.025	244065
318.114	131325
318.203	87681
318.293	48451
318.382	93916
318.471	82103
318.560	88508
318.649	116013
318.738	43754
318.828	26083
318.917	25781
319.006	24059
319.095	54823
319.184	126980
319.273	97307
319.362	55935
319.451	21957
319.540	19955
319.629	37277
319.718	68603
319.807	28833
319.896	47721
319.985	161920
320.074	90926
320.163	24738
320.252	34408
320.341	30641
320.430	31266
320.519	39699
320.608	32889
320.697	27533
320.786	29893
320.875	36104
320.964	41987
321.053	57404
321.142	74931
321.230	90190
321.319	65866
321.408	125475
321.497	77536
321.586	63036
321.675	61722
321.764	64736
321.852	45826
321.941	74817
322.030	65463
322.119	57855
322.207	129258
322.296	96803
322.385	65094
322.474	74381
322.562	155328
322.651	110573
322.740	65034
322.829	88321
322.917	73360
323.006	57083
323.095	48897
323.183	36301
323.272	39966
323.361	60638
323.449	159438
323.538	71762
323.626	104491
323.715	94612
323.804	32348
323.892	97243
323.981	82809
324.069	26427
324.158	51165
324.246	65752
324.335	29053
324.424	48047
324.512	23267
324.601	24389
324.689	30183
324.778	50901
324.866	51961
324.954	22077
325.043	18806
325.131	29299
325.220	45111
325.308	54607
325.397	40707
325.485	34478
325.574	15981
325.662	16786
325.750	18374
325.839	16354
325.927	13419
326.015	19469
326.104	21800
326.192	33273
326.280	15158
326.369	14882
326.457	20379
326.545	36552
326.634	23954
326.722	13942
326.810	16458
326.898	16090
326.987	19985
327.075	34404
327.163	37552
327.251	20283
327.340	22344
327.428	34077
327.516	23788
327.604	22687
327.692	19628
327.781	17571
327.869	24693
327.957	19617
328.045	20754
328.133	11666
328.221	14627
328.309	16090
328.397	13624
328.485	18130
328.574	26212
328.662	79331
328.750	57944
328.838	22752
328.926	15519
329.014	12922
329.102	17302
329.190	36220
329.278	34064
329.366	11829
329.454	10721
329.542	11437
329.630	10933
329.718	11531
329.806	15600
329.893	14153
329.981	13993
330.069	10283
330.157	18214
330.245	49502
330.333	32828
330.421	13965
330.509	17692
330.597	75779
330.684	70122
330.772	21798
330.860	24070
330.948	31902
331.036	20258
331.123	10971
331.211	11034
331.299	14579
331.387	23061
331.475	53165
331.562	21106
331.650	12762
331.738	14303
331.825	18646
331.913	12846
332.001	11709
332.089	14169
332.176	24907
332.264	47123
332.352	52179
332.439	20854
332.527	15705
332.614	14251
332.702	17432
332.790	14333
332.877	25828
332.965	58394
333.052	31045
333.140	23128
333.228	59713
333.315	29926
333.403	17211
333.490	33163
333.578	42301
333.665	71698
333.753	54814
333.840	23060
333.928	23674
334.015	40523
334.103	57387
334.190	172600
334.278	90580
334.365	61869
334.452	63470
334.540	47120
334.627	46812
334.715	58034
334.802	79955
334.889	212804
334.977	309276
335.064	112386
335.151	57887
335.239	42719
335.326	41795
335.413	81020
335.501	150565
335.588	46169
335.675	43585
335.762	51723
335.850	75634
335.937	86921
336.024	134505
336.111	306164
336.199	250667
336.286	101264
336.373	57692
336.460	40092
336.547	32585
336.635	30688
336.722	29107
336.809	24888
336.896	26554
336.983	50747
337.070	116827
337.157	177609
337.245	120729
337.332	113783
337.419	25456
337.506	19650
337.593	19947
337.680	33384
337.767	121165
337.854	46622
337.941	43844
338.028	50396
338.115	26522
338.202	23185
338.289	35050
338.376	115773
338.463	57635
338.550	55116
338.637	92411
338.724	26605
338.811	44376
338.898	17572
338.984	13191
339.071	16161
339.158	17384
339.245	41788
339.332	34419
339.419	26269
339.506	35714
339.593	13296
339.679	14197
339.766	14419
339.853	16820
339.940	35479
340.027	18746
340.113	14315
340.200	20848
340.287	17751
340.374	17550
340.460	32932
340.547	17198
340.634	19768
340.720	70810
340.807	67083
340.894	14836
340.980	14403
341.067	14836
341.154	14853
341.240	18516
341.327	46671
341.414	20664
341.500	17557
341.587	15080
341.674	13287
341.760	26604
341.847	38898
341.933	17907
342.020	10771
342.106	10367
342.193	13823
342.279	26677
342.366	18708
342.452	32139
342.539	21140
342.625	30306
342.712	88389
342.798	48240
342.885	23091
342.971	11787
343.058	10131
343.144	11845
343.230	12561
343.317	12985
343.403	13693
343.490	11069
343.576	10711
343.662	12895
343.749	15460
343.835	17264
343.921	21453
344.008	90315
344.094	315514
344.180	100102
344.267	28747
344.353	70658
344.439	111391
344.525	48854
344.612	21558
344.698	18366
344.784	17673
344.870	12092
344.957	12247
345.043	19908
345.129	15334
345.215	29162
345.301	20096
345.387	14140
345.474	10494
345.560	11934
345.646	13875
345.732	13567
345.818	15264
345.904	14449
345.990	16808
346.076	15377
346.162	22752
346.249	16472
346.335	12017
346.421	12761
346.507	26752
346.593	124315
346.679	50319
346.765	15630
346.851	21971
346.937	26009
347.023	15242
347.108	15855
347.194	16290
347.280	14562
347.366	18336
347.452	43998
347.538	164115
347.624	128971
347.710	110056
347.796	26026
347.882	15155
347.967	13345
348.053	17097
348.139	15256
348.225	13762
348.311	14311
348.397	13120
348.482	15170
348.568	21060
348.654	18768
348.740	42024
348.825	70052
348.911	38120
348.997	55432
349.083	149757
349.168	39280
349.254	15527
349.340	15958
349.425	12601
349.511	15925
349.597	20118
349.682	26557
349.768	84388
349.854	63783
349.939	15781
350.025	11701
350.110	12633
350.196	11322
350.282	10834
350.367	10882
350.453	15847
350.538	20864
350.624	15782
350.709	17728
350.795	12960
350.880	14136
350.966	13519
351.051	17576
351.137	16719
351.222	12791
351.308	23561
351.393	83352
351.479	34780
351.564	14524
351.649	13335
351.735	12785
351.820	10924
351.906	12645
351.991	14620
352.076	40309
352.162	91627
352.247	25529
352.332	15185
352.418	23428
352.503	28086
352.588	92357
352.673	121924
352.759	28974
352.844	19143
352.929	16078
353.014	24705
353.100	17666
353.185	27049
353.270	37931
353.355	40273
353.441	17131
353.526	14695
353.611	27027
353.696	42616
353.781	24940
353.866	16283
353.952	13575
354.037	25526
354.122	62889
354.207	63954
354.292	32793
354.377	15311
354.462	13270
354.547	17332
354.632	17020
354.717	21312
354.802	37490
354.887	20391
354.972	12799
355.057	11381
355.142	11428
355.227	14793
355.312	20910
355.397	39530
355.482	94604
355.567	69643
355.652	32743
355.737	40996
355.822	84213
355.907	116288
355.991	22604
356.076	14927
356.161	13843
356.246	12660
356.331	13494
356.416	21583
356.501	114577
356.585	208424
356.670	40700
356.755	22307
356.840	26303
356.924	82045
357.009	356349
357.094	217078
357.179	43007
357.263	34244
357.348	27389
357.433	31619
357.517	27035
357.602	25052
357.687	21814
357.771	31085
357.856	111454
357.941	92384
358.025	59739
358.110	311122
358.195	244485
358.279	42420
358.364	25911
358.448	57890
358.533	182551
358.617	165462
358.702	143067
358.787	75741
358.871	35214
358.956	37073
359.040	19262
359.125	14723
359.209	17329
359.294	45446
359.378	123535
359.462	55893
359.547	26115
359.631	17354
359.716	16114
359.800	15778
359.885	19276
359.969	18622
360.053	15559
360.138	17055
360.222	20953
360.306	35221
360.391	33723
360.475	47799
360.559	140415
360.644	90372
360.728	77794
360.812	60614
360.896	233081
360.981	129089
361.065	76676
361.149	26152
361.233	24770
361.318	23654
361.402	27713
361.486	23649
361.570	22313
361.654	24733
361.739	39924
361.823	121396
361.907	269315
361.991	81465
362.075	43315
362.159	86262
362.243	99682
362.327	144830
362.411	224144
362.495	122665
362.580	61687
362.664	49389
362.748	55911
362.832	80335
362.916	143768
363.000	331879
363.084	578843
363.168	488068
363.252	169365
363.336	69243
363.420	59775
363.503	103774
363.587	172585
363.671	58951
363.755	44002
363.839	56801
363.923	49333
364.007	67663
364.091	93885
364.175	116073
364.258	289608
364.342	474063
364.426	729813
364.510	512045
364.594	186152
364.677	100262
364.761	194115
364.845	216258
364.929	73796
365.013	67412
365.096	47788
365.180	62566
365.264	44797
365.347	157265
365.431	112818
365.515	35764
365.598	24974
365.682	21446
365.766	25786
365.849	37063
365.933	24620
366.017	26414
366.100	26071
366.184	18330
366.267	18320
366.351	18567
366.435	17667
366.518	16885
366.602	16328
366.685	17374
366.769	20456
366.852	24461
366.936	41830
367.019	33726
367.103	22885
367.186	34879
367.270	22096
367.353	17415
367.436	19249
367.520	20410
367.603	22926
367.687	28869
367.770	46910
367.853	32696
367.937	50356
368.020	119004
368.104	45020
368.187	30904
368.270	44117
368.353	41543
368.437	41911
368.520	75407
368.603	67971
368.687	61765
368.770	153586
368.853	59116
368.936	36230
369.020	41393
369.103	24398
369.186	17012
369.269	20132
369.352	26668
369.436	41123
369.519	30948
369.602	22490
369.685	18348
369.768	21191
369.851	18364
369.934	15176
370.018	17326
370.101	34329
370.184	33391
370.267	23265
370.350	35582
370.433	52140
370.516	106344
370.599	261937
370.682	152743
370.765	80861
370.848	93287
370.931	163240
371.014	97006
371.097	25381
371.180	19360
371.263	15167
371.346	13460
371.429	14798
371.511	15705
371.594	23283
371.677	33926
371.760	37012
371.843	31433
371.926	83971
372.009	287625
372.091	138719
372.174	56891
372.257	141927
372.340	91957
372.423	44149
372.505	60057
372.588	32969
372.671	42046
372.754	150019
372.836	121529
372.919	46050
373.002	109160
373.085	55739
373.167	33417
373.250	65168
373.332	145182
373.415	166659
373.498	387556
373.580	227643
373.663	253118
373.746	469909
373.828	130455
373.911	46618
373.993	38842
374.076	85398
374.159	121554
374.241	51446
374.324	127036
374.406	130512
374.489	84755
374.571	294974
374.654	200048
374.736	63578
374.819	168143
374.901	253992
374.983	334209
375.066	97500
375.148	34307
375.231	64874
375.313	162666
375.395	90839
375.478	34525
375.560	24825
375.643	27884
375.725	50568
375.807	203545
375.890	235485
375.972	99328
376.054	54468
376.136	69466
376.219	47964
376.301	52319
376.383	202874
376.465	127554
376.548	61551
376.630	66195
376.712	162160
376.794	132899
376.877	24461
376.959	15777
377.041	18457
377.123	23726
377.205	34702
377.287	16593
377.369	14259
377.452	16105
377.534	16319
377.616	15256
377.698	16415
377.780	13752
377.862	16519
377.944	16243
378.026	14094
378.108	13609
378.190	13906
378.272	13874
378.354	12588
378.436	11797
378.518	16796
378.600	46112
378.682	49050
378.764	81841
378.846	104632
378.928	31201
379.010	37481
379.091	29430
379.173	16167
379.255	15275
379.337	18672
379.419	36857
379.501	126294
379.583	88303
379.664	21701
379.746	36692
379.828	84006
379.910	128462
379.991	137193
380.073	39482
380.155	20741
380.237	18661
380.318	15108
380.400	17452
380.482	23799
380.564	44909
380.645	42828
380.727	47699
380.809	29292
380.890	22816
380.972	20276
381.053	18434
381.135	20022
381.217	30130
381.298	97423
381.380	76857
381.461	39798
381.543	132870
381.624	265959
381.706	76795
381.787	33445
381.869	35480
381.951	57045
382.032	245740
382.113	255006
382.195	70955
382.276	42378
382.358	62259
382.439	157012
382.521	177962
382.602	281441
382.684	174972
382.765	220171
382.846	337898
382.928	490012
383.009	391052
383.090	216155
383.172	563137
383.253	1072212
383.334	490873
383.416	300074
383.497	223999
383.578	120707
383.659	188377
383.741	495352
383.822	1289793
383.903	987776
383.984	305598
384.066	333676
384.147	289709
384.228	90801
384.309	59086
384.390	57880
384.471	46358
384.553	43913
384.634	45515
384.715	51976
384.796	35507
384.877	34403
384.958	78211
385.039	136256
385.120	66952
385.201	33411
385.282	36343
385.363	39122
385.444	40823
385.525	49275
385.606	120560
385.687	152969
385.768	52964
385.849	45829
385.930	106153
386.011	247465
386.092	116788
386.173	37767
386.254	30471
386.335	31663
386.416	32293
386.496	57300
386.577	116300
386.658	62884
386.739	40293
386.820	36249
386.901	33379
386.981	33404
387.062	32205
387.143	39966
387.224	94132
387.304	130178
387.385	64786
387.466	51042
387.547	56655
387.627	51457
387.708	56096
387.789	144093
387.869	235721
387.950	106356
388.031	38236
388.111	33609
388.192	43494
388.273	57215
388.353	48647
388.434	34643
388.514	39741
388.595	117055
388.676	212363
388.756	128519
388.837	95438
388.917	91193
388.998	33056
389.078	29393
389.159	27570
389.239	26354
389.320	32493
389.400	33677
389.480	38646
389.561	97860
389.641	81424
389.722	31706
389.802	42793
389.883	47202
389.963	107178
390.043	104929
390.124	43104
390.204	41305
390.284	108980
390.365	107622
390.445	76286
390.525	227142
390.605	300253
390.686	110168
390.766	47109
390.846	33561
390.927	28267
391.007	29252
391.087	31172
391.167	37137
391.247	36120
391.328	35333
391.408	43595
391.488	43574
391.568	33817
391.648	37952
391.728	46976
391.808	46490
391.888	53718
391.969	70173
392.049	121331
392.129	82780
392.209	70621
392.289	135498
392.369	125421
392.449	92676
392.529	93409
392.609	91880
392.689	103665
392.769	168607
392.849	219623
392.929	193460
393.009	306502
393.089	411293
393.169	547086
393.248	1040182
393.328	1760840
393.408	1889949
393.488	1473332
393.568	765857
393.648	408176
393.728	257579
393.807	178877
393.887	141366
393.967	117012
394.047	106029
394.127	102399
394.206	116053
394.286	209251
394.366	651879
394.446	1011581
394.525	450092
394.605	145509
394.685	90571
394.764	100531
394.844	151432
394.924	176332
395.003	93428
395.083	60099
395.163	55537
395.242	51084
395.322	53669
395.402	48793
395.481	53711
395.561	72062
395.640	169810
395.720	264141
395.799	242376
395.879	196953
395.958	146867
396.038	288558
396.117	843494
396.197	1238498
396.276	670637
396.356	275508
396.435	198460
396.515	193931
396.594	243619
396.673	407829
396.753	866341
396.832	1607481
396.912	1656729
396.991	917224
397.070	382314
397.150	213208
397.229	148483
397.308	154941
397.388	292783
397.467	226044
397.546	89452
397.625	61611
397.705	57048
397.784	54002
397.863	45213
397.942	37157
398.022	35955
398.101	44962
398.180	110230
398.259	95340
398.338	40187
398.417	32535
398.497	28336
398.576	27484
398.655	24628
398.734	22909
398.813	21777
398.892	31409
398.971	104915
399.050	93991
399.129	27479
399.208	17999
399.287	18803
399.366	17036
399.445	17128
399.524	16164
399.603	17334
399.682	22291
399.761	40737
399.840	102107
399.919	127547
399.998	31933
400.077	15445
400.156	14281
400.235	17098
400.313	15033
400.392	16521
400.471	39791
400.550	93793
400.629	45173
400.708	20000
400.786	16234
400.865	25890
400.944	36850
401.023	25118
401.102	11689
401.180	10797
401.259	12219
401.338	14156
401.416	16619
401.495	18539
401.574	14079
401.652	13122
401.731	15450
401.810	18446
401.888	14148
401.967	11273
402.046	13894
402.124	16474
402.203	20281
402.281	15752
402.360	17476
402.438	33553
402.517	36241
402.596	16367
402.674	14790
402.753	13134
402.831	11421
402.910	13501
402.988	26941
403.066	111393
403.145	108466
403.223	38734
403.302	98079
403.380	98875
403.459	85805
403.537	55089
403.615	24076
403.694	15533
403.772	13076
403.850	12300
403.929	12632
404.007	12618
404.085	20186
404.164	31098
404.242	18219
404.320	14935
404.398	18931
404.477	34457
404.555	162082
404.633	249017
404.711	59051
404.789	16994
404.868	15361
404.946	15461
405.024	10274
405.102	10155
405.180	9899
405.258	10364
405.336	10301
405.415	10734
405.493	17585
405.571	23234
405.649	13363
405.727	11090
405.805	16334
405.883	18404
405.961	17125
406.039	17607
406.117	13793
406.195	15948
406.273	35997
406.351	161366
406.429	168480
406.507	34534
406.585	15498
406.663	12730
406.740	16798
406.818	17552
406.896	12728
406.974	12004
407.052	16320
407.130	77579
407.208	182857
407.285	64297
407.363	14699
407.441	13511
407.519	13058
407.596	12585
407.674	18785
407.752	30771
407.830	42243
407.907	31737
407.985	18418
408.063	12367
408.141	9850
408.218	14405
408.296	18134
408.373	17316
408.451	15992
408.529	16524
408.606	12558
408.684	11270
408.762	11250
408.839	12161
408.917	12243
408.994	14691
409.072	16754
409.149	21356
409.227	28837
409.304	46772
409.382	50762
409.459	55411
409.537	69800
409.614	74752
409.692	62931
409.769	56502
409.846	68781
409.924	90573
410.001	84991
410.079	64700
410.156	45755
410.233	38336
410.311	33108
410.388	26944
410.465	26176
410.543	26749
410.620	20917
410.697	19223
410.775	22025
410.852	19041
410.929	20800
411.006	26340
411.083	21226
411.161	28324
411.238	35860
411.315	22432
411.392	16060
411.469	17778
411.547	22875
411.624	16276
411.701	15789
411.778	14045
411.855	23430
411.932	20493
412.009	11202
412.086	11013
412.163	11472
412.240	13153
412.317	14453
412.394	17303
412.471	10776
412.548	9122
412.625	10047
412.702	10773
412.779	18243
412.856	19108
412.933	9872
413.010	8700
413.087	10752
413.164	34362
413.241	80597
413.318	33386
413.395	14285
413.471	20794
413.548	15808
413.625	8712
413.702	10521
413.779	11643
413.855	7065
413.932	4935
414.009	6920
414.086	7223
414.162	7879
414.239	10577
414.316	30926
414.393	97091
414.469	64399
414.546	11029
414.623	7273
414.699	7497
414.776	10240
414.853	8026
414.929	7827
415.006	8500
415.082	9617
415.159	8671
415.236	6884
415.312	8167
415.389	12299
415.465	20929
415.542	14869
415.618	7940
415.695	13243
415.771	11890
415.848	9856
415.924	9593
416.000	8567
416.077	7026
416.153	5220
416.230	5651
416.306	4948
416.383	6728
416.459	7225
416.535	6155
416.612	5756
416.688	6178
416.764	6073
416.841	6900
416.917	7452
416.993	7524
417.069	8082
417.146	11047
417.222	18574
417.298	15017
417.374	8072
417.451	8269
417.527	9978
417.603	13474
417.679	9797
417.755	9060
417.831	6515
417.908	7036
417.984	5846
418.060	5928
418.136	12318
418.212	23529
418.288	13422
418.364	8735
418.440	7764
418.516	11940
418.592	13212
418.668	21429
418.744	34944
418.820	33971
418.896	14214
418.972	7837
419.048	8377
419.124	14977
419.200	20165
419.276	9644
419.352	7260
419.428	7760
419.504	9335
419.579	12245
419.655	12374
419.731	11097
419.807	19302
419.883	40893
419.959	41452
420.034	16839
420.110	15731
420.186	51202
420.262	72355
420.337	21405
420.413	16146
420.489	13737
420.565	12875
420.640	13723
420.716	14782
420.792	13837
420.867	15270
420.943	15657
421.019	20813
421.094	22707
421.170	18203
421.245	18617
421.321	20102
421.397	22052
421.472	25475
421.548	32749
421.623	39445
421.699	36701
421.774	38400
421.850	41124
421.925	51370
422.001	61442
422.076	66706
422.152	82256
422.227	108844
422.302	148031
422.378	206755
422.453	327580
422.529	549637
422.604	779463
422.679	631328
422.755	675271
422.830	750792
422.905	480508
422.981	299347
423.056	197677
423.131	143054
423.207	107867
423.282	87105
423.357	80738
423.432	71197
423.508	56057
423.583	65027
423.658	67268
423.733	40078
423.808	37364
423.883	37960
423.959	40361
424.034	42315
424.109	41270
424.184	31012
424.259	24624
424.334	20872
424.409	19476
424.484	17419
424.559	17358
424.634	16560
424.709	19029
424.784	20682
424.859	16522
424.934	15468
425.009	37252
425.084	79144
425.159	51270
425.234	16207
425.309	12113
425.384	24015
425.459	61205
425.534	32506
425.609	11289
425.683	10387
425.758	10344
425.833	9907
425.908	12609
425.983	19744
426.058	70060
426.132	59803
426.207	14680
426.282	12894
426.357	15660
426.431	10518
426.506	9496
426.581	9035
426.655	9016
426.730	8158
426.805	9104
426.879	9909
426.954	10063
427.029	12791
427.103	44046
427.178	148135
427.253	118548
427.327	20214
427.402	15498
427.476	46806
427.551	45554
427.625	13888
427.700	12499
427.774	9350
427.849	10992
427.923	10456
427.998	10525
428.072	13608
428.147	24714
428.221	76541
428.296	296350
428.370	297150
428.444	62537
428.519	25915
428.593	30103
428.667	32741
428.742	32051
428.816	45690
428.890	142699
428.965	377564
429.039	189181
429.113	50068
429.188	28198
429.262	13630
429.336	14347
429.410	33816
429.485	36762
429.559	24969
429.633	28947
429.707	19404
429.781	31300
429.855	143224
429.930	358258
430.004	185532
430.078	122404
430.152	167349
430.226	347585
430.300	541076
430.374	195530
430.448	50473
430.522	40200
430.596	99711
430.670	109891
430.744	207911
430.818	442652
430.892	158345
430.966	27689
431.040	15308
431.114	11208
431.188	9546
431.262	8613
431.336	9132
431.410	13201
431.484	30035
431.557	35592
431.631	15136
431.705	17226
431.779	50743
431.853	247507
431.927	317880
432.000	71179
432.074	16732
432.148	12866
432.222	11243
432.295	8150
432.369	7295
432.443	9029
432.516	34202
432.590	141126
432.664	101556
432.737	14847
432.811	6097
432.885	4693
432.958	4744
433.032	4887
433.106	3768
433.179	3278
433.253	4589
433.326	4245
433.400	3645
433.473	4457
433.547	4212
433.620	4508
433.694	8159
433.767	12894
433.841	5966
433.914	6586
433.988	6941
434.061	6624
434.134	6434
434.208	5197
434.281	4513
434.355	4119
434.428	6447
434.501	6943
434.575	4885
434.648	5104
434.721	4647
434.795	4660
434.868	5102
434.941	5237
435.014	5245
435.088	6734
435.161	10335
435.234	14655
435.307	19538
435.381	16576
435.454	18334
435.527	27075
435.600	35709
435.673	34142
435.746	26348
435.819	21834
435.892	17483
435.966	14557
436.039	11166
436.112	10470
436.185	8480
436.258	6815
436.331	6430
436.404	4891
436.477	5320
436.550	4942
436.623	4841
436.696	4838
436.769	5586
436.842	5894
436.915	5328
436.987	7355
437.060	5845
437.133	4279
437.206	3403
437.279	4318
437.352	3899
437.425	4567
437.498	4553
437.570	7445
437.643	10616
437.716	5873
437.789	3557
437.861	6529
437.934	26252
438.007	23615
438.080	5353
438.152	5484
438.225	8344
438.298	38132
438.370	180076
438.443	141199
438.516	36594
438.588	11669
438.661	4397
438.734	4111
438.806	4864
438.879	6607
438.951	6876
439.024	15500
439.096	10211
439.169	4446
439.241	3835
439.314	3232
439.386	4964
439.459	8033
439.531	13611
439.604	10528
439.676	4256
439.749	3112
439.821	2767
439.893	3453
439.966	3560
440.038	5389
440.110	7998
440.183	5013
440.255	3542
440.327	5631
440.400	16095
440.472	98002
440.544	126359
440.617	21792
440.689	11162
440.761	12928
440.833	22681
440.905	21801
440.978	5828
441.050	3670
441.122	4401
441.194	4134
441.266	4619
441.338	4893
441.411	6953
441.483	25947
441.555	72218
441.627	27308
441.699	10283
441.771	11073
441.843	8105
441.915	6023
441.987	7616
442.059	8072
442.131	10238
442.203	14391
442.275	18740
442.347	25215
442.419	42075
442.491	149655
442.563	472584
442.635	348221
442.706	86270
442.778	52370
442.850	23463
442.922	17096
442.994	15905
443.066	19990
443.137	22949
443.209	26041
443.281	38776
443.353	70515
443.425	189087
443.496	590374
443.568	843507
443.640	506533
443.711	134877
443.783	47571
443.855	28954
443.926	19963
443.998	16008
444.070	15681
444.141	14955
444.213	16328
444.285	17289
444.356	16700
444.428	15552
444.499	12262
444.571	10195
444.642	10397
444.714	11309
444.785	15360
444.857	17922
444.928	26554
445.000	28484
445.071	27658
445.143	39540
445.214	44986
445.285	64717
445.357	139128
445.428	370041
445.500	806964
445.571	797313
445.642	593217
445.714	252000
445.785	102158
445.856	47182
445.928	31265
445.999	25560
446.070	22547
446.141	15855
446.213	18141
446.284	14059
446.355	11339
446.426	10123
446.497	8605
446.569	9366
446.640	13960
446.711	14220
446.782	7340
446.853	6593
446.924	8118
446.995	6887
447.066	5945
447.138	8701
447.209	8322
447.280	2724
447.351	2921
447.422	3261
447.493	4655
447.564	4740
447.635	8493
447.706	6920
447.777	2361
447.847	3126
447.918	1592
447.989	3894
448.060	5612
448.131	10793
448.202	13941
448.273	9301
448.344	5286
448.414	3287
448.485	3732
448.556	3093
448.627	2372
448.698	2499
448.768	2055
448.839	2693
448.910	5170
448.981	7929
449.051	4027
449.122	3281
449.193	1676
449.263	2243
449.334	2555
449.405	2891
449.475	9452
449.546	9065
449.616	7146
449.687	9481
449.758	4483
449.828	3061
449.899	2497
449.969	2418
450.040	2073
450.110	2061
450.181	4185
450.251	2719
450.322	2566
450.392	2531
450.463	2849
450.533	1936
450.604	2876
450.674	3343
450.744	4441
450.815	4422
450.885	5130
450.955	4499
451.026	4745
451.096	4210
451.166	5707
451.237	6733
451.307	20334
451.377	14393
451.447	5432
451.518	3817
451.588	3476
451.658	4390
451.728	4495
451.799	12596
451.869	26389
451.939	8328
452.009	3380
452.079	3720
452.149	3835
452.219	5130
452.289	18051
452.360	23740
452.430	8337
452.500	7944
452.570	12357
452.640	21486
452.710	51014
452.780	90300
452.850	61664
452.920	42778
452.990	20345
453.060	11479
453.129	10503
453.199	10196
453.269	14516
453.339	57119
453.409	99771
453.479	58217
453.549	105112
453.619	118311
453.688	67095
453.758	10820
453.828	5669
453.898	4025
453.968	4421
454.037	3557
454.087	3709
454.107	3767
454.168	3038
454.177	2918
454.247	2199
454.249	2234
454.316	2778
454.330	2773
454.386	2682
454.411	3902
454.456	5783
454.492	11529
454.525	16655
454.574	10451
454.595	7765
454.655	3668
454.665	3001
454.734	3665
454.736	3747
454.804	5853
454.817	7236
454.873	12715
454.898	16822
454.943	24267
454.979	16892
455.013	10213
455.060	6543
455.082	4949
455.141	3344
455.152	2982
455.221	8113
455.222	8312
455.291	22195
455.303	20454
455.360	12709
455.384	10418
455.430	6397
455.465	6654
455.499	6628
455.546	11330
455.569	13375
455.627	14668
455.638	15027
455.707	4670
455.708	4676
455.777	3012
455.789	3063
455.846	3237
455.869	2969
455.916	2403
455.950	2906
455.985	3394
456.031	3326
456.054	3227
456.112	3569
456.124	3650
456.193	2693
456.193	2675
456.262	3278
456.274	3511
456.332	4340
456.355	4327
456.401	4348
456.436	4547
456.470	4695
456.516	3892
456.540	3486
456.597	3056
456.609	2940
456.678	3229
456.678	3216
456.747	3220
456.759	3193
456.817	2587
456.840	2758
456.886	3510
456.920	3615
456.955	3582
457.001	3517
457.024	3482
457.082	4480
457.093	4637
457.162	5339
457.163	5358
457.232	7058
457.243	6969
457.301	6438
457.324	5761
457.370	4782
457.405	5296
457.439	5841
457.485	6234
457.508	6442
457.566	7941
457.577	8527
457.646	13035
457.647	13114
457.715	23726
457.727	26336
457.784	41806
457.808	54107
457.853	72321
457.889	103790
457.922	121416
457.969	94242
457.991	91802
458.050	78797
458.060	77237
458.129	116404
458.130	118523
458.198	171300
458.211	163772
458.267	125547
458.292	91568
458.336	49913
458.372	41213
458.405	42579
458.453	56623
458.474	67375
458.533	110549
458.543	114801
458.611	203672
458.614	206932
458.680	211106
458.694	179796
458.749	92592
458.775	65672
458.818	31605
458.855	22965
458.887	16728
458.936	13224
458.955	12116
459.016	10075
459.024	9801
459.093	8651
459.097	8590
459.162	7882
459.177	7825
459.230	7390
459.257	7706
459.299	8343
459.338	8059
459.368	7897
459.418	8512
459.437	8265
459.499	7212
459.505	7209
459.574	5790
459.579	5761
459.643	5420
459.659	5423
459.711	5367
459.740	5586
459.780	6006
459.820	5876
459.849	5755
459.900	6084
459.917	6188
459.981	6642
459.986	6625
460.054	5103
460.061	5086
460.123	5130
460.141	5094
460.191	5837
460.222	6299
460.260	6518
460.302	7439
460.328	7312
460.382	5996
460.397	5951
460.462	5106
460.465	5106
460.534	6330
460.543	6468
460.602	9581
460.623	10872
460.671	13914
460.703	16891
460.739	16572
460.783	17511
460.808	17053
460.864	7914
460.876	6944
460.944	4898
460.945	4867
461.013	5005
461.024	4978
461.081	5559
461.104	5768
461.150	5557
461.184	5785
461.218	6043
461.264	5591
461.286	5451
461.345	5757
461.355	5768
461.423	5558
461.425	5552
461.491	5475
461.505	5520
461.559	7355
461.585	8039
461.628	10020
461.665	12772
461.696	14336
461.745	19475
461.764	18792
461.825	11237
461.832	11159
461.901	6232
461.905	6233
461.969	6354
461.985	6391
462.037	5767
462.065	5238
462.105	5555
462.145	6439
462.173	7368
462.225	8689
462.241	9192
462.305	12226
462.310	12059
462.378	11634
462.385	10934
462.446	7521
462.465	6912
462.514	6789
462.545	7253
462.582	6986
462.625	6520
462.650	6482
462.705	6190
462.718	6069
462.785	5725
462.786	5748
462.854	7122
462.865	7341
462.922	7784
462.945	8206
462.990	7496
463.025	6264
463.058	5987
463.104	5512
463.126	5305
463.184	5289
463.194	5345
463.262	5675
463.264	5682
463.330	5729
463.344	5699
463.398	6101
463.424	6479
463.466	6274
463.504	5945
463.533	6074
463.583	6240
463.601	6449
463.663	7005
463.669	7045
463.737	7549
463.743	7638
463.805	10088
463.823	10695
463.873	13726
463.903	15590
463.940	16409
463.982	18815
464.008	17022
464.062	10819
464.076	10455
464.142	6776
464.144	6695
464.211	5494
464.221	5371
464.279	6001
464.301	6219
464.347	6600
464.381	6997
464.414	7337
464.461	7762
464.482	8352
464.540	9792
464.550	9786
464.617	9908
464.620	9894
464.685	9118
464.699	8889
464.753	10581
464.779	11555
464.820	11476
464.859	11309
464.888	11075
464.938	10607
464.956	10602
465.018	10427
465.023	10356
465.091	9477
465.098	9349
465.158	10476
465.177	10890
465.226	10485
465.257	10150
465.293	10053
465.336	9893
465.361	10429
465.416	11562
465.428	11825
465.495	13280
465.496	13325
465.563	17499
465.575	18201
465.631	20792
465.654	22222
465.698	16885
465.734	11663
465.765	10584
465.813	8493
465.833	8271
465.893	8393
465.900	8467
465.968	9096
465.972	9123
466.035	8636
466.052	8471
466.102	8821
466.131	9021
466.170	8900
466.210	8796
466.237	8912
466.290	9015
466.304	8991
466.369	8792
466.372	8806
466.439	8833
466.449	8818
466.506	10592
466.528	11256
466.573	12951
466.607	14153
466.641	17915
466.687	23161
466.708	25519
466.766	32067
466.775	30093
466.842	15197
466.845	14445
466.909	11283
466.925	10613
466.977	11032
467.004	11303
467.044	10927
467.083	10545
467.111	12148
467.163	15084
467.178	15355
467.242	16366
467.245	16281
467.312	13918
467.321	13582
467.379	13733
467.400	13751
467.446	14873
467.480	15642
467.559	14568
467.638	13524
467.717	13858
467.796	15092
467.875	16007
467.955	15985
468.034	19813
468.113	31413
468.192	44299
468.271	25334
468.350	28115
468.429	37049
468.508	39958
468.588	27928
468.667	19499
468.746	17476
468.825	14839
468.904	13478
468.983	14528
469.062	16773
469.141	18368
469.220	13165
469.299	12224
469.378	13472
469.456	14931
469.535	14784
469.614	13948
469.693	14217
469.772	15932
469.851	18862
469.930	16199
470.009	13339
470.088	14557
470.166	16810
470.245	21009
470.324	25085
470.403	21095
470.482	16922
470.560	13748
470.639	15427
470.718	15301
470.797	13300
470.875	14933
470.954	16515
471.033	16710
471.111	11704
471.190	11435
471.269	11046
471.347	11345
471.426	11942
471.505	12637
471.583	14298
471.662	13635
471.740	11847
471.819	12862
471.898	12091
471.976	12167
472.055	11668
472.133	13362
472.212	14121
472.290	13790
472.369	11340
472.447	11742
472.526	10876
472.604	12559
472.683	12226
472.761	13569
472.839	12419
472.918	12703
472.996	11816
473.075	12758
473.153	12839
473.231	11662
473.310	12411
473.388	13114
473.466	13128
473.545	12933
473.623	16456
473.701	17513
473.780	12824
473.858	12374
473.936	13574
474.014	12607
474.093	13956
474.171	14874
474.249	18246
474.327	15092
474.405	11958
474.484	11064
474.562	12862
474.640	11674
474.718	11709
474.796	12100
474.874	10526
474.952	10183
475.030	10455
475.108	10772
475.187	11946
475.265	13745
475.343	18268
475.421	20998
475.499	12747
475.577	12155
475.655	13689
475.733	18932
475.811	27418
475.889	25155
475.966	20395
476.044	11379
476.122	14660
476.200	17115
476.278	15906
476.356	9825
476.434	12255
476.512	14259
476.590	16140
476.667	16313
476.745	9997
476.823	10703
476.901	10739
476.979	10843
477.056	11034
477.134	10837
477.212	12274
477.290	10586
477.367	10141
477.445	9632
477.523	10261
477.601	10647
477.678	11013
477.756	11400
477.834	11431
477.911	9795
477.989	9871
478.066	10254
478.144	10952
478.222	13960
478.299	19903
478.377	21291
478.454	10120
478.532	9888
478.609	9748
478.687	12151
478.764	9987
478.842	10251
478.919	11263
478.997	11173
479.074	9876
479.152	10571
479.229	11625
479.307	9927
479.384	8925
479.461	8658
479.539	9290
479.616	10685
479.694	9609
479.771	10274
479.848	10493
479.926	11264
480.003	12641
480.080	10424
480.157	9594
480.235	9032
480.312	9567
480.389	10306
480.467	13277
480.544	15436
480.621	12944
480.698	12019
480.775	13035
480.853	12025
480.930	10334
481.007	10382
481.084	10110
481.161	11800
481.238	11047
481.315	9545
481.392	9233
481.470	10313
481.547	11064
481.624	9754
481.701	10433
481.778	10532
481.855	12516
481.932	15390
482.009	20711
482.086	18977
482.163	16559
482.240	22146
482.317	30900
482.393	26875
482.470	13931
482.547	14012
482.624	13339
482.701	13882
482.778	13301
482.855	12429
482.932	12335
483.009	12688
483.085	15487
483.162	17615
483.239	18159
483.316	18506
483.393	17222
483.469	15735
483.546	14370
483.623	13854
483.699	12031
483.776	11732
483.853	12751
483.930	14818
484.006	25801
484.083	41503
484.160	33761
484.236	46643
484.313	39810
484.389	31648
484.466	30341
484.543	31429
484.619	35453
484.696	36506
484.772	31886
484.849	29353
484.925	25617
485.002	24930
485.078	24669
485.155	26637
485.231	22966
485.308	20935
485.384	23034
485.461	25419
485.537	31467
485.614	37546
485.690	22439
485.766	21519
485.843	22249
485.919	27055
485.995	30329
486.072	21094
486.148	20752
486.224	20662
486.301	20891
486.377	23006
486.453	23999
486.530	24191
486.606	28645
486.682	33029
486.758	32362
486.835	35983
486.911	29808
486.987	40529
487.063	48099
487.139	59368
487.215	46708
487.292	30513
487.368	29998
487.444	37529
487.520	48643
487.596	70721
487.672	147872
487.748	405368
487.824	682053
487.900	307398
487.976	84965
488.052	50445
488.128	42861
488.204	34573
488.280	27427
488.356	28337
488.432	36149
488.508	49343
488.584	28655
488.660	21470
488.736	22076
488.812	20883
488.888	26577
488.964	31103
489.039	53754
489.115	80736
489.191	56794
489.267	21616
489.343	20719
489.418	18304
489.494	18310
489.570	17241
489.646	18613
489.722	18699
489.797	19939
489.873	22669
489.949	34602
490.024	34939
490.100	18730
490.176	17539
490.251	20896
490.327	23914
490.403	18765
490.478	17699
490.554	15623
490.629	15992
490.705	15501
490.781	17152
490.856	16717
490.932	18363
491.007	18075
491.083	17521
491.158	16034
491.234	18617
491.309	26977
491.385	30460
491.460	15300
491.536	15245
491.611	14861
491.686	15761
491.762	20815
491.837	33264
491.913	58123
491.988	70233
492.063	99036
492.139	32322
492.214	19845
492.289	14232
492.365	12958
492.440	15714
492.515	15063
492.590	14893
492.666	13309
492.741	15103
492.816	19851
492.891	14245
492.967	12840
493.042	10553
493.117	12509
493.192	12279
493.267	13155
493.342	15012
493.418	16048
493.493	12880
493.568	11108
493.643	11253
493.718	13938
493.793	17042
493.868	20654
493.943	14657
494.018	12734
494.093	11022
494.168	11979
494.243	11076
494.318	10513
494.393	11087
494.468	10502
494.543	10705
494.618	12863
494.693	12011
494.768	10212
494.842	11922
494.917	10148
494.992	11274
495.067	10531
495.142	9368
495.217	11216
495.292	10176
495.366	11702
495.441	12977
495.516	15177
495.591	23960
495.665	64844
495.740	150403
495.815	82668
495.890	15169
495.964	10687
496.039	12063
496.114	10396
496.188	11231
496.263	13384
496.338	11234
496.412	11197
496.487	13136
496.561	13159
496.636	14283
496.710	12197
496.785	11897
496.860	14592
496.934	11776
497.009	10766
497.083	10402
497.158	11039
497.232	11647
497.307	14881
497.381	13085
497.455	13322
497.530	15924
497.604	12762
497.679	11556
497.753	16893
497.827	21043
497.902	17051
497.976	22401
498.050	54488
498.125	177423
498.199	232821
498.273	34343
498.348	21681
498.422	17715
498.496	17619
498.570	18312
498.645	12637
498.719	13423
498.793	14761
498.867	21378
498.941	32487
499.016	79307
499.090	205191
499.164	106090
499.238	13535
499.312	12847
499.386	16155
499.460	13816
499.534	12893
499.609	14607
499.683	18191
499.757	19977
499.831	38726
499.905	126602
499.979	157336
500.053	24689
500.127	24248
500.201	21272
500.275	14080
500.349	12913
500.422	14647
500.496	20812
500.570	41522
500.644	82969
500.718	147475
500.792	48724
500.866	13154
500.940	15081
501.013	14289
501.087	14054
501.161	21398
501.235	29805
501.309	46055
501.382	113733
501.456	130887
501.530	31174
501.603	39347
501.677	23248
501.751	10754
501.825	13297
501.898	21293
501.972	46226
502.046	39747
502.119	14125
502.193	25271
502.266	52305
502.340	35501
502.413	24277
502.487	47121
502.561	31721
502.634	15601
502.708	13535
502.781	12479
502.855	11337
502.928	9481
503.002	9834
503.075	9420
503.149	10964
503.222	9892
503.295	10742
503.369	12000
503.442	16093
503.516	38203
503.589	89315
503.662	73492
503.736	29365
503.809	49813
503.882	60351
503.956	79270
504.029	129723
504.102	238818
504.175	383837
504.249	183742
504.322	66099
504.395	36424
504.468	22747
504.542	17436
504.615	13828
504.688	12809
504.761	11658
504.834	12470
504.907	14525
504.980	20448
505.053	13436
505.127	13179
505.200	16472
505.273	12389
505.346	10011
505.419	8888
505.492	8268
505.565	7937
505.638	7805
505.711	7971
505.784	7188
505.857	6707
505.930	8142
506.003	6507
506.076	8464
506.149	8723
506.221	11395
506.294	10978
506.367	20585
506.440	62152
506.513	48053
506.586	10788
506.659	7713
506.731	6924
506.804	8871
506.877	12837
506.950	10103
507.022	7632
507.095	8404
507.168	10518
507.241	7948
507.313	7337
507.386	8238
507.459	10564
507.531	8388
507.604	7629
507.677	7634
507.749	6729
507.822	9375
507.894	18366
507.967	22947
508.040	14737
508.112	12632
508.185	12015
508.257	11180
508.330	15345
508.402	11400
508.475	10664
508.547	10344
508.620	11995
508.692	14558
508.765	12277
508.837	8689
508.909	9133
508.982	9177
509.054	11274
509.127	9460
509.199	7883
509.271	8939
509.344	8671
509.416	7901
509.488	8644
509.560	8345
509.633	9610
509.705	10945
509.777	10712
509.849	12548
509.922	10653
509.994	8922
510.066	8532
510.138	10758
510.210	18931
510.283	18775
510.355	14679
510.427	13271
510.499	11583
510.571	11563
510.643	13183
510.715	16400
510.787	16080
510.859	12528
510.931	13809
511.003	16005
511.076	16611
511.148	11459
511.219	10791
511.291	14140
511.363	16733
511.435	10889
511.507	9138
511.579	10669
511.651	10620
511.723	9724
511.795	10551
511.867	10868
511.939	11615
512.010	15645
512.082	16466
512.154	10451
512.226	11932
512.298	15668
512.369	23503
512.441	18586
512.513	16585
512.585	13766
512.656	14617
512.728	14457
512.800	13416
512.871	11940
512.943	12450
513.015	11555
513.086	12908
513.158	12725
513.230	13053
513.301	17577
513.373	19154
513.444	13995
513.516	12155
513.588	12801
513.659	13266
513.731	14747
513.802	14767
513.874	22027
513.945	37502
514.016	19565
514.088	12727
514.159	12408
514.231	15817
514.302	21971
514.374	16874
514.445	14458
514.516	21197
514.588	19350
514.659	13206
514.730	19304
514.802	18636
514.873	12882
514.944	14395
515.016	12935
515.087	15142
515.158	16114
515.229	20395
515.301	11753
515.372	12910
515.443	11298
515.514	11871
515.585	11749
515.656	12168
515.728	12271
515.799	10848
515.870	12533
515.941	12290
516.012	13096
516.083	16708
516.154	17577
516.225	21034
516.296	18680
516.367	18656
516.438	19365
516.509	25887
516.580	43042
516.651	115772
516.722	378664
516.793	241420
516.864	33854
516.935	28696
517.006	34572
517.077	54530
517.148	128616
517.219	410036
517.289	774461
517.360	198393
517.431	55054
517.502	20983
517.573	19497
517.643	18311
517.714	19738
517.785	21306
517.856	20935
517.926	23779
517.997	26274
518.068	33887
518.138	52337
518.209	97539
518.280	304000
518.350	981192
518.421	576979
518.492	76222
518.562	51849
518.633	62664
518.703	95471
518.774	193930
518.845	451186
518.915	518325
518.986	171289
519.056	70234
519.127	58485
519.197	64987
519.268	91394
519.338	72389
519.408	25645
519.479	27879
519.549	23367
519.620	17258
519.690	14813
519.760	15219
519.831	14592
519.901	14569
519.971	12865
520.042	13410
520.112	14458
520.182	15521
520.253	18618
520.323	16705
520.393	25447
520.463	48624
520.534	31492
520.604	64542
520.674	31175
520.744	25020
520.814	65687
520.885	68726
520.955	30897
521.025	84163
521.095	52269
521.165	12889
521.235	12393
521.305	11020
521.375	11517
521.445	12824
521.515	14559
521.585	17074
521.655	17260
521.725	13810
521.795	13917
521.865	10577
521.935	13443
522.005	13964
522.075	10052
522.145	11301
522.215	10806
522.285	14932
522.355	17692
522.424	26195
522.494	27124
522.564	19798
522.634	29546
522.704	79084
522.774	46307
522.843	13091
522.913	10973
522.983	14443
523.053	12624
523.122	13535
523.192	16941
523.262	41423
523.331	53798
523.401	14877
523.471	10642
523.540	11973
523.610	9264
523.680	11078
523.749	11093
523.819	11716
523.888	12400
523.958	11891
524.027	11505
524.097	11312
524.166	11224
524.236	12084
524.305	12818
524.375	11627
524.444	10234
524.514	11792
524.583	11590
524.653	14190
524.722	14299
524.791	12675
524.861	11816
524.930	12390
524.999	12036
525.069	15849
525.138	14242
525.207	14364
525.277	13617
525.346	13176
525.415	14057
525.484	15858
525.554	16824
525.623	18678
525.692	19812
525.761	23463
525.830	29623
525.900	41355
525.969	72921
526.038	156416
526.107	314012
526.176	870556
526.245	857896
526.314	265707
526.383	414469
526.452	715199
526.522	776972
526.591	942799
526.660	195011
526.729	84560
526.797	92131
526.867	171300
526.935	498420
527.004	1234017
527.073	1031535
527.142	155595
527.211	49001
527.280	32677
527.349	27798
527.418	19927
527.487	17799
527.555	14867
527.624	13788
527.693	12659
527.762	12457
527.831	12307
527.899	12940
527.968	12013
528.037	10814
528.106	13454
528.174	18641
528.243	17722
528.312	18339
528.380	25201
528.449	12675
528.518	10494
528.586	8818
528.655	9335
528.723	9337
528.792	9080
528.861	10222
528.929	8180
528.998	9233
529.066	8223
529.135	9458
529.203	7836
529.272	8663
529.340	9649
529.409	9052
529.477	9810
529.545	10476
529.614	13674
529.682	13405
529.751	14318
529.819	15850
529.887	14228
529.956	10160
530.024	10635
530.092	8754
530.161	12096
530.229	15182
530.297	12120
530.365	9774
530.434	10055
530.502	8592
530.570	9971
530.638	8071
530.707	10573
530.775	10827
530.843	9907
530.911	10331
530.979	10597
531.047	10994
531.115	10032
531.183	9230
531.252	9302
531.320	9407
531.388	9579
531.456	9467
531.524	8979
531.592	10181
531.660	10858
531.728	10008
531.796	10476
531.864	10881
531.932	10855
532.000	9579
532.067	10931
532.135	11181
532.203	13167
532.271	13981
532.339	18808
532.407	37535
532.475	30830
532.542	15742
532.610	17715
532.678	24692
532.746	62354
532.814	166622
532.881	62119
532.949	15106
533.017	12804
533.084	10719
533.152	11701
533.220	11342
533.287	11751
533.355	11978
533.423	11651
533.490	12018
533.558	11494
533.625	12707
533.693	13006
533.761	12905
533.828	13461
533.896	12869
533.963	17843
534.031	22097
534.098	29586
534.166	22251
534.233	15736
534.300	16594
534.368	17133
534.435	16867
534.503	19168
534.570	23389
534.637	25163
534.705	31619
534.772	48014
534.840	99870
534.907	345801
534.974	596284
535.041	97878
535.109	25899
535.176	18484
535.243	16758
535.310	17308
535.378	15366
535.445	15140
535.512	15411
535.579	14969
535.646	15503
535.714	16251
535.781	18711
535.848	18300
535.915	17086
535.982	16052
536.049	15803
536.116	16546
536.183	15370
536.250	15819
536.317	16370
536.384	18122
536.451	21015
536.518	22178
536.585	18423
536.652	20696
536.719	23613
536.786	22633
536.853	19299
536.920	23124
536.987	32342
537.053	35573
537.120	79414
537.187	93730
537.254	20637
537.321	17455
537.388	19936
537.454	17265
537.521	16200
537.588	17124
537.654	19011
537.721	19972
537.788	20341
537.855	17682
537.921	17187
537.988	18508
538.055	17140
538.121	16823
538.188	18124
538.254	21114
538.321	30314
538.388	25183
538.454	19882
538.521	19214
538.587	18197
538.654	18228
538.720	17493
538.787	18319
538.853	17735
538.920	18686
538.986	18384
539.053	16280
539.119	17627
539.185	17656
539.252	19176
539.318	24731
539.385	23804
539.451	21943
539.517	22119
539.583	23216
539.650	32431
539.716	71070
539.782	34722
539.849	18333
539.915	19075
539.981	18320
540.047	19633
540.114	20108
540.180	18840
540.246	20560
540.312	24180
540.378	32523
540.444	37192
540.510	36159
540.576	78078
540.643	41876
540.709	17763
540.775	18622
540.841	19879
540.907	21063
540.973	31559
541.039	28672
541.105	25227
541.171	21947
541.237	20763
541.303	21180
541.369	21800
541.435	23632
541.500	30205
541.566	25015
541.632	17935
541.698	17647
541.764	18701
541.830	18429
541.896	17171
541.961	18145
542.027	18350
542.093	19594
542.159	20257
542.224	20200
542.290	23900
542.356	30718
542.421	32736
542.487	21803
542.553	18547
542.618	20178
542.684	19434
542.750	19353
542.815	22346
542.881	28595
542.947	64856
543.012	66573
543.078	20164
543.143	17652
543.209	19747
543.274	19746
543.340	22113
543.405	31418
543.471	52098
543.536	24251
543.602	18965
543.667	18656
543.732	19375
543.798	18121
543.863	18615
543.928	18643
543.994	17940
544.059	19056
544.124	18140
544.190	19716
544.255	20253
544.320	20723
544.386	20976
544.451	24135
544.516	25802
544.581	27400
544.646	47167
544.712	78058
544.777	29470
544.842	22983
544.907	22271
544.972	22044
545.037	22404
545.102	22486
545.168	22589
545.233	24658
545.298	24774
545.363	26676
545.428	29472
545.493	36007
545.558	62582
545.623	41908
545.688	25934
545.753	25735
545.818	24909
545.883	27454
545.947	26860
546.012	28330
546.077	29367
546.142	30280
546.207	31451
546.272	35228
546.337	36250
546.401	35276
546.466	34708
546.531	34873
546.596	37900
546.661	39178
546.725	40545
546.790	40961
546.855	43721
546.919	47817
546.984	53687
547.049	58760
547.113	65222
547.178	71965
547.243	81850
547.307	94356
547.372	107400
547.436	108539
547.501	108854
547.565	118116
547.630	111712
547.695	107765
547.759	106837
547.823	107215
547.888	105569
547.952	109455
548.017	112655
548.081	117838
548.146	118211
548.210	119991
548.274	126460
548.339	126136
548.403	115789
548.468	108149
548.532	106938
548.596	108360
548.660	108469
548.725	118392
548.789	130764
548.853	130545
548.917	118703
548.982	118558
549.046	108326
549.110	95257
549.174	96758
549.238	111173
549.303	124407
549.367	127460
549.431	121403
549.495	115489
549.559	113473
549.623	129160
549.687	149027
549.751	146409
549.815	166653
549.879	173079
549.943	164511
550.007	170247
550.071	171793
550.135	158344
550.199	143605
550.263	142706
550.327	134852
550.391	137406
550.455	151508
550.519	161304
550.582	171427
550.646	196795
550.710	204753
550.774	198288
550.838	199089
550.901	206684
550.965	222712
551.029	239391
551.093	263415
551.156	299744
551.220	359876
551.284	422596
551.347	324249
551.411	252662
551.475	236143
551.538	216987
551.602	202779
551.666	183725
551.729	177279
551.793	166691
551.856	164491
551.920	159800
551.983	161472
552.047	159935
552.110	160814
552.174	160281
552.237	165067
552.301	155535
552.364	146723
552.428	143626
552.491	146130
552.554	152926
552.618	148798
552.681	156643
552.745	152726
552.808	163078
552.871	184752
552.934	171186
552.998	156544
553.061	146980
553.124	141727
553.187	139792
553.251	144307
553.314	144635
553.377	144706
553.440	154054
553.503	158527
553.567	159177
553.630	154629
553.693	153499
553.756	153729
553.819	150895
553.882	143494
553.945	142167
554.008	143265
554.071	144639
554.134	146783
554.197	137992
554.260	133854
554.323	135574
554.386	139773
554.449	143160
554.512	146122
554.575	140038
554.638	134998
554.701	137918
554.764	133749
554.827	130817
554.889	125651
554.952	118479
555.015	114650
555.078	117504
555.141	121727
555.203	117236
555.266	117900
555.329	118894
555.391	111535
555.454	111825
555.517	110345
555.580	106051
555.642	101124
555.705	98635
555.768	99596
555.830	97912
555.893	91081
555.955	88657
556.018	88061
556.080	88702
556.143	91482
556.206	92455
556.268	87916
556.330	88160
556.393	84986
556.455	84081
556.518	82427
556.580	83850
556.643	76105
556.705	75717
556.767	73196
556.830	74037
556.892	72350
556.955	77268
557.017	75070
557.079	69470
557.142	68622
557.204	69740
557.266	80293
557.328	77661
557.391	60186
557.453	58235
557.515	58444
557.577	60272
557.639	62335
557.701	59294
557.764	58856
557.826	62317
557.888	67020
557.950	76152
558.012	91547
558.074	130424
558.136	236937
558.198	646990
558.260	334222
558.322	77396
558.384	67982
558.446	72480
558.508	81959
558.570	102134
558.632	143262
558.694	219665
558.756	340707
558.818	726956
558.880	1676418
558.942	940996
559.003	680501
559.065	447472
559.127	118931
559.189	111466
559.251	142439
559.312	216544
559.374	412987
559.436	1164170
559.498	885200
559.559	174371
559.621	119671
559.683	150241
559.744	241475
559.806	578218
559.868	1109248
559.929	339646
559.991	152429
560.052	220172
560.114	589118
560.176	547346
560.237	318980
560.299	644281
560.360	199252
560.422	48088
560.483	37936
560.545	35545
560.606	33574
560.667	32295
560.729	30314
560.790	28695
560.852	28269
560.913	26676
560.974	26864
561.036	27745
561.097	27419
561.158	27111
561.220	26894
561.281	25637
561.342	24828
561.403	27744
561.465	30421
561.526	42601
561.587	59471
561.648	29737
561.709	23565
561.771	23302
561.832	22746
561.893	22323
561.954	21697
562.015	21879
562.076	20670
562.137	21381
562.198	21393
562.259	22528
562.320	21294
562.381	24050
562.442	25772
562.503	25365
562.564	20732
562.625	20956
562.686	20252
562.747	21934
562.808	21449
562.869	19535
562.930	20558
562.991	20878
563.051	20183
563.112	19107
563.173	19234
563.234	18108
563.294	18744
563.355	19365
563.416	19130
563.477	18892
563.537	18695
563.598	19778
563.659	17342
563.720	18179
563.780	18149
563.841	19507
563.901	19075
563.962	18108
564.023	17346
564.083	17396
564.144	17154
564.204	17817
564.265	18891
564.325	19007
564.386	23657
564.446	25965
564.507	16427
564.567	16939
564.628	16626
564.688	17307
564.749	16581
564.809	17624
564.869	18741
564.930	16716
564.990	17273
565.050	16158
565.111	16740
565.171	16739
565.231	16583
565.292	16559
565.352	15044
565.412	16593
565.472	16415
565.532	17625
565.593	16290
565.653	16211
565.713	16973
565.773	18082
565.833	19321
565.893	22514
565.953	16862
566.013	15804
566.074	17167
566.134	18390
566.194	20727
566.254	24619
566.314	19610
566.374	16363
566.434	15667
566.494	16256
566.554	16178
566.614	16709
566.673	15992
566.733	16930
566.793	17249
566.853	17657
566.913	17094
566.973	16636
567.033	17423
567.092	19408
567.152	18647
567.212	18991
567.272	17485
567.331	17629
567.391	17364
567.451	17782
567.511	20058
567.570	20660
567.630	17855
567.690	16658
567.749	15757
567.809	17440
567.868	17946
567.928	16652
567.988	17649
568.047	18238
568.107	18695
568.166	20015
568.226	21893
568.285	25861
568.345	24187
568.404	22762
568.464	21596
568.523	20568
568.582	20800
568.642	22656
568.701	24496
568.761	24449
568.820	30560
568.879	31376
568.939	29486
568.998	25794
569.057	21974
569.116	21333
569.176	19571
569.235	18395
569.294	17718
569.353	17252
569.413	16390
569.472	16666
569.531	16166
569.590	15758
569.649	15921
569.708	16081
569.767	16342
569.827	19615
569.886	18739
569.945	16184
570.004	16919
570.063	16887
570.122	16831
570.181	17974
570.240	18684
570.299	18416
570.358	20223
570.417	17825
570.475	16856
570.534	17339
570.593	16646
570.652	17861
570.711	18678
570.770	17016
570.829	17847
570.887	17524
570.946	18868
571.005	16939
571.064	17321
571.122	18444
571.181	18923
571.240	16472
571.299	15737
571.357	15424
571.416	15204
571.475	16431
571.533	17818
571.592	17033
571.650	17356
571.709	18337
571.768	20797
571.826	21336
571.885	18646
571.943	16337
572.002	15830
572.060	16326
572.119	15733
572.177	14906
572.236	15133
572.294	14996
572.352	16888
572.411	17820
572.469	15797
572.528	15447
572.586	15926
572.644	16321
572.703	20785
572.761	16408
572.819	14655
572.877	13721
572.936	14124
572.994	12727
573.052	13971
573.110	15014
573.169	16088
573.227	15612
573.285	14159
573.343	14270
573.401	14643
573.459	15032
573.517	15660
573.576	15883
573.634	16407
573.692	17003
573.750	17074
573.808	16043
573.866	14443
573.924	15680
573.982	15941
574.040	14794
574.098	15613
574.155	15522
574.213	14191
574.271	15766
574.329	17791
574.387	16506
574.445	14024
574.503	13595
574.560	13592
574.618	12670
574.676	13718
574.734	13989
574.792	13971
574.849	12550
574.907	11764
574.965	12073
575.022	11390
575.080	11840
575.138	12281
575.195	11714
575.253	11383
575.311	12159
575.368	11580
575.426	11093
575.483	11658
575.541	11649
575.598	12736
575.656	12087
575.713	13187
575.771	13614
575.828	13869
575.886	11460
575.943	11182
576.001	11947
576.058	10760
576.115	11930
576.173	13154
576.230	14016
576.287	15195
576.345	15050
576.402	12237
576.459	15046
576.517	12166
576.574	12058
576.631	12417
576.688	11516
576.746	10934
576.803	11293
576.860	11302
576.917	10869
576.974	11729
577.031	11784
577.089	11699
577.146	11605
577.203	11053
577.260	10900
577.317	11075
577.374	11202
577.431	11384
577.488	10832
577.545	10068
577.602	10790
577.659	10104
577.716	11145
577.773	10237
577.830	9943
577.886	10428
577.943	10396
578.000	10273
578.057	11256
578.114	9811
578.171	10871
578.227	10425
578.284	10038
578.341	10395
578.398	11036
578.454	11300
578.511	11949
578.568	12601
578.625	11355
578.681	10989
578.738	10429
578.794	10641
578.851	10994
578.908	10467
578.964	10755
579.021	11740
579.077	10433
579.134	11144
579.190	11219
579.247	10213
579.303	10662
579.360	10390
579.416	10010
579.473	10638
579.529	10161
579.586	10869
579.642	10429
579.698	11411
579.755	11324
579.811	10786
579.867	10415
579.924	10285
579.980	10004
580.036	11263
580.093	10711
580.149	10581
580.205	10984
580.261	11137
580.317	11840
580.374	12456
580.430	12693
580.486	12585
580.542	10810
580.598	12018
580.619	12268
580.654	12705
580.692	11876
580.710	11479
580.765	11809
580.767	11823
580.823	12470
580.838	12362
580.879	12120
580.911	12005
580.935	11905
580.984	11947
580.991	11957
581.047	11677
581.057	11620
581.103	11355
581.130	11322
581.159	11342
581.203	11348
581.215	11321
581.270	11239
581.276	11241
581.326	11403
581.349	11376
581.382	11280
581.422	11426
581.438	11517
581.494	11423
581.494	11424
581.550	11573
581.567	11630
581.606	11772
581.640	11877
581.661	11912
581.713	12664
581.717	12729
581.773	11524
581.786	11474
581.829	11285
581.859	11969
581.885	12593
581.932	12091
581.940	11966
581.996	12630
582.004	12576
582.052	12453
582.077	12024
582.107	11474
582.150	11758
582.163	11857
582.219	12125
582.223	12081
582.274	11425
582.296	11748
582.330	12370
582.368	12735
582.386	12841
582.441	12452
582.441	12450
582.497	11359
582.514	11617
582.552	12178
582.587	11961
582.608	11822
582.659	11696
582.663	11682
582.719	13013
582.732	12801
582.774	12339
582.805	12675
582.830	12704
582.877	13403
582.885	13578
582.941	13427
582.950	13454
582.996	13435
583.023	13200
583.052	13111
583.095	13877
583.107	13978
583.162	13740
583.168	13769
583.218	14288
583.240	14065
583.273	13524
583.313	13064
583.328	13043
583.384	13463
583.385	13477
583.439	13400
583.458	13312
583.494	13462
583.531	13600
583.549	13585
583.603	14181
583.605	14199
583.660	14751
583.676	14357
583.715	13436
583.748	13840
583.770	14233
583.820	15108
583.825	15149
583.881	14743
583.893	14608
583.936	14428
583.965	14363
583.991	14176
584.038	14791
584.046	14991
584.101	14879
584.110	14927
584.156	14586
584.183	15050
584.211	15852
584.255	15762
584.266	15650
584.321	15857
584.328	15796
584.376	15838
584.400	16170
584.431	16283
584.472	15858
584.486	15856
584.541	16786
584.545	16793
584.596	17128
584.617	17533
584.651	18200
584.689	18281
584.706	18302
584.761	19097
584.762	19089
584.816	19540
584.834	19899
584.871	20623
584.906	20752
584.926	21045
584.978	22218
584.980	22276
585.035	23884
585.051	24442
585.090	27051
585.123	29004
585.145	30433
585.195	34133
585.200	34674
585.254	42284
585.267	44207
585.309	51393
585.340	57823
585.364	64366
585.412	82177
585.419	84969
585.473	112076
585.484	119103
585.528	157867
585.556	188002
585.583	245650
585.628	360626
585.637	422679
585.692	888020
585.700	981322
585.747	1586622
585.772	1678736
585.801	1268552
585.845	623358
585.856	516232
585.910	182413
585.917	146420
585.965	98312
585.989	77079
586.019	66028
586.061	52530
586.074	50514
586.128	44405
586.133	43811
586.183	41117
586.205	40206
586.237	39242
586.277	37364
586.292	36815
586.346	35428
586.349	35286
586.401	34523
586.421	34434
586.455	34699
586.493	35184
586.509	36619
586.564	40778
586.565	40890
586.618	56502
586.637	60823
586.672	61714
586.709	60760
586.727	60409
586.781	63363
586.781	63461
586.835	54475
586.853	51618
586.889	43444
586.925	36760
586.944	35510
586.996	32790
586.998	32828
587.052	32416
587.068	32088
587.106	31631
587.140	31478
587.161	31658
587.212	31751
587.215	31827
587.269	32235
587.284	32363
587.323	32517
587.356	32659
587.377	33192
587.427	34118
587.431	34227
587.485	34910
587.499	34975
587.539	35787
587.571	36710
587.593	37511
587.643	38752
587.648	38938
587.702	40158
587.715	40317
587.755	40740
587.786	40816
587.810	40924
587.858	41673
587.864	41847
587.917	42213
587.930	42315
587.971	44920
588.001	46502
588.025	46778
588.073	47085
588.079	47342
588.133	48653
588.145	48947
588.187	50750
588.217	51774
588.241	53793
588.288	57595
588.295	58314
588.348	63862
588.360	64832
588.402	69940
588.431	73695
588.456	76544
588.503	82264
588.510	83795
588.564	96437
588.575	99171
588.617	111134
588.646	121247
588.671	132692
588.718	157597
588.725	163481
588.778	215531
588.789	227352
588.832	334789
588.861	416824
588.886	598546
588.932	989671
588.939	1055736
588.993	1528045
589.004	1585761
589.047	1152385
589.075	849065
589.100	622741
589.147	258738
589.154	247027
589.207	174770
589.218	160858
589.261	152884
589.290	150134
589.314	155005
589.361	167149
589.368	173180
589.421	225394
589.433	238285
589.475	395843
589.504	522502
589.528	743797
589.576	1199296
589.582	1197422
589.635	1015260
589.647	966617
589.689	518740
589.718	232933
589.742	186593
589.790	106175
589.795	104536
589.849	89633
589.861	86324
589.902	86973
589.932	87003
589.955	81216
590.004	67858
590.009	67242
590.062	59216
590.075	57199
590.115	55824
590.146	54354
590.168	53935
590.218	53124
590.222	53334
590.275	53875
590.289	53993
590.328	54557
590.360	54530
590.381	54320
590.431	53167
590.435	53298
590.488	53419
590.503	53292
590.541	53967
590.574	54216
590.594	54378
590.645	54335
590.647	54493
590.700	54881
590.716	54729
590.753	55587
590.787	56287
590.806	56951
590.859	58083
590.859	58242
590.912	57996
590.930	57770
590.965	59355
591.001	60571
591.018	60240
591.071	58609
591.072	58425
591.124	58576
591.143	58405
591.177	58930
591.214	59222
591.230	60032
591.283	62139
591.285	62036
591.336	62154
591.356	61931
591.389	63084
591.427	64032
591.442	63482
591.495	60608
591.498	60217
591.547	60060
591.569	59777
591.600	60287
591.640	60487
591.653	60942
591.706	62059
591.711	62001
591.759	64516
591.782	65516
591.811	68657
591.853	72705
591.864	72382
591.917	69517
591.924	68878
591.969	67392
591.995	66242
592.022	66669
592.066	66807
592.075	67780
592.127	72582
592.137	73254
592.180	79217
592.208	82642
592.233	81117
592.279	77467
592.285	77482
592.338	75524
592.350	74836
592.390	74027
592.421	73038
592.443	73376
592.491	73404
592.495	73844
592.548	76791
592.562	77369
592.600	77283
592.633	76750
592.653	77005
592.704	76622
592.705	77100
592.775	78906
592.846	81449
592.916	82655
592.987	84902
593.058	84282
593.128	84112
593.199	81922
593.270	81884
593.341	82955
593.411	86065
593.482	89866
593.553	90608
593.623	89740
593.694	93843
593.764	97827
593.835	96274
593.906	91910
593.976	97125
594.047	99145
594.117	107119
594.188	114344
594.258	107533
594.329	103971
594.399	105161
594.470	109073
594.540	110801
594.611	114826
594.681	115378
594.751	116541
594.822	119659
594.892	127144
594.963	129482
595.033	130005
595.103	133806
595.174	137020
595.244	148592
595.314	173928
595.384	154085
595.455	143318
595.525	149879
595.595	155440
595.665	158604
595.736	153908
595.806	154809
595.876	157381
595.946	157770
596.016	162129
596.087	169601
596.157	172140
596.227	169758
596.297	174681
596.367	186064
596.437	200537
596.507	210114
596.577	224663
596.647	212245
596.717	212653
596.787	221426
596.857	218667
596.927	219508
596.997	220227
597.067	222172
597.137	225918
597.207	227043
597.277	229190
597.347	226008
597.417	216430
597.487	212581
597.557	216275
597.626	223697
597.696	227835
597.766	233332
597.836	238851
597.906	217409
597.975	198510
598.045	199408
598.115	205374
598.185	219165
598.254	240240
598.324	267904
598.394	277809
598.464	273956
598.533	266840
598.603	254082
598.672	239769
598.742	241009
598.812	245257
598.881	249365
598.951	248214
599.020	249814
599.090	256836
599.159	267854
599.229	258705
599.299	248372
599.368	252149
599.437	256995
599.507	238759
599.576	227408
599.646	223198
599.715	218896
599.785	217353
599.854	215571
599.924	213145
599.993	210593
600.062	207817
600.132	216196
600.201	219932
600.270	252300
600.340	279670
600.409	274795
600.478	270320
600.547	272934
600.617	268894
600.686	215119
600.755	188660
600.824	179923
600.894	174150
600.963	170287
601.032	168860
601.101	165316
601.170	156766
601.239	151692
601.308	151704
601.378	153118
601.447	148640
601.516	151583
601.585	153259
601.654	158460
601.723	157844
601.792	157364
601.861	164093
601.930	170280
601.999	176027
602.068	173329
602.137	175796
602.206	182518
602.275	180021
602.343	187034
602.412	190262
602.481	185394
602.550	183856
602.619	187035
602.688	191970
602.756	193723
602.825	193635
602.894	197987
602.963	202433
603.032	205822
603.100	205782
603.169	205297
603.238	206772
603.307	207730
603.375	208838
603.444	213243
603.513	215556
603.581	221773
603.650	223633
603.719	223080
603.787	225043
603.856	232871
603.924	238355
603.993	247570
604.061	252523
604.130	266034
604.198	273407
604.267	276572
604.335	281029
604.404	284152
604.472	289547
604.541	292380
604.609	294986
604.678	296727
604.746	295357
604.815	303173
604.883	311422
604.951	312522
605.020	312563
605.088	322938
605.156	326625
605.225	333983
605.293	337841
605.361	332501
605.429	339994
605.498	345916
605.566	354113
605.634	369184
605.702	380772
605.771	393682
605.839	397626
605.907	391912
605.975	380822
606.043	368634
606.111	367647
606.180	366975
606.248	365156
606.316	357556
606.384	359962
606.452	365534
606.520	373195
606.588	390163
606.656	386462
606.724	384261
606.792	363482
606.860	334533
606.928	300762
606.996	283614
607.064	274187
607.132	281471
607.200	291423
607.267	311014
607.335	309229
607.403	325373
607.471	319431
607.539	300263
607.607	311638
607.674	282714
607.742	271843
607.810	274384
607.878	274136
607.946	276133
608.013	286698
608.081	296012
608.149	300263
608.216	302211
608.284	314704
608.352	314334
608.419	317576
608.487	314829
608.555	310045
608.622	309920
608.690	321000
608.757	352036
608.825	377133
608.893	366273
608.960	356178
609.028	341683
609.095	337106
609.163	335616
609.230	309643
609.298	271455
609.365	276429
609.432	299491
609.500	318981
609.567	361545
609.635	414439
609.702	451618
609.769	450703
609.837	390588
609.904	314092
609.971	321810
610.039	366290
610.106	476513
610.173	869800
610.241	2138162
610.308	2556464
610.375	695328
610.442	389071
610.509	334043
610.577	317688
610.644	318285
610.711	320981
610.778	329392
610.845	335598
610.912	356337
610.980	372179
611.047	378015
611.114	375271
611.181	363618
611.248	353933
611.315	366312
611.382	380173
611.449	395230
611.516	404857
611.583	402552
611.650	405729
611.717	412825
611.784	426896
611.851	452379
611.918	493168
611.984	582618
612.051	802937
612.118	1436149
612.185	3283573
612.252	4247194
612.319	1382516
612.386	696537
612.452	568096
612.519	505452
612.586	479361
612.653	474226
612.719	475523
612.786	467600
612.853	436356
612.919	409140
612.986	415416
613.053	400298
613.120	375996
613.186	352131
613.253	355575
613.319	354943
613.386	357026
613.453	365145
613.519	369223
613.586	368616
613.652	386534
613.719	377905
613.785	376256
613.852	371095
613.918	366592
613.985	362183
614.051	376553
614.118	383643
614.184	375444
614.250	360516
614.317	373859
614.383	368262
614.449	372085
614.516	373397
614.582	372357
614.648	372052
614.715	362918
614.781	359914
614.847	350916
614.914	357707
614.980	347401
615.046	343395
615.112	351648
615.179	360765
615.245	358611
615.311	360846
615.377	362610
615.443	374100
615.509	373449
615.575	392112
615.642	403234
615.708	403408
615.774	427475
615.840	465289
615.906	519244
615.972	635101
616.038	930260
616.104	1757424
616.170	3641190
616.236	5030022
616.302	2267709
616.368	1144432
616.434	828530
616.500	604076
616.565	618710
616.631	848803
616.697	843051
616.763	693473
616.829	952646
616.895	1871774
616.961	2599696
617.026	1423637
617.092	617799
617.158	458282
617.224	412700
617.289	377350
617.355	347611
617.421	331963
617.487	328574
617.552	313189
617.618	302042
617.684	304499
617.749	302578
617.815	295303
617.880	282853
617.946	280474
618.012	280921
618.077	293500
618.143	284754
618.208	274784
618.274	291406
618.339	307232
618.405	269614
618.470	243672
618.536	250250
618.601	246707
618.667	239020
618.732	220034
618.798	214858
618.863	212380
618.928	208045
618.994	213659
619.059	213916
619.124	227600
619.190	225278
619.255	210278
619.320	207929
619.386	211069
619.451	209701
619.516	202382
619.581	200091
619.647	206522
619.712	211165
619.777	202623
619.842	198589
619.907	204545
619.972	207243
620.038	210636
620.103	199325
620.168	201331
620.233	200122
620.298	202715
620.363	204562
620.428	209238
620.493	214207
620.558	218362
620.623	219186
620.688	221303
620.753	216670
620.818	222038
620.883	223882
620.948	225178
621.013	221353
621.078	218542
621.143	217410
621.207	225829
621.272	221862
621.337	218431
621.402	213253
621.467	217296
621.532	219879
621.596	215205
621.661	208495
621.726	200965
621.791	200274
621.855	204803
621.920	203099
621.985	206583
622.049	216671
622.114	216843
622.179	214185
622.243	214985
622.308	220764
622.373	229123
622.437	231688
622.502	218059
622.566	212597
622.631	212573
622.695	214605
622.760	213576
622.824	212323
622.889	214259
622.953	218661
623.018	231519
623.082	260228
623.147	233271
623.211	224210
623.276	222931
623.340	216839
623.404	204616
623.469	204061
623.533	204489
623.597	204729
623.662	200845
623.726	193690
623.790	179039
623.854	168416
623.919	173182
623.983	174751
624.047	179612
624.111	181187
624.176	186716
624.240	188505
624.304	200481
624.368	188542
624.432	183611
624.496	187022
624.560	198463
624.625	211188
624.689	201372
624.753	204253
624.817	205645
624.881	193525
624.945	184791
625.009	167778
625.073	173035
625.137	177006
625.201	193177
625.265	202092
625.329	184281
625.393	182371
625.456	186513
625.520	186598
625.584	197220
625.648	203836
625.712	219983
625.776	271585
625.839	316871
625.903	244814
625.967	162830
626.031	168906
626.095	229543
626.158	217087
626.222	154636
626.286	131568
626.349	128611
626.413	119602
626.477	117487
626.540	120278
626.604	119548
626.668	114724
626.731	112108
626.795	114571
626.858	116638
626.922	115016
626.986	113840
627.049	109634
627.113	117294
627.176	114746
627.240	110612
627.303	110408
627.366	111538
627.430	112342
627.493	113284
627.557	110248
627.620	110435
627.684	113998
627.747	119217
627.810	116327
627.874	102958
627.937	95726
628.000	99915
628.064	100408
628.127	92483
628.190	86194
628.253	85195
628.317	82013
628.380	79138
628.443	76287
628.506	77357
628.569	74469
628.632	70549
628.696	68173
628.759	68757
628.822	66661
628.885	66513
628.948	64927
629.011	64786
629.074	63361
629.137	62806
629.200	61171
629.263	61591
629.326	59884
629.389	59879
629.452	59111
629.515	59416
629.578	59412
629.641	60248
629.704	60699
629.767	61167
629.830	58207
629.892	55739
629.955	56612
630.018	58415
630.081	59359
630.144	66181
630.207	62071
630.269	61349
630.332	57931
630.395	59386
630.458	54195
630.520	53770
630.583	53992
630.646	53717
630.708	53043
630.771	55553
630.834	57995
630.896	57919
630.959	57332
631.021	58334
631.084	57012
631.146	60178
631.209	63848
631.272	61455
631.334	62180
631.397	65117
631.459	66663
631.522	71484
631.584	78155
631.646	84451
631.709	92619
631.771	101562
631.834	99931
631.896	87702
631.958	78069
632.021	70855
632.083	65846
632.145	62552
632.208	60669
632.270	60869
632.332	57000
632.395	55742
632.457	56690
632.519	54941
632.581	54293
632.643	54974
632.706	54271
632.768	52888
632.830	53235
632.892	54589
632.954	54659
633.016	56247
633.078	54816
633.141	55280
633.203	54609
633.265	54898
633.327	55080
633.389	56269
633.451	58061
633.513	62348
633.575	63907
633.637	64680
633.698	66883
633.760	66104
633.822	67738
633.884	72920
633.946	75220
634.008	80285
634.070	87723
634.132	97282
634.193	109088
634.255	124395
634.317	133298
634.379	134103
634.441	120294
634.502	104300
634.564	88885
634.626	79187
634.687	72707
634.749	66791
634.811	63372
634.873	63033
634.934	60973
634.996	60684
635.057	61650
635.119	62404
635.181	64407
635.242	67000
635.304	65413
635.365	66040
635.427	65520
635.488	66533
635.550	67052
635.611	68681
635.673	71105
635.734	77596
635.796	83784
635.857	96415
635.918	107089
635.980	123164
636.041	135754
636.102	148563
636.164	157380
636.225	154797
636.286	136947
636.348	115835
636.409	95568
636.470	84956
636.531	74640
636.593	70885
636.654	65898
636.715	60094
636.776	55957
636.838	55005
636.899	52493
636.960	51140
637.021	49943
637.082	48809
637.143	46660
637.204	46185
637.265	44938
637.326	46845
637.387	46894
637.448	48085
637.509	46749
637.570	46002
637.631	44045
637.692	43532
637.753	40250
637.814	40938
637.875	41374
637.936	41336
637.997	40267
638.058	40405
638.119	41119
638.179	41828
638.240	40210
638.301	40392
638.362	37991
638.423	37921
638.483	37389
638.544	35537
638.605	36190
638.666	35330
638.726	35928
638.787	35760
638.848	35189
638.908	36137
638.969	34083
639.030	33802
639.090	33205
639.151	35480
639.211	37703
639.272	39401
639.332	47698
639.393	50718
639.453	43374
639.514	52824
639.574	43420
639.635	34802
639.695	33644
639.756	33874
639.816	34288
639.877	35461
639.937	41426
639.997	55836
640.058	44130
640.118	34301
640.178	33616
640.239	33450
640.299	33594
640.359	35744
640.420	37859
640.480	46876
640.540	56642
640.600	68923
640.661	58561
640.721	50638
640.781	52122
640.841	44061
640.901	36559
640.961	36737
641.021	38911
641.082	50111
641.142	51199
641.202	42962
641.262	31389
641.322	31505
641.382	30338
641.442	31562
641.502	30565
641.562	31615
641.622	33582
641.682	37477
641.742	47522
641.802	53935
641.861	38165
641.921	34185
641.981	32114
642.041	33077
642.101	32852
642.161	33969
642.221	28472
642.280	29262
642.340	27849
642.400	29943
642.460	30047
642.519	31468
642.579	31745
642.639	31583
642.698	30255
642.758	34890
642.818	32307
642.877	33992
642.937	34425
642.997	33473
643.056	38782
643.116	37968
643.175	34153
643.235	33478
643.294	35518
643.354	39647
643.414	44096
643.473	52350
643.532	66486
643.592	93371
643.651	142053
643.711	241526
643.770	447734
643.830	914950
643.889	2332469
643.948	1769195
644.008	312884
644.067	125196
644.126	81913
644.186	62242
644.245	51532
644.304	44683
644.363	41707
644.423	38762
644.482	38225
644.541	40419
644.600	44009
644.659	56639
644.719	73503
644.778	113857
644.837	190750
644.896	357976
644.955	919000
645.014	876105
645.073	135982
645.132	67280
645.191	54460
645.250	48302
645.309	46633
645.368	52344
645.427	66703
645.486	105681
645.545	259365
645.604	172237
645.663	44258
645.722	40249
645.781	41959
645.840	49295
645.898	61314
645.957	85883
646.016	132513
646.075	230947
646.134	425494
646.192	907260
646.251	2191216
646.310	1053442
646.369	183429
646.427	100053
646.486	81582
646.545	53001
646.603	43032
646.662	37707
646.721	35124
646.779	37383
646.838	39224
646.896	49801
646.955	68782
647.014	112511
647.072	204743
647.131	533420
647.189	750136
647.248	113863
647.306	41169
647.365	33278
647.423	27790
647.481	27650
647.540	23548
647.598	24623
647.657	23230
647.715	23422
647.773	22893
647.832	22031
647.890	20402
647.948	20990
648.007	20358
648.065	20056
648.123	19018
648.181	21046
648.240	18480
648.298	19096
648.356	19443
648.414	19611
648.472	18702
648.531	19413
648.589	18546
648.647	19613
648.705	18560
648.763	20448
648.821	20797
648.879	23486
648.937	26885
648.995	34551
649.053	44963
649.111	67606
649.169	111775
649.227	202934
649.285	379082
649.343	1027523
649.401	1418155
649.459	252973
649.516	91321
649.574	51729
649.632	43298
649.690	47324
649.748	57727
649.806	84779
649.863	149230
649.921	349820
649.979	646960
650.037	126285
650.094	32701
650.152	26497
650.210	20874
650.268	20261
650.325	16924
650.383	17416
650.440	16373
650.498	16840
650.556	15635
650.613	15027
650.671	15126
650.728	16024
650.786	18155
650.843	24603
650.901	29990
650.958	16432
651.016	13549
651.073	13672
651.131	12635
651.188	13336
651.246	12792
651.303	12956
651.360	12932
651.418	12302
651.475	12102
651.532	11501
651.590	12736
651.647	12393
651.704	11287
651.762	13331
651.819	11978
651.876	12049
651.933	10889
651.990	11304
652.048	10601
652.105	11152
652.162	11333
652.219	12766
652.276	11027
652.333	11375
652.390	10092
652.448	11298
652.505	9765
652.562	11442
652.619	10603
652.676	11037
652.733	11197
652.790	11196
652.847	9495
652.904	11076
652.961	9537
653.017	9464
653.074	10900
653.131	10655
653.188	9499
653.245	10303
653.302	9703
653.359	10720
653.415	10454
653.472	10702
653.529	10384
653.586	10709
653.642	9903
653.699	11356
653.756	10441
653.813	10587
653.869	11148
653.926	11003
653.983	11116
654.039	11238
654.096	10117
654.152	10442
654.209	8864
654.266	10650
654.322	9903
654.379	11347
654.435	9974
654.492	12466
654.548	11281
654.605	17848
654.661	16580
654.717	10876
654.774	10067
654.830	10007
654.887	9994
654.943	10033
655.000	10113
655.056	10131
655.112	9671
655.168	10645
655.225	11324
655.281	12649
655.337	12215
655.394	16865
655.450	16081
655.506	13044
655.562	15174
655.618	20884
655.675	10347
655.731	10374
655.787	8343
655.843	10427
655.899	9049
655.955	10996
656.011	10156
656.067	9333
656.123	10037
656.179	10883
656.235	10644
656.291	10934
656.347	11807
656.403	12465
656.459	10674
656.515	11245
656.571	10215
656.627	10658
656.683	8685
656.739	10328
656.795	8758
656.850	9804
656.906	10996
656.962	11761
657.018	9484
657.074	12369
657.129	15006
657.185	22072
657.241	40752
657.297	61475
657.352	16306
657.408	9634
657.464	10006
657.519	10012
657.575	7445
657.630	9258
657.686	7877
657.742	7159
657.797	7645
657.853	8829
657.908	9603
657.964	8296
658.019	7975
658.075	9576
658.130	8225
658.186	8228
658.241	7941
658.297	8116
658.352	8098
658.407	9221
658.463	7986
658.518	8618
658.573	7489
658.629	7671
658.684	7560
658.739	8339
658.795	7648
658.850	8815
658.905	7458
658.960	7857
659.016	7468
659.071	7661
659.126	8261
659.181	8698
659.236	10495
659.291	14504
659.346	10454
659.401	8726
659.457	7594
659.512	8296
659.567	8033
659.622	8139
659.677	7307
659.732	7631
659.787	7519
659.842	8794
659.897	9669
659.952	8753
660.007	6922
660.061	7558
660.116	6464
660.171	7762
660.226	7492
660.281	6896
660.336	5847
660.391	7551
660.445	6933
660.500	7638
660.555	6569
660.610	6322
660.664	8289
660.719	6951
660.774	7082
660.828	7400
660.883	7272
660.938	7405
660.992	6987
661.047	6880
661.101	5427
661.156	7147
661.211	6495
661.265	7302
661.320	5900
661.374	7117
661.429	6041
661.483	7431
661.538	6442
661.592	7284
661.647	6104
661.701	7062
661.755	6675
661.810	7424
661.864	6230
661.919	7277
661.973	6605
662.027	7038
662.081	5468
662.136	6762
662.190	6506
662.244	7673
662.299	6319
662.353	7179
662.407	6834
662.461	6264
662.515	7424
662.569	6269
662.624	7232
662.678	6374
662.732	6870
662.786	6992
662.840	7354
662.894	7749
662.948	6134
663.002	6909
663.056	6599
663.110	7335
663.164	6752
663.218	7701
663.272	6798
663.326	7664
663.380	7679
663.434	7898
663.488	6562
663.542	8424
663.595	7378
663.649	7020
663.703	7534
663.757	7600
663.811	6679
663.864	7189
663.918	7582
663.972	8177
664.026	7175
664.079	7240
664.133	6769
664.187	7822
664.240	7569
664.294	6896
664.348	6812
664.401	7315
664.455	6976
664.508	6563
664.562	6679
664.615	7485
664.669	5541
664.722	6680
664.776	6939
664.829	7269
664.883	6887
664.936	7179
664.990	6874
665.043	7342
665.097	6303
665.150	8083
665.203	6955
665.257	7225
665.310	7989
665.363	8426
665.417	7948
665.470	8738
665.523	7977
665.576	8351
665.630	8139
665.683	8682
665.736	7681
665.789	8480
665.842	6993
665.895	8600
665.949	8377
666.002	7441
666.055	7392
666.108	8111
666.161	7674
666.214	8278
666.267	8307
666.320	8650
666.373	8954
666.426	8655
666.479	8261
666.532	10136
666.585	9706
666.638	11816
666.691	10372
666.744	10266
666.796	9538
666.849	9754
666.902	8979
666.955	8048
667.008	7444
667.060	7004
667.113	5838
667.166	7777
667.219	7805
667.271	8579
667.324	6880
667.377	7255
667.430	7147
667.482	7247
667.535	7253
667.587	7671
667.640	8086
667.693	9293
667.745	11034
667.798	15354
667.850	10307
667.903	7821
667.955	7433
668.008	8301
668.060	8956
668.113	7241
668.165	8039
668.218	8070
668.270	7383
668.322	7164
668.375	7014
668.427	7632
668.479	6464
668.532	7341
668.584	7417
668.636	8056
668.689	7845
668.741	7263
668.793	7506
668.845	6873
668.898	7200
668.950	7963
669.002	7647
669.054	8030
669.106	6600
669.158	7071
669.211	6632
669.263	7651
669.315	7749
669.367	8421
669.419	8241
669.471	10640
669.523	11195
669.575	14748
669.627	15929
669.679	12170
669.731	9028
669.783	11083
669.835	10375
669.886	12433
669.938	9433
669.990	8507
670.042	6846
670.094	7488
670.146	7325
670.197	8223
670.249	8196
670.301	8583
670.353	9427
670.404	11206
670.456	12111
670.508	17084
670.560	24805
670.611	37262
670.663	58851
670.715	103774
670.766	259452
670.818	200438
670.869	33759
670.921	14487
670.972	12462
671.024	11760
671.075	9987
671.127	10617
671.178	9376
671.230	10544
671.281	11765
671.333	13454
671.384	15417
671.436	19717
671.487	26925
671.538	38779
671.590	59011
671.641	94254
671.692	150622
671.744	298144
671.795	405292
671.846	192966
671.897	76507
671.949	42870
672.000	28490
672.051	21026
672.102	17113
672.153	14458
672.204	11311
672.256	11882
672.307	10147
672.358	9864
672.409	9183
672.460	9513
672.511	7482
672.562	8279
672.613	7120
672.664	7629
672.715	6805
672.766	7116
672.817	6044
672.868	6822
672.919	5313
672.970	6317
673.021	5250
673.071	6893
673.122	5973
673.173	5942
673.224	5550
673.275	6237
673.326	6218
673.376	6242
673.427	4476
673.478	5504
673.528	5804
673.579	6107
673.630	5525
673.680	6595
673.731	5806
673.782	5502
673.832	5897
673.883	6153
673.934	5472
673.984	6396
674.035	6052
674.085	6444
674.136	6821
674.186	7093
674.237	7611
674.287	10351
674.338	9524
674.388	7193
674.438	6785
674.489	7795
674.539	8650
674.589	8415
674.640	7757
674.690	7638
674.740	7642
674.791	8172
674.841	6574
674.891	7336
674.942	5009
674.992	5964
675.042	4613
675.092	5682
675.142	4784
675.193	5541
675.243	4924
675.293	5362
675.343	5780
675.393	5821
675.443	6144
675.493	6637
675.543	4639
675.593	5352
675.643	5804
675.693	4977
675.743	5157
675.793	6349
675.843	4404
675.893	5484
675.943	4635
675.993	4871
676.043	4300
676.093	5183
676.142	3864
676.192	5272
676.242	4023
676.292	5193
676.341	4383
676.391	5381
676.441	4420
676.491	5028
676.540	4231
676.590	4540
676.640	4201
676.689	4489
676.739	3318
676.789	4143
676.838	3244
676.888	4374
676.937	3412
676.987	4920
677.037	3213
677.086	4122
677.136	4145
677.185	3475
677.235	4040
677.284	4171
677.333	3655
677.383	3982
677.432	3400
677.482	3991
677.531	3420
677.580	4266
677.630	3631
677.679	4329
677.728	3632
677.778	3927
677.827	2913
677.876	4025
677.925	2922
677.975	4221
678.024	4188
678.073	5227
678.122	4444
678.171	4921
678.220	4862
678.269	6339
678.319	7889
678.368	9049
678.417	7491
678.466	6143
678.515	5270
678.564	5251
678.613	4235
678.662	4745
678.711	4093
678.760	4394
678.809	3545
678.857	4299
678.906	4767
678.955	4998
679.004	3440
679.053	3819
679.102	3632
679.151	4152
679.199	4090
679.248	3498
679.297	3764
679.346	4416
679.394	3155
679.443	3482
679.492	2869
679.540	3573
679.589	2978
679.638	4085
679.686	3795
679.735	3710
679.784	4795
679.832	6506
679.881	6009
679.929	4399
679.978	2934
680.026	3500
680.075	2920
680.123	4037
680.172	2691
680.220	3113
680.268	2966
680.317	3127
680.365	3443
680.414	4119
680.462	2788
680.510	3937
680.559	2742
680.607	2975
680.655	3103
680.703	3243
680.752	2797
680.800	3375
680.848	2533
680.896	2806
680.945	3434
680.993	3273
681.041	2299
681.089	3014
681.137	3006
681.185	2012
681.233	2360
681.258	2947
681.281	3488
681.329	2574
681.377	3009
681.380	2992
681.425	2368
681.473	3005
681.502	2962
681.521	2902
681.569	4545
681.617	3401
681.624	3416
681.665	3388
681.713	3526
681.745	3299
681.761	3165
681.809	2609
681.857	4733
681.867	4431
681.904	3323
681.952	4250
681.989	3830
682.000	3674
682.048	3752
682.096	2818
682.111	3080
682.143	3588
682.191	3584
682.233	4270
682.239	4352
682.286	3565
682.334	4017
682.354	3316
682.382	2356
682.430	4189
682.476	3148
682.477	3110
682.525	3939
682.572	2585
682.598	3235
682.620	3770
682.667	3572
682.715	4486
682.720	4531
682.763	4809
682.810	4225
682.841	3827
682.857	3591
682.905	4329
682.952	4321
682.963	4227
683.000	3845
683.047	3078
683.085	4548
683.095	4920
683.142	3901
683.190	4936
683.206	4677
683.237	4198
683.284	4347
683.328	3814
683.332	3753
683.379	4403
683.426	3448
683.449	3900
683.473	4366
683.521	4008
683.568	4417
683.571	4400
683.615	3906
683.662	4989
683.693	4496
683.709	4204
683.757	4337
683.804	3699
683.814	3933
683.851	4730
683.898	3902
683.936	4981
683.945	5241
683.992	4541
684.039	4952
684.057	5121
684.086	5338
684.133	5760
684.179	5129
684.180	5095
684.227	4843
684.274	4610
684.300	5203
684.321	5669
684.368	4419
684.415	5619
684.422	5540
684.462	5024
684.509	4640
684.543	4253
684.556	4083
684.603	5567
684.649	4862
684.665	5017
684.696	5363
684.743	4682
684.786	5609
684.790	5677
684.837	4810
684.883	5669
684.908	5484
684.930	5291
684.977	5931
685.023	5940
685.029	5921
685.070	5670
685.117	4920
685.150	5330
685.164	5507
685.210	5846
685.257	5855
685.272	5587
685.303	4966
685.350	5267
685.393	6024
685.396	6075
685.443	6285
685.490	6479
685.514	6482
685.536	6492
685.583	6142
685.629	6609
685.636	6462
685.675	5446
685.722	6434
685.757	6293
685.768	6255
685.815	6613
685.861	6406
685.878	6677
685.908	7160
685.954	5960
686.000	7314
686.000	7330
686.047	6882
686.093	7173
686.121	7469
686.139	7716
686.185	7553
686.232	7133
686.242	7214
686.278	7096
686.324	6322
686.363	6368
686.370	6408
686.416	6045
686.463	6570
686.484	6343
686.509	6188
686.555	6727
686.601	6436
686.606	6508
686.647	6916
686.693	6073
686.727	6413
686.739	6568
686.785	6215
686.831	6238
686.848	6222
686.877	6182
686.923	6789
686.969	6003
686.969	5998
687.015	6963
687.061	6146
687.090	7010
687.107	7459
687.153	6940
687.199	7405
687.211	7274
687.245	6862
687.291	6864
687.332	6738
687.336	6736
687.382	7379
687.428	6800
687.453	7099
687.474	7295
687.520	7303
687.565	7379
687.574	7249
687.611	6819
687.657	7212
687.695	6810
687.702	6715
687.748	7500
687.794	7016
687.816	7081
687.839	7298
687.885	7250
687.931	7624
687.937	7681
687.976	7793
688.022	7474
688.058	7160
688.067	7130
688.113	7566
688.158	7624
688.179	7718
688.204	7666
688.249	7291
688.295	7540
688.300	7502
688.340	7460
688.386	7864
688.421	7263
688.431	7084
688.477	7096
688.522	7342
688.542	7733
688.567	8420
688.613	8257
688.658	8616
688.663	8626
688.703	8388
688.749	8277
688.784	7946
688.794	7837
688.839	7999
688.884	7991
688.905	7860
688.930	7872
688.975	7593
689.020	7902
689.026	7891
689.065	7698
689.110	7860
689.146	7579
689.155	7547
689.201	8354
689.246	7495
689.267	7763
689.291	8096
689.336	8138
689.381	8290
689.388	8227
689.426	7777
689.471	8116
689.509	8071
689.516	8107
689.561	8461
689.606	7772
689.630	8077
689.651	8303
689.696	8122
689.741	8426
689.750	8345
689.785	8146
689.830	8574
689.871	8495
689.875	8484
689.920	8211
689.965	8144
689.992	7940
690.010	7850
690.054	8434
690.099	8960
690.112	8733
690.144	8261
690.189	8325
690.233	8295
690.233	8304
690.278	8301
690.323	8246
690.354	8228
690.367	8319
690.412	8612
690.457	8820
690.474	8827
690.501	8651
690.546	8811
690.590	8448
690.595	8414
690.635	8341
690.680	7969
690.716	8038
690.724	8085
690.769	7811
690.813	8539
690.836	8280
690.857	8061
690.902	7891
690.946	8532
690.957	8628
690.991	9046
691.035	8476
691.077	8682
691.080	8711
691.124	8859
691.168	9527
691.198	9220
691.213	9035
691.257	9413
691.301	9153
691.318	9295
691.346	9479
691.390	8930
691.434	9158
691.439	9115
691.478	8954
691.522	9165
691.559	8959
691.567	8957
691.611	9587
691.655	9394
691.680	9394
691.699	9459
691.743	9626
691.787	9918
691.800	9767
691.831	9299
691.875	9820
691.919	9686
691.921	9678
691.964	10163
692.008	10094
692.041	10425
692.052	10436
692.096	9702
692.139	9691
692.162	9364
692.183	9179
692.227	9332
692.271	9390
692.282	9362
692.315	9499
692.359	9368
692.402	9649
692.403	9667
692.447	9320
692.490	9943
692.523	9536
692.534	9422
692.578	9841
692.622	9430
692.643	9467
692.666	9378
692.709	8968
692.753	8946
692.763	8836
692.797	9001
692.840	9579
692.884	9548
692.884	9563
692.928	9627
692.971	9328
693.004	9380
693.015	9507
693.059	9325
693.102	9946
693.124	9915
693.146	9678
693.189	9458
693.233	8491
693.245	8500
693.276	9151
693.320	9497
693.363	10127
693.365	10119
693.407	9946
693.450	9927
693.485	9555
693.493	9521
693.537	10022
693.580	9649
693.605	9715
693.624	9680
693.667	9743
693.710	9352
693.725	9227
693.753	9281
693.797	9436
693.840	9343
693.845	9358
693.883	9719
693.926	9639
693.966	10049
693.970	10066
694.013	9670
694.056	9750
694.086	9254
694.099	9201
694.142	9433
694.185	9763
694.206	9787
694.229	9850
694.272	9782
694.315	10198
694.326	10149
694.358	10208
694.401	10707
694.444	10795
694.446	10799
694.487	11036
694.530	10868
694.566	10806
694.573	10787
694.616	10379
694.659	10312
694.686	9987
694.702	9930
694.745	10079
694.787	9759
694.806	9871
694.830	10142
694.873	9912
694.916	10293
694.926	10259
694.959	10050
695.002	10022
695.044	9642
695.046	9621
695.087	10257
695.130	10512
695.166	11013
695.172	11057
695.215	10828
695.258	10948
695.286	10794
695.301	10868
695.343	11206
695.386	11415
695.406	11558
695.428	11675
695.471	11747
695.514	11878
695.526	11866
695.556	12384
695.599	13408
695.641	14076
695.646	14120
695.684	14012
695.726	13803
695.766	13697
695.769	13679
695.811	12981
695.854	12255
695.886	11631
695.896	11744
695.938	12212
695.981	12489
696.005	12753
696.023	12848
696.065	12795
696.108	13046
696.125	12942
696.150	13226
696.192	14064
696.235	14595
696.245	14734
696.277	14711
696.319	14562
696.361	14574
696.365	14526
696.404	14535
696.446	14588
696.485	14499
696.488	14536
696.530	14563
696.572	14760
696.604	14853
696.614	14867
696.656	14632
696.698	14528
696.724	14379
696.740	14444
696.783	14662
696.825	14707
696.844	14758
696.867	14799
696.909	14687
696.951	14612
696.964	14547
696.992	14518
697.034	14534
697.076	14404
697.083	14366
697.118	14807
697.160	15230
697.202	15742
697.203	15714
697.244	15354
697.286	15152
697.323	14818
697.327	14868
697.369	15044
697.411	15296
697.442	15314
697.453	15429
697.494	15858
697.536	16288
697.562	16492
697.578	16427
697.620	16182
697.661	15896
697.682	15752
697.703	15939
697.744	16107
697.786	16477
697.801	16501
697.828	16724
697.869	17156
697.911	17437
697.921	17495
697.952	17384
697.994	17118
698.035	16856
698.040	16782
698.077	16739
698.118	16669
698.160	16570
698.160	16528
698.201	16522
698.243	16427
698.279	16381
698.284	16486
698.325	17007
698.367	17592
698.399	17962
698.408	18000
698.449	18015
698.491	18007
698.518	17970
698.532	18042
698.573	18104
698.614	18185
698.638	18164
698.656	18240
698.697	18353
698.738	18424
698.757	18442
698.779	18372
698.820	18099
698.862	17849
698.877	17711
698.903	18089
698.944	18619
698.985	19153
698.996	19254
699.026	19005
699.067	18599
699.116	18071
699.235	18237
699.354	18204
699.474	16737
699.593	18296
699.713	19259
699.832	17735
699.951	18922
700.070	19689
700.190	17418
700.309	17350
700.428	16883
700.547	16817
700.667	16228
700.786	17860
700.905	17634
701.024	16561
701.143	17863
701.262	15605
701.381	16371
701.500	17397
701.619	17741
701.738	17316
701.857	16283
701.976	15814
702.095	15438
702.214	16316
702.333	16919
702.452	17057
702.571	16086
702.690	17103
702.809	15947
702.928	16273
703.047	15356
703.165	14506
703.284	16156
703.403	14732
703.522	15759
703.640	15822
703.759	15571
703.878	18356
703.997	16920
704.115	15233
704.234	15974
704.353	16094
704.471	15378
704.590	12976
704.708	13366
704.827	13202
704.946	13961
705.064	14032
705.183	14528
705.301	14535
705.420	15714
705.538	15994
705.656	14339
705.775	13238
705.893	13517
706.012	14643
706.130	14207
706.249	15241
706.367	14405
706.485	13832
706.604	14636
706.722	14107
706.840	15146
706.958	15699
707.077	14157
707.195	13631
707.313	13706
707.431	12761
707.549	12837
707.668	12859
707.786	13764
707.904	14245
708.022	12782
708.140	13415
708.258	12810
708.376	14039
708.494	13263
708.612	13817
708.730	16427
708.848	16721
708.966	15876
709.084	15344
709.202	14265
709.320	14663
709.438	13754
709.556	14228
709.674	13878
709.791	13972
709.909	12937
710.027	13529
710.145	13202
710.263	13046
710.380	13243
710.498	13331
710.616	12157
710.733	12824
710.851	13373
710.969	13794
711.086	13388
711.204	12888
711.322	12740
711.439	13489
711.557	12315
711.674	12644
711.792	12428
711.909	12240
712.027	11456
712.144	12018
712.262	12127
712.379	12785
712.497	14361
712.614	15584
712.732	14686
712.849	13398
712.966	14184
713.084	16546
713.201	15549
713.318	13628
713.436	15342
713.553	15806
713.670	16232
713.787	17684
713.905	16998
714.022	17144
714.139	15687
714.256	20491
714.373	27303
714.490	49144
714.608	110536
714.725	424555
714.842	1276311
714.959	265636
715.076	38029
715.193	24066
715.310	20733
715.427	16848
715.544	14798
715.661	14587
715.778	14451
715.895	14053
716.011	14708
716.128	14278
716.245	13080
716.362	14037
716.479	14538
716.596	12359
716.713	11731
716.829	12330
716.946	11673
717.063	10294
717.180	10585
717.296	11273
717.413	10885
717.530	11343
717.646	10954
717.763	10992
717.880	9573
717.996	9962
718.113	10154
718.229	10289
718.346	10297
718.462	10268
718.579	11433
718.695	14880
718.812	17281
718.928	13002
719.045	13210
719.161	9952
719.277	10308
719.394	11531
719.510	10650
719.626	11786
719.743	16821
719.859	23137
719.975	46681
720.092	142245
720.208	609479
720.324	332210
720.440	26568
720.557	16283
720.673	16492
720.789	19957
720.905	24259
721.021	25679
721.137	11414
721.253	10062
721.369	9311
721.486	10706
721.602	12256
721.718	10618
721.834	8398
721.950	8484
722.066	9542
722.181	9681
722.297	8328
722.413	9324
722.529	8725
722.645	8925
722.761	8408
722.877	9040
722.993	9079
723.108	12241
723.224	13424
723.340	9618
723.456	9448
723.571	8094
723.687	8451
723.803	7832
723.918	7614
724.034	7553
724.150	7014
724.265	8218
724.381	10170
724.497	18389
724.612	10196
724.728	8190
724.843	7462
724.959	7981
725.074	10066
725.190	17474
725.305	9448
725.421	7748
725.536	7256
725.651	8070
725.767	6948
725.882	6842
725.997	6199
726.113	6589
726.228	6629
726.343	7203
726.459	6310
726.574	6891
726.689	7188
726.804	6771
726.920	6815
727.035	6604
727.150	7648
727.265	7001
727.380	6933
727.495	7284
727.610	6220
727.725	5973
727.841	7271
727.956	6919
728.071	6640
728.186	6453
728.301	6242
728.416	6309
728.531	7361
728.645	6956
728.760	7263
728.875	7741
728.990	8453
729.105	7927
729.220	7233
729.335	6898
729.449	6192
729.564	7079
729.679	6155
729.794	6019
729.908	5525
730.023	6787
730.138	5577
730.253	5977
730.367	5469
730.482	6482
730.596	6573
730.711	7103
730.826	9093
730.940	8204
731.055	8180
731.169	8365
731.284	7758
731.398	7725
731.513	8441
731.627	9859
731.742	10688
731.856	13790
731.970	13595
732.085	17011
732.199	23855
732.313	41738
732.428	94308
732.542	318245
732.656	535242
732.771	100441
732.885	29022
732.999	20590
733.113	19388
733.227	17363
733.342	16305
733.456	14438
733.570	13785
733.684	14227
733.798	13438
733.912	13254
734.026	12574
734.140	12334
734.254	11941
734.368	12400
734.482	18268
734.596	13788
734.710	11597
734.824	11326
734.938	11255
735.052	11307
735.166	12174
735.280	12480
735.393	11251
735.507	10357
735.621	11803
735.735	13916
735.849	14263
735.962	10981
736.076	10620
736.190	11171
736.303	11362
736.417	14496
736.531	10967
736.644	10683
736.758	9875
736.872	10705
736.985	10012
737.099	9978
737.212	9367
737.326	9835
737.439	9755
737.553	10677
737.666	9708
737.780	9432
737.893	8992
738.007	8730
738.120	9745
738.233	8322
738.347	9674
738.460	9019
738.573	9872
738.687	10163
738.800	8933
738.913	9845
739.026	10280
739.140	9182
739.253	8683
739.366	8495
739.479	8677
739.592	9302
739.705	8282
739.818	9468
739.932	9119
740.045	8471
740.158	9545
740.271	8014
740.384	9151
740.497	7549
740.610	8753
740.723	8827
740.836	8028
740.949	8447
741.062	9686
741.174	10234
741.287	7570
741.400	8342
741.513	6949
741.626	8792
741.739	10116
741.851	7000
741.964	8201
742.077	8112
742.189	7925
742.302	8244
742.415	8591
742.527	8722
742.640	8667
742.753	7532
742.865	6948
742.978	8571
743.090	7477
743.203	6879
743.316	7347
743.428	6377
743.541	7413
743.653	7081
743.766	6309
743.878	6779
743.990	6559
744.103	8565
744.215	7534
744.327	7026
744.440	8075
744.552	8933
744.664	7905
744.777	7306
744.889	7233
745.001	6724
745.113	6357
745.226	7184
745.338	6458
745.450	6571
745.562	7413
745.674	6286
745.786	6678
745.898	6855
746.010	6064
746.122	6467
746.234	6894
746.347	6057
746.459	6260
746.570	5705
746.682	5875
746.794	7322
746.906	7532
747.018	5384
747.130	6989
747.242	5644
747.354	5134
747.466	5916
747.577	5681
747.689	6104
747.801	6544
747.913	5699
748.024	5305
748.136	5913
748.248	5147
748.359	5841
748.471	4984
748.583	5468
748.694	4835
748.806	6328
748.918	6221
749.029	5896
749.141	5646
749.252	6887
749.364	5547
749.475	7264
749.587	8715
749.698	5107
749.809	5248
749.921	5268
750.032	5477
750.144	4575
750.255	4614
750.366	4769
750.478	4583
750.589	4944
750.700	5032
750.811	5659
750.923	5765
751.034	6926
751.145	11266
751.256	6189
751.367	4775
751.479	5264
751.590	5078
751.701	5221
751.812	3785
751.923	4601
752.034	5628
752.145	5915
752.256	5068
752.367	4836
752.478	3934
752.589	4516
752.700	4460
752.811	4871
752.922	4568
753.032	4947
753.143	5627
753.254	5057
753.365	5099
753.476	5909
753.586	5041
753.697	4119
753.808	4497
753.919	3769
754.029	5193
754.140	4721
754.251	4085
754.361	4272
754.472	4553
754.582	4515
754.693	4001
754.804	4555
754.914	4805
755.025	4435
755.135	4070
755.246	4338
755.356	4472
755.466	3598
755.577	3842
755.687	4834
755.798	3716
755.908	3685
756.018	4038
756.129	4025
756.239	4222
756.349	5285
756.460	4426
756.570	6375
756.680	4258
756.790	4504
756.900	5168
757.011	4507
757.121	3861
757.231	4271
757.341	4888
757.451	3627
757.561	3147
757.671	3742
757.781	3857
757.891	4585
758.001	3082
758.111	4301
758.221	4228
758.331	4868
758.441	5480
758.551	5310
758.661	7389
758.771	6120
758.880	5721
758.990	5992
759.100	4899
759.210	5027
759.320	4665
759.429	5664
759.539	5065
759.649	6386
759.758	7499
759.868	8607
759.978	7832
760.087	8757
760.197	9272
760.307	8339
760.416	8398
760.526	6845
760.635	7553
760.745	8039
760.854	8787
760.964	10613
761.073	11817
761.182	10321
761.292	8499
761.401	7022
761.511	5721
761.620	5339
761.729	4471
761.839	3882
761.948	4080
762.057	3446
762.166	3963
762.276	4665
762.385	4764
762.494	3895
762.603	3799
762.712	4848
762.822	4729
762.931	4124
763.040	3350
763.149	2940
763.258	3586
763.367	4007
763.476	3658
763.585	3863
763.694	2706
763.803	2612
763.912	3762
764.021	3471
764.130	3645
764.238	3928
764.347	3627
764.456	4480
764.565	5205
764.674	3250
764.783	3434
764.891	3427
765.000	3974
765.109	3331
765.217	3298
765.326	3174
765.435	3848
765.543	4308
765.652	3962
765.761	3760
765.869	4408
765.978	4822
766.086	5099
766.195	11269
766.303	22501
766.412	81046
766.520	196095
766.629	44597
766.737	8280
766.846	5374
766.954	4553
767.062	4150
767.171	3662
767.279	3909
767.387	3636
767.496	3442
767.604	3021
767.712	3131
767.820	3439
767.928	3457
768.037	3452
768.145	2969
768.253	3022
768.361	3095
768.469	3199
768.577	3404
768.685	3063
768.793	3628
768.901	3512
769.009	3415
769.117	3112
769.225	3390
769.333	3428
769.441	4619
769.549	5400
769.657	11005
769.765	26816
769.873	103575
769.981	86862
770.088	10050
770.196	4113
770.304	4951
770.412	4649
770.519	4585
770.627	4195
770.735	3432
770.842	4590
770.950	3835
771.058	4740
771.165	4510
771.273	5422
771.380	5519
771.488	7090
771.595	8249
771.703	7533
771.810	7598
771.918	6480
772.025	6766
772.133	8285
772.240	9008
772.348	10019
772.455	10765
772.562	8564
772.670	9328
772.777	8935
772.884	8813
772.991	8086
773.099	8208
773.206	8261
773.313	8251
773.420	8110
773.528	8155
773.635	8393
773.742	8624
773.849	6938
773.956	8228
774.063	7216
774.170	8195
774.277	7905
774.384	7934
774.491	7073
774.598	7859
774.705	8213
774.812	7987
774.919	8388
775.026	8306
775.133	7294
775.239	7708
775.346	7788
775.453	7106
775.560	7608
775.667	6998
775.773	7354
775.880	7117
775.987	7444
776.093	6497
776.200	7927
776.307	6816
776.413	6412
776.520	6196
776.627	7719
776.733	6291
776.840	5902
776.946	8173
777.053	8255
777.159	7629
777.266	8403
777.372	7936
777.478	7745
777.585	7491
777.691	6894
777.798	6555
777.904	8178
778.010	7009
778.117	7126
778.223	6642
778.329	5284
778.435	5368
778.542	6212
778.648	6311
778.754	5397
778.860	6268
778.966	6315
779.072	5434
779.178	5504
779.284	4597
779.391	5074
779.497	6126
779.603	6202
779.708	5284
779.815	4470
779.920	5605
780.026	6270
780.132	5219
780.238	5437
780.344	5002
780.450	6305
780.556	6267
780.661	3165
780.767	5999
780.873	5362
780.979	4260
781.085	5655
781.190	5693
781.296	4604
781.402	5040
781.507	4818
781.613	4621
781.719	4178
781.824	5233
781.930	4833
782.035	4329
782.141	5736
782.246	4452
782.352	3818
782.457	5040
782.563	4630
782.668	4977
782.773	4060
782.879	3961
782.984	4043
783.090	6049
783.195	5353
783.300	7140
783.405	5240
783.511	3666
783.616	3966
783.721	5592
783.826	5305
783.932	4326
784.037	5158
784.142	4102
784.247	3966
784.352	4864
784.457	4505
784.562	4322
784.667	5205
784.772	4543
784.877	3796
784.982	4280
785.087	4196
785.192	3700
785.297	4472
785.402	4672
785.507	4048
785.611	4920
785.716	3753
785.821	3420
785.926	3760
786.031	3555
786.135	4183
786.240	4489
786.345	3158
786.450	3716
786.554	2914
786.659	3939
786.763	3545
786.868	2887
786.973	4691
787.077	3469
787.182	3170
787.286	3536
787.391	3959
787.495	3679
787.600	1906
787.704	2293
787.809	3430
787.913	3633
788.017	3027
788.122	3911
788.226	3356
788.330	2115
788.435	2573
788.539	3328
788.643	2831
788.747	2488
788.852	1875
788.956	3144
789.060	2591
789.164	3308
789.268	2480
789.372	2723
789.476	2139
789.580	2730
789.684	2240
789.788	3960
789.892	2658
789.996	2313
790.100	2145
790.204	2518
790.308	3254
790.412	3116
790.516	2045
790.620	1801
790.724	3372
790.828	3269
790.931	1388
791.035	2686
791.139	2575
791.242	2812
791.346	2351
791.450	2360
791.554	2344
791.657	3105
791.761	2939
791.864	2923
791.968	2799
792.072	3528
792.175	2372
792.279	2390
792.382	1853
792.486	2137
792.589	1807
792.693	3096
792.796	2237
792.899	2162
793.003	2306
793.106	2897
793.209	3117
793.313	3749
793.416	1032
793.519	3117
793.623	2933
793.726	4428
793.829	3278
793.932	1415
794.035	2055
794.138	2860
794.242	3266
794.345	2870
794.448	2281
794.551	2972
794.654	4409
794.757	3172
794.860	2453
794.963	2548
795.066	1940
795.169	2678
795.272	1644
795.375	2445
795.477	2435
795.580	1336
795.683	723
795.786	2235
795.889	1494
795.991	2309
796.094	1567
796.197	2261
796.300	2341
796.402	2753
796.505	2697
796.608	1998
796.710	2185
796.813	1993
796.915	2151
797.018	2864
797.120	2183
797.223	1400
797.326	1858
797.428	1660
797.530	1524
797.633	2282
797.735	2627
797.838	3139
797.940	4640
798.042	2543
798.145	1736
798.247	1379
798.349	1464
798.452	2218
798.554	1526
798.656	1955
798.758	3782
798.860	2930
798.962	1774
799.065	2005
799.167	1673
799.269	1640
799.371	2416
799.473	3832
799.575	3854
799.677	4324
799.779	2610
799.881	2923
799.983	3739
800.085	2284
800.187	2286
800.289	1821
800.390	1801
800.492	1618
800.594	2609
800.696	1375
800.798	1337
800.899	1036
801.001	2414
801.103	2249
801.205	2003
801.306	2010
801.408	1153
801.509	1873
801.611	2181
801.713	1268
801.814	908
801.916	1001
802.017	1462
802.119	864
802.220	971
802.322	843
802.423	1071
802.525	753
802.626	1253
802.727	1661
802.829	2484
802.930	1679
803.031	919
803.133	966
803.234	1555
803.335	1479
803.436	721
803.538	837
803.639	1074
803.740	767
803.841	1167
803.942	1426
804.043	1497
804.144	1241
804.245	2458
804.346	1649
804.447	604
804.548	1648
804.649	3061
804.750	1407
804.851	844
804.952	891
805.053	701
805.154	183
805.255	1416
805.355	1257
805.456	1108
805.557	915
805.658	833
805.758	1111
805.859	1441
805.960	831
806.061	1224
806.161	819
806.262	814
806.362	1135
806.463	1152
806.564	1221
806.664	617
806.765	1621
806.865	1144
806.966	516
807.066	606
807.166	1491
807.267	906
807.367	1228
807.468	487
807.568	449
807.668	1557
807.769	1696
807.869	830
807.969	1428
808.069	936
808.170	545
808.270	165
808.370	1105
808.470	957
808.570	1824
808.670	1483
808.770	464
808.870	994
808.970	194
809.070	-423
809.170	118
809.271	805
809.370	1496
809.470	746
809.570	377
809.670	-312
809.770	1020
809.870	811
809.970	1002
810.070	1081
810.169	1522
810.269	-242
810.369	500
810.469	23
810.568	934
810.668	332
810.768	1084
810.867	894
810.967	666
811.066	564
811.166	406
811.265	557
811.365	657
811.464	343
811.564	1662
811.663	1194
811.763	385
811.862	724
811.962	1335
812.061	768
812.160	823
812.260	-151
812.359	92
812.458	806
812.557	994
812.657	1753
812.756	123
812.855	700
812.954	732
813.053	-112
813.153	687
813.252	542
813.351	605
813.450	501
813.549	666
813.648	1067
813.747	604
813.846	-29
813.945	703
814.044	354
814.143	1372
814.242	709
814.341	688
814.439	994
814.538	1427
814.637	833
814.736	986
814.835	1201
814.933	672
815.032	1578
815.131	1830
815.229	3481
815.328	5248
815.427	4754
815.525	4904
815.624	3660
815.722	4165
815.821	3860
815.919	3600
816.018	4363
816.116	4547
816.215	3716
816.313	3736
816.412	4786
816.510	5027
816.609	5456
816.707	5655
816.805	6683
816.904	5601
817.002	6360
817.100	6464
817.198	6022
817.296	5906
817.395	5291
817.493	6075
817.591	5122
817.689	5544
817.787	5264
817.885	5102
817.983	6102
818.081	8705
818.179	13676
818.277	29584
818.375	49268
818.473	23448
818.571	8279
818.669	6556
818.767	6592
818.865	6206
818.963	4780
819.061	6448
819.158	9077
819.256	14118
819.354	26183
819.452	60847
819.549	83205
819.647	30502
819.745	9828
819.842	5316
819.940	5193
820.038	5309
820.135	4500
820.233	4448
820.330	4004
820.428	3697
820.525	3561
820.623	4109
820.720	3437
820.818	4137
820.915	4638
821.012	3432
821.110	2756
821.207	3665
821.304	3247
821.402	3621
821.499	5137
821.596	4517
821.693	4681
821.791	4850
821.888	2957
821.985	5140
822.082	5181
822.179	3892
822.276	3802
822.373	3232
822.470	2719
822.567	3414
822.664	2993
822.761	3668
822.858	2502
822.955	3461
823.052	2699
823.149	2910
823.246	3583
823.343	3292
823.440	2755
823.536	2900
823.633	3682
823.730	2701
823.827	3168
823.923	3306
824.020	2420
824.117	3020
824.213	2849
824.310	3566
824.407	2372
824.503	2058
824.600	2873
824.696	2241
824.793	3409
824.889	3236
824.986	2998
825.082	1567
825.179	2171
825.275	1833
825.371	2798
825.468	3498
825.564	1315
825.660	2932
825.757	2996
825.853	3127
825.949	2062
826.045	2101
826.142	1579
826.238	2843
826.334	1647
826.430	2203
826.526	1926
826.622	1748
826.718	1963
826.814	2408
826.910	3501
827.006	1334
827.102	861
827.198	1867
827.294	2403
827.390	2104
827.486	1717
827.582	1036
827.678	1420
827.774	2315
827.869	2356
827.965	2865
828.061	1190
828.157	1764
828.252	2242
828.348	1678
828.444	2092
828.539	869
828.635	2643
828.731	2274
828.826	1114
828.922	2687
829.017	2991
829.113	3104
829.208	2291
829.304	2197
829.399	2691
829.495	3114
829.590	2356
829.685	1846
829.781	1780
829.876	2563
829.971	1800
830.066	918
830.162	777
830.257	1645
830.352	2117
830.447	1451
830.543	1914
830.638	2254
830.733	2979
830.828	2263
830.923	2253
831.018	1887
831.113	2105
831.208	1787
831.303	2458
831.398	1055
831.493	1507
831.588	3102
831.683	1917
831.778	774
831.873	422
831.967	2266
832.062	1830
832.157	813
832.252	2218
832.346	2192
832.441	2043
832.536	2913
832.631	3101
832.725	4108
832.820	1850
832.914	2118
833.009	757
833.104	1223
833.198	878
833.293	1481
833.387	1679
833.482	1755
833.576	1438
833.670	2473
833.765	2310
833.859	2404
833.954	3100
834.048	1892
834.142	1284
834.237	756
834.331	788
834.425	1781
834.519	1690
834.613	1366
834.708	865
834.802	1710
834.896	1213
834.990	1774
835.084	1257
835.178	1180
835.272	1348
835.366	1269
835.460	1496
835.554	1344
835.648	1005
835.742	979
835.836	-135
835.930	1201
836.024	1747
836.117	1463
836.211	874
836.305	785
836.399	1626
836.493	616
836.586	2018
836.680	1191
836.774	420
836.867	1347
836.961	701
837.055	546
837.148	753
837.242	870
837.335	632
837.429	1667
837.522	60
837.616	1511
837.709	1096
837.803	1826
837.896	1529
837.989	1661
838.083	1270
838.176	1079
838.269	2135
838.363	2033
838.456	421
838.549	715
838.642	1719
838.735	2860
838.829	3522
838.922	1330
839.015	910
839.108	815
839.201	214
839.294	982
839.387	922
839.480	301
839.573	620
839.666	888
839.759	1081
839.852	1081
839.945	1756
840.038	930
840.131	636
840.223	483
840.316	720
840.409	1422
840.502	1096
840.594	1279
840.687	180
840.780	666
840.873	-15
840.965	84
841.058	904
841.150	1700
841.243	1650
841.336	1275
841.428	53
841.521	60
841.613	90
841.706	1353
841.798	-110
841.890	1270
841.983	34
842.075	384
842.167	747
842.260	1130
842.352	1144
842.444	1455
842.537	1307
842.629	2464
842.721	1478
842.813	1063
842.905	54
842.997	1287
843.090	916
843.182	618
843.274	1048
843.366	2788
843.458	5293
843.550	7731
843.642	2151
843.734	1245
843.826	1016
843.918	1417
844.009	1163
844.101	1097
844.193	541
844.285	685
844.377	426
844.469	1497
844.560	187
844.652	603
844.744	553
844.835	1157
844.927	558
845.019	704
845.110	849
845.202	149
845.293	501
845.385	-449
845.476	463
845.568	676
845.659	387
845.751	601
845.842	543
845.934	-299
846.025	592
846.116	516
846.208	970
846.299	573
846.390	489
846.482	915
846.573	58
846.664	1520
846.755	1148
846.846	1913
846.937	607
847.029	-394
847.120	-172
847.211	-400
847.302	823
847.393	-489
847.484	604
847.575	-418
847.666	-600
847.757	273
847.847	-249
847.938	791
848.029	1037
848.120	50
848.211	-169
848.302	-52
848.392	-61
848.483	912
848.574	-23
848.664	304
848.755	1241
848.846	666
848.936	55
849.027	1131
849.118	1271
849.208	320
849.299	2805
849.389	5130
849.480	10984
849.570	23852
849.661	43189
849.751	88410
849.841	97241
849.932	21616
850.022	3166
850.112	2756
850.203	1342
850.293	578
850.383	713
850.474	978
850.564	499
850.654	532
850.744	657
850.834	944
850.924	-195
851.014	1357
851.104	467
851.194	444
851.284	498
851.374	800
851.464	1134
851.554	168
851.644	747
851.734	465
851.824	1625
851.914	876
852.004	858
852.094	-76
852.183	254
852.273	1287
852.363	327
852.452	507
852.542	589
852.632	378
852.721	1177
852.811	562
852.901	1581
852.990	1653
853.080	1545
853.169	2570
853.259	2041
853.348	2028
853.438	3402
853.527	5183
853.617	7219
853.706	14322
853.795	23913
853.885	50032
853.974	100283
854.063	163922
854.152	296648
854.242	301632
854.331	92865
854.420	25402
854.509	12530
854.598	9266
854.687	7364
854.777	4746
854.866	3869
854.955	3471
855.044	1269
855.133	2330
855.222	2084
855.311	1284
855.400	1146
855.488	1117
855.577	689
855.666	463
855.755	732
855.844	1136
855.933	-223
856.021	1494
856.110	728
856.199	170
856.288	107
856.376	373
856.465	64
856.554	316
856.642	-748
856.731	627
856.819	9
856.908	262
856.996	259
857.085	110
857.173	-657
857.262	352
857.350	-224
857.438	158
857.527	769
857.615	48
857.703	-497
857.792	232
857.880	-184
857.968	-291
858.056	466
858.145	470
858.233	-201
858.321	100
858.409	330
858.497	422
858.585	-363
858.673	-44
858.761	-245
858.849	-823
858.937	378
859.025	104
859.113	655
859.201	-280
859.289	690
859.377	280
859.465	57
859.552	-49
859.640	-17
859.728	-556
859.816	-246
859.903	189
859.991	-280
860.079	569
860.166	-230
860.254	-131
860.342	-234
860.429	-92
860.517	239
860.604	221
860.692	149
860.779	-225
860.867	156
860.954	362
861.042	-126
861.129	931
861.216	728
861.304	-232
861.391	-31
861.478	58
861.565	985
861.653	102
861.740	-541
861.827	287
861.914	-148
862.001	430
862.089	947
862.176	160
862.263	-969
862.350	263
862.437	62
862.524	826
862.611	-641
862.698	605
862.785	283
862.871	520
862.958	49
863.045	160
863.132	774
863.219	-45
863.306	-484
863.392	-47
863.479	273
863.566	312
863.652	1021
863.739	535
863.826	930
863.912	1266
863.999	-92
864.086	179
864.172	623
864.259	353
864.345	728
864.432	416
864.518	1372
864.604	832
864.691	761
864.777	740
864.863	1272
864.950	2246
865.036	2262
865.122	4441
865.209	6840
865.295	6150
865.381	6372
865.467	6863
865.553	7304
865.639	10159
865.726	16338
865.812	28556
865.898	53799
865.984	90700
866.070	126565
866.156	226566
866.242	162507
866.328	42772
866.414	13877
866.499	9009
866.585	7443
866.671	6975
866.757	5166
866.843	4976
866.928	4392
867.014	3320
867.100	4910
867.186	4695
867.271	3315
867.357	3700
867.442	4138
867.528	4542
867.614	2309
867.699	3439
867.785	3672
867.870	3837
867.956	3535
868.041	4378
868.127	3441
868.212	2896
868.297	3605
868.383	3557
868.468	3645
868.553	4317
868.639	4775
868.724	4754
868.809	7181
868.894	4429
868.979	2708
869.065	3934
869.150	2297
869.235	2357
869.320	2601
869.405	2846
869.490	1431
869.575	2822
869.660	2552
869.745	1969
869.830	2956
869.915	3013
870.000	2082
870.085	2208
870.169	2837
870.254	3217
870.339	1825
870.424	1005
870.509	1886
870.593	3200
870.678	3118
870.763	2293
870.847	2064
870.932	1984
871.016	3384
871.101	2250
871.186	1405
871.270	3290
871.355	2466
871.439	1580
871.523	2258
871.608	2133
871.692	1172
871.777	2530
871.861	2865
871.945	1997
872.030	2490
872.114	1572
872.198	2031
872.282	1093
872.367	1399
872.451	2356
872.535	2129
872.619	1548
872.703	1134
872.787	1795
872.871	1877
872.955	1815
873.039	1527
873.123	1775
873.207	2230
873.291	1460
873.375	2
873.459	2032
873.543	1490
873.627	1117
873.711	1128
873.794	1426
873.878	2106
873.962	872
874.045	1252
874.129	2528
874.137	2429
874.213	1436
874.245	1862
874.296	2562
874.352	1138
874.380	438
874.460	1748
874.464	1800
874.547	1770
874.568	1682
874.631	1447
874.676	1360
874.714	1262
874.784	1648
874.798	1727
874.881	1977
874.892	1759
874.965	267
874.999	574
875.048	983
875.107	1579
875.131	1815
875.215	1420
875.215	1419
875.298	475
875.323	605
875.381	942
875.430	1331
875.465	1583
875.538	2105
875.548	2171
875.631	928
875.646	876
875.714	658
875.753	513
875.798	393
875.861	1135
875.881	1344
875.964	1378
875.968	1370
876.047	1290
876.076	1443
876.130	1673
876.183	1473
876.213	1423
876.291	1978
876.296	2002
876.379	1557
876.398	1558
876.462	1613
876.506	957
876.545	376
876.613	904
876.628	1027
876.711	1790
876.721	1782
876.794	1780
876.828	2004
876.877	2211
876.935	1987
876.960	1941
877.043	1398
877.043	1399
877.125	1624
877.150	1867
877.208	2357
877.258	2363
877.291	2348
877.365	1178
877.374	1059
877.456	2100
877.472	2000
877.539	1589
877.579	2125
877.622	2562
877.687	2113
877.704	2069
877.787	1676
877.794	1741
877.869	2194
877.901	2386
877.952	2807
878.008	2051
878.034	1507
878.115	1020
878.117	1024
878.199	1308
878.222	1244
878.282	1064
878.329	1388
878.364	1655
878.437	1826
878.447	1770
878.529	1605
878.544	1429
878.611	973
878.651	953
878.694	1068
878.758	1874
878.776	2042
878.858	1795
878.865	1796
878.941	1575
878.972	1207
879.023	780
879.078	914
879.105	1090
879.185	1842
879.187	1852
879.269	2028
879.292	1870
879.351	1366
879.399	1227
879.433	1212
879.506	1102
879.516	1083
879.598	1610
879.613	1528
879.680	1075
879.720	963
879.762	1078
879.827	1044
879.844	982
879.926	1087
879.933	1133
880.007	1465
880.040	1350
880.089	1188
880.147	1268
880.171	1461
880.253	2870
880.254	2870
880.335	2321
880.360	2428
880.417	3361
880.467	4254
880.499	4898
880.574	7111
880.580	7171
880.662	5685
880.680	4939
880.744	2349
880.787	1599
880.825	1190
880.893	1507
880.907	1619
880.989	1462
881.000	1419
881.070	1268
881.106	1597
881.152	1922
881.213	1759
881.233	1620
881.315	781
881.319	785
881.396	1519
881.426	1549
881.478	1250
881.532	1370
881.559	1737
881.639	2471
881.641	2456
881.722	1403
881.745	982
881.803	770
881.852	1109
881.885	1080
881.958	753
881.966	760
882.047	1220
882.064	1222
882.129	1356
882.171	1301
882.210	1147
882.277	1735
882.291	1843
882.372	1708
882.383	1655
882.454	1623
882.489	1713
882.535	1661
882.596	1562
882.616	1638
882.697	1747
882.702	1771
882.778	1455
882.808	1252
882.859	1208
882.914	1178
882.940	1156
883.020	1214
883.021	1218
883.102	1162
883.127	1209
883.183	1670
883.233	1826
883.264	1721
883.339	1548
883.345	1503
883.426	764
883.445	634
883.507	365
883.551	376
883.587	914
883.657	1735
883.668	1837
883.749	2045
883.763	2145
883.830	1765
883.869	1404
883.910	1107
883.975	646
883.991	695
884.072	1066
884.081	1110
884.152	1217
884.187	1303
884.233	1783
884.292	2388
884.314	2286
884.394	1464
884.398	1432
884.475	1060
884.504	802
884.555	881
884.610	1415
884.636	1669
884.716	1669
884.716	1676
884.797	2577
884.821	2500
884.877	2180
884.927	2260
884.958	2163
885.033	1657
885.038	1614
885.118	878
885.139	703
885.199	934
885.244	1101
885.279	1035
885.350	943
885.359	1043
885.439	1905
885.456	2069
885.520	2549
885.561	2744
885.600	1966
885.667	748
885.680	835
885.760	1363
885.773	1410
885.840	1053
885.878	995
885.920	1158
885.984	1230
886.000	1332
886.080	2047
886.089	2105
886.160	1738
886.195	1509
886.240	1632
886.300	1779
886.320	1811
886.400	1993
886.406	1994
886.480	1286
886.511	994
886.560	930
886.616	781
886.640	957
886.720	1787
886.722	1796
886.800	1622
886.827	1567
886.879	1611
886.932	1597
886.959	1617
887.038	1855
887.039	1864
887.119	1879
887.143	1939
887.198	1701
887.248	1409
887.278	1298
887.354	1091
887.358	1132
887.437	1703
887.459	1898
887.517	1944
887.564	1994
887.596	1879
887.669	1388
887.676	1334
887.755	830
887.774	674
887.835	772
887.880	835
887.914	1054
887.985	1600
887.994	1659
888.073	1984
888.090	2090
888.153	3005
888.195	3502
888.232	3129
888.300	2387
888.311	2187
888.391	786
888.405	527
888.470	1296
888.510	1737
888.549	1613
888.615	1497
888.628	1529
888.708	1620
888.720	1630
888.787	2023
888.825	2216
888.866	1778
888.930	1065
888.945	1100
889.024	1330
889.035	1354
889.103	1490
889.140	1537
889.182	1517
889.245	1507
889.261	1520
889.340	1559
889.349	1562
889.419	1423
889.454	1334
889.498	1397
889.559	1507
889.577	1505
889.656	1476
889.664	1473
889.735	1960
889.768	2184
889.814	2373
889.873	2609
889.978	2314
890.083	1765
890.187	1012
890.292	2981
890.397	1598
890.501	1933
890.606	1361
890.710	1060
890.815	2304
890.919	1826
891.024	1370
891.128	1841
891.233	1221
891.337	2234
891.442	1513
891.546	2325
891.650	536
891.755	1219
891.859	1817
891.963	2411
892.068	1326
892.172	1642
892.276	1191
892.380	1608
892.484	1957
892.589	2452
892.693	1681
892.797	898
892.901	502
893.005	1147
893.109	2219
893.213	2274
893.317	2500
893.421	1286
893.525	241
893.629	371
893.733	1702
893.837	1389
893.941	1318
894.045	1019
894.148	252
894.252	1158
894.356	1783
894.460	2686
894.564	1684
894.667	1235
894.771	625
894.875	-144
894.978	627
895.082	1922
895.186	1478
895.289	1987
895.393	1061
895.496	1833
895.600	1063
895.703	1590
895.807	1259
895.910	2010
896.014	854
896.117	1155
896.221	1391
896.324	1282
896.427	845
896.531	237
896.634	770
896.737	1149
896.840	1292
896.944	737
897.047	1735
897.150	1857
897.253	952
897.356	644
897.460	468
897.563	1577
897.666	1537
897.769	2072
897.872	854
897.975	686
898.078	1324
898.181	916
898.284	1080
898.387	1147
898.490	2197
898.593	563
898.695	906
898.798	1237
898.901	1346
899.004	451
899.107	731
899.209	738
899.312	2462
899.415	1594
899.518	417
899.620	894
899.723	161
899.826	1518
899.928	1589
900.031	1511
900.133	1397
900.236	1040
900.338	106
900.441	767
900.543	230
900.646	1356
900.748	1531
900.851	682
900.953	853
901.055	555
901.158	167
901.260	1390
901.362	624
901.465	717
901.567	1023
901.669	1292
901.771	1035
901.873	817
901.976	659
902.078	1384
902.180	801
902.282	361
902.384	325
902.486	1616
902.588	1645
902.690	1701
902.792	806
902.894	1293
902.996	816
903.098	1161
903.200	849
903.302	1315
903.404	785
903.505	722
903.607	263
903.709	1389
903.811	1193
903.913	733
904.014	1080
904.116	151
904.218	235
904.319	1420
904.421	1662
904.523	1831
904.624	535
904.726	1368
904.827	620
904.929	1177
905.030	210
905.132	1185
905.233	1213
905.335	590
905.436	620
905.537	452
905.639	620
905.740	776
905.841	1292
905.943	1099
906.044	279
906.145	949
906.247	279
906.348	75
906.449	908
906.550	1003
906.651	897
906.752	479
906.854	1317
906.955	463
907.056	1447
907.157	1183
907.258	1628
907.359	386
907.460	290
907.561	467
907.662	551
907.762	512
907.863	536
907.964	1441
908.065	508
908.166	1112
908.267	131
908.367	368
908.468	276
908.569	311
908.670	679
908.770	1133
908.871	1010
908.971	244
909.072	1230
909.173	711
909.273	426
909.374	1867
909.474	1363
909.575	460
909.675	823
909.776	534
909.876	1203
909.977	527
910.077	295
910.177	1383
910.278	914
910.378	865
910.478	-470
910.579	669
910.679	1206
910.779	873
910.879	1429
910.980	484
911.080	1097
911.180	182
911.280	305
911.380	294
911.480	832
911.580	500
911.680	1176
911.780	855
911.880	908
911.980	256
912.080	511
912.180	73
912.280	563
912.380	663
912.480	-53
912.580	421
912.679	-275
912.779	232
912.879	623
912.979	412
913.078	322
913.178	1349
913.278	308
913.377	762
913.477	177
913.577	706
913.676	886
913.776	664
913.875	1360
913.975	850
914.074	98
914.174	427
914.273	-662
914.373	784
914.472	267
914.572	957
914.671	86
914.770	419
914.870	644
914.969	144
915.068	652
915.167	1352
915.267	722
915.366	953
915.465	192
915.564	1039
915.663	742
915.763	725
915.862	1094
915.961	984
916.060	130
916.159	529
916.258	806
916.357	378
916.456	674
916.555	1041
916.654	424
916.752	1184
916.851	838
916.950	585
917.049	1287
917.148	-77
917.247	997
917.345	675
917.444	54
917.543	-50
917.642	564
917.740	286
917.839	1137
917.937	1368
918.036	905
918.135	577
918.233	63
918.332	932
918.430	716
918.529	1131
918.627	277
918.726	1332
918.824	536
918.923	457
919.021	935
919.119	302
919.218	-9
919.316	1110
919.414	1090
919.512	1137
919.611	981
919.709	952
919.807	1405
919.905	1081
920.003	1859
920.102	1529
920.200	1055
920.298	1151
920.396	1427
920.494	1196
920.592	1139
920.690	1763
920.788	1087
920.886	1885
920.984	1283
921.082	865
921.180	2115
921.277	1431
921.375	2232
921.473	2900
921.571	3066
921.669	2593
921.766	2259
921.864	2509
921.962	3190
922.060	2219
922.157	2309
922.255	3037
922.352	1714
922.450	3629
922.548	2610
922.645	2938
922.743	3808
922.840	5379
922.938	8511
923.035	7479
923.133	7072
923.230	7381
923.327	9290
923.425	9711
923.522	8679
923.619	8368
923.717	8013
923.814	6542
923.911	7181
924.008	7550
924.106	7255
924.203	6295
924.300	7780
924.397	7266
924.494	7591
924.591	6513
924.688	6733
924.786	6555
924.883	7069
924.979	6168
925.077	6927
925.173	5926
925.270	6565
925.367	6777
925.464	7237
925.561	6950
925.658	7130
925.755	6551
925.852	6562
925.948	6598
926.045	6343
926.142	6632
926.239	6993
926.335	5721
926.432	5534
926.529	6750
926.625	6992
926.722	6770
926.818	5497
926.915	6397
927.011	6004
927.108	5942
927.204	6124
927.301	5836
927.397	5577
927.494	7007
927.590	5347
927.687	4130
927.783	6725
927.879	7045
927.976	5456
928.072	5021
928.168	5698
928.264	6833
928.361	4861
928.457	5573
928.553	5092
928.649	5646
928.745	5783
928.841	5469
928.937	4707
929.033	5176
929.129	5180
929.225	6466
929.321	5723
929.417	4601
929.513	5295
929.609	5536
929.705	4207
929.801	5456
929.897	4524
929.993	4511
930.089	4686
930.184	4927
930.280	4937
930.376	6006
930.471	4358
930.567	4292
930.663	4587
930.758	3938
930.854	5064
930.950	4402
931.045	4373
931.141	3908
931.236	5651
931.332	4540
931.427	3787
931.523	4814
931.618	5649
931.714	3536
931.809	2702
931.905	6026
932.000	3726
932.095	2333
932.191	3850
932.286	5380
932.381	4746
932.476	3485
932.572	4311
932.667	3734
932.762	3595
932.857	3441
932.952	5166
933.047	4300
933.142	3345
933.237	3269
933.332	4899
933.427	4790
933.522	4531
933.617	3336
933.712	3611
933.807	4174
933.902	5486
933.997	4850
934.092	3942
934.187	3002
934.282	4248
934.376	4073
934.471	4265
934.566	4050
934.661	3151
934.755	3047
934.850	3756
934.945	4111
935.039	2696
935.134	2994
935.228	2454
935.323	4810
935.417	3901
935.512	1770
935.606	1996
935.701	3220
935.795	3767
935.890	3804
935.984	2686
936.079	2700
936.173	2980
936.267	3003
936.362	1998
936.456	2304
936.550	3917
936.644	3541
936.738	2570
936.833	2077
936.927	3004
937.021	2421
937.115	3055
937.209	3499
937.303	3855
937.397	2235
937.491	2535
937.585	3469
937.679	3420
937.773	2494
937.867	1369
937.961	2395
938.055	2348
938.149	4138
938.243	1846
938.337	2040
938.430	2104
938.524	3385
938.618	3418
938.712	2192
938.805	2046
938.899	2169
938.993	4107
939.086	2326
939.180	1228
939.274	2068
939.367	2460
939.461	3973
939.554	2286
939.648	2119
939.741	1575
939.835	2416
939.928	4278
940.022	3782
940.115	2828
940.208	2558
940.302	2927
940.395	3999
940.488	2490
940.582	1872
940.675	2132
940.768	1903
940.861	2753
940.954	3506
941.048	1955
941.141	1399
941.234	2077
941.327	2824
941.420	3006
941.513	2372
941.606	2052
941.699	1116
941.792	2608
941.885	2789
941.978	2445
942.071	2828
942.164	1866
942.257	921
942.349	1327
942.442	2022
942.535	1746
942.628	1168
942.721	1365
942.813	1674
942.906	1701
942.999	2009
943.091	1512
943.184	2071
943.277	1363
943.369	1240
943.462	1803
943.554	818
943.647	1696
943.739	1919
943.832	2628
943.924	624
944.017	369
944.109	1355
944.201	1201
944.294	1363
944.386	1031
944.478	1389
944.571	949
944.663	622
944.755	1239
944.847	2553
944.940	1983
945.032	1059
945.124	558
945.216	1075
945.308	890
945.400	1405
945.492	766
945.584	2246
945.676	2272
945.768	1555
945.860	2356
945.952	2569
946.044	1638
946.136	1382
946.228	1297
946.320	1449
946.412	942
946.503	1613
946.595	2372
946.687	1254
946.779	1038
946.870	457
946.962	441
947.054	1479
947.145	1323
947.237	1175
947.329	781
947.420	1626
947.512	1321
947.603	425
947.695	737
947.786	-14
947.878	864
947.969	816
948.061	1677
948.152	1721
948.243	442
948.335	-496
948.426	344
948.517	1765
948.609	927
948.700	985
948.791	1031
948.882	770
948.973	855
949.065	938
949.156	672
949.247	-43
949.338	566
949.429	1104
949.520	728
949.611	853
949.702	1823
949.793	690
949.884	1003
949.975	960
950.066	-321
950.157	492
950.247	212
950.338	1034
950.429	-549
950.520	1082
950.611	489
950.701	426
950.792	268
950.883	1190
950.973	846
951.064	484
951.155	1438
951.245	1429
951.336	1746
951.427	1337
951.517	881
951.608	2246
951.698	1287
951.788	269
951.879	-250
951.969	850
952.060	591
952.150	722
952.240	930
952.331	746
952.421	849
952.511	539
952.602	213
952.692	72
952.782	810
952.872	498
952.962	64
953.052	713
953.143	312
953.233	-436
953.323	1236
953.413	846
953.503	1384
953.593	821
953.683	652
953.773	471
953.863	-80
953.953	552
954.042	938
954.132	987
954.222	804
954.312	228
954.402	133
954.492	150
954.581	227
954.671	1128
954.761	305
954.850	1036
954.940	450
955.030	38
955.119	242
955.209	485
955.298	1073
955.388	157
955.477	626
955.567	-280
955.656	-262
955.746	266
955.835	-747
955.925	-75
956.014	-237
956.103	1134
956.193	866
956.282	667
956.371	786
956.461	433
956.550	221
956.639	984
956.728	-47
956.817	954
956.906	22
956.995	768
957.085	360
957.174	490
957.263	729
957.352	356
957.441	-341
957.530	238
957.619	-345
957.708	81
957.796	265
957.885	706
957.974	673
958.063	220
958.152	-383
958.241	-5
958.329	-960
958.418	954
958.507	290
958.596	1101
958.684	206
958.773	778
958.861	-834
958.950	62
959.039	-600
959.127	471
959.216	5
959.304	691
959.393	-921
959.481	976
959.570	-199
959.658	137
959.746	551
959.835	110
959.923	252
960.011	-204
960.100	317
960.188	521
960.276	-126
960.365	-198
960.453	-17
960.541	-1144
960.629	132
960.717	207
960.805	-869
960.893	-425
960.981	-84
961.069	1018
961.158	567
961.245	828
961.333	1124
961.421	586
961.509	206
961.597	-179
961.685	679
961.773	526
961.861	429
961.949	1216
962.036	-9
962.124	636
962.212	-796
962.299	-328
962.387	206
962.475	121
962.562	-818
962.650	-587
962.738	-67
962.825	-542
962.913	-263
963.000	-306
963.088	-168
963.175	363
963.263	-374
963.350	-394
963.438	130
963.525	258
963.612	-825
963.700	289
963.787	796
963.874	1132
963.962	141
964.049	88
964.136	-906
964.223	-800
964.310	-312
964.398	-358
964.485	-474
964.572	-192
964.659	-252
964.746	-491
964.833	-444
964.920	-490
965.007	-898
965.094	-913
965.181	-440
965.268	-447
965.355	205
965.441	615
965.528	-35
965.615	326
965.702	74
965.789	520
965.875	2
965.962	387
966.049	-370
966.136	-98
966.222	428
966.309	-65
966.395	-614
966.482	95
966.569	-54
966.655	-26
966.742	-16
966.828	427
966.915	107
967.001	-72
967.087	-1032
967.174	-190
967.260	-854
967.347	-104
967.433	-638
967.519	338
967.605	-119
967.692	-392
967.778	62
967.864	-754
967.950	-400
968.036	-633
968.123	15
968.209	30
968.295	-286
968.381	-488
968.467	-1269
968.553	-675
968.639	-387
968.725	-682
968.811	-223
968.897	67
968.983	-479
969.069	-170
969.154	-740
969.240	-133
969.326	-1148
969.412	-277
969.497	-417
969.583	-401
969.669	-542
969.755	-140
969.840	138
969.926	218
970.012	1253
970.097	949
970.183	1335
970.268	-124
970.354	207
970.439	-436
970.525	141
970.610	-174
970.696	-238
970.781	-313
970.866	-1373
970.952	-184
971.037	-591
971.122	-971
971.208	-344
971.293	-390
971.378	-918
971.463	18
971.549	-729
971.634	-584
971.719	-15
971.804	147
971.889	-127
971.974	-936
972.059	115
972.144	-1104
972.229	-1008
972.314	-904
972.399	211
972.484	-714
972.569	-624
972.654	-541
972.739	165
972.824	-933
972.908	-630
972.993	-1173
973.078	-1052
973.163	-212
973.247	-915
973.332	-1551
973.417	75
973.501	-187
973.586	-329
973.671	-693
973.755	-857
973.840	-330
973.924	-322
974.009	724
974.093	-112
974.178	774
974.262	89
974.346	95
974.431	-206
974.515	-381
974.600	-413
974.684	-328
974.768	-313
974.852	-319
974.937	-367
975.021	-751
975.105	-398
975.189	110
975.273	-425
975.358	-253
975.442	-418
975.526	-419
975.610	-978
975.694	-518
975.778	-571
975.862	-890
975.946	-1692
976.030	-147
976.114	-847
976.198	-968
976.281	-638
976.365	111
976.449	-532
976.533	103
976.617	-998
976.700	-613
976.784	-605
976.868	-349
976.951	-721
977.035	146
977.119	-782
977.202	-626
977.286	-258
977.369	959
977.453	359
977.536	1127
977.620	176
977.703	-533
977.787	-802
977.870	163
977.953	79
978.037	-95
978.120	-147
978.203	-549
978.287	-576
978.370	-32
978.453	-365
978.536	-1396
978.620	88
978.703	176
978.786	350
978.869	-104
978.952	-1589
979.035	730
979.118	-392
979.201	-1010
979.284	-95
979.367	-1058
979.450	-1203
979.533	-507
979.616	-1765
979.699	-490
979.782	-558
979.865	396
979.948	-354
980.030	-707
980.113	-441
980.196	-66
980.279	-152
980.361	-979
980.444	-1110
980.526	-288
980.609	926
980.692	215
980.774	1067
980.857	-307
980.939	426
981.022	-536
981.104	-151
981.187	-453
981.269	-375
981.352	41
981.434	-907
981.516	-664
981.599	-165
981.681	-340
981.763	14
981.846	56
981.928	-839
982.010	-727
982.092	-679
982.174	159
982.256	-74
982.339	-177
982.421	-407
982.503	-500
982.585	-463
982.667	-764
982.749	-111
982.831	-678
982.913	-1110
982.995	-94
983.077	-419
983.158	-103
983.240	-1076
983.322	90
983.404	372
983.486	1000
983.568	460
983.649	532
983.731	409
983.813	512
983.894	531
983.976	-1199
984.058	785
984.139	387
984.221	-370
984.302	237
984.384	-38
984.465	-496
984.547	-721
984.628	18
984.710	506
984.791	92
984.872	233
984.954	290
985.035	208
985.116	308
985.198	233
985.279	253
985.360	-214
985.441	247
985.522	539
985.604	-535
985.685	-119
985.766	479
985.847	-11
985.928	-113
986.009	-487
986.090	-407
986.171	327
986.252	-337
986.333	-266
986.414	-847
986.495	-730
986.576	-320
986.656	265
986.737	223
986.818	434
986.899	404
986.980	263
987.060	254
987.141	-260
987.222	19
987.302	940
987.383	1410
987.464	40
987.544	639
987.625	82
987.705	309
987.786	352
987.866	481
987.947	970
988.027	97
988.108	905
988.188	521
988.268	687
988.349	613
988.429	1482
988.509	-112
988.589	-594
988.670	-154
988.750	956
988.830	-367
988.910	182
988.990	-413
989.070	736
989.151	601
989.231	465
989.311	938
989.391	-190
989.471	68
989.551	-97
989.631	-154
989.711	-141
989.791	-24
989.870	-100
989.950	-452
990.030	-180
990.110	331
990.190	-257
990.269	-590
990.349	217
990.429	-41
990.509	664
990.588	-256
990.668	344
990.747	148
990.827	-3
990.907	-192
990.986	-342
991.066	487
991.145	-139
991.225	-544
991.304	-555
991.383	687
991.463	-581
991.542	638
991.622	140
991.701	-486
991.780	348
991.859	-370
991.939	29
992.018	-193
992.097	-504
992.176	-437
992.256	32
992.335	-668
992.414	411
992.493	-261
992.572	-455
992.651	351
992.730	-578
992.809	-421
992.888	-1079
992.967	-609
993.046	-104
993.125	-657
993.203	-633
993.282	58
993.361	-435
993.440	86
993.519	-590
993.597	-609
993.676	-987
993.755	488
993.834	-742
993.912	-415
993.991	-861
994.069	-883
994.148	-112
994.226	-1200
994.305	-947
994.384	-923
994.462	-249
994.540	-571
994.619	-854
994.697	-214
994.776	-1113
994.854	51
994.932	-846
995.011	-633
995.089	-644
995.167	-458
995.245	-892
995.324	-661
995.402	-783
995.480	-961
995.558	-511
995.636	-845
995.714	-667
995.792	-422
995.870	-2005
995.948	-1516
996.026	-570
996.104	-1524
996.182	-657
996.260	-1379
996.338	-1303
996.416	-524
996.494	-802
996.572	82
996.649	-956
996.727	-971
996.805	-1103
996.883	-1029
996.960	-1475
997.038	-636
997.116	-77
997.193	-1038
997.271	-666
997.348	-1159
997.426	-1434
997.504	-1014
997.581	-556
997.658	6
997.736	-1248
997.813	-1206
997.891	-1159
997.968	-1218
998.046	-947
998.123	-46
998.200	-361
998.277	-458
998.355	-418
998.432	-2182
998.509	-799
998.586	-698
998.663	-340
998.741	-562
998.818	-1910
998.895	-1814
998.972	-526
999.049	-1113
999.126	-508
999.203	-377
999.280	-1237
999.357	-1105
999.434	-1148
999.511	-1171
999.587	-1381
999.664	-1659
999.741	-901
999.818	-1100
999.895	-965
999.971	-1376
1000.048	-2362
1000.125	-1326
1000.202	-1341
1000.278	-753
1000.355	-1340
1000.431	-988
1000.508	-1322
1000.584	-1393
1000.661	-804
1000.738	-2598
1000.814	-1364
1000.890	-408
1000.967	-1364
1001.043	-1000
1001.120	-1897
1001.196	-1351
1001.272	-1312
1001.349	-812
1001.425	-1170
1001.501	-992
1001.577	-818
1001.654	-918
1001.730	-1344
1001.806	-1344
1001.882	-1863
1001.958	-792
1002.034	-998
1002.110	-1432
1002.186	-925
1002.262	-2006
1002.338	-1756
1002.414	-1503
1002.490	-1283
1002.566	-1161
1002.642	-1376
1002.718	-1095
1002.794	-1707
1002.870	-1154
1002.945	-1616
1003.021	-796
1003.097	-1665
1003.173	-1025
1003.248	-2182
1003.324	-1639
1003.400	-1084
1003.475	-1629
1003.551	-1519
1003.626	-1173
1003.702	-2156
1003.777	-1264
1003.853	-1735
1003.928	-1889
1004.004	-2106
1004.079	-1019
1004.155	-1609
1004.230	-2066
1004.305	-1721
1004.381	-1301
1004.456	-1846
1004.531	-2143
1004.607	-2073
1004.682	-1686
1004.757	-1749
1004.832	-1890
1004.907	-1518
1004.982	-1031
1005.057	-1461
1005.133	-2170
1005.208	-1346
1005.283	-1828
1005.358	-1425
1005.433	-2356
1005.508	-2638
1005.583	-1808
1005.657	-2168
1005.732	-1473
1005.807	-1784
1005.882	-1697
1005.957	-2256
1006.032	-1351
1006.106	-2060
1006.181	-2199
1006.256	-1956
1006.331	-1967
1006.405	-2162
1006.480	-1450
1006.554	-1948
1006.629	-1595
1006.704	-1429
1006.778	-2167
1006.853	-2305
1006.927	-1438
1007.002	-1743
1007.076	-1779
1007.150	-2062
1007.225	-1482
1007.299	-2566
1007.373	-2218
1007.448	-1828
1007.522	-1738
1007.596	-2667
1007.671	-1378
1007.745	-1739
1007.819	-2478
1007.893	-1445
1007.967	-1108
1008.041	-3119
1008.115	-1765
1008.190	-2429
1008.264	-1328
1008.338	-2841
1008.412	-1878
1008.486	-2222
1008.560	-1962
1008.633	-2522
1008.707	-1755
1008.781	-2316
1008.855	-1914
1008.929	-2237
1009.003	-1715
1009.076	-2262
1009.150	-1891
1009.224	-2239
1009.298	-2089
1009.371	-2239
1009.445	-2098
1009.519	-2745
1009.592	-1612
1009.666	-2261
1009.739	-1797
1009.813	-2443
1009.886	-1174
1009.960	-2478
1010.033	-1672
1010.107	-1830
1010.180	-2914
1010.253	-2546
1010.327	-2712
1010.400	-1600
1010.473	-2257
1010.547	-1926
1010.620	-1982
1010.693	-1938
1010.766	-1721
1010.840	-2042
1010.913	-2610
1010.986	-2528
1011.059	-2652
1011.132	-2454
1011.205	-1792
1011.278	-2241
1011.351	-2371
1011.424	-1765
1011.497	-2340
1011.570	-2477
1011.643	-2500
1011.716	-3172
1011.789	-2433
1011.862	-2052
1011.934	-1489
1012.007	-2416
1012.080	-1796
1012.153	-2398
1012.225	-1641
1012.298	-2363
1012.371	-1440
1012.443	-1342
1012.516	-1889
1012.588	-1821
1012.661	-2249
1012.733	-1650
1012.806	-1313
1012.879	-1709
1012.951	-2026
1013.023	-2411
1013.096	-2250
1013.168	-2576
1013.241	-2322
1013.313	-2490
1013.385	-1877
1013.458	-2300
1013.530	-1914
1013.602	-3017
1013.674	-1629
1013.746	-1713
1013.819	-2170
1013.891	-1809
1013.963	-1879
1014.035	-2069
1014.107	-1619
1014.179	-1697
1014.251	-2374
1014.323	-2211
1014.395	-1625
1014.467	-2248
1014.539	-2421
1014.611	-1922
1014.683	-2222
1014.754	-2162
1014.826	-2264
1014.898	-2032
1014.970	-1842
1015.042	-1740
1015.113	-1331
1015.185	-2070
1015.257	-1980
1015.328	-2343
1015.400	-1866
1015.471	-2248
1015.543	-2543
1015.615	-2679
1015.686	-2461
1015.757	-2168
1015.829	-2114
1015.901	-2642
1015.972	-2749
1016.043	-1986
1016.115	-2691
1016.186	-1495
1016.257	-2017
1016.328	-2325
1016.400	-2339
1016.471	-2678
1016.542	-2881
1016.613	-2306
1016.685	-1878
1016.756	-1986
1016.827	-1493
1016.898	-2986
1016.969	-1689
1017.040	-2154
1017.111	-2755
1017.182	-2575
1017.253	-2098
1017.324	-2033
1017.395	-2708
1017.466	-1879
1017.537	-2078
1017.608	-2290
1017.678	-2110
1017.749	-3090
1017.820	-2124
1017.891	-2426
1017.961	-2339
1018.032	-2245
1018.103	-2093
1018.173	-2325
1018.244	-2365
1018.315	-2985
1018.385	-2056
1018.456	-1986
1018.526	-2182
1018.597	-2335
1018.667	-2170
1018.738	-2370
1018.808	-2335
1018.878	-2306
1018.949	-1468
1019.019	-1649
1019.089	-2200
1019.160	-2560
1019.230	-2450
1019.300	-918
1019.371	-2489
1019.441	-1888
1019.511	-2342
1019.581	-2285
1019.651	-2222
1019.721	-2528
1019.791	-1917
1019.861	-1744
1019.931	-2480
1020.001	-2615
1020.071	-2504
1020.141	-2215
1020.211	-2431
1020.281	-2406
1020.351	-1807
1020.421	-2102
1020.491	-1971
1020.560	-2522
1020.630	-2329
1020.700	-1840
1020.770	-2012
1020.839	-1818
1020.909	-2222
1020.979	-2520
1021.048	-1981
1021.118	-2194
1021.187	-1809
1021.257	-1992
1021.326	-2113
1021.396	-1834
1021.465	-1735
1021.535	-2442
1021.604	-2363
1021.674	-2911
1021.743	-1887
1021.812	-2208
1021.882	-2529
1021.951	-2143
1022.020	-2540
1022.089	-1917
1022.159	-1800
1022.228	-1747
1022.297	-2649
1022.366	-2243
1022.435	-2051
1022.504	-2290
1022.573	-2868
1022.642	-2314
1022.711	-2714
1022.781	-1853
1022.849	-2094
1022.918	-2133
1022.987	-1406
1023.056	-1821
1023.125	-1830
1023.194	-2168
1023.263	-1620
1023.331	-2147
1023.400	-3033
1023.469	-2566
1023.538	-1673
1023.606	-2538
1023.675	-1448
1023.744	-2313
1023.812	-2289
1023.881	-2003
1023.949	-1689
1024.018	-2341
1024.086	-2374
1024.155	-2089
1024.223	-2015
1024.292	-2547
1024.360	-1657
1024.429	-2469
1024.497	-3472
1024.565	-1877
1024.634	-2850
1024.702	-2154
1024.770	-2778
1024.838	-2513
1024.907	-2064
1024.975	-2716
1025.043	-1815
1025.111	-2499
1025.179	-2467
1025.247	-2488
1025.315	-2088
1025.383	-1017
1025.451	-1543
1025.519	-1988
1025.587	-2814
1025.655	-2338
1025.723	-1769
1025.791	-1525
1025.859	-1337
1025.927	-1572
1025.995	-2044
1026.062	-2470
1026.130	-2044
1026.198	-2714
1026.266	-1474
1026.333	-1187
1026.401	-1563
1026.469	-1638
1026.536	-2287
1026.604	-2097
1026.671	-2542
1026.739	-1881
1026.806	-2156
1026.874	-2952
1026.941	-2046
1027.009	-2688
1027.076	-2060
1027.144	-1399
1027.211	-2146
1027.278	-2277
1027.345	-1796
1027.413	-1793
1027.480	-1990
1027.547	-2517
1027.614	-2847
1027.682	-1886
1027.749	-2375
1027.816	-2859
1027.883	-2242
1027.950	-2396
1028.017	-1767
1028.084	-1986
1028.151	-2623
1028.218	-2204
1028.285	-1166
1028.352	-2388
1028.419	-2314
1028.486	-1788
1028.553	-2509
1028.619	-1901
1028.686	-2049
1028.753	-2247
1028.820	-1632
1028.886	-1989
1028.953	-1730
1029.020	-2839
1029.086	-2573
1029.153	-2372
1029.220	-2127
1029.286	-1426
1029.353	-2109
1029.419	-2881
1029.486	-2033
1029.552	-2694
1029.619	-2304
1029.685	-2587
1029.751	-2161
1029.818	-2181
1029.884	-2397
1029.951	-1842
1030.017	-2784
1030.083	-2711
1030.149	-2624
1030.216	-2288
1030.282	-1972
1030.348	-2112
1030.414	-2148
1030.480	-2205
1030.546	-2351
1030.612	-1336
1030.678	-3291
1030.744	-1943
1030.810	-2824
1030.876	-2000
1030.942	-2112
1031.008	-2123
1031.074	-2220
1031.140	-2466
1031.206	-1864
1031.272	-2727
1031.337	-2309
1031.403	-2237
1031.469	-2082
1031.534	-2484
1031.600	-2775
1031.666	-2254
1031.731	-2464
1031.797	-2856
1031.863	-1911
1031.928	-2339
1031.994	-2374
1032.059	-2446
1032.125	-3055
1032.190	-2944
1032.256	-2383
1032.321	-3107
1032.386	-2028
1032.452	-2221
1032.517	-2007
1032.582	-2554
1032.647	-1922
1032.713	-1317
1032.778	-2544
1032.843	-1683
1032.908	-2476
1032.974	-2045
1033.039	-2071
1033.104	-2164
1033.169	-2005
1033.234	-1907
1033.299	-2094
1033.364	-2731
1033.429	-1849
1033.494	-2823
1033.559	-2167
1033.624	-1900
1033.688	-1878
1033.753	-2306
1033.818	-2571
1033.883	-2092
1033.948	-2657
1034.013	-2472
1034.077	-1606
1034.142	-1766
1034.207	-1387
1034.271	-1225
1034.336	-50
1034.400	173
1034.465	-389
1034.530	-1108
1034.594	-1903
1034.658	-2548
1034.723	-1967
1034.787	-2684
1034.852	-2079
1034.916	-1811
1034.981	-1959
1035.045	-2023
1035.109	-1778
1035.173	-2075
1035.238	-2090
1035.302	-2628
1035.366	-2148
1035.430	-3283
1035.495	-2245
1035.559	-1777
1035.623	-2100
1035.687	-2905
1035.751	-2083
1035.815	-2144
1035.879	-2337
1035.943	-1642
1036.007	-2527
1036.071	-2175
1036.135	-2308
1036.198	-1659
1036.262	-2128
1036.326	-2526
1036.390	-1952
1036.454	-2548
1036.517	-1742
1036.581	-2188
1036.645	-1872
1036.709	-2050
1036.772	-1804
1036.836	-2149
1036.900	-2920
1036.963	-1551
1037.026	-2016
1037.090	-2012
1037.154	-2053
1037.217	-2184
1037.280	-1679
1037.344	-2209
1037.407	-2612
1037.471	-1630
1037.534	-2715
1037.597	-3172
1037.661	-2510
1037.724	-1844
1037.787	-2192
1037.850	-1934
1037.913	-2187
1037.977	-2430
1038.040	-2179
1038.103	-2620
1038.166	-2413
1038.229	-1563
1038.292	-2301
1038.355	-2851
1038.418	-2372
1038.481	-2932
1038.544	-2425
1038.607	-2886
1038.670	-2044
1038.732	-2672
1038.795	-1855
1038.858	-1761
1038.921	-3007
1038.984	-1968
1039.046	-1795
1039.109	-2647
1039.172	-2341
1039.234	-2096
1039.297	-2236
1039.360	-2102
1039.422	-2460
1039.485	-1635
1039.547	-2292
1039.610	-2244
1039.672	-2246
1039.734	-1906
1039.797	-1510
1039.859	-2531
1039.922	-2455
1039.984	-2034
1040.046	-1979
1040.109	-1753
1040.171	-1994
1040.233	-2907
1040.295	-2458
1040.358	-2345
1040.420	-1117
1040.482	-1802
1040.544	-2306
1040.606	-2793
1040.668	-2420
1040.730	-2855
1040.792	-1991
1040.854	-2483
1040.916	-2259
1040.978	-1512
1041.040	-2368
1041.102	-2370
1041.164	-2423
1041.225	-2209
1041.287	-2102
1041.349	-2886
1041.411	-2019
1041.472	-1994
1041.534	-2245
1041.596	-2374
1041.657	-1826
1041.719	-2343
1041.781	-2005
1041.842	-2874
1041.904	-1518
1041.965	-2342
1042.027	-2527
1042.088	-2125
1042.150	-2721
1042.211	-2707
1042.272	-1845
1042.334	-2125
1042.395	-1998
1042.456	-2415
1042.518	-2032
1042.579	-2649
1042.640	-2407
1042.701	-2151
1042.763	-1931
1042.824	-1490
1042.885	-2150
1042.946	-2595
1043.007	-1777
1043.068	-2082
1043.129	-2096
1043.190	-1940
1043.251	-1814
1043.312	-2321
1043.373	-2032
1043.434	-2231
1043.495	-2096
1043.556	-1744
1043.616	-2009
1043.677	-1832
1043.738	-1948
1043.799	-2344
1043.859	-2638
1043.920	-1743
1043.981	-1855
1044.041	-1893
1044.102	-2713
1044.162	-2163
1044.223	-1846
1044.284	-2024
1044.344	-1724
1044.405	-2932
1044.465	-2290
1044.525	-2865
1044.586	-1913
1044.646	-2275
1044.707	-1967
1044.767	-1785
1044.827	-2074
1044.887	-1928
1044.948	-1453
1045.008	-2434
1045.068	-2039
1045.128	-2653
1045.188	-1921
1045.249	-2023
1045.309	-2890
1045.369	-1959
1045.429	-1745
1045.489	-2404
1045.549	-2348
1045.609	-2169
1045.669	-1996
1045.729	-2344
1045.789	-1959
1045.848	-2163
1045.908	-1994
1045.968	-1523
1046.028	-1505
1046.088	-1464
1046.147	-1152
1046.207	-1359
1046.267	-1811
1046.326	-1430
1046.386	-2000
1046.446	-1262
1046.505	-1088
1046.565	-1412
1046.624	-1162
1046.684	-1550
1046.743	-481
1046.803	-640
1046.862	-526
1046.922	0
