'Start Wavelength	183.907
'End Wavelength	1046.922
'Gate Delay	5.000
'Gate Width (ms)	1.050
'Laser Output Level	0.000
'X Position	0.000
'Y Position	0.000
'Z Position	0.000
'Grid Point Number	1.000
'Shot Number	100.000
183.907	349.000
183.977	285.000
184.047	444
184.116	1161
184.186	145
184.256	-517
184.325	194
184.395	127
184.465	891
184.534	232
184.604	298
184.674	490
184.743	-116
184.813	607
184.883	-75
184.952	508
185.022	482
185.092	535
185.161	407
185.231	358
185.301	521
185.370	910
185.440	127
185.509	264
185.579	507
185.649	678
185.718	460
185.788	929
185.857	-49
185.927	418
185.996	644
186.066	506
186.136	843
186.205	511
186.275	394
186.344	1157
186.414	539
186.483	654
186.553	1425
186.622	2154
186.692	517
186.761	470
186.831	84
186.900	1235
186.970	589
187.039	1173
187.109	1443
187.178	481
187.248	950
187.317	1126
187.387	835
187.456	636
187.526	1027
187.595	1207
187.664	547
187.734	1027
187.803	288
187.873	1106
187.942	648
188.012	1442
188.081	794
188.150	1099
188.220	1401
188.289	1807
188.358	1390
188.428	1024
188.497	149
188.567	483
188.636	1008
188.705	962
188.775	301
188.844	1039
188.913	884
188.983	1456
189.052	911
189.121	1200
189.191	825
189.260	2262
189.329	1013
189.399	865
189.468	935
189.537	694
189.606	1176
189.676	907
189.745	1179
189.814	1429
189.883	1917
189.953	1415
190.022	2202
190.091	3967
190.161	2888
190.230	1571
190.299	562
190.368	1537
190.437	880
190.507	1005
190.576	384
190.645	1464
190.714	425
190.783	449
190.853	1399
190.922	854
190.991	1471
191.060	829
191.129	567
191.198	500
191.268	963
191.337	2031
191.406	1680
191.475	894
191.544	783
191.613	1274
191.682	1077
191.752	1143
191.821	1255
191.890	1371
191.959	781
192.028	1753
192.097	1889
192.166	1398
192.235	774
192.304	967
192.373	539
192.442	903
192.511	230
192.580	1076
192.650	937
192.719	1381
192.788	1142
192.857	528
192.926	276
192.995	1517
193.064	1720
193.133	2238
193.202	2723
193.271	2860
193.340	2173
193.409	2970
193.478	2622
193.547	3854
193.615	4698
193.684	4009
193.753	1929
193.822	2358
193.891	1397
193.960	1639
194.029	1715
194.098	1929
194.167	1364
194.236	1681
194.305	868
194.374	1683
194.443	1633
194.512	1709
194.580	1508
194.649	3072
194.718	1670
194.787	1718
194.856	1327
194.925	2121
194.994	1494
195.062	1733
195.131	1856
195.200	2355
195.269	2913
195.338	1356
195.407	1814
195.475	1996
195.544	2367
195.613	2732
195.682	2033
195.751	2658
195.819	1897
195.888	1655
195.957	3798
196.026	2821
196.094	2487
196.163	3745
196.232	2719
196.301	2788
196.369	2257
196.438	2599
196.507	2254
196.576	2626
196.644	837
196.713	1925
196.782	1020
196.850	1870
196.919	1665
196.988	2379
197.056	1821
197.125	2260
197.194	2161
197.262	1579
197.331	1033
197.400	1640
197.468	1020
197.537	1346
197.606	2168
197.674	3743
197.743	4332
197.812	3127
197.880	4542
197.949	3558
198.017	4738
198.086	3159
198.155	2214
198.223	3011
198.292	5396
198.360	3027
198.429	1428
198.497	2677
198.566	4785
198.635	4213
198.703	2990
198.772	3190
198.840	7021
198.909	5173
198.977	2299
199.046	2905
199.114	2608
199.183	2609
199.251	2138
199.320	2469
199.388	1349
199.457	1442
199.525	2213
199.594	2509
199.662	2546
199.731	2511
199.799	2615
199.867	3037
199.936	2347
200.004	3137
200.073	2594
200.141	1511
200.210	1825
200.278	1377
200.346	2626
200.415	4445
200.483	3421
200.552	3706
200.620	2507
200.688	2358
200.757	1895
200.825	2327
200.893	2598
200.962	1866
201.030	2024
201.098	2714
201.167	3090
201.235	2468
201.303	1930
201.372	3011
201.440	3350
201.508	3480
201.577	3529
201.645	3434
201.713	1900
201.781	3753
201.850	3207
201.918	3284
201.986	2550
202.055	3046
202.123	2464
202.191	2661
202.259	2743
202.327	2492
202.396	2972
202.464	3527
202.532	3787
202.600	9914
202.669	4512
202.737	3530
202.805	2090
202.873	2417
202.941	3516
203.009	1998
203.078	2120
203.146	3360
203.214	2998
203.282	2772
203.350	2385
203.418	3430
203.487	2727
203.555	2289
203.623	3072
203.691	2513
203.759	2733
203.827	2872
203.895	2827
203.963	3488
204.031	3019
204.099	3480
204.168	2241
204.236	2911
204.304	3476
204.372	2899
204.440	3670
204.508	2600
204.576	1807
204.644	2654
204.712	2556
204.780	2888
204.848	2761
204.916	2978
204.984	2565
205.052	3246
205.120	3258
205.188	3278
205.256	2524
205.324	3106
205.392	3172
205.460	3867
205.528	3619
205.596	3187
205.664	2737
205.732	3928
205.799	8558
205.867	7672
205.935	3977
206.003	4050
206.071	2780
206.139	3490
206.207	3152
206.275	3499
206.343	3111
206.411	3146
206.478	3189
206.546	2949
206.614	3334
206.682	3797
206.750	3334
206.818	5336
206.885	4472
206.953	3455
207.021	3083
207.089	3675
207.157	3582
207.225	3771
207.292	2487
207.360	3259
207.428	3793
207.496	2976
207.563	3436
207.631	4113
207.699	3166
207.767	3299
207.834	3081
207.902	3166
207.970	3676
208.038	3102
208.105	3784
208.173	4356
208.241	4967
208.309	5274
208.376	5447
208.444	7713
208.512	4049
208.579	3991
208.647	4397
208.715	4814
208.782	3934
208.850	3941
208.918	4318
208.985	4499
209.053	4367
209.120	4492
209.188	3870
209.256	3645
209.323	4594
209.391	4878
209.459	4885
209.526	4809
209.594	3916
209.661	3904
209.729	4251
209.796	4170
209.864	4913
209.932	5066
209.999	4077
210.067	5330
210.134	5356
210.202	5103
210.269	6267
210.337	6378
210.404	3886
210.472	3965
210.539	3976
210.607	5202
210.674	5043
210.742	3720
210.809	5326
210.877	5888
210.944	5858
211.012	5349
211.079	5530
211.146	4415
211.214	4966
211.281	7014
211.349	5471
211.416	5865
211.484	6167
211.551	5117
211.618	5130
211.686	4780
211.753	4343
211.821	4816
211.888	4523
211.955	5338
212.023	5332
212.090	4824
212.157	5172
212.225	5278
212.292	9452
212.359	16855
212.427	27716
212.494	11873
212.561	7832
212.629	7163
212.696	5789
212.763	6492
212.831	5330
212.898	5197
212.965	5565
213.032	5078
213.100	6049
213.167	6117
213.234	5426
213.301	4852
213.369	5491
213.436	5717
213.503	4688
213.570	6545
213.638	5506
213.705	4700
213.772	4444
213.839	6607
213.906	6072
213.973	7039
214.041	5597
214.108	5973
214.175	6192
214.242	5906
214.309	6093
214.376	6108
214.444	6077
214.511	6824
214.578	5672
214.645	6406
214.712	7108
214.779	6351
214.846	6188
214.913	7481
214.980	7460
215.048	7950
215.115	8045
215.182	7776
215.249	6319
215.316	6923
215.383	5426
215.450	5639
215.517	6162
215.584	6067
215.651	5113
215.718	5271
215.785	7240
215.852	6992
215.919	6697
215.986	7049
216.053	5718
216.120	5971
216.187	6398
216.254	6663
216.321	6932
216.388	6043
216.455	6807
216.522	7610
216.589	8272
216.656	12890
216.722	11037
216.789	8610
216.856	8612
216.923	8380
216.990	7649
217.057	7827
217.124	9228
217.191	9263
217.258	10225
217.324	11389
217.391	10228
217.458	9395
217.525	7316
217.592	7094
217.659	6999
217.725	8005
217.792	10581
217.859	9255
217.926	6572
217.993	5794
218.059	6263
218.126	6229
218.193	5597
218.260	5618
218.327	5096
218.393	6123
218.460	5435
218.527	5675
218.594	5762
218.660	9924
218.727	9522
218.794	5779
218.860	5345
218.927	5552
218.994	5677
219.061	5940
219.127	6896
219.194	8983
219.261	5785
219.327	5224
219.394	4789
219.461	4565
219.527	4730
219.594	7849
219.661	4967
219.727	4623
219.794	5467
219.860	5832
219.927	6497
219.994	10455
220.060	14047
220.127	10111
220.193	8701
220.260	9049
220.326	11385
220.393	15570
220.460	15242
220.526	11437
220.593	10532
220.659	9752
220.726	11695
220.792	20420
220.859	18006
220.925	22616
220.992	23196
221.058	24924
221.125	22632
221.191	17763
221.258	9492
221.324	7931
221.391	7510
221.457	6388
221.524	7037
221.590	10914
221.657	23752
221.723	14398
221.789	15654
221.856	12253
221.922	8953
221.989	7516
222.055	7256
222.121	7454
222.188	9312
222.254	7512
222.321	6968
222.387	5825
222.453	5922
222.520	5438
222.586	4942
222.652	6655
222.719	5228
222.785	5981
222.851	5337
222.918	5624
222.984	6178
223.050	5910
223.116	5454
223.183	5477
223.249	4366
223.315	4783
223.382	4425
223.448	4812
223.514	4609
223.580	4315
223.647	4948
223.713	5624
223.779	4742
223.845	5843
223.911	6046
223.978	5270
224.044	4805
224.110	4745
224.176	5356
224.242	5069
224.309	4784
224.375	4392
224.441	4821
224.507	5817
224.573	4856
224.639	5217
224.705	3920
224.772	4461
224.838	5180
224.904	6402
224.970	5342
225.036	5414
225.102	6610
225.168	4901
225.234	5033
225.300	4837
225.366	4738
225.432	5418
225.499	5534
225.565	6345
225.631	6736
225.697	7304
225.763	7323
225.829	8740
225.895	9444
225.961	11947
226.027	10714
226.093	10682
226.159	11923
226.225	18589
226.291	32197
226.357	35738
226.423	22639
226.489	16260
226.554	11650
226.620	12565
226.686	15955
226.752	21777
226.818	32369
226.884	48647
226.950	36353
227.016	20265
227.082	13892
227.148	12458
227.214	11796
227.279	10540
227.345	9798
227.411	9814
227.477	11558
227.543	20662
227.609	19042
227.674	13105
227.740	10155
227.806	8077
227.872	7218
227.938	8967
228.003	10800
228.069	7042
228.135	6859
228.201	6553
228.267	6700
228.332	8892
228.398	9700
228.464	7122
228.530	5353
228.595	5561
228.661	6063
228.727	10288
228.792	7060
228.858	6600
228.924	6872
228.990	8680
229.055	9432
229.121	8841
229.187	6333
229.252	7889
229.318	5219
229.384	7030
229.449	7979
229.515	4702
229.581	3798
229.646	6815
229.712	7960
229.777	15457
229.843	11651
229.909	12068
229.974	11609
230.040	10269
230.105	8595
230.171	10709
230.236	11541
230.302	15471
230.368	11348
230.433	9090
230.499	8352
230.564	9309
230.630	8301
230.695	7425
230.761	7152
230.826	6475
230.892	10368
230.957	7579
231.023	6656
231.088	8408
231.154	7814
231.219	8223
231.284	11186
231.350	9606
231.415	7252
231.481	6826
231.546	5885
231.612	6714
231.677	5644
231.742	6388
231.808	7093
231.873	6175
231.939	6511
232.004	11905
232.069	8293
232.135	7883
232.200	7357
232.265	6268
232.331	5533
232.396	5641
232.461	5079
232.527	6178
232.592	6519
232.657	7425
232.723	9418
232.788	7198
232.853	5709
232.918	6078
232.984	5417
233.049	6586
233.114	8722
233.179	8263
233.245	12227
233.310	10145
233.375	5675
233.440	6478
233.506	5644
233.571	5872
233.636	5328
233.701	5375
233.766	11398
233.832	8990
233.897	7505
233.962	7349
234.027	8398
234.092	8120
234.157	7268
234.222	7993
234.288	12434
234.353	22324
234.418	19485
234.483	14503
234.548	12718
234.613	11102
234.678	10413
234.743	13389
234.808	24760
234.873	14097
234.938	9443
235.004	9177
235.069	9554
235.134	7689
235.199	8278
235.264	8208
235.329	7284
235.394	9337
235.459	9708
235.524	9073
235.589	7903
235.654	7849
235.719	7130
235.784	7402
235.849	9658
235.913	14253
235.978	16014
236.043	14635
236.108	9408
236.173	9711
236.238	8748
236.303	8038
236.368	7784
236.433	14197
236.498	16257
236.563	15322
236.627	31435
236.692	69840
236.757	47475
236.822	26461
236.887	20724
236.952	15629
237.017	14800
237.081	15963
237.146	22299
237.211	39739
237.276	74867
237.341	85145
237.405	45608
237.470	26215
237.535	18615
237.600	13945
237.664	12585
237.729	10674
237.794	16051
237.859	23169
237.923	16157
237.988	10602
238.053	14568
238.118	14337
238.182	34515
238.247	20678
238.312	14802
238.376	11482
238.441	9591
238.506	9985
238.570	7312
238.635	7971
238.700	7002
238.764	8024
238.829	18001
238.893	14480
238.958	12104
239.023	10955
239.087	8348
239.152	10331
239.216	7788
239.281	8906
239.346	7445
239.410	7565
239.475	10117
239.539	32174
239.604	17483
239.668	9982
239.733	9617
239.797	19807
239.862	36559
239.926	30213
239.991	13162
240.055	9770
240.120	9717
240.184	9028
240.249	7844
240.313	7464
240.378	8490
240.442	22232
240.507	21644
240.571	10769
240.635	17261
240.700	15180
240.764	9146
240.829	7615
240.893	6033
240.957	6997
241.022	20916
241.086	25197
241.151	12033
241.215	7322
241.279	12225
241.344	15636
241.408	11269
241.472	11303
241.537	11610
241.601	10690
241.665	9018
241.730	10495
241.794	10642
241.858	9890
241.922	10710
241.987	10201
242.051	10123
242.115	9686
242.179	9367
242.244	8894
242.308	10145
242.372	10325
242.436	11533
242.501	10922
242.565	9882
242.629	8796
242.693	8632
242.757	7977
242.822	9025
242.886	9950
242.950	9928
243.014	9315
243.078	12005
243.142	11237
243.206	10492
243.271	10694
243.335	11395
243.399	16079
243.463	58403
243.527	82846
243.591	27838
243.655	16797
243.719	11271
243.783	13846
243.847	20521
243.911	22571
243.975	29231
244.040	17847
244.104	10962
244.168	10301
244.232	18343
244.296	20842
244.360	19843
244.424	12248
244.488	9605
244.552	10067
244.615	7191
244.679	8369
244.743	13466
244.807	10567
244.871	8285
244.935	8587
244.999	8987
245.063	9380
245.127	11233
245.191	17684
245.255	14118
245.319	14742
245.383	11179
245.446	10760
245.510	8417
245.574	10250
245.638	9220
245.702	12166
245.766	20374
245.829	13929
245.893	11387
245.957	10658
246.021	11257
246.085	11494
246.149	14303
246.212	33664
246.276	37058
246.340	20053
246.404	13866
246.467	17405
246.531	18844
246.595	14005
246.659	13168
246.722	14429
246.786	15935
246.850	18378
246.913	17871
246.977	11199
247.041	11516
247.104	12205
247.168	12624
247.232	34111
247.295	52475
247.359	22250
247.423	16406
247.486	23443
247.550	14975
247.614	14475
247.677	16806
247.741	11182
247.804	10304
247.868	12825
247.932	35671
247.995	45231
248.059	19677
248.122	12933
248.186	17210
248.249	35038
248.313	88584
248.376	76844
248.440	49486
248.503	22006
248.567	20815
248.630	30027
248.694	36738
248.757	54152
248.821	84437
248.884	50092
248.948	58693
249.011	72103
249.075	103493
249.138	71089
249.202	35213
249.265	25923
249.328	26087
249.392	23213
249.455	18538
249.519	17124
249.582	22011
249.645	32097
249.709	21905
249.772	20482
249.835	17320
249.899	17952
249.962	15383
250.025	17335
250.089	44470
250.152	40807
250.215	23460
250.279	19044
250.342	18703
250.405	17772
250.468	16493
250.532	23316
250.595	35602
250.658	125244
250.721	119094
250.785	53896
250.848	31863
250.911	21779
250.974	19994
251.038	37755
251.101	49901
251.164	28781
251.227	32407
251.290	27501
251.354	48567
251.417	147851
251.480	103300
251.543	115618
251.606	221489
251.669	134228
251.732	72142
251.795	79388
251.859	84575
251.922	148927
251.985	69750
252.048	36129
252.111	29580
252.174	32222
252.237	64093
252.300	95755
252.363	128236
252.426	161900
252.489	72862
252.552	40729
252.615	31286
252.678	39484
252.741	81344
252.804	117722
252.867	177425
252.930	107413
252.993	58748
253.056	42116
253.119	28758
253.182	26711
253.245	41587
253.308	29239
253.371	32454
253.434	26018
253.497	29529
253.559	50314
253.622	33742
253.685	52053
253.748	39578
253.811	23891
253.874	29287
253.937	24877
254.000	21668
254.062	46640
254.125	47689
254.188	50470
254.251	31737
254.314	21059
254.376	43018
254.439	37861
254.502	34365
254.565	47577
254.628	60075
254.690	35967
254.753	21711
254.816	20005
254.878	22240
254.941	45758
255.004	31266
255.067	19968
255.129	19270
255.192	12133
255.255	13846
255.317	14267
255.380	9907
255.443	9775
255.505	9838
255.568	9444
255.631	10425
255.693	12190
255.756	9956
255.819	10102
255.881	8928
255.944	8495
256.006	9326
256.069	10192
256.132	8944
256.194	15262
256.257	25031
256.319	19963
256.382	17097
256.444	15120
256.507	13202
256.569	11783
256.632	13146
256.694	19809
256.757	58068
256.819	100981
256.882	42187
256.944	23313
257.007	19988
257.069	20890
257.132	14160
257.194	13081
257.257	13574
257.319	13487
257.381	16878
257.444	43206
257.506	141043
257.569	117596
257.631	65665
257.693	37449
257.756	20795
257.818	16739
257.880	13415
257.943	12766
258.005	12116
258.067	11355
258.130	11739
258.192	17367
258.254	25742
258.317	14507
258.379	14117
258.441	34979
258.503	21751
258.566	38869
258.628	27994
258.690	12939
258.753	17327
258.815	28224
258.877	16192
258.939	12326
259.001	11705
259.064	12290
259.126	15499
259.188	16926
259.250	14710
259.312	20647
259.375	39829
259.437	21424
259.499	13441
259.561	13741
259.623	12609
259.685	11896
259.747	12326
259.809	39629
259.872	43300
259.934	86152
259.996	51499
260.058	19908
260.120	13426
260.182	11544
260.244	9099
260.306	10659
260.368	10917
260.430	10840
260.492	23091
260.554	36759
260.616	22876
260.678	55604
260.740	39779
260.802	16362
260.864	15100
260.926	13702
260.988	12641
261.050	13909
261.112	32433
261.174	61606
261.236	30008
261.298	16592
261.359	31256
261.421	26664
261.483	13594
261.545	13013
261.607	9103
261.669	10425
261.731	23121
261.793	36477
261.854	18464
261.916	14282
261.978	13514
262.040	12999
262.102	11220
262.164	18488
262.225	11448
262.287	12873
262.349	30691
262.411	16907
262.472	11365
262.534	24829
262.596	26555
262.658	11637
262.719	9804
262.781	17766
262.843	29106
262.904	14019
262.966	13201
263.028	15219
263.090	92674
263.151	120650
263.213	44993
263.275	28327
263.336	14129
263.398	10831
263.459	8982
263.521	11884
263.583	26479
263.644	15045
263.706	9023
263.767	7581
263.829	6414
263.891	6790
263.952	6164
264.014	6234
264.075	17081
264.137	26855
264.198	13933
264.260	7593
264.321	7781
264.383	29193
264.444	36171
264.506	13725
264.567	11932
264.629	25047
264.690	29471
264.752	16032
264.813	12211
264.875	8799
264.936	9554
264.998	8371
265.059	7909
265.120	9150
265.182	18857
265.243	75617
265.305	45325
265.366	16672
265.427	11865
265.489	10203
265.550	7429
265.611	12474
265.673	10622
265.734	8984
265.795	7304
265.857	8702
265.918	9003
265.979	27396
266.040	109680
266.102	58718
266.163	25876
266.224	21014
266.286	12074
266.347	9762
266.408	9794
266.469	9796
266.530	9212
266.592	9336
266.653	22671
266.714	25833
266.775	10696
266.836	9114
266.898	9293
266.959	15985
267.020	9887
267.081	10573
267.142	9204
267.203	8874
267.264	8271
267.326	10814
267.387	8614
267.448	8805
267.509	9220
267.570	9234
267.631	8116
267.692	9060
267.753	10184
267.814	8840
267.875	23732
267.936	30020
267.997	20973
268.058	18739
268.119	11642
268.180	11817
268.241	9416
268.302	8969
268.363	8315
268.424	10118
268.485	9355
268.546	7301
268.607	7178
268.668	6998
268.729	7114
268.790	9856
268.851	10616
268.912	27462
268.972	24637
269.033	14380
269.094	8854
269.155	8514
269.216	8370
269.277	8934
269.338	7063
269.398	9853
269.459	11958
269.520	16730
269.581	20807
269.642	20625
269.702	16054
269.763	12624
269.824	9602
269.885	17320
269.945	18028
270.006	9897
270.067	8127
270.128	8958
270.188	8368
270.249	8676
270.310	6971
270.370	9422
270.431	8536
270.492	7025
270.553	10270
270.613	22598
270.674	31459
270.734	13269
270.795	10060
270.856	17089
270.916	11392
270.977	9691
271.038	12380
271.098	11529
271.159	22059
271.219	14664
271.280	9988
271.340	9275
271.401	12911
271.462	19764
271.522	13051
271.583	10949
271.643	10449
271.704	10016
271.764	13624
271.825	34940
271.885	100990
271.946	84446
272.006	34710
272.066	69339
272.127	68906
272.187	26872
272.248	16927
272.308	23993
272.369	57943
272.429	25519
272.489	30518
272.550	24760
272.610	30655
272.671	19104
272.731	21189
272.791	26870
272.852	18390
272.912	17430
272.972	9549
273.033	12525
273.093	17983
273.153	16807
273.214	12162
273.274	14998
273.334	57922
273.394	66137
273.455	32146
273.515	43858
273.575	60642
273.635	26919
273.696	51873
273.756	66960
273.816	28359
273.876	20137
273.936	44266
273.997	40662
274.057	16351
274.117	16109
274.177	31670
274.237	106953
274.297	57885
274.358	49133
274.418	63569
274.478	39500
274.538	18127
274.598	19175
274.658	49717
274.718	44927
274.778	19806
274.838	14084
274.898	39469
274.958	66197
275.018	78517
275.078	40212
275.138	20072
275.198	12428
275.258	11198
275.318	16401
275.378	29658
275.438	25285
275.498	17752
275.558	48962
275.618	69120
275.678	40073
275.738	37444
275.798	24203
275.858	14086
275.918	9482
275.978	15257
276.038	11146
276.098	10489
276.157	31565
276.217	52988
276.277	24297
276.337	19957
276.397	14005
276.457	15297
276.517	10871
276.576	9202
276.636	11193
276.696	20870
276.756	39127
276.815	20395
276.875	14828
276.935	17765
276.995	13411
277.055	10648
277.114	9923
277.174	22005
277.234	42218
277.293	17650
277.353	12638
277.413	10167
277.472	13632
277.532	10890
277.592	14014
277.651	61522
277.711	53331
277.771	31662
277.830	97110
277.890	48253
277.950	76326
278.009	116111
278.069	42147
278.128	71538
278.188	58970
278.248	40714
278.307	88866
278.367	34736
278.426	18062
278.486	12716
278.545	11638
278.605	11099
278.664	10931
278.724	12187
278.783	46688
278.843	60570
278.902	19977
278.962	17988
279.021	18769
279.081	24226
279.140	22140
279.199	21340
279.259	19554
279.318	18145
279.378	23958
279.437	54744
279.496	173883
279.556	339275
279.615	176472
279.675	67398
279.734	47886
279.793	87054
279.853	89002
279.912	34429
279.971	24443
280.031	22215
280.090	54443
280.149	58143
280.208	72126
280.268	257008
280.327	148405
280.386	52091
280.445	52146
280.505	34139
280.564	20068
280.623	17191
280.682	34240
280.742	31282
280.801	14934
280.860	12321
280.919	13386
280.978	11611
281.037	11077
281.097	10726
281.156	11494
281.215	11013
281.274	16609
281.333	53485
281.392	24680
281.451	11090
281.510	10343
281.569	10149
281.628	8922
281.688	8773
281.747	12432
281.806	10300
281.865	9463
281.924	10523
281.983	9811
282.042	8102
282.101	8515
282.160	7419
282.219	7902
282.278	12911
282.337	33628
282.396	15864
282.454	10997
282.513	17690
282.572	47173
282.631	18651
282.690	11489
282.749	11223
282.808	12972
282.867	14277
282.926	11412
282.985	9256
283.043	8207
283.102	9664
283.161	11092
283.220	31533
283.279	38281
283.338	14139
283.396	12328
283.455	12536
283.514	15462
283.573	21176
283.631	15049
283.690	10928
283.749	12612
283.808	28344
283.866	21199
283.925	12494
283.984	13733
284.043	18834
284.101	16935
284.160	13312
284.219	16727
284.277	15386
284.336	30916
284.395	68752
284.453	39612
284.512	25336
284.570	36059
284.629	29543
284.688	31603
284.746	33439
284.805	41699
284.863	53358
284.922	65463
284.981	82492
285.039	121104
285.098	204037
285.156	323259
285.215	311690
285.273	322581
285.332	274587
285.390	187299
285.449	126429
285.507	90331
285.566	67497
285.624	51376
285.683	41099
285.741	34502
285.799	29798
285.858	27703
285.916	24781
285.975	20215
286.033	18172
286.091	17256
286.150	14689
286.208	15596
286.267	15903
286.325	19660
286.383	27182
286.442	19467
286.500	13500
286.558	11962
286.616	12544
286.675	17953
286.733	14338
286.791	13448
286.850	15374
286.908	22223
286.966	25254
287.024	12839
287.083	10916
287.141	10458
287.199	12559
287.257	16037
287.315	11815
287.374	16307
287.432	31582
287.490	16794
287.548	13835
287.606	10917
287.664	11294
287.723	17914
287.781	15588
287.839	12700
287.897	14517
287.955	16053
288.013	22432
288.071	57924
288.129	251407
288.187	358217
288.245	148568
288.303	64431
288.361	40449
288.419	29666
288.477	19930
288.535	14875
288.593	11651
288.651	10906
288.709	9065
288.767	10815
288.825	8808
288.883	9367
288.941	9358
288.999	8921
289.057	7659
289.115	8498
289.173	8251
289.231	9283
289.289	9034
289.346	9847
289.404	11478
289.462	20449
289.520	17178
289.578	9494
289.636	7638
289.694	7060
289.751	5793
289.809	6524
289.867	7329
289.925	12896
289.983	11920
290.040	7500
290.098	7682
290.156	11248
290.214	11167
290.271	7009
290.329	7424
290.387	6602
290.444	6466
290.502	6180
290.560	7332
290.617	7778
290.675	7547
290.733	8423
290.790	7675
290.848	7738
290.906	9029
290.963	8178
291.021	7745
291.078	7534
291.136	8959
291.194	33805
291.251	37134
291.309	12295
291.366	8394
291.424	9106
291.481	9289
291.539	8913
291.596	8442
291.654	6469
291.711	6045
291.769	11812
291.826	17632
291.884	9666
291.941	7497
291.999	8209
292.056	9997
292.114	9061
292.171	6910
292.228	9379
292.286	10893
292.343	21689
292.401	21303
292.458	12332
292.515	10812
292.573	13714
292.630	11857
292.687	10554
292.745	7876
292.802	14057
292.859	33082
292.917	48436
292.974	21968
293.031	11374
293.089	9979
293.146	8243
293.203	7351
293.260	7373
293.318	11195
293.375	12988
293.432	7231
293.489	7206
293.546	7716
293.604	13389
293.661	48242
293.718	73049
293.775	31529
293.832	22219
293.889	19451
293.947	17852
294.004	11920
294.061	13026
294.118	31592
294.175	50018
294.232	45637
294.289	19076
294.346	17315
294.403	15635
294.460	12153
294.517	10116
294.574	8036
294.631	8193
294.688	10596
294.745	36085
294.802	94102
294.859	65912
294.916	30320
294.973	21573
295.030	17900
295.087	13929
295.144	10902
295.201	9587
295.258	8159
295.315	13837
295.372	48452
295.429	51716
295.486	21185
295.542	16388
295.599	46129
295.656	47616
295.713	48683
295.770	46573
295.827	18185
295.883	13552
295.940	13968
295.997	24175
296.054	16915
296.111	10578
296.167	8033
296.224	8353
296.281	8190
296.338	7757
296.394	7461
296.451	11455
296.508	37140
296.564	40569
296.621	34857
296.678	94449
296.734	79110
296.791	30498
296.848	19079
296.904	26389
296.961	54379
297.018	67534
297.074	35503
297.131	17991
297.187	13655
297.244	23914
297.301	89999
297.357	85590
297.414	28748
297.470	17524
297.527	13916
297.583	12400
297.640	11714
297.696	8727
297.753	8483
297.809	7632
297.866	7186
297.922	6207
297.979	6481
298.035	10335
298.092	19406
298.148	44389
298.204	27707
298.261	17701
298.317	50388
298.374	82140
298.430	35421
298.486	22385
298.543	15662
298.599	18523
298.656	23130
298.712	43011
298.768	71556
298.824	34738
298.881	16430
298.937	11967
298.993	12011
299.050	14860
299.106	12179
299.162	12660
299.218	10721
299.275	9003
299.331	10145
299.387	31268
299.443	89458
299.500	67921
299.556	28665
299.612	19541
299.668	21038
299.724	32847
299.780	22724
299.837	14620
299.893	26059
299.949	78565
300.005	60759
300.061	80376
300.117	92825
300.173	36733
300.229	25645
300.285	36410
300.341	29810
300.397	17157
300.453	11827
300.510	12592
300.566	11097
300.622	19015
300.678	66367
300.734	75336
300.790	67147
300.845	63387
300.901	57763
300.957	75336
301.013	37785
301.069	18594
301.125	17540
301.181	17781
301.237	12325
301.293	9895
301.349	9390
301.405	10328
301.461	14497
301.516	17897
301.572	18029
301.628	24172
301.684	18477
301.740	38846
301.796	39448
301.851	33544
301.907	49901
301.963	39899
302.019	101848
302.074	199696
302.130	154047
302.186	68919
302.242	34576
302.297	23943
302.353	27806
302.409	45372
302.464	28861
302.520	37221
302.576	83905
302.631	71199
302.687	37790
302.743	18697
302.798	13341
302.854	11371
302.910	12090
302.965	17833
303.021	27978
303.076	25437
303.132	40345
303.187	34623
303.243	16960
303.299	12279
303.354	9786
303.410	10671
303.465	8728
303.521	9214
303.576	9095
303.632	11074
303.687	33866
303.743	69133
303.798	40767
303.853	19142
303.909	13337
303.964	13170
304.020	25202
304.075	27253
304.130	30343
304.186	51706
304.241	45775
304.297	33625
304.352	19104
304.358	18558
304.407	14124
304.449	14807
304.463	15050
304.518	15070
304.539	13371
304.573	10642
304.629	11041
304.630	11291
304.684	23040
304.720	52012
304.739	66776
304.794	60548
304.811	51480
304.850	28509
304.902	16219
304.905	15517
304.960	13341
304.992	13531
305.015	13720
305.071	14197
305.083	13551
305.126	10970
305.173	8347
305.181	7938
305.236	7134
305.264	8627
305.292	10329
305.347	13945
305.354	14194
305.402	15602
305.445	15521
305.457	15536
305.512	18516
305.535	17498
305.567	15822
305.622	15890
305.626	16813
305.678	36413
305.716	66509
305.733	77784
305.788	61929
305.807	58089
305.843	50372
305.897	72511
305.898	72803
305.953	53788
305.988	39667
306.008	31474
306.063	22143
306.078	19415
306.118	14022
306.168	10491
306.173	10236
306.228	9108
306.259	8592
306.283	8197
306.338	8013
306.349	8275
306.393	9907
306.440	11148
306.448	11232
306.503	10137
306.530	11500
306.558	15591
306.613	34131
306.620	36481
306.668	53534
306.711	69527
306.723	70749
306.778	47019
306.801	38128
306.833	26710
306.888	14381
306.892	13743
306.943	11543
306.982	10197
306.997	9755
307.052	9360
307.072	9167
307.107	9505
307.162	12083
307.163	12118
307.217	17255
307.253	20771
307.272	21737
307.327	21531
307.343	20871
307.381	18698
307.434	17905
307.436	18428
307.491	38005
307.524	54132
307.546	60471
307.600	56507
307.614	52913
307.655	32875
307.704	17110
307.710	16862
307.765	19819
307.795	24646
307.819	30939
307.874	41735
307.885	42227
307.929	33370
307.975	27158
307.984	28349
308.038	40232
308.065	51288
308.093	85692
308.148	190382
308.156	208652
308.202	326663
308.246	375486
308.257	353358
308.312	199111
308.336	140677
308.366	114461
308.421	71357
308.426	67669
308.475	44675
308.517	30402
308.530	28825
308.585	25195
308.607	24091
308.639	23904
308.694	25074
308.697	25434
308.748	42148
308.787	55227
308.803	55245
308.857	44996
308.877	41917
308.912	39217
308.967	38752
308.967	38732
309.021	54557
309.058	68647
309.076	85837
309.130	148691
309.148	173797
309.185	282948
309.238	461102
309.239	463435
309.293	508647
309.328	504042
309.348	433570
309.402	227743
309.418	172643
309.457	128015
309.508	79285
309.511	78638
309.566	75563
309.598	76770
309.620	90577
309.674	132691
309.688	142165
309.729	139968
309.778	126682
309.783	123577
309.837	85322
309.868	65863
309.892	70590
309.946	91323
309.959	97148
310.001	129798
310.049	154839
310.055	148787
310.109	86917
310.139	54826
310.163	44843
310.218	26932
310.229	23573
310.272	19412
310.319	15658
310.326	15335
310.381	13365
310.409	12479
310.435	12043
310.489	11360
310.499	11279
310.543	11801
310.589	12431
310.598	12408
310.652	12229
310.679	11949
310.706	11072
310.760	9478
310.769	9207
310.814	8679
310.859	8476
310.868	8523
310.923	8453
310.948	8639
310.977	9873
311.031	12042
311.038	12332
311.085	11847
311.128	11174
311.139	10985
311.193	10227
311.218	9747
311.247	9146
311.301	8172
311.308	8045
311.356	8312
311.398	8555
311.410	8386
311.464	7568
311.488	7147
311.518	7535
311.572	8469
311.578	8593
311.626	13186
311.668	17007
311.680	16597
311.734	14505
311.758	13582
311.788	13350
311.842	12904
311.847	12850
311.896	15328
311.937	17572
311.950	17850
312.004	18813
312.027	19211
312.058	16598
312.112	11906
312.117	11419
312.165	10170
312.207	9081
312.297	12746
312.386	11446
312.476	12093
312.566	26744
312.656	14968
312.745	7592
312.835	8768
312.925	10150
313.015	9120
313.104	10428
313.194	8773
313.284	10715
313.374	13544
313.463	14953
313.553	9248
313.643	8798
313.732	8303
313.822	8164
313.912	8810
314.001	12031
314.091	12129
314.180	16097
314.270	17157
314.360	16871
314.449	16302
314.539	10458
314.628	8690
314.718	10737
314.808	14182
314.897	9258
314.987	10436
315.076	14600
315.166	19521
315.255	15115
315.345	16056
315.434	16112
315.524	13503
315.613	18076
315.703	25158
315.792	42722
315.881	116806
315.971	59572
316.060	31551
316.150	38003
316.239	36186
316.328	18136
316.418	11201
316.507	11573
316.597	15875
316.686	16093
316.775	19586
316.865	37016
316.954	13455
317.043	8936
317.133	10839
317.222	9817
317.311	9508
317.400	11055
317.490	14832
317.579	21086
317.668	15246
317.757	26511
317.847	71034
317.936	207912
318.025	104649
318.114	49503
318.203	33478
318.293	31979
318.382	62456
318.471	50479
318.560	61921
318.649	83720
318.738	27675
318.828	16435
318.917	19160
319.006	17658
319.095	49329
319.184	110218
319.273	81052
319.362	49966
319.451	15183
319.540	14774
319.629	35023
319.718	63327
319.807	22494
319.896	45756
319.985	138420
320.074	72377
320.163	17702
320.252	24158
320.341	19799
320.430	20261
320.519	30224
320.608	21762
320.697	13850
320.786	15578
320.875	20686
320.964	27909
321.053	43434
321.142	62892
321.230	71022
321.319	46479
321.408	105267
321.497	51764
321.586	41647
321.675	43184
321.764	44318
321.852	29667
321.941	59111
322.030	47179
322.119	41018
322.207	110844
322.296	68996
322.385	32419
322.474	45348
322.562	131813
322.651	82669
322.740	47080
322.829	73456
322.917	55315
323.006	41652
323.095	35962
323.183	23603
323.272	32447
323.361	58659
323.449	147970
323.538	61288
323.626	100181
323.715	76434
323.804	26660
323.892	90809
323.981	71187
324.069	19325
324.158	46231
324.246	52617
324.335	24757
324.424	42310
324.512	16773
324.601	19596
324.689	39006
324.778	83875
324.866	47760
324.954	15438
325.043	13776
325.131	25336
325.220	38831
325.308	46279
325.397	35831
325.485	27161
325.574	9780
325.662	11586
325.750	13620
325.839	12110
325.927	8449
326.015	13897
326.104	17942
326.192	27260
326.280	10350
326.369	10085
326.457	17552
326.545	34083
326.634	18052
326.722	8200
326.810	10044
326.898	10340
326.987	11895
327.075	28818
327.163	31259
327.251	14911
327.340	25461
327.428	46548
327.516	12267
327.604	10669
327.692	11155
327.781	10936
327.869	19139
327.957	15211
328.045	16992
328.133	8763
328.221	11289
328.309	11319
328.397	9872
328.485	13407
328.574	18875
328.662	70302
328.750	45973
328.838	14590
328.926	10309
329.014	8952
329.102	14503
329.190	32222
329.278	28427
329.366	9357
329.454	7208
329.542	8286
329.630	8097
329.718	8589
329.806	13322
329.893	12488
329.981	12496
330.069	15348
330.157	65138
330.245	208849
330.333	132027
330.421	24374
330.509	20832
330.597	84246
330.684	67604
330.772	18795
330.860	19465
330.948	25055
331.036	15141
331.123	8035
331.211	8123
331.299	10126
331.387	20248
331.475	40385
331.562	16940
331.650	9507
331.738	11096
331.825	13777
331.913	9283
332.001	7630
332.089	10488
332.176	19747
332.264	44355
332.352	43382
332.439	15953
332.527	11557
332.614	9496
332.702	12281
332.790	10017
332.877	23917
332.965	53152
333.052	24864
333.140	20782
333.228	56309
333.315	22711
333.403	12514
333.490	27492
333.578	34197
333.665	71349
333.753	44623
333.840	13456
333.928	13588
334.015	28925
334.103	47424
334.190	140341
334.278	53032
334.365	21980
334.452	20662
334.540	14122
334.627	15578
334.715	21490
334.802	35617
334.889	164417
334.977	209329
335.064	37609
335.151	19301
335.239	16043
335.326	18116
335.413	64759
335.501	107556
335.588	21253
335.675	15317
335.762	17095
335.850	27301
335.937	24790
336.024	53042
336.111	191759
336.199	113345
336.286	28974
336.373	16739
336.460	12342
336.547	11472
336.635	13996
336.722	15677
336.809	11819
336.896	16227
336.983	45176
337.070	103884
337.157	150054
337.245	112427
337.332	93282
337.419	15039
337.506	10695
337.593	10942
337.680	28995
337.767	95310
337.854	35983
337.941	34795
338.028	44424
338.115	22477
338.202	16572
338.289	31526
338.376	109643
338.463	47690
338.550	52491
338.637	68011
338.724	23327
338.811	35985
338.898	12411
338.984	9427
339.071	11393
339.158	14895
339.245	39858
339.332	31067
339.419	24784
339.506	27776
339.593	8566
339.679	10451
339.766	10189
339.853	12516
339.940	33464
340.027	14630
340.113	12039
340.200	19066
340.287	13348
340.374	15814
340.460	31637
340.547	16172
340.634	19379
340.720	76726
340.807	64912
340.894	9798
340.980	12122
341.067	11698
341.154	12683
341.240	19470
341.327	45861
341.414	19506
341.500	22497
341.587	13737
341.674	10021
341.760	26060
341.847	38421
341.933	16133
342.020	7863
342.106	7134
342.193	10932
342.279	25475
342.366	18179
342.452	31648
342.539	18853
342.625	33295
342.712	94218
342.798	47049
342.885	21070
342.971	8748
343.058	8343
343.144	9236
343.230	10083
343.317	11167
343.403	11761
343.490	8020
343.576	8401
343.662	10431
343.749	12738
343.835	14710
343.921	21993
344.008	118275
344.094	333245
344.180	95682
344.267	29035
344.353	78682
344.439	105292
344.525	47654
344.612	22832
344.698	17566
344.784	14939
344.870	9424
344.957	11102
345.043	18910
345.129	14353
345.215	28342
345.301	20635
345.387	14805
345.474	7374
345.560	8456
345.646	11190
345.732	10019
345.818	14334
345.904	13917
345.990	14561
346.076	13099
346.162	22888
346.249	13797
346.335	9726
346.421	10571
346.507	31834
346.593	127436
346.679	46153
346.765	12156
346.851	11958
346.937	13169
347.023	9903
347.108	12690
347.194	13097
347.280	11574
347.366	14238
347.452	36745
347.538	148789
347.624	120269
347.710	101496
347.796	19569
347.882	10422
347.967	10533
348.053	12025
348.139	10970
348.225	10479
348.311	11265
348.397	9589
348.482	12840
348.568	16734
348.654	10776
348.740	16488
348.825	20120
348.911	19015
348.997	60604
349.083	145786
349.168	33931
349.254	13364
349.340	15786
349.425	10157
349.511	14531
349.597	18003
349.682	27176
349.768	88951
349.854	58057
349.939	11724
350.025	8890
350.110	9170
350.196	9306
350.282	9853
350.367	7317
350.453	13101
350.538	17217
350.624	14858
350.709	15184
350.795	9217
350.880	11250
350.966	11654
351.051	16952
351.137	14228
351.222	10790
351.308	27642
351.393	88877
351.479	35299
351.564	14323
351.649	11358
351.735	10038
351.820	8452
351.906	9927
351.991	13729
352.076	46676
352.162	92891
352.247	22889
352.332	14939
352.418	27538
352.503	36311
352.588	106373
352.673	125050
352.759	29432
352.844	16278
352.929	14851
353.014	23974
353.100	16190
353.185	25780
353.270	38763
353.355	41017
353.441	13983
353.526	12777
353.611	27329
353.696	42745
353.781	23355
353.866	13605
353.952	12346
354.037	27360
354.122	67910
354.207	66409
354.292	30683
354.377	13702
354.462	11018
354.547	16438
354.632	15339
354.717	18873
354.802	32807
354.887	16844
354.972	9868
355.057	9039
355.142	9831
355.227	12821
355.312	19531
355.397	42842
355.482	104016
355.567	69914
355.652	34996
355.737	41974
355.822	95649
355.907	112759
355.991	19839
356.076	12417
356.161	10961
356.246	10318
356.331	11935
356.416	24365
356.501	138627
356.585	206075
356.670	39987
356.755	20029
356.840	26383
356.924	104950
357.009	404853
357.094	219911
357.179	42328
357.263	31661
357.348	25025
357.433	28797
357.517	25966
357.602	23076
357.687	18137
357.771	29663
357.856	85721
357.941	63692
358.025	74356
358.110	361935
358.195	242638
358.279	40546
358.364	25969
358.448	68966
358.533	204186
358.617	177898
358.702	152152
358.787	74425
358.871	35606
358.956	34912
359.040	15594
359.125	11486
359.209	13792
359.294	39537
359.378	80869
359.462	37675
359.547	21882
359.631	14093
359.716	11875
359.800	12347
359.885	16121
359.969	15186
360.053	12304
360.138	12124
360.222	18726
360.306	34608
360.391	31424
360.475	44517
360.559	115142
360.644	88909
360.728	76614
360.812	76380
360.896	251671
360.981	128114
361.065	71016
361.149	22225
361.233	20123
361.318	17777
361.402	18537
361.486	17968
361.570	15060
361.654	19049
361.739	38696
361.823	142335
361.907	274139
361.991	71039
362.075	30106
362.159	67384
362.243	58860
362.327	52761
362.411	68944
362.495	38765
362.580	22623
362.664	16546
362.748	17568
362.832	21474
362.916	35678
363.000	97858
363.084	236031
363.168	335929
363.252	107118
363.336	33619
363.420	37599
363.503	92722
363.587	133728
363.671	36665
363.755	25036
363.839	36075
363.923	22831
364.007	35455
364.091	48407
364.175	47089
364.258	161514
364.342	177001
364.426	222694
364.510	137996
364.594	57287
364.677	51131
364.761	193452
364.845	195144
364.929	60581
365.013	58569
365.096	39874
365.180	54432
365.264	43644
365.347	148884
365.431	87065
365.515	25840
365.598	18572
365.682	14851
365.766	19780
365.849	26049
365.933	17984
366.017	19980
366.100	17059
366.184	11142
366.267	12027
366.351	12454
366.435	11056
366.518	11323
366.602	10344
366.685	11977
366.769	14504
366.852	19177
366.936	36128
367.019	29701
367.103	18141
367.186	25398
367.270	13863
367.353	10368
367.436	11022
367.520	12840
367.603	15858
367.687	23817
367.770	43341
367.853	28012
367.937	54918
368.020	118508
368.104	39697
368.187	28089
368.270	44232
368.353	39428
368.437	41750
368.520	75703
368.603	64015
368.687	70377
368.770	159327
368.853	54327
368.936	34368
369.020	36490
369.103	19544
369.186	13327
369.269	15502
369.352	24441
369.436	41006
369.519	27955
369.602	17559
369.685	14154
369.768	18339
369.851	15321
369.934	11617
370.018	15475
370.101	34482
370.184	30251
370.267	19565
370.350	31651
370.433	48719
370.516	105035
370.599	172906
370.682	70862
370.765	80207
370.848	100437
370.931	174563
371.014	90343
371.097	21326
371.180	17153
371.263	11793
371.346	11413
371.429	11828
371.511	12754
371.594	23090
371.677	34376
371.760	32117
371.843	31832
371.926	109549
372.009	323520
372.091	138428
372.174	65555
372.257	154382
372.340	85196
372.423	43277
372.505	52605
372.588	28870
372.671	48949
372.754	168435
372.836	118730
372.919	48651
373.002	96556
373.085	48358
373.167	33475
373.250	74267
373.332	157853
373.415	192655
373.498	430012
373.580	220523
373.663	193886
373.746	335119
373.828	98891
373.911	37182
373.993	34198
374.076	83336
374.159	100266
374.241	48188
374.324	138807
374.406	127962
374.489	104080
374.571	331586
374.654	192906
374.736	69006
374.819	191473
374.901	286650
374.983	350162
375.066	88435
375.148	27847
375.231	65846
375.313	145605
375.395	72234
375.478	23709
375.560	17197
375.643	22322
375.725	57226
375.807	236975
375.890	238517
375.972	91196
376.054	52000
376.136	64519
376.219	40930
376.301	63020
376.383	226689
376.465	123490
376.548	63296
376.630	73659
376.712	183452
376.794	127824
376.877	20042
376.959	12947
377.041	14932
377.123	20736
377.205	27081
377.287	11589
377.369	10272
377.452	12380
377.534	12249
377.616	12352
377.698	12715
377.780	10852
377.862	13881
377.944	12962
378.026	10364
378.108	9962
378.190	10360
378.272	10380
378.354	9372
378.436	9342
378.518	15374
378.600	43746
378.682	49095
378.764	94935
378.846	103716
378.928	28998
379.010	38590
379.091	27129
379.173	13882
379.255	13203
379.337	17978
379.419	44968
379.501	142089
379.583	84257
379.664	21361
379.746	39315
379.828	96558
379.910	145359
379.991	143408
380.073	36498
380.155	18824
380.237	17576
380.318	13382
380.400	15082
380.482	24777
380.564	47159
380.645	42878
380.727	46693
380.809	27323
380.890	20185
380.972	17082
381.053	15427
381.135	17465
381.217	34858
381.298	107510
381.380	77275
381.461	47027
381.543	166274
381.624	281715
381.706	75374
381.787	31129
381.869	33946
381.951	73759
382.032	292242
382.113	260130
382.195	69776
382.276	40467
382.358	67935
382.439	176442
382.521	199500
382.602	312998
382.684	183275
382.765	254579
382.846	365470
382.928	559220
383.009	404970
383.090	232137
383.172	663850
383.253	1156109
383.334	492050
383.416	321390
383.497	221169
383.578	117819
383.659	196697
383.741	579243
383.822	1432741
383.903	985426
383.984	313697
384.066	365139
384.147	286667
384.228	81338
384.309	51829
384.390	45373
384.471	32741
384.553	32603
384.634	38118
384.715	44059
384.796	28273
384.877	30583
384.958	86092
385.039	139565
385.120	61661
385.201	27418
385.282	30530
385.363	29853
385.444	31415
385.525	43532
385.606	123628
385.687	144693
385.768	42074
385.849	38998
385.930	124425
386.011	269213
386.092	107056
386.173	26904
386.254	18891
386.335	19536
386.416	23079
386.496	54946
386.577	115304
386.658	51287
386.739	29453
386.820	24808
386.901	20544
386.981	19862
387.062	16713
387.143	27120
387.224	89839
387.304	115112
387.385	45105
387.466	28180
387.547	30290
387.627	27372
387.708	39160
387.789	148673
387.869	235778
387.950	84939
388.031	19012
388.111	15444
388.192	26615
388.273	38933
388.353	31770
388.434	21922
388.514	34819
388.595	133804
388.676	221403
388.756	128161
388.837	96731
388.917	85176
388.998	23445
389.078	17115
389.159	16061
389.239	17115
389.320	22784
389.400	25391
389.480	35062
389.561	99375
389.641	72264
389.722	23473
389.802	36651
389.883	43826
389.963	112570
390.043	95333
390.124	31720
390.204	35449
390.284	114832
390.365	102672
390.445	72067
390.525	202290
390.605	248223
390.686	91423
390.766	32182
390.846	18652
390.927	14871
391.007	16106
391.087	17015
391.167	19270
391.247	17139
391.328	20079
391.408	27659
391.488	23881
391.568	14568
391.648	18894
391.728	29041
391.808	27108
391.888	32502
391.969	53671
392.049	103905
392.129	54952
392.209	45790
392.289	114584
392.369	86629
392.449	49606
392.529	41948
392.609	37677
392.689	45748
392.769	112158
392.849	133483
392.929	80573
393.009	166063
393.089	184562
393.169	171367
393.248	437696
393.328	1303235
393.408	1611682
393.488	671418
393.568	205542
393.648	102612
393.728	65918
393.807	48861
393.887	40444
393.967	35155
394.047	37359
394.127	43237
394.206	56270
394.286	144356
394.366	567150
394.446	809440
394.525	262016
394.605	65226
394.685	42577
394.764	64783
394.844	105113
394.924	97880
395.003	41161
395.083	29609
395.163	27090
395.242	24718
395.322	26517
395.402	20649
395.481	24506
395.561	45003
395.640	121864
395.720	132519
395.799	131690
395.879	124231
395.958	80103
396.038	207181
396.117	750147
396.197	1054462
396.276	402802
396.356	126942
396.435	84589
396.515	70473
396.594	82987
396.673	145073
396.753	423004
396.832	1217458
396.912	1173346
396.991	386893
397.070	109882
397.150	60443
397.229	43524
397.308	49018
397.388	82753
397.467	53223
397.546	24505
397.625	20647
397.705	24200
397.784	26961
397.863	19534
397.942	13919
398.022	14929
398.101	32533
398.180	95759
398.259	67041
398.338	22379
398.417	18098
398.497	14999
398.576	14195
398.655	12639
398.734	11251
398.813	11112
398.892	28787
398.971	98141
399.050	71946
399.129	15052
399.208	8999
399.287	9051
399.366	8432
399.445	8855
399.524	9868
399.603	9817
399.682	16277
399.761	41020
399.840	106583
399.919	106442
399.998	22776
400.077	9086
400.156	8383
400.235	9808
400.313	8736
400.392	12853
400.471	44774
400.550	99741
400.629	40320
400.708	14084
400.786	12684
400.865	21901
400.944	29994
401.023	18935
401.102	6748
401.180	6526
401.259	6147
401.338	8895
401.416	12780
401.495	13702
401.574	10486
401.652	8233
401.731	12382
401.810	14459
401.888	10193
401.967	6712
402.046	8544
402.124	10756
402.203	17312
402.281	11859
402.360	12445
402.438	28438
402.517	27237
402.596	11747
402.674	9418
402.753	8329
402.831	6985
402.910	9750
402.988	32324
403.066	123763
403.145	101142
403.223	40517
403.302	106805
403.380	96113
403.459	86662
403.537	45683
403.615	17604
403.694	8148
403.772	7613
403.850	6313
403.929	6176
404.007	7963
404.085	16479
404.164	25436
404.242	12554
404.320	9878
404.398	15352
404.477	42166
404.555	202666
404.633	259678
404.711	53779
404.789	12904
404.868	11842
404.946	10431
405.024	6270
405.102	5751
405.180	6221
405.258	6412
405.336	7105
405.415	7208
405.493	14614
405.571	17947
405.649	9532
405.727	7164
405.805	10466
405.883	11816
405.961	12163
406.039	12555
406.117	9006
406.195	14152
406.273	47372
406.351	193562
406.429	170125
406.507	30874
406.585	11430
406.663	10042
406.740	15170
406.818	15385
406.896	9616
406.974	9450
407.052	17768
407.130	97801
407.208	202276
407.285	60010
407.363	10330
407.441	10108
407.519	9017
407.596	9790
407.674	19455
407.752	45765
407.830	53510
407.907	26897
407.985	13767
408.063	8600
408.141	6071
408.218	9450
408.296	14016
408.373	12387
408.451	11786
408.529	11467
408.606	8486
408.684	5348
408.762	4617
408.839	4819
408.917	5022
408.994	6048
409.072	7191
409.149	7848
409.227	11413
409.304	17358
409.382	15787
409.459	15398
409.537	20448
409.614	22026
409.692	16112
409.769	15396
409.846	22234
409.924	28973
410.001	25396
410.079	17028
410.156	12582
410.233	11015
410.311	10425
410.388	8974
410.465	10380
410.543	12193
410.620	9012
410.697	8681
410.775	12822
410.852	7818
410.929	10891
411.006	15747
411.083	10111
411.161	18809
411.238	23142
411.315	12487
411.392	7552
411.469	11042
411.547	13888
411.624	8477
411.701	7806
411.778	8350
411.855	20505
411.932	16437
412.009	6799
412.086	6192
412.163	7835
412.240	8710
412.317	9986
412.394	10643
412.471	5559
412.548	4406
412.625	6654
412.702	6759
412.779	14751
412.856	14184
412.933	5641
413.010	5182
413.087	9115
413.164	40348
413.241	87075
413.318	31145
413.395	12474
413.471	19680
413.548	12572
413.625	5989
413.702	8377
413.779	8035
413.855	4606
413.932	4013
414.009	3646
414.086	4528
414.162	5793
414.239	8050
414.316	37051
414.393	113662
414.469	65375
414.546	9286
414.623	4460
414.699	4399
414.776	7999
414.853	6325
414.929	5749
415.006	5588
415.082	5798
415.159	5225
415.236	5745
415.312	5899
415.389	12095
415.465	19387
415.542	13207
415.618	6730
415.695	13447
415.771	9984
415.848	8782
415.924	6936
416.000	6091
416.077	4845
416.153	3221
416.230	2761
416.306	3322
416.383	4078
416.459	4505
416.535	3051
416.612	3768
416.688	4339
416.764	4459
416.841	4134
416.917	5387
416.993	5205
417.069	6880
417.146	9366
417.222	14626
417.298	11561
417.374	6246
417.451	5719
417.527	8668
417.603	11847
417.679	8737
417.755	6799
417.831	4657
417.908	4548
417.984	3711
418.060	4677
418.136	11518
418.212	24069
418.288	11680
418.364	5296
418.440	5288
418.516	9972
418.592	11416
418.668	20408
418.744	37582
418.820	34771
418.896	11365
418.972	4535
419.048	5198
419.124	14221
419.200	18149
419.276	7005
419.352	3612
419.428	3557
419.504	6208
419.579	10051
419.655	8176
419.731	7378
419.807	19632
419.883	44066
419.959	41473
420.034	13460
420.110	14473
420.186	59780
420.262	73472
420.337	17020
420.413	10710
420.489	7833
420.565	5793
420.640	5917
420.716	7645
420.792	5066
420.867	7010
420.943	6563
421.019	12133
421.094	13708
421.170	7753
421.245	7185
421.321	7685
421.397	9176
421.472	11959
421.548	26844
421.623	28231
421.699	15340
421.774	13473
421.850	13475
421.925	20336
422.001	23085
422.076	19694
422.152	21851
422.227	33995
422.302	42835
422.378	55986
422.453	100529
422.529	214129
422.604	500412
422.679	768263
422.755	670628
422.830	333822
422.905	137828
422.981	74349
423.056	49311
423.131	35350
423.207	27247
423.282	24229
423.357	32693
423.432	31031
423.508	21848
423.583	40748
423.658	43324
423.733	16087
423.808	14749
423.883	17136
423.959	17187
424.034	15661
424.109	12446
424.184	8658
424.259	7684
424.334	7444
424.409	6569
424.484	6136
424.559	7689
424.634	7463
424.709	9547
424.784	14012
424.859	9402
424.934	11424
425.009	40881
425.084	87834
425.159	49011
425.234	8859
425.309	5723
425.384	19983
425.459	46017
425.534	19526
425.609	6392
425.683	5280
425.758	5040
425.833	5265
425.908	7855
425.983	22002
426.058	82329
426.132	60318
426.207	10331
426.282	9672
426.357	10501
426.431	5623
426.506	4657
426.581	5687
426.655	5339
426.730	5398
426.805	5521
426.879	6318
426.954	6781
427.029	12494
427.103	56136
427.178	178805
427.253	122719
427.327	17585
427.402	13922
427.476	39665
427.551	30467
427.625	8866
427.700	7410
427.774	5269
427.849	6421
427.923	5277
427.998	5257
428.072	6792
428.147	13827
428.221	51598
428.296	184368
428.370	145199
428.444	23160
428.519	13191
428.593	21825
428.667	23121
428.742	22706
428.816	28084
428.890	93679
428.965	216997
429.039	91927
429.113	31074
429.188	16628
429.262	6844
429.336	10355
429.410	35832
429.485	34875
429.559	19087
429.633	19480
429.707	9669
429.781	18150
429.855	98887
429.930	212146
430.004	106888
430.078	94946
430.152	111667
430.226	207042
430.300	295571
430.374	72851
430.448	16989
430.522	28148
430.596	91633
430.670	83907
430.744	161673
430.818	332395
430.892	108023
430.966	14957
431.040	8080
431.114	5659
431.188	3772
431.262	4624
431.336	4708
431.410	8845
431.484	27643
431.557	28777
431.631	7966
431.705	7473
431.779	28409
431.853	144138
431.927	157377
432.000	26424
432.074	6085
432.148	5919
432.222	6406
432.295	4648
432.369	4257
432.443	7558
432.516	45656
432.590	170888
432.664	104355
432.737	13832
432.811	3819
432.885	2104
432.958	2555
433.032	1973
433.106	1885
433.179	1305
433.253	2091
433.326	2580
433.400	1350
433.473	1952
433.547	1202
433.620	3187
433.694	6927
433.767	10788
433.841	3298
433.914	2923
433.988	3128
434.061	2390
434.134	2714
434.208	1395
434.281	1109
434.355	1334
434.428	3283
434.501	2927
434.575	1935
434.648	2520
434.721	1395
434.795	1540
434.868	1208
434.941	1441
435.014	1807
435.088	2019
435.161	6396
435.234	10115
435.307	14539
435.381	8688
435.454	6193
435.527	9208
435.600	10936
435.673	9884
435.746	6797
435.819	6417
435.892	5097
435.966	3738
436.039	2956
436.112	3142
436.185	1851
436.258	1481
436.331	848
436.404	1673
436.477	1120
436.550	1028
436.623	1313
436.696	1367
436.769	2821
436.842	3050
436.915	2472
436.987	5666
437.060	4158
437.133	2083
437.206	1122
437.279	1621
437.352	1369
437.425	1675
437.498	2801
437.570	7259
437.643	11741
437.716	3403
437.789	1893
437.861	6225
437.934	22230
438.007	16678
438.080	3629
438.152	4508
438.225	8328
438.298	54669
438.370	224815
438.443	146231
438.516	31971
438.588	8675
438.661	2962
438.734	2931
438.806	3806
438.879	5135
438.951	5670
439.024	12587
439.096	7092
439.169	3086
439.241	2110
439.314	1810
439.386	3126
439.459	6968
439.531	11277
439.604	7505
439.676	2102
439.749	792
439.821	774
439.893	1712
439.966	2503
440.038	3785
440.110	5240
440.183	3420
440.255	1979
440.327	4892
440.400	21189
440.472	123315
440.544	135009
440.617	21233
440.689	9377
440.761	11088
440.833	20055
440.905	16264
440.978	4490
441.050	1570
441.122	1955
441.194	1893
441.266	2344
441.338	2089
441.411	4695
441.483	32724
441.555	81449
441.627	26181
441.699	7544
441.771	7029
441.843	4386
441.915	1650
441.987	2475
442.059	2270
442.131	4121
442.203	6436
442.275	8586
442.347	9715
442.419	13568
442.491	60965
442.563	205448
442.635	123913
442.706	35421
442.778	30909
442.850	9430
442.922	4772
442.994	4802
443.066	9028
443.137	8378
443.209	7566
443.281	10638
443.353	21360
443.425	74787
443.496	313638
443.568	406224
443.640	179764
443.711	35435
443.783	11655
443.855	7644
443.926	6040
443.998	4720
444.070	6495
444.141	5445
444.213	8915
444.285	12344
444.356	9917
444.428	8629
444.499	4887
444.571	2809
444.642	3400
444.714	4388
444.785	8448
444.857	9660
444.928	17128
445.000	14865
445.071	11768
445.143	18248
445.214	15441
445.285	19689
445.357	49925
445.428	169278
445.500	493597
445.571	381663
445.642	216797
445.714	75189
445.785	42899
445.856	19251
445.928	14054
445.999	13246
446.070	10373
446.141	8070
446.213	12733
446.284	6941
446.355	5569
446.426	3938
446.497	4086
446.569	5767
446.640	10340
446.711	12894
446.782	3656
446.853	3927
446.924	6507
446.995	4643
447.066	3792
447.138	6036
447.209	4545
447.280	822
447.351	1286
447.422	952
447.493	2475
447.564	4337
447.635	8264
447.706	4926
447.777	975
447.847	736
447.918	1157
447.989	3079
448.060	4913
448.131	8842
448.202	12126
448.273	10314
448.344	4641
448.414	2203
448.485	2741
448.556	1481
448.627	857
448.698	1135
448.768	1344
448.839	944
448.910	4584
448.981	6465
449.051	3209
449.122	1807
449.193	1352
449.263	1591
449.334	1542
449.405	3412
449.475	10021
449.546	9504
449.616	6097
449.687	7045
449.758	2685
449.828	1725
449.899	1343
449.969	1771
450.040	1181
450.110	2610
450.181	3510
450.251	3060
450.322	1431
450.392	1801
450.463	1615
450.533	1191
450.604	1477
450.674	1253
450.744	1553
450.815	1674
450.885	1379
450.955	1448
451.026	1226
451.096	1128
451.166	2493
451.237	5192
451.307	16807
451.377	9682
451.447	2920
451.518	1556
451.588	1680
451.658	1461
451.728	2913
451.799	12811
451.869	22439
451.939	6701
452.009	1563
452.079	1038
452.149	1794
452.219	3050
452.289	16106
452.360	18451
452.430	4948
452.500	3273
452.570	5432
452.640	8269
452.710	20315
452.780	35860
452.850	24811
452.920	26479
452.990	8964
453.060	4179
453.129	5874
453.199	7303
453.269	13887
453.339	52611
453.409	91384
453.479	61636
453.549	102130
453.619	114717
453.688	60017
453.758	9475
453.828	3608
453.898	3089
453.968	2246
454.037	2125
454.087	1584
454.107	1338
454.168	2143
454.177	2234
454.247	1053
454.249	1093
454.316	1434
454.330	1854
454.386	3243
454.411	4870
454.456	7056
454.492	11616
454.525	15615
454.574	9634
454.595	7093
454.655	2874
454.665	2202
454.734	2952
454.736	3089
454.804	5168
454.817	7238
454.873	14318
454.898	17794
454.943	23561
454.979	16501
455.013	10477
455.060	6351
455.082	4753
455.141	4953
455.152	4838
455.221	10900
455.222	11201
455.291	22782
455.303	20605
455.360	11686
455.384	9965
455.430	7277
455.465	8066
455.499	8353
455.546	13898
455.569	15613
455.627	13940
455.638	13869
455.707	4966
455.708	4978
455.777	2748
455.789	2868
455.846	3341
455.869	2914
455.916	2169
455.950	2364
455.985	2443
456.031	2852
456.054	2959
456.112	2845
456.124	2862
456.193	3060
456.193	3035
456.262	3199
456.274	3409
456.332	4044
456.355	4441
456.401	4630
456.436	4236
456.470	4003
456.516	3281
456.540	2929
456.597	2980
456.609	2973
456.678	2224
456.678	2202
456.747	2651
456.759	2648
456.817	2639
456.840	2667
456.886	2738
456.920	3023
456.955	3352
457.001	3241
457.024	3336
457.082	4650
457.093	4854
457.162	6426
457.163	6473
457.232	7119
457.243	6856
457.301	5476
457.324	4563
457.370	3449
457.405	3769
457.439	4142
457.485	4681
457.508	5042
457.566	5302
457.577	5471
457.646	8253
457.647	8315
457.715	14457
457.727	15772
457.784	24604
457.808	30408
457.853	37140
457.889	46246
457.922	47616
457.969	33908
457.991	34206
458.050	38742
458.060	40024
458.129	63035
458.130	63988
458.198	67756
458.211	62065
458.267	37658
458.292	26268
458.336	17482
458.372	16784
458.405	21647
458.453	30683
458.474	38345
458.533	65088
458.543	67184
458.611	104792
458.614	105882
458.680	74029
458.694	59594
458.749	28807
458.775	19962
458.818	11466
458.855	9034
458.887	7586
458.936	6713
458.955	6488
459.016	5979
459.024	5952
459.093	6403
459.097	6451
459.162	7136
459.177	7207
459.230	7654
459.257	8326
459.299	8767
459.338	8708
459.368	8908
459.418	9815
459.437	9414
459.499	7530
459.505	7493
459.574	6184
459.579	6180
459.643	6081
459.659	6103
459.711	6455
459.740	6485
459.780	6710
459.820	7115
459.849	7124
459.900	7528
459.917	7714
459.981	7866
459.986	7832
460.054	8124
460.061	8128
460.123	8448
460.141	8526
460.191	9702
460.222	10630
460.260	11668
460.302	13444
460.328	12800
460.382	10823
460.397	10765
460.462	8998
460.465	9087
460.534	12656
460.543	13112
460.602	24716
460.623	29047
460.671	44020
460.703	57422
460.739	50462
460.783	42022
460.808	37799
460.864	11695
460.876	9508
460.944	7257
460.945	7218
461.013	7192
461.024	7176
461.081	7995
461.104	8541
461.150	8098
461.184	7609
461.218	7852
461.264	7503
461.286	7229
461.345	7262
461.355	7290
461.423	7855
461.425	7851
461.491	8314
461.505	8501
461.559	14118
461.585	16868
461.628	25244
461.665	32997
461.696	35343
461.745	42256
461.764	37103
461.825	14446
461.832	14275
461.901	9531
461.905	9500
461.969	8497
461.985	8384
462.037	8170
462.065	7956
462.105	9212
462.145	10398
462.173	13528
462.225	19285
462.241	20915
462.305	28955
462.310	28155
462.378	16358
462.385	14577
462.446	10793
462.465	9805
462.514	8996
462.545	9157
462.582	9042
462.625	8696
462.650	8360
462.705	7773
462.718	7965
462.785	8735
462.786	8798
462.854	12401
462.865	12982
462.922	14649
462.945	15683
462.990	12623
463.025	9544
463.058	8906
463.104	7676
463.126	7555
463.184	7930
463.194	7982
463.262	8141
463.264	8149
463.330	8532
463.344	8526
463.398	8966
463.424	9373
463.466	9567
463.504	9635
463.533	9581
463.583	9128
463.601	9595
463.663	11375
463.669	11721
463.737	16050
463.743	16442
463.805	23240
463.823	25117
463.873	35122
463.903	41244
463.940	42372
463.982	44632
464.008	35968
464.062	15734
464.076	14855
464.142	9170
464.144	9137
464.211	8930
464.221	8975
464.279	9713
464.301	10055
464.347	11640
464.381	12690
464.414	13608
464.461	14810
464.482	15364
464.540	17106
464.550	16865
464.617	14797
464.620	14709
464.685	15057
464.699	15045
464.753	15801
464.779	16330
464.820	17346
464.859	18181
464.888	18003
464.938	17519
464.956	17506
465.018	17473
465.023	17344
465.091	15287
465.098	15040
465.158	15379
465.177	15535
465.226	15587
465.257	15538
465.293	15455
465.336	15238
465.361	16945
465.416	20758
465.428	22015
465.495	28883
465.496	29010
465.563	41673
465.575	43819
465.631	50913
465.654	54205
465.698	34722
465.734	17649
465.765	16578
465.813	14803
465.833	14653
465.893	14702
465.900	14685
465.968	14471
465.972	14431
466.035	15018
466.052	15144
466.102	15725
466.131	16041
466.170	16425
466.210	16735
466.237	17068
466.290	17630
466.304	17899
466.369	18961
466.372	19007
466.439	19392
466.449	19412
466.506	22315
466.528	23374
466.573	30269
466.607	35360
466.641	48841
466.687	67467
466.708	72947
466.766	87799
466.775	81820
466.842	35912
466.845	33652
466.909	26585
466.925	24913
466.977	23900
467.004	23404
467.044	24203
467.083	24912
467.111	25611
467.163	26794
467.178	27582
467.242	30612
467.245	30542
467.312	27873
467.321	27465
467.379	26668
467.400	26300
467.446	26975
467.480	27371
467.559	25526
467.638	22429
467.717	21996
467.796	25847
467.875	28357
467.955	25970
468.034	36690
468.113	72663
468.192	104293
468.271	32094
468.350	28146
468.429	33444
468.508	33353
468.588	27113
468.667	23271
468.746	22877
468.825	21008
468.904	18767
468.983	22412
469.062	32638
469.141	37820
469.220	18260
469.299	18220
469.378	19923
469.456	22130
469.535	20579
469.614	19505
469.693	21258
469.772	26566
469.851	35968
469.930	26408
470.009	21018
470.088	22412
470.166	28951
470.245	43010
470.324	54841
470.403	41550
470.482	28280
470.560	24008
470.639	24686
470.718	27162
470.797	21260
470.875	23452
470.954	32344
471.033	32643
471.111	16197
471.190	15959
471.269	14991
471.347	15915
471.426	17150
471.505	19306
471.583	19321
471.662	18195
471.740	17208
471.819	17225
471.898	16675
471.976	15655
472.055	17059
472.133	19434
472.212	23680
472.290	24666
472.369	16992
472.447	15361
472.526	15084
472.604	17117
472.683	18966
472.761	21332
472.839	18581
472.918	17528
472.996	17982
473.075	19853
473.153	19021
473.231	16780
473.310	20716
473.388	18694
473.466	18152
473.545	20945
473.623	29514
473.701	29900
473.780	18288
473.858	17278
473.936	19321
474.014	17346
474.093	19952
474.171	26928
474.249	37196
474.327	23828
474.405	16311
474.484	15351
474.562	17446
474.640	17629
474.718	18670
474.796	19923
474.874	16847
474.952	16437
475.030	16605
475.108	18580
475.187	21486
475.265	24618
475.343	34304
475.421	39003
475.499	18247
475.577	18425
475.655	23429
475.733	43339
475.811	72532
475.889	64798
475.966	42058
476.044	18725
476.122	24991
476.200	34368
476.278	25652
476.356	15653
476.434	16673
476.512	22908
476.590	31936
476.667	26344
476.745	15134
476.823	16564
476.901	15603
476.979	16720
477.056	16140
477.134	16300
477.212	17219
477.290	15686
477.367	13798
477.445	15069
477.523	14899
477.601	16312
477.678	14981
477.756	18458
477.834	18993
477.911	14295
477.989	14391
478.066	14937
478.144	18077
478.222	24303
478.299	40659
478.377	37852
478.454	14596
478.532	14735
478.609	16307
478.687	17725
478.764	14344
478.842	15470
478.919	19417
478.997	16721
479.074	14980
479.152	16455
479.229	21573
479.307	15051
479.384	11948
479.461	13576
479.539	14049
479.616	17405
479.694	16017
479.771	16121
479.848	17316
479.926	22251
480.003	24228
480.080	14740
480.157	13637
480.235	14325
480.312	14565
480.389	15336
480.467	24907
480.544	30252
480.621	17480
480.698	17036
480.775	18160
480.853	18951
480.930	14990
481.007	15416
481.084	17827
481.161	19052
481.238	17494
481.315	13296
481.392	13423
481.470	13855
481.547	15033
481.624	13707
481.701	14041
481.778	14865
481.855	17738
481.932	24342
482.009	40445
482.086	29600
482.163	18622
482.240	30374
482.317	56364
482.393	42990
482.470	18504
482.547	17566
482.624	16678
482.701	17317
482.778	16702
482.855	14157
482.932	15408
483.009	15066
483.085	17713
483.162	22548
483.239	21629
483.316	17317
483.393	17646
483.469	15805
483.546	18253
483.623	18196
483.699	14948
483.776	15421
483.853	18106
483.930	26702
484.006	58550
484.083	99759
484.160	49080
484.236	64319
484.313	49798
484.389	39642
484.466	35860
484.543	35732
484.619	38883
484.696	39621
484.772	39648
484.849	40285
484.925	33541
485.002	32207
485.078	34940
485.155	36115
485.231	30338
485.308	29193
485.384	32115
485.461	39439
485.537	64100
485.614	74365
485.690	33089
485.766	30964
485.843	34394
485.919	49442
485.995	55787
486.072	29965
486.148	28089
486.224	28117
486.301	30147
486.377	35470
486.453	36954
486.530	32515
486.606	38728
486.682	44748
486.758	54317
486.835	65215
486.911	52231
486.987	85750
487.063	102112
487.139	139302
487.215	95781
487.292	43969
487.368	33136
487.444	41239
487.520	52979
487.596	61116
487.672	106231
487.748	277838
487.824	440633
487.900	167669
487.976	60106
488.052	47362
488.128	53217
488.204	42931
488.280	32708
488.356	41089
488.432	73544
488.508	113138
488.584	42953
488.660	30978
488.736	31555
488.812	32368
488.888	41597
488.964	61158
489.039	131270
489.115	208073
489.191	129692
489.267	33313
489.343	29562
489.418	24950
489.494	23707
489.570	23509
489.646	24956
489.722	25330
489.797	27860
489.873	41266
489.949	82684
490.024	70473
490.100	25397
490.176	26525
490.251	34012
490.327	47093
490.403	29535
490.478	24292
490.554	20911
490.629	21706
490.705	22402
490.781	24433
490.856	25182
490.932	28470
491.007	29123
491.083	27399
491.158	25254
491.234	32298
491.309	63302
491.385	65464
491.460	24225
491.536	25433
491.611	23374
491.686	25866
491.762	40455
491.837	84394
491.913	151849
491.988	196629
492.063	267710
492.139	70109
492.214	37354
492.289	21660
492.365	21250
492.440	25643
492.515	25440
492.590	24521
492.666	21032
492.741	28040
492.816	39660
492.891	23484
492.967	19977
493.042	18299
493.117	18011
493.192	18154
493.267	21260
493.342	28650
493.418	30694
493.493	20113
493.568	17825
493.643	18765
493.718	24216
493.793	37141
493.868	44777
493.943	29605
494.018	21649
494.093	19350
494.168	18954
494.243	18172
494.318	16753
494.393	15929
494.468	17761
494.543	18337
494.618	20793
494.693	20272
494.768	18283
494.842	19450
494.917	16549
494.992	19174
495.067	17814
495.142	16684
495.217	18531
495.292	18454
495.366	21061
495.441	25725
495.516	33644
495.591	58498
495.665	182034
495.740	441262
495.815	203585
495.890	31190
495.964	22547
496.039	22858
496.114	23041
496.188	23947
496.263	24582
496.338	21804
496.412	25886
496.487	29188
496.561	32279
496.636	35296
496.710	25612
496.785	28234
496.860	31935
496.934	27533
497.009	28211
497.083	28247
497.158	29360
497.232	34330
497.307	40831
497.381	35289
497.455	40091
497.530	50921
497.604	38057
497.679	40910
497.753	56995
497.827	75653
497.902	72276
497.976	85676
498.050	172367
498.125	530103
498.199	567637
498.273	122119
498.348	97100
498.422	80116
498.496	73929
498.570	65664
498.645	48851
498.719	44479
498.793	47687
498.867	65640
498.941	93720
499.016	225122
499.090	577241
499.164	212085
499.238	32488
499.312	29468
499.386	36886
499.460	32885
499.534	29144
499.609	32956
499.683	46414
499.757	48422
499.831	105667
499.905	369193
499.979	358531
500.053	58354
500.127	60094
500.201	51305
500.275	29709
500.349	27095
500.422	30769
500.496	50118
500.570	113853
500.644	228372
500.718	390747
500.792	92078
500.866	25960
500.940	31264
501.013	26541
501.087	26480
501.161	48628
501.235	70817
501.309	128493
501.382	330407
501.456	302359
501.530	71426
501.603	108449
501.677	44780
501.751	20339
501.825	27081
501.898	49481
501.972	132658
502.046	85672
502.119	29288
502.193	63828
502.266	147214
502.340	75039
502.413	65058
502.487	124400
502.561	74426
502.634	29269
502.708	24465
502.781	23892
502.855	19071
502.928	15637
503.002	16358
503.075	16556
503.149	17248
503.222	15802
503.295	17788
503.369	22687
503.442	35783
503.516	101199
503.589	251234
503.662	166785
503.736	55054
503.809	117830
503.882	107835
503.956	143889
504.029	158431
504.102	166522
504.175	229342
504.249	96799
504.322	43812
504.395	32300
504.468	22775
504.542	21084
504.615	17355
504.688	16319
504.761	16048
504.834	20816
504.907	27363
504.980	43329
505.053	23680
505.127	28071
505.200	30128
505.273	25716
505.346	17500
505.419	15310
505.492	13283
505.565	12127
505.638	12128
505.711	13573
505.784	12598
505.857	11346
505.930	13947
506.003	11688
506.076	14677
506.149	17756
506.221	23910
506.294	22482
506.367	57089
506.440	174871
506.513	100245
506.586	25349
506.659	16717
506.731	15568
506.804	20332
506.877	30068
506.950	20650
507.022	14592
507.095	18718
507.168	21949
507.241	16419
507.313	14918
507.386	17562
507.459	24832
507.531	16803
507.604	14262
507.677	13360
507.749	12549
507.822	18353
507.894	33769
507.967	37914
508.040	21621
508.112	18254
508.185	18088
508.257	18493
508.330	26407
508.402	18290
508.475	17155
508.547	18243
508.620	18774
508.692	27255
508.765	18639
508.837	14148
508.909	14468
508.982	14812
509.054	17609
509.127	17242
509.199	14408
509.271	13893
509.344	13728
509.416	12932
509.488	13523
509.560	14724
509.633	17158
509.705	20450
509.777	19122
509.849	26665
509.922	20037
509.994	13817
510.066	14482
510.138	16473
510.210	26804
510.283	26647
510.355	22304
510.427	19377
510.499	18769
510.571	19248
510.643	19769
510.715	30009
510.787	31692
510.859	19503
510.931	23598
511.003	29145
511.076	28972
511.148	16677
511.219	18934
511.291	25748
511.363	30364
511.435	16558
511.507	15641
511.579	15756
511.651	15273
511.723	15899
511.795	15799
511.867	16960
511.939	20417
512.010	37772
512.082	30594
512.154	18261
512.226	19096
512.298	24831
512.369	36984
512.441	28683
512.513	29569
512.585	25484
512.656	23363
512.728	25802
512.800	20231
512.871	17975
512.943	20033
513.015	17723
513.086	18897
513.158	22869
513.230	24611
513.301	35231
513.373	39607
513.444	23970
513.516	18800
513.588	19282
513.659	21772
513.731	28869
513.802	27964
513.874	50742
513.945	95333
514.016	38190
514.088	19218
514.159	22433
514.231	28968
514.302	35958
514.374	25775
514.445	25813
514.516	42621
514.588	35421
514.659	24414
514.730	40689
514.802	36320
514.873	32719
514.944	33032
515.016	28666
515.087	31301
515.158	34134
515.229	45112
515.301	34230
515.372	44314
515.443	33897
515.514	25762
515.585	21897
515.656	21682
515.728	19687
515.799	20112
515.870	20945
515.941	22084
516.012	22128
516.083	27589
516.154	30691
516.225	38945
516.296	37593
516.367	34021
516.438	40188
516.509	55453
516.580	99029
516.651	288902
516.722	938073
516.793	507060
516.864	71416
516.935	59854
517.006	71270
517.077	124206
517.148	313664
517.219	998857
517.289	1682447
517.360	435153
517.431	108066
517.502	39765
517.573	34885
517.643	33296
517.714	32996
517.785	34929
517.856	35303
517.926	41298
517.997	48462
518.068	68246
518.138	110745
518.209	222376
518.280	709507
518.350	2025125
518.421	1139495
518.492	139743
518.562	67107
518.633	64172
518.703	73467
518.774	126069
518.845	269359
518.915	275091
518.986	97950
519.056	60849
519.127	86309
519.197	126676
519.268	215978
519.338	137292
519.408	40916
519.479	51118
519.549	42318
519.620	25973
519.690	21644
519.760	21726
519.831	22444
519.901	23110
519.971	18980
520.042	21106
520.112	24425
520.182	27981
520.253	33449
520.323	24388
520.393	39544
520.463	66746
520.534	45766
520.604	92700
520.674	43357
520.744	39706
520.814	101306
520.885	102109
520.955	73057
521.025	212524
521.095	96213
521.165	20541
521.235	20021
521.305	17880
521.375	17362
521.445	21674
521.515	29379
521.585	32790
521.655	33338
521.725	25127
521.795	24254
521.865	18287
521.935	24570
522.005	23113
522.075	16271
522.145	17898
522.215	19934
522.285	27972
522.355	35631
522.424	62950
522.494	59040
522.564	38738
522.634	71311
522.704	196346
522.774	94042
522.843	21659
522.913	20536
522.983	27145
523.053	22858
523.122	23188
523.192	37419
523.262	108406
523.331	127997
523.401	26133
523.471	16626
523.540	18649
523.610	14203
523.680	14660
523.749	15434
523.819	19329
523.888	19198
523.958	15504
524.027	16401
524.097	17575
524.166	16740
524.236	20226
524.305	19383
524.375	15820
524.444	15125
524.514	16521
524.583	17136
524.653	21636
524.722	23097
524.791	18310
524.861	16446
524.930	17180
524.999	17473
525.069	25136
525.138	20213
525.207	22884
525.277	18928
525.346	18212
525.415	17757
525.484	18604
525.554	22459
525.623	21787
525.692	19717
525.761	21999
525.830	24673
525.900	32068
525.969	51588
526.038	101628
526.107	203363
526.176	551025
526.245	497899
526.314	165158
526.383	285509
526.452	441023
526.522	596382
526.591	675556
526.660	166606
526.729	82555
526.797	91527
526.867	201611
526.935	665576
527.004	1273384
527.073	835274
527.142	88198
527.211	35260
527.280	31268
527.349	32419
527.418	19663
527.487	18400
527.555	17351
527.624	16326
527.693	14575
527.762	15080
527.831	14809
527.899	14871
527.968	14698
528.037	16231
528.106	20257
528.174	36932
528.243	31655
528.312	38190
528.380	56517
528.449	20826
528.518	14993
528.586	11532
528.655	11594
528.723	12513
528.792	12328
528.861	14206
528.929	12009
528.998	11879
529.066	12114
529.135	11268
529.203	11019
529.272	12220
529.340	12807
529.409	13193
529.477	12728
529.545	16807
529.614	20194
529.682	20693
529.751	25500
529.819	24340
529.887	18949
529.956	13508
530.024	14575
530.092	14464
530.161	17040
530.229	29117
530.297	18672
530.365	14255
530.434	12140
530.502	11428
530.570	12462
530.638	11090
530.707	14514
530.775	15375
530.843	11777
530.911	12981
530.979	12352
531.047	11783
531.115	13875
531.183	11536
531.252	12559
531.320	12797
531.388	12736
531.456	12733
531.524	11547
531.592	13152
531.660	14962
531.728	12975
531.796	11832
531.864	11776
531.932	12923
532.000	13361
532.067	13641
532.135	15145
532.203	17646
532.271	20692
532.339	33405
532.407	88644
532.475	62465
532.542	23425
532.610	27854
532.678	46653
532.746	137518
532.814	361377
532.881	114032
532.949	21827
533.017	16926
533.084	14383
533.152	13827
533.220	14511
533.287	17952
533.355	14595
533.423	13586
533.490	12740
533.558	14019
533.625	14545
533.693	15547
533.761	14984
533.828	16220
533.896	17371
533.963	31421
534.031	42497
534.098	53466
534.166	30521
534.233	15541
534.300	15620
534.368	16891
534.435	17044
534.503	18213
534.570	22292
534.637	22358
534.705	24652
534.772	36435
534.840	74167
534.907	241789
534.974	359797
535.041	52338
535.109	22986
535.176	17059
535.243	15914
535.310	17467
535.378	16603
535.445	14335
535.512	14978
535.579	14887
535.646	14649
535.714	15000
535.781	17653
535.848	17658
535.915	17346
535.982	16011
536.049	15564
536.116	16888
536.183	16258
536.250	16807
536.317	18656
536.384	22413
536.451	30805
536.518	33423
536.585	25034
536.652	28622
536.719	39031
536.786	34151
536.853	26431
536.920	37053
536.987	59466
537.053	65028
537.120	169399
537.187	181610
537.254	24783
537.321	17485
537.388	18983
537.454	16238
537.521	15677
537.588	15424
537.654	18452
537.721	20733
537.788	19791
537.855	18437
537.921	17261
537.988	19083
538.055	17964
538.121	19023
538.188	22521
538.254	32687
538.321	61256
538.388	43192
538.454	20776
538.521	17917
538.587	17267
538.654	16634
538.720	16336
538.787	17070
538.853	18318
538.920	21747
538.986	22437
539.053	19023
539.119	19703
539.185	20536
539.252	22396
539.318	35553
539.385	27981
539.451	23674
539.517	24380
539.583	30020
539.650	53967
539.716	140151
539.782	52618
539.849	20101
539.915	19142
539.981	21389
540.047	25288
540.114	22482
540.180	21652
540.246	23827
540.312	32353
540.378	58791
540.444	67592
540.510	62677
540.576	155145
540.643	67105
540.709	19568
540.775	20082
540.841	20234
540.907	26444
540.973	41152
541.039	38105
541.105	38252
541.171	23689
541.237	20539
541.303	21578
541.369	25914
541.435	34193
541.500	51416
541.566	37334
541.632	19522
541.698	17347
541.764	17774
541.830	17371
541.896	18112
541.961	17438
542.027	20151
542.093	20415
542.159	21948
542.224	24851
542.290	34360
542.356	51574
542.421	60343
542.487	29541
542.553	20605
542.618	20981
542.684	20141
542.750	21142
542.815	26860
542.881	44362
542.947	126271
543.012	117008
543.078	21602
543.143	17343
543.209	19501
543.274	22189
543.340	27196
543.405	49584
543.471	90949
543.536	27375
543.602	18259
543.667	18684
543.732	17910
543.798	17090
543.863	17215
543.928	16769
543.994	16388
544.059	17048
544.124	17083
544.190	17915
544.255	19246
544.320	19379
544.386	21246
544.451	28128
544.516	35981
544.581	38090
544.646	79892
544.712	144095
544.777	35832
544.842	20995
544.907	21687
544.972	20685
545.037	19582
545.102	21657
545.168	21028
545.233	22393
545.298	24496
545.363	30143
545.428	36489
545.493	53613
545.558	113473
545.623	58535
545.688	23947
545.753	22060
545.818	22030
545.883	22670
545.947	23607
546.012	25188
546.077	25731
546.142	24982
546.207	26707
546.272	33609
546.337	37217
546.401	30101
546.466	28292
546.531	26160
546.596	28592
546.661	30213
546.725	28664
546.790	27141
546.855	28457
546.919	30265
546.984	33589
547.049	36384
547.113	41131
547.178	42721
547.243	47198
547.307	54975
547.372	60868
547.436	64642
547.501	59804
547.565	62997
547.630	66142
547.695	66968
547.759	64232
547.823	60520
547.888	58180
547.952	58817
548.017	61844
548.081	66929
548.146	70929
548.210	68241
548.274	66137
548.339	64235
548.403	59749
548.468	56851
548.532	56319
548.596	57270
548.660	58195
548.725	64296
548.789	72684
548.853	72420
548.917	65040
548.982	67909
549.046	66279
549.110	52666
549.174	52714
549.238	59878
549.303	62597
549.367	66947
549.431	62893
549.495	58869
549.559	61189
549.623	68137
549.687	77615
549.751	87724
549.815	88507
549.879	88650
549.943	80937
550.007	87047
550.071	88173
550.135	88187
550.199	79147
550.263	74805
550.327	72693
550.391	79595
550.455	80848
550.519	83938
550.582	90678
550.646	107025
550.710	114076
550.774	99597
550.838	100012
550.901	103474
550.965	112009
551.029	118178
551.093	133265
551.156	154389
551.220	197669
551.284	235299
551.347	164078
551.411	156384
551.475	163242
551.538	110944
551.602	100523
551.666	92206
551.729	88163
551.793	86512
551.856	85944
551.920	81981
551.983	82460
552.047	84189
552.110	82991
552.174	82793
552.237	85880
552.301	79700
552.364	77037
552.428	75064
552.491	78324
552.554	81986
552.618	81794
552.681	87094
552.745	91540
552.808	116497
552.871	153752
552.934	119316
552.998	90004
553.061	82558
553.124	78622
553.187	75201
553.251	78131
553.314	78092
553.377	77059
553.440	81585
553.503	87675
553.567	90415
553.630	82692
553.693	80259
553.756	81487
553.819	79874
553.882	77287
553.945	76601
554.008	76375
554.071	76708
554.134	77165
554.197	74163
554.260	72851
554.323	76432
554.386	76988
554.449	76874
554.512	77989
554.575	74531
554.638	74384
554.701	73360
554.764	73327
554.827	70746
554.889	67230
554.952	64888
555.015	62000
555.078	63852
555.141	65531
555.203	64232
555.266	64381
555.329	65136
555.391	62546
555.454	64175
555.517	62525
555.580	58876
555.642	56250
555.705	55257
555.768	55844
555.830	54645
555.893	51978
555.955	50357
556.018	50473
556.080	50387
556.143	51403
556.206	51602
556.268	52099
556.330	51813
556.393	51693
556.455	49308
556.518	53800
556.580	58020
556.643	44796
556.705	44003
556.767	43645
556.830	45278
556.892	47426
556.955	60336
557.017	53576
557.079	43082
557.142	42955
557.204	47573
557.266	69950
557.328	69977
557.391	38775
557.453	35883
557.515	36631
557.577	40901
557.639	44909
557.701	36448
557.764	34586
557.826	37007
557.888	40838
557.950	44689
558.012	54993
558.074	79581
558.136	144382
558.198	379942
558.260	175126
558.322	46261
558.384	42833
558.446	48584
558.508	57040
558.570	77859
558.632	122005
558.694	208488
558.756	274383
558.818	579907
558.880	1495141
558.942	657518
559.003	390153
559.065	236253
559.127	68644
559.189	73426
559.251	98429
559.312	160461
559.374	304289
559.436	950429
559.498	640322
559.559	95427
559.621	75854
559.683	103299
559.744	170494
559.806	426078
559.868	806378
559.929	195430
559.991	88676
560.052	130842
560.114	353763
560.176	299532
560.237	187908
560.299	370801
560.360	103935
560.422	31414
560.483	26549
560.545	26093
560.606	23675
560.667	23851
560.729	23222
560.790	21572
560.852	22254
560.913	21750
560.974	21088
561.036	20899
561.097	21350
561.158	22436
561.220	22742
561.281	21408
561.342	24759
561.403	28730
561.465	36638
561.526	67276
561.587	109089
561.648	37900
561.709	21336
561.771	21050
561.832	20033
561.893	20124
561.954	20188
562.015	18892
562.076	19158
562.137	19363
562.198	19322
562.259	20176
562.320	20999
562.381	23763
562.442	31605
562.503	29586
562.564	19064
562.625	19178
562.686	19688
562.747	21480
562.808	21151
562.869	18863
562.930	20272
562.991	21372
563.051	19333
563.112	18975
563.173	18782
563.234	17676
563.294	17905
563.355	18397
563.416	20195
563.477	19145
563.537	17735
563.598	20686
563.659	18835
563.720	19279
563.780	20456
563.841	21581
563.901	19366
563.962	18441
564.023	17783
564.083	18926
564.144	19332
564.204	19391
564.265	19685
564.325	22455
564.386	32845
564.446	34619
564.507	18533
564.567	18699
564.628	18411
564.688	17529
564.749	17924
564.809	20662
564.869	23045
564.930	19109
564.990	18371
565.050	17844
565.111	17837
565.171	17984
565.231	17544
565.292	18955
565.352	18079
565.412	18822
565.472	19264
565.532	21172
565.593	19838
565.653	19151
565.713	19783
565.773	22078
565.833	24249
565.893	32400
565.953	22523
566.013	20124
566.074	21518
566.134	24439
566.194	33615
566.254	39723
566.314	28562
566.374	21411
566.434	21237
566.494	21979
566.554	23093
566.614	23442
566.673	24216
566.733	25962
566.793	27006
566.853	27911
566.913	27367
566.973	28111
567.033	28944
567.092	30016
567.152	28919
567.212	29009
567.272	28070
567.331	31239
567.391	31145
567.451	34092
567.511	37506
567.570	39523
567.630	29336
567.690	27454
567.749	28009
567.809	29125
567.868	33403
567.928	37373
567.988	42818
568.047	51925
568.107	63973
568.166	86661
568.226	126658
568.285	177267
568.345	161384
568.404	129047
568.464	109545
568.523	101563
568.582	103691
568.642	116938
568.701	143155
568.761	196216
568.820	291168
568.879	307404
568.939	237193
568.998	175712
569.057	134249
569.116	104937
569.176	85172
569.235	71262
569.294	60348
569.353	53250
569.413	46809
569.472	42693
569.531	38146
569.590	34884
569.649	33376
569.708	30415
569.767	29861
569.827	33189
569.886	31285
569.945	24589
570.004	25385
570.063	24255
570.122	25193
570.181	25309
570.240	25104
570.299	25896
570.358	27152
570.417	21256
570.475	20189
570.534	21581
570.593	22098
570.652	22304
570.711	23386
570.770	20369
570.829	22107
570.887	21035
570.946	24720
571.005	19649
571.064	19364
571.122	21795
571.181	21807
571.240	19660
571.299	16939
571.357	17878
571.416	18345
571.475	18688
571.533	21264
571.592	18227
571.650	17994
571.709	17564
571.768	18408
571.826	19303
571.885	16099
571.943	16187
572.002	15514
572.060	16137
572.119	15804
572.177	14619
572.236	14410
572.294	14338
572.352	14682
572.411	15239
572.469	16055
572.528	15738
572.586	15569
572.644	16997
572.703	23068
572.761	18331
572.819	14577
572.877	14376
572.936	13651
572.994	13758
573.052	14092
573.110	14557
573.169	15296
573.227	13903
573.285	14018
573.343	14088
573.401	15106
573.459	13795
573.517	14116
573.576	14038
573.634	14882
573.692	15661
573.750	15962
573.808	14196
573.866	13877
573.924	18038
573.982	18287
574.040	14566
574.098	14079
574.155	13146
574.213	13003
574.271	13527
574.329	14329
574.387	13468
574.445	12747
574.503	11765
574.560	11906
574.618	11836
574.676	13044
574.734	12597
574.792	13005
574.849	13046
574.907	11374
574.965	11335
575.022	11617
575.080	11692
575.138	11985
575.195	11964
575.253	13048
575.311	14615
575.368	13386
575.426	10871
575.483	12596
575.541	12034
575.598	11320
575.656	13091
575.713	12721
575.771	12228
575.828	12453
575.886	12061
575.943	12338
576.001	12373
576.058	11936
576.115	13332
576.173	15032
576.230	17106
576.287	19086
576.345	16676
576.402	12135
576.459	13275
576.517	12639
576.574	14080
576.631	14101
576.688	13063
576.746	12216
576.803	11626
576.860	12538
576.917	11577
576.974	12056
577.031	12036
577.089	12511
577.146	13114
577.203	12557
577.260	13962
577.317	14152
577.374	15252
577.431	14266
577.488	13034
577.545	12611
577.602	12068
577.659	11604
577.716	11883
577.773	10832
577.830	10873
577.886	12011
577.943	11078
578.000	11609
578.057	11757
578.114	11900
578.171	12041
578.227	11799
578.284	11272
578.341	12327
578.398	13614
578.454	13272
578.511	13851
578.568	15075
578.625	13631
578.681	12035
578.738	11816
578.794	12070
578.851	12322
578.908	12701
578.964	13332
579.021	13191
579.077	12279
579.134	13033
579.190	12318
579.247	11603
579.303	12296
579.360	11583
579.416	12682
579.473	11617
579.529	11778
579.586	11561
579.642	12371
579.698	11743
579.755	12978
579.811	12534
579.867	12231
579.924	12207
579.980	12149
580.036	12624
580.093	11841
580.149	12294
580.205	12058
580.261	12468
580.317	13126
580.374	14144
580.430	15647
580.486	15581
580.542	14227
580.598	13958
580.619	13726
580.654	13338
580.692	12855
580.710	12636
580.765	14162
580.767	14223
580.823	13784
580.838	13639
580.879	13323
580.911	13456
580.935	13561
580.984	13214
580.991	13182
581.047	12749
581.057	12801
581.103	13107
581.130	13182
581.159	13286
581.203	13113
581.215	13063
581.270	13058
581.276	13032
581.326	12975
581.349	13160
581.382	13415
581.422	13234
581.438	13199
581.494	14175
581.494	14159
581.550	13269
581.567	13792
581.606	14987
581.640	15100
581.661	15123
581.713	13709
581.717	13616
581.773	13498
581.786	13520
581.829	13579
581.859	13343
581.885	13160
581.932	13903
581.940	14050
581.996	14043
582.004	14009
582.052	13777
582.077	14020
582.107	14350
582.150	13808
582.163	13640
582.219	13925
582.223	13906
582.274	13742
582.296	13864
582.330	14170
582.368	14913
582.386	15173
582.441	13875
582.441	13877
582.497	13692
582.514	13766
582.552	13828
582.587	13212
582.608	12909
582.659	13671
582.663	13726
582.719	13994
582.732	14189
582.774	14757
582.805	14331
582.830	14043
582.877	15118
582.885	15290
582.941	14417
582.950	14443
582.996	14521
583.023	14900
583.052	15457
583.095	15680
583.107	15693
583.162	15425
583.168	15460
583.218	15747
583.240	15622
583.273	15370
583.313	15053
583.328	15044
583.384	15155
583.385	15172
583.439	15497
583.458	15375
583.494	15106
583.531	15268
583.549	15359
583.603	15227
583.605	15219
583.660	15393
583.676	15408
583.715	15623
583.748	15840
583.770	15923
583.820	16242
583.825	16289
583.881	16290
583.893	16416
583.936	16731
583.965	16426
583.991	16083
584.038	15788
584.046	15790
584.101	16357
584.110	16481
584.156	16875
584.183	16821
584.211	16719
584.255	16833
584.266	16891
584.321	16374
584.328	16449
584.376	17221
584.400	17308
584.431	17298
584.472	17238
584.486	17254
584.541	17896
584.545	17913
584.596	17948
584.617	18265
584.651	18988
584.689	18737
584.706	18589
584.761	19401
584.762	19402
584.816	19486
584.834	19741
584.871	20087
584.906	20383
584.926	20716
584.978	20989
584.980	20993
585.035	21666
585.051	22018
585.090	23000
585.123	23547
585.145	23967
585.195	25024
585.200	25162
585.254	27610
585.267	28346
585.309	30649
585.340	33078
585.364	35082
585.412	39779
585.419	40518
585.473	51179
585.484	54026
585.528	67064
585.556	77990
585.583	92408
585.628	125011
585.637	138018
585.692	262227
585.700	295145
585.747	494150
585.772	467403
585.801	340029
585.845	149395
585.856	115027
585.910	52607
585.917	47256
585.965	39568
585.989	36546
586.019	34471
586.061	32953
586.074	32679
586.128	32721
586.133	32698
586.183	33071
586.205	33254
586.237	33301
586.277	33277
586.292	33191
586.346	33361
586.349	33372
586.401	34071
586.421	34390
586.455	34850
586.493	35327
586.509	36180
586.564	40274
586.565	40471
586.618	52006
586.637	54034
586.672	53784
586.709	48355
586.727	45351
586.781	44412
586.781	44422
586.835	42081
586.853	41797
586.889	41134
586.925	40373
586.944	40454
586.996	40610
586.998	40635
587.052	42379
587.068	42685
587.106	44030
587.140	45388
587.161	45642
587.212	46199
587.215	46336
587.269	48826
587.284	49526
587.323	50559
587.356	51743
587.377	53086
587.427	56081
587.431	56253
587.485	58629
587.499	58978
587.539	60709
587.571	62609
587.593	64014
587.643	67139
587.648	67561
587.702	72523
587.715	73723
587.755	77047
587.786	79247
587.810	81625
587.858	86965
587.864	87688
587.917	94989
587.930	96795
587.971	103834
588.001	108797
588.025	113501
588.073	123083
588.079	124546
588.133	137916
588.145	141158
588.187	153928
588.217	163583
588.241	173925
588.288	194559
588.295	197764
588.348	226868
588.360	233351
588.402	262406
588.431	284651
588.456	306774
588.503	353681
588.510	362034
588.564	435309
588.575	452411
588.617	533546
588.646	594993
588.671	666447
588.718	813640
588.725	846280
588.778	1113464
588.789	1171503
588.832	1504639
588.861	1725424
588.886	1894904
588.932	2113777
588.939	2095952
588.993	1856274
589.004	1844521
589.047	2004917
589.075	2072144
589.100	1951110
589.147	1619690
589.154	1569650
589.207	1173763
589.218	1097800
589.261	968695
589.290	895036
589.314	895020
589.361	912163
589.368	932831
589.421	1125438
589.433	1171670
589.475	1493477
589.504	1705290
589.528	1834182
589.576	1978215
589.582	1964688
589.635	1900403
589.647	1872922
589.689	1594720
589.718	1353099
589.742	1143363
589.790	742450
589.795	719676
589.849	520086
589.861	476871
589.902	401442
589.932	347939
589.955	320403
590.004	263779
590.009	259987
590.062	220843
590.075	211697
590.115	192449
590.146	177344
590.168	169536
590.218	153025
590.222	152033
590.275	138382
590.289	134716
590.328	127859
590.360	122341
590.381	118711
590.431	109921
590.435	109558
590.488	102226
590.503	100170
590.541	96342
590.574	92914
590.594	91208
590.645	86786
590.647	86698
590.700	82181
590.716	80807
590.753	78582
590.787	76384
590.806	75458
590.859	72927
590.859	72956
590.912	70156
590.930	69276
590.965	68028
591.001	66705
591.018	66107
591.071	63848
591.072	63760
591.124	62880
591.143	62323
591.177	61335
591.214	60415
591.230	60369
591.283	59838
591.285	59756
591.336	59726
591.356	59534
591.389	59049
591.427	58367
591.442	57390
591.495	53336
591.498	52988
591.547	52460
591.569	52177
591.600	52219
591.640	52084
591.653	51976
591.706	51218
591.711	51087
591.759	51249
591.782	51177
591.811	51807
591.853	52643
591.864	52544
591.917	51567
591.924	51343
591.969	50267
591.995	49614
592.022	48992
592.066	47711
592.075	48029
592.127	49677
592.137	49928
592.180	51249
592.208	51949
592.233	51392
592.279	50019
592.285	49845
592.338	47836
592.350	47313
592.390	47146
592.421	46903
592.443	46905
592.491	46699
592.495	46737
592.548	46321
592.562	46142
592.600	45465
592.633	44764
592.653	44908
592.704	44882
592.705	45147
592.775	45569
592.846	46478
592.916	46350
592.987	47808
593.058	46350
593.128	44229
593.199	43005
593.270	43435
593.341	42611
593.411	43649
593.482	44407
593.553	45583
593.623	43651
593.694	44551
593.764	44471
593.835	46384
593.906	44671
593.976	44984
594.047	46579
594.117	48209
594.188	50409
594.258	47617
594.329	45048
594.399	45969
594.470	46309
594.540	46469
594.611	48604
594.681	47651
594.751	47597
594.822	48545
594.892	51002
594.963	52186
595.033	51730
595.103	52526
595.174	53576
595.244	57860
595.314	66132
595.384	58645
595.455	55654
595.525	56259
595.595	57363
595.665	58954
595.736	56299
595.806	57188
595.876	57593
595.946	58186
596.016	57898
596.087	61361
596.157	61395
596.227	60990
596.297	62422
596.367	65235
596.437	69137
596.507	73277
596.577	78633
596.647	75014
596.717	72388
596.787	74242
596.857	73450
596.927	74529
596.997	75112
597.067	74389
597.137	75036
597.207	77380
597.277	76334
597.347	74649
597.417	73009
597.487	72657
597.557	73602
597.626	74810
597.696	75931
597.766	77824
597.836	81855
597.906	74532
597.975	68205
598.045	67221
598.115	68446
598.185	72681
598.254	79493
598.324	86549
598.394	91114
598.464	89665
598.533	86678
598.603	83233
598.672	78621
598.742	80058
598.812	80141
598.881	80987
598.951	80383
599.020	80155
599.090	82645
599.159	85631
599.229	83440
599.299	80514
599.368	80663
599.437	82335
599.507	78335
599.576	74620
599.646	72862
599.715	72838
599.785	71260
599.854	71309
599.924	70465
599.993	70522
600.062	69701
600.132	70529
600.201	72890
600.270	82214
600.340	89080
600.409	87546
600.478	86365
600.547	87612
600.617	87284
600.686	72220
600.755	64071
600.824	61843
600.894	59918
600.963	58251
601.032	57075
601.101	57351
601.170	54993
601.239	52437
601.308	53814
601.378	55567
601.447	53033
601.516	53176
601.585	54202
601.654	57164
601.723	55664
601.792	55965
601.861	56839
601.930	57968
601.999	62551
602.068	61168
602.137	62458
602.206	65161
602.275	62291
602.343	63937
602.412	66208
602.481	63346
602.550	60904
602.619	63731
602.688	64054
602.756	65950
602.825	64691
602.894	65218
602.963	67160
603.032	67420
603.100	68915
603.169	68211
603.238	67938
603.307	67879
603.375	70047
603.444	70510
603.513	71168
603.581	71859
603.650	74428
603.719	71818
603.787	70935
603.856	76323
603.924	76129
603.993	78619
604.061	79077
604.130	84421
604.198	85642
604.267	86262
604.335	86570
604.404	88048
604.472	89892
604.541	90267
604.609	92709
604.678	92321
604.746	93248
604.815	95462
604.883	97596
604.951	97062
605.020	95787
605.088	100256
605.156	99320
605.225	102978
605.293	102064
605.361	102557
605.429	104865
605.498	105288
605.566	107614
605.634	112902
605.702	115609
605.771	118583
605.839	120385
605.907	119008
605.975	115568
606.043	111655
606.111	111355
606.180	111873
606.248	110973
606.316	108779
606.384	109829
606.452	112070
606.520	114455
606.588	117976
606.656	115914
606.724	115321
606.792	109676
606.860	102173
606.928	89635
606.996	85490
607.064	82977
607.132	83705
607.200	87365
607.267	93467
607.335	93151
607.403	95195
607.471	96097
607.539	90462
607.607	94065
607.674	84471
607.742	81818
607.810	82244
607.878	82826
607.946	82923
608.013	85024
608.081	89025
608.149	89436
608.216	90724
608.284	93436
608.352	93973
608.419	94604
608.487	94924
608.555	92432
608.622	92304
608.690	95567
608.757	104746
608.825	112100
608.893	109750
608.960	106650
609.028	104635
609.095	103898
609.163	100754
609.230	91782
609.298	81845
609.365	82657
609.432	90843
609.500	94768
609.567	106959
609.635	120923
609.702	135558
609.769	134493
609.837	116625
609.904	93510
609.971	94494
610.039	104885
610.106	129794
610.173	212285
610.241	498944
610.308	629428
610.375	273541
610.442	131218
610.509	99793
610.577	92712
610.644	92854
610.711	95653
610.778	98305
610.845	98981
610.912	104335
610.980	109351
611.047	110394
611.114	110288
611.181	107392
611.248	105484
611.315	109048
611.382	111194
611.449	115449
611.516	117658
611.583	118824
611.650	117829
611.717	119843
611.784	122884
611.851	129770
611.918	140248
611.984	162295
612.051	213455
612.118	369246
612.185	899008
612.252	1206233
612.319	291859
612.386	166796
612.452	150454
612.519	139839
612.586	136249
612.653	136973
612.719	136454
612.786	137218
612.853	126694
612.919	119197
612.986	122422
613.053	118148
613.120	110516
613.186	104817
613.253	106904
613.319	105461
613.386	106045
613.453	108059
613.519	111797
613.586	112304
613.652	121819
613.719	118536
613.785	116891
613.852	111256
613.918	108911
613.985	109352
614.051	112659
614.118	114775
614.184	114035
614.250	107293
614.317	109671
614.383	109371
614.449	109738
614.516	110564
614.582	110473
614.648	111105
614.715	106596
614.781	106501
614.847	104752
614.914	108241
614.980	105786
615.046	102799
615.112	104114
615.179	107581
615.245	109531
615.311	115451
615.377	130441
615.443	156857
615.509	128487
615.575	118946
615.642	117699
615.708	117700
615.774	125174
615.840	137240
615.906	153527
615.972	191651
616.038	290680
616.104	520519
616.170	1043760
616.236	1711940
616.302	485315
616.368	224567
616.434	173805
616.500	143093
616.565	144261
616.631	178591
616.697	173392
616.763	154505
616.829	194516
616.895	343484
616.961	460056
617.026	243069
617.092	129408
617.158	116229
617.224	112786
617.289	106709
617.355	99851
617.421	97905
617.487	98390
617.552	94002
617.618	89881
617.684	91886
617.749	93130
617.815	90425
617.880	86741
617.946	84932
618.012	87096
618.077	89838
618.143	87287
618.208	85350
618.274	88921
618.339	94768
618.405	83551
618.470	77521
618.536	78460
618.601	78541
618.667	76345
618.732	71141
618.798	68670
618.863	69821
618.928	69421
618.994	70131
619.059	70378
619.124	78006
619.190	77146
619.255	68484
619.320	66753
619.386	67956
619.451	67825
619.516	66423
619.581	66491
619.647	67878
619.712	68765
619.777	66839
619.842	66127
619.907	67180
619.972	67962
620.038	69906
620.103	67210
620.168	65145
620.233	66283
620.298	67462
620.363	66956
620.428	67785
620.493	68823
620.558	71687
620.623	70365
620.688	72300
620.753	70715
620.818	72080
620.883	73195
620.948	72316
621.013	71827
621.078	71185
621.143	70686
621.207	74092
621.272	71471
621.337	72321
621.402	71387
621.467	72007
621.532	75568
621.596	72247
621.661	70729
621.726	68016
621.791	67873
621.855	68926
621.920	69815
621.985	70621
622.049	71560
622.114	72029
622.179	72208
622.243	72843
622.308	74911
622.373	75783
622.437	77447
622.502	73484
622.566	70958
622.631	71787
622.695	72224
622.760	73193
622.824	72007
622.889	73328
622.953	72523
623.018	81398
623.082	93286
623.147	80002
623.211	75974
623.276	74735
623.340	73681
623.404	69416
623.469	69472
623.533	69460
623.597	68297
623.662	67569
623.726	65276
623.790	62305
623.854	58804
623.919	60637
623.983	59811
624.047	61972
624.111	62056
624.176	62961
624.240	63274
624.304	67776
624.368	64922
624.432	62425
624.496	62726
624.560	67315
624.625	72286
624.689	69011
624.753	67805
624.817	66982
624.881	62383
624.945	62035
625.009	56595
625.073	59487
625.137	59708
625.201	66686
625.265	71369
625.329	62109
625.393	61550
625.456	62838
625.520	61957
625.584	65900
625.648	67722
625.712	74492
625.776	93483
625.839	114963
625.903	88860
625.967	55123
626.031	58881
626.095	78571
626.158	73898
626.222	52104
626.286	45046
626.349	44294
626.413	41561
626.477	41784
626.540	41613
626.604	41129
626.668	38900
626.731	39813
626.795	40218
626.858	41059
626.922	40306
626.986	38822
627.049	38422
627.113	39545
627.176	39637
627.240	38835
627.303	37888
627.366	38172
627.430	37528
627.493	39219
627.557	38181
627.620	38205
627.684	39105
627.747	39290
627.810	37643
627.874	35922
627.937	32721
628.000	34930
628.064	34484
628.127	32144
628.190	30453
628.253	30059
628.317	29837
628.380	28122
628.443	27715
628.506	27507
628.569	26521
628.632	25317
628.696	24951
628.759	25239
628.822	23493
628.885	24323
628.948	23557
629.011	23541
629.074	23316
629.137	23333
629.200	22152
629.263	23329
629.326	22261
629.389	22227
629.452	21082
629.515	22353
629.578	21731
629.641	22885
629.704	21821
629.767	22687
629.830	21198
629.892	21412
629.955	20729
630.018	22066
630.081	21118
630.144	25952
630.207	24352
630.269	21584
630.332	20988
630.395	21086
630.458	19717
630.520	19522
630.583	19585
630.646	19173
630.708	19922
630.771	19191
630.834	19935
630.896	19460
630.959	19198
631.021	18771
631.084	19756
631.146	19512
631.209	21339
631.272	20195
631.334	19362
631.397	19998
631.459	19792
631.522	21357
631.584	21064
631.646	22378
631.709	23196
631.771	25854
631.834	26473
631.896	23078
631.958	20215
632.021	19718
632.083	18448
632.145	19672
632.208	18700
632.270	18842
632.332	18401
632.395	17984
632.457	18332
632.519	18678
632.581	17558
632.643	17431
632.706	18480
632.768	17303
632.830	17395
632.892	19051
632.954	17530
633.016	18098
633.078	17919
633.141	18068
633.203	17223
633.265	17902
633.327	17093
633.389	18179
633.451	17734
633.513	20399
633.575	21170
633.637	21268
633.698	20891
633.760	19922
633.822	19794
633.884	19681
633.946	19530
634.008	20027
634.070	19680
634.132	21379
634.193	23046
634.255	25615
634.317	26659
634.379	26303
634.441	24702
634.502	22748
634.564	20087
634.626	19447
634.687	18809
634.749	18236
634.811	17850
634.873	16522
634.934	17197
634.996	16826
635.057	16746
635.119	17044
635.181	16808
635.242	18666
635.304	16540
635.365	18637
635.427	17249
635.488	17559
635.550	17555
635.611	16909
635.673	16274
635.734	18077
635.796	19205
635.857	20541
635.918	21070
635.980	23059
636.041	24337
636.102	26257
636.164	27735
636.225	26717
636.286	24785
636.348	22472
636.409	19564
636.470	17955
636.531	17082
636.593	17688
636.654	17236
636.715	17001
636.776	14969
636.838	14377
636.899	15292
636.960	15856
637.021	13523
637.082	13908
637.143	14508
637.204	13763
637.265	13391
637.326	14868
637.387	13694
637.448	13767
637.509	14082
637.570	14712
637.631	14252
637.692	13795
637.753	13579
637.814	13316
637.875	12976
637.936	14108
637.997	13089
638.058	13979
638.119	14287
638.179	13551
638.240	13075
638.301	13065
638.362	12656
638.423	13030
638.483	12862
638.544	11668
638.605	12093
638.666	11754
638.726	12649
638.787	12912
638.848	11140
638.908	11832
638.969	11449
639.030	12613
639.090	11933
639.151	12448
639.211	12095
639.272	14803
639.332	18269
639.393	19391
639.453	12977
639.514	13750
639.574	12748
639.635	11626
639.695	11477
639.756	11851
639.816	11577
639.877	12714
639.937	15713
639.997	22792
640.058	16321
640.118	12101
640.178	10804
640.239	10925
640.299	10157
640.359	11145
640.420	11603
640.480	12619
640.540	14466
640.600	15230
640.661	13535
640.721	12726
640.781	14274
640.841	13775
640.901	12591
640.961	11957
641.021	11593
641.082	13111
641.142	15539
641.202	15587
641.262	10664
641.322	11311
641.382	10251
641.442	10786
641.502	10020
641.562	10846
641.622	10682
641.682	11983
641.742	11620
641.802	12472
641.861	11361
641.921	11441
641.981	11830
642.041	12772
642.101	12450
642.161	13626
642.221	9913
642.280	9771
642.340	8556
642.400	10174
642.460	10134
642.519	9886
642.579	9581
642.639	10186
642.698	9396
642.758	11476
642.818	10311
642.877	10055
642.937	10670
642.997	11757
643.056	14220
643.116	13690
643.175	10628
643.235	11639
643.294	11444
643.354	12497
643.414	13981
643.473	16786
643.532	20047
643.592	27661
643.651	41854
643.711	70233
643.770	122263
643.830	242234
643.889	721683
643.948	578766
644.008	66290
644.067	26725
644.126	19183
644.186	16593
644.245	14356
644.304	12222
644.363	11699
644.423	10640
644.482	11253
644.541	11621
644.600	11050
644.659	14963
644.719	17522
644.778	23824
644.837	36784
644.896	66820
644.955	169460
645.014	177376
645.073	26510
645.132	13860
645.191	13046
645.250	12315
645.309	11744
645.368	11894
645.427	15239
645.486	19015
645.545	39481
645.604	30347
645.663	11736
645.722	11160
645.781	12693
645.840	14482
645.898	17710
645.957	25632
646.016	38341
646.075	63688
646.134	111587
646.192	231440
646.251	654746
646.310	312360
646.369	37786
646.427	21610
646.486	18568
646.545	14691
646.603	12450
646.662	10960
646.721	9974
646.779	11435
646.838	10021
646.896	13196
646.955	16169
647.014	23401
647.072	37852
647.131	89852
647.189	136708
647.248	24765
647.306	10817
647.365	9260
647.423	7473
647.481	9499
647.540	6794
647.598	9151
647.657	7100
647.715	7890
647.773	6802
647.832	7627
647.890	6666
647.948	7042
648.007	7231
648.065	6867
648.123	5961
648.181	7838
648.240	6184
648.298	6870
648.356	5900
648.414	7067
648.472	7149
648.531	6835
648.589	6023
648.647	7286
648.705	6630
648.763	6942
648.821	7744
648.879	8028
648.937	8315
648.995	10678
649.053	13397
649.111	19031
649.169	29066
649.227	50888
649.285	90532
649.343	240507
649.401	374855
649.459	65181
649.516	30215
649.574	14429
649.632	12078
649.690	13211
649.748	13763
649.806	17409
649.863	28718
649.921	58359
649.979	112399
650.037	26859
650.094	7826
650.152	7226
650.210	5421
650.268	6018
650.325	5733
650.383	6576
650.440	4656
650.498	6475
650.556	5763
650.613	4933
650.671	5599
650.728	5597
650.786	5810
650.843	6644
650.901	6579
650.958	5526
651.016	4518
651.073	4941
651.131	4521
651.188	4438
651.246	4452
651.303	4259
651.360	5343
651.418	4527
651.475	4668
651.532	4198
651.590	4879
651.647	4441
651.704	3956
651.762	4794
651.819	4801
651.876	4545
651.933	4310
651.990	5008
652.048	3609
652.105	4233
652.162	4474
652.219	4084
652.276	3726
652.333	4142
652.390	3933
652.448	4236
652.505	3739
652.562	3756
652.619	3139
652.676	4219
652.733	4585
652.790	3837
652.847	3294
652.904	3723
652.961	3462
653.017	3879
653.074	4136
653.131	4027
653.188	3526
653.245	3661
653.302	3904
653.359	3689
653.415	2778
653.472	3517
653.529	3533
653.586	3286
653.642	3445
653.699	4654
653.756	3867
653.813	3719
653.869	3505
653.926	4210
653.983	3737
654.039	3608
654.096	3897
654.152	4492
654.209	2923
654.266	4255
654.322	2763
654.379	4487
654.435	4489
654.492	4855
654.548	4217
654.605	7727
654.661	7375
654.717	4053
654.774	3496
654.830	3542
654.887	3622
654.943	3607
655.000	4349
655.056	4800
655.112	3707
655.168	3497
655.225	4074
655.281	4369
655.337	3913
655.394	6391
655.450	6407
655.506	5102
655.562	4341
655.618	7716
655.675	3830
655.731	4514
655.787	3024
655.843	4148
655.899	3300
655.955	4258
656.011	3177
656.067	3583
656.123	3329
656.179	4821
656.235	3949
656.291	3712
656.347	4974
656.403	4518
656.459	3728
656.515	4386
656.571	4524
656.627	4315
656.683	2696
656.739	4951
656.795	3554
656.850	3679
656.906	4954
656.962	5069
657.018	3026
657.074	3884
657.129	5060
657.185	6368
657.241	8867
657.297	14573
657.352	5765
657.408	2680
657.464	3592
657.519	4147
657.575	2403
657.630	3899
657.686	2072
657.742	3390
657.797	2914
657.853	3451
657.908	4204
657.964	2579
658.019	3549
658.075	3549
658.130	3681
658.186	3839
658.241	3171
658.297	2860
658.352	2325
658.407	3496
658.463	2625
658.518	3087
658.573	2787
658.629	3335
658.684	2881
658.739	3784
658.795	2275
658.850	3673
658.905	1913
658.960	3947
659.016	2853
659.071	2689
659.126	2876
659.181	2839
659.236	5312
659.291	7249
659.346	4882
659.401	4148
659.457	3434
659.512	3131
659.567	3302
659.622	3321
659.677	2625
659.732	2180
659.787	3247
659.842	3008
659.897	3788
659.952	3759
660.007	3250
660.061	2318
660.116	2361
660.171	3370
660.226	2158
660.281	3388
660.336	2085
660.391	3476
660.445	3337
660.500	2331
660.555	3459
660.610	2982
660.664	3079
660.719	3021
660.774	2938
660.828	3577
660.883	2800
660.938	3542
660.992	2294
661.047	3577
661.101	2684
661.156	2738
661.211	1708
661.265	2530
661.320	2656
661.374	3074
661.429	1714
661.483	3601
661.538	2793
661.592	2196
661.647	2427
661.701	3288
661.755	2301
661.810	3391
661.864	1994
661.919	2240
661.973	2652
662.027	3086
662.081	1953
662.136	2378
662.190	2265
662.244	3647
662.299	2318
662.353	3176
662.407	2205
662.461	3074
662.515	3166
662.569	2426
662.624	3192
662.678	3583
662.732	3021
662.786	2896
662.840	2194
662.894	2727
662.948	2533
663.002	2304
663.056	2476
663.110	2867
663.164	2543
663.218	3256
663.272	2579
663.326	3062
663.380	2651
663.434	3648
663.488	1944
663.542	3497
663.595	2572
663.649	3436
663.703	2906
663.757	3229
663.811	1286
663.864	2935
663.918	2443
663.972	2370
664.026	3115
664.079	2392
664.133	2581
664.187	3580
664.240	1981
664.294	2778
664.348	3543
664.401	3242
664.455	2776
664.508	3671
664.562	3301
664.615	3731
664.669	2120
664.722	3136
664.776	2000
664.829	2724
664.883	2709
664.936	3199
664.990	2712
665.043	3047
665.097	2754
665.150	3654
665.203	2810
665.257	3453
665.310	2907
665.363	3421
665.417	2501
665.470	3175
665.523	2805
665.576	3083
665.630	1684
665.683	3368
665.736	3375
665.789	3779
665.842	2769
665.895	3443
665.949	3059
666.002	3080
666.055	2725
666.108	3817
666.161	3684
666.214	3744
666.267	3137
666.320	3698
666.373	3705
666.426	3651
666.479	1777
666.532	3575
666.585	2534
666.638	4690
666.691	2706
666.744	4312
666.796	3323
666.849	3393
666.902	3676
666.955	3033
667.008	2561
667.060	3512
667.113	2422
667.166	3097
667.219	2270
667.271	2616
667.324	3450
667.377	3527
667.430	3192
667.482	3288
667.535	2987
667.587	3682
667.640	3767
667.693	3672
667.745	4141
667.798	7877
667.850	5259
667.903	3390
667.955	3621
668.008	3307
668.060	2756
668.113	3806
668.165	3060
668.218	3732
668.270	3299
668.322	3686
668.375	2800
668.427	4174
668.479	2747
668.532	3313
668.584	2656
668.636	3000
668.689	4102
668.741	3700
668.793	3395
668.845	2903
668.898	3423
668.950	2682
669.002	3209
669.054	3491
669.106	2366
669.158	3690
669.211	2796
669.263	3623
669.315	3345
669.367	3848
669.419	3833
669.471	4768
669.523	3960
669.575	6109
669.627	5395
669.679	4331
669.731	3596
669.783	5389
669.835	4609
669.886	5084
669.938	4021
669.990	4363
670.042	4261
670.094	5075
670.146	4738
670.197	6052
670.249	7460
670.301	9049
670.353	12679
670.404	18049
670.456	24239
670.508	38192
670.560	56810
670.611	92225
670.663	148536
670.715	272984
670.766	642293
670.818	615717
670.869	146109
670.921	37448
670.972	21746
671.024	15190
671.075	11332
671.127	9552
671.178	7291
671.230	7172
671.281	6735
671.333	6693
671.384	5969
671.436	7539
671.487	7635
671.538	9897
671.590	11694
671.641	17667
671.692	25243
671.744	51664
671.795	75296
671.846	35134
671.897	12344
671.949	8711
672.000	6115
672.051	5523
672.102	3661
672.153	3905
672.204	4236
672.256	3906
672.307	4503
672.358	3378
672.409	4071
672.460	4062
672.511	3277
672.562	3276
672.613	2620
672.664	3622
672.715	3183
672.766	3560
672.817	3514
672.868	3382
672.919	2501
672.970	2779
673.021	3366
673.071	3321
673.122	2793
673.173	3281
673.224	2512
673.275	3438
673.326	2655
673.376	3365
673.427	2442
673.478	2788
673.528	2597
673.579	2945
673.630	2175
673.680	3365
673.731	2266
673.782	2545
673.832	2837
673.883	3634
673.934	2500
673.984	2745
674.035	2067
674.085	3113
674.136	2496
674.186	2828
674.237	3402
674.287	3887
674.338	4669
674.388	2911
674.438	2366
674.489	3439
674.539	3106
674.589	3371
674.640	3002
674.690	4043
674.740	2099
674.791	3450
674.841	3259
674.891	3334
674.942	2292
674.992	3102
675.042	2117
675.092	2924
675.142	2783
675.193	2347
675.243	2047
675.293	2999
675.343	2529
675.393	1753
675.443	2999
675.493	2523
675.543	1519
675.593	2874
675.643	2747
675.693	3027
675.743	2363
675.793	2579
675.843	1398
675.893	2914
675.943	2518
675.993	2145
676.043	2058
676.093	2375
676.142	977
676.192	3016
676.242	2233
676.292	1792
676.341	2321
676.391	2700
676.441	1906
676.491	2264
676.540	1832
676.590	2596
676.640	1736
676.689	1953
676.739	1684
676.789	2132
676.838	2335
676.888	2026
676.937	1867
676.987	2193
677.037	1311
677.086	1969
677.136	1624
677.185	2185
677.235	1730
677.284	2000
677.333	1346
677.383	1999
677.432	1189
677.482	1489
677.531	1758
677.580	1599
677.630	1646
677.679	1974
677.728	1304
677.778	2275
677.827	1614
677.876	1760
677.925	1112
677.975	1562
678.024	1807
678.073	1688
678.122	1549
678.171	1812
678.220	1551
678.269	2642
678.319	2537
678.368	2146
678.417	2531
678.466	3259
678.515	1171
678.564	1881
678.613	1439
678.662	2578
678.711	1613
678.760	2058
678.809	1643
678.857	1895
678.906	2144
678.955	1990
679.004	2013
679.053	2414
679.102	1073
679.151	2236
679.199	1431
679.248	1869
679.297	1807
679.346	1501
679.394	1083
679.443	1669
679.492	1203
679.540	1906
679.589	1167
679.638	2476
679.686	2260
679.735	1773
679.784	1706
679.832	2177
679.881	1615
679.929	1800
679.978	1258
680.026	1263
680.075	2032
680.123	2042
680.172	1043
680.220	1511
680.268	1213
680.317	1222
680.365	2257
680.414	1900
680.462	1364
680.510	1556
680.559	2276
680.607	1217
680.655	982
680.703	1695
680.752	1222
680.800	2180
680.848	1182
680.896	1635
680.945	626
680.993	2020
681.041	1167
681.089	1686
681.137	1338
681.185	1004
681.233	1442
681.258	1583
681.281	1707
681.329	1429
681.377	1473
681.380	1451
681.425	816
681.473	1793
681.502	1620
681.521	1487
681.569	2015
681.617	1404
681.624	1414
681.665	1387
681.713	1252
681.745	1901
681.761	2193
681.809	682
681.857	1220
681.867	1232
681.904	1249
681.952	2944
681.989	1844
682.000	1487
682.048	2066
682.096	1510
682.111	1660
682.143	1993
682.191	1554
682.233	1785
682.239	1799
682.286	1653
682.334	1730
682.354	1502
682.382	1186
682.430	1975
682.476	1802
682.477	1788
682.525	1552
682.572	1387
682.598	1785
682.620	2103
682.667	1687
682.715	2273
682.720	2178
682.763	1241
682.810	2196
682.841	1672
682.857	1380
682.905	2039
682.952	1456
682.963	1525
683.000	1711
683.047	1493
683.085	1990
683.095	2120
683.142	1191
683.190	1601
683.206	1578
683.237	1495
683.284	2427
683.328	1947
683.332	1898
683.379	2422
683.426	2134
683.449	1726
683.473	1299
683.521	1789
683.568	2658
683.571	2630
683.615	2143
683.662	2717
683.693	2020
683.709	1624
683.757	2328
683.804	2149
683.814	2296
683.851	2739
683.898	2127
683.936	2379
683.945	2437
683.992	2295
684.039	2234
684.057	2428
684.086	2741
684.133	3419
684.179	2668
684.180	2635
684.227	2464
684.274	3200
684.300	2789
684.321	2429
684.368	2676
684.415	2718
684.422	2652
684.462	2242
684.509	2647
684.543	2511
684.556	2450
684.603	2704
684.649	2939
684.665	3180
684.696	3670
684.743	2688
684.786	2626
684.790	2623
684.837	2446
684.883	2240
684.908	2801
684.930	3266
684.977	3443
685.023	3022
685.029	3004
685.070	2779
685.117	2569
685.150	2689
685.164	2784
685.210	3047
685.257	3544
685.272	3586
685.303	3533
685.350	3110
685.393	3221
685.396	3230
685.443	3251
685.490	3229
685.514	3551
685.536	3841
685.583	3659
685.629	3450
685.636	3327
685.675	2391
685.722	3638
685.757	3165
685.768	3062
685.815	3341
685.861	2850
685.878	3299
685.908	4009
685.954	3766
686.000	3755
686.000	3753
686.047	3405
686.093	4453
686.121	4173
686.139	3979
686.185	4202
686.232	3745
686.242	3832
686.278	3925
686.324	4177
686.363	4131
686.370	4147
686.416	2957
686.463	3453
686.484	3398
686.509	3326
686.555	3359
686.601	3199
686.606	3287
686.647	4063
686.693	3825
686.727	3857
686.739	3879
686.785	3669
686.831	3632
686.848	3428
686.877	2934
686.923	3518
686.969	2757
686.969	2755
687.015	2998
687.061	3687
687.090	3867
687.107	3887
687.153	4264
687.199	4022
687.211	3864
687.245	3325
687.291	3570
687.332	3227
687.336	3218
687.382	4020
687.428	3423
687.453	3709
687.474	3886
687.520	3481
687.565	3999
687.574	3971
687.611	3832
687.657	4306
687.695	3836
687.702	3770
687.748	3968
687.794	4187
687.816	4279
687.839	4395
687.885	4203
687.931	4410
687.937	4354
687.976	3855
688.022	4392
688.058	4002
688.067	3938
688.113	3937
688.158	3953
688.179	4124
688.204	4251
688.249	3458
688.295	3885
688.300	3915
688.340	4202
688.386	3826
688.421	3992
688.431	4082
688.477	3832
688.522	3870
688.542	4380
688.567	4943
688.613	4045
688.658	4636
688.663	4566
688.703	4164
688.749	4321
688.784	4654
688.794	4710
688.839	4324
688.884	4608
688.905	4465
688.930	4316
688.975	4447
689.020	4640
689.026	4598
689.065	4357
689.110	4884
689.146	4504
689.155	4397
689.201	4081
689.246	4420
689.267	4416
689.291	4525
689.336	4470
689.381	4625
689.388	4544
689.426	3990
689.471	4667
689.509	4269
689.516	4233
689.561	4391
689.606	4022
689.630	4242
689.651	4401
689.696	4186
689.741	4654
689.750	4542
689.785	4103
689.830	4751
689.871	4252
689.875	4216
689.920	4073
689.965	4344
689.992	4296
690.010	4300
690.054	4274
690.099	4529
690.112	4583
690.144	4721
690.189	4845
690.233	4534
690.233	4538
690.278	4491
690.323	4368
690.354	4182
690.367	4210
690.412	4001
690.457	4484
690.474	4523
690.501	4441
690.546	4921
690.590	4312
690.595	4336
690.635	4786
690.680	4356
690.716	4918
690.724	5006
690.769	4105
690.813	5012
690.836	4491
690.857	4206
690.902	4775
690.946	4610
690.957	4689
690.991	4857
691.035	4572
691.077	5210
691.080	5263
691.124	5183
691.168	5581
691.198	5671
691.213	5587
691.257	5763
691.301	4951
691.318	4886
691.346	4970
691.390	4975
691.434	5022
691.439	5006
691.478	4908
691.522	5286
691.559	4919
691.567	4874
691.611	5549
691.655	5074
691.680	5436
691.699	5593
691.743	5063
691.787	5015
691.800	4860
691.831	4883
691.875	5229
691.919	5241
691.921	5254
691.964	5810
692.008	5760
692.041	5669
692.052	5628
692.096	5517
692.139	5466
692.162	5490
692.183	5644
692.227	6041
692.271	5678
692.282	5724
692.315	5694
692.359	5603
692.402	5676
692.403	5688
692.447	5412
692.490	5237
692.523	4997
692.534	4974
692.578	5557
692.622	5453
692.643	5532
692.666	5651
692.709	5521
692.753	5698
692.763	5643
692.797	5399
692.840	5681
692.884	5500
692.884	5511
692.928	5458
692.971	5083
693.004	5410
693.015	5560
693.059	5613
693.102	5842
693.124	5701
693.146	5501
693.189	5566
693.233	5288
693.245	5290
693.276	5531
693.320	5654
693.363	5777
693.365	5769
693.407	5776
693.450	5862
693.485	5714
693.493	5705
693.537	5820
693.580	5926
693.605	5836
693.624	5732
693.667	5852
693.710	5731
693.725	5642
693.753	5669
693.797	6082
693.840	6268
693.845	6301
693.883	6558
693.926	6264
693.966	6287
693.970	6295
694.013	6178
694.056	6048
694.086	5969
694.099	5949
694.142	6046
694.185	5833
694.206	5892
694.229	5996
694.272	5817
694.315	5718
694.326	5648
694.358	5692
694.401	6073
694.444	6137
694.446	6141
694.487	6394
694.530	6220
694.566	6282
694.573	6272
694.616	6055
694.659	6037
694.686	5671
694.702	5625
694.745	5949
694.787	6198
694.806	6315
694.830	6219
694.873	5655
694.916	5366
694.926	5281
694.959	5445
695.002	5500
695.044	5587
695.046	5584
695.087	5795
695.130	5723
695.166	5775
695.172	5797
695.215	5771
695.258	5738
695.286	5722
695.301	5739
695.343	5797
695.386	5852
695.406	5835
695.428	5844
695.471	5678
695.514	5814
695.526	5792
695.556	5980
695.599	6405
695.641	6710
695.646	6699
695.684	6623
695.726	6734
695.766	6845
695.769	6858
695.811	6768
695.854	6709
695.886	6476
695.896	6406
695.938	6436
695.981	6112
696.005	5988
696.023	6124
696.065	6297
696.108	6714
696.125	6765
696.150	6777
696.192	7012
696.235	6950
696.245	6969
696.277	7053
696.319	7052
696.361	7118
696.365	7099
696.404	6936
696.446	6778
696.485	6566
696.488	6610
696.530	6966
696.572	7296
696.604	7628
696.614	7652
696.656	7450
696.698	7430
696.724	7319
696.740	7297
696.783	7325
696.825	7219
696.844	7207
696.867	7320
696.909	7355
696.951	7477
696.964	7494
696.992	7335
697.034	7068
697.076	6791
697.083	6717
697.118	6804
697.160	6954
697.202	7166
697.203	7150
697.244	7431
697.286	7752
697.323	8012
697.327	8000
697.369	7731
697.411	7381
697.442	7128
697.453	7189
697.494	7350
697.536	7549
697.562	7635
697.578	7691
697.620	7783
697.661	7791
697.682	7824
697.703	7874
697.744	7895
697.786	7961
697.801	7931
697.828	8172
697.869	8650
697.911	8930
697.921	9002
697.952	8927
697.994	8840
698.035	8701
698.040	8655
698.077	8387
698.118	8110
698.160	7803
698.160	7779
698.201	7724
698.243	7604
698.279	7488
698.284	7548
698.325	7886
698.367	8293
698.399	8527
698.408	8512
698.449	8377
698.491	8208
698.518	8094
698.532	8212
698.573	8462
698.614	8782
698.638	8906
698.656	8878
698.697	8769
698.738	8660
698.757	8586
698.779	8629
698.820	8667
698.862	8699
698.877	8685
698.903	8850
698.944	9081
698.985	9309
698.996	9348
699.026	9020
699.067	8528
699.116	7920
699.235	7840
699.354	8963
699.474	8100
699.593	8551
699.713	9278
699.832	9384
699.951	8597
700.070	8391
700.190	8410
700.309	8589
700.428	7473
700.547	8497
700.667	7828
700.786	8724
700.905	8427
701.024	7482
701.143	7761
701.262	8013
701.381	7624
701.500	7998
701.619	8440
701.738	8529
701.857	7971
701.976	7756
702.095	6393
702.214	8495
702.333	7522
702.452	7824
702.571	7721
702.690	7929
702.809	8413
702.928	7110
703.047	7601
703.165	7539
703.284	7260
703.403	7827
703.522	8165
703.640	8446
703.759	7818
703.878	8572
703.997	8319
704.115	7169
704.234	7000
704.353	7859
704.471	7584
704.590	6980
704.708	6597
704.827	7276
704.946	6711
705.064	6909
705.183	7023
705.301	6403
705.420	8180
705.538	9629
705.656	8155
705.775	7092
705.893	7457
706.012	8070
706.130	8103
706.249	8356
706.367	7880
706.485	8403
706.604	8418
706.722	7691
706.840	8675
706.958	10408
707.077	8468
707.195	7246
707.313	8155
707.431	7572
707.549	6896
707.668	7180
707.786	7004
707.904	7298
708.022	6846
708.140	7430
708.258	6733
708.376	6590
708.494	7151
708.612	7287
708.730	8602
708.848	10003
708.966	8713
709.084	8730
709.202	8621
709.320	8213
709.438	7445
709.556	8762
709.674	8592
709.791	8023
709.909	7154
710.027	7922
710.145	7603
710.263	7883
710.380	7209
710.498	8020
710.616	7945
710.733	7782
710.851	8334
710.969	8056
711.086	7146
711.204	7670
711.322	8013
711.439	7010
711.557	8589
711.674	7270
711.792	7155
711.909	7742
712.027	6950
712.144	6801
712.262	7178
712.379	7486
712.497	9657
712.614	10856
712.732	9011
712.849	8883
712.966	8988
713.084	10195
713.201	9809
713.318	8375
713.436	8467
713.553	9105
713.670	9891
713.787	9690
713.905	9262
714.022	8542
714.139	9310
714.256	10895
714.373	11782
714.490	18293
714.608	34145
714.725	128546
714.842	402379
714.959	85476
715.076	13653
715.193	11278
715.310	10062
715.427	8338
715.544	8381
715.661	8248
715.778	7935
715.895	7927
716.011	8843
716.128	8696
716.245	7473
716.362	8189
716.479	9200
716.596	7503
716.713	7495
716.829	7319
716.946	6799
717.063	7267
717.180	6845
717.296	7298
717.413	6493
717.530	7271
717.646	6720
717.763	6843
717.880	6489
717.996	7039
718.113	6418
718.229	6484
718.346	6334
718.462	6246
718.579	7182
718.695	9799
718.812	11399
718.928	8056
719.045	8253
719.161	6510
719.277	6073
719.394	6287
719.510	6415
719.626	7212
719.743	8069
719.859	9605
719.975	14683
720.092	38082
720.208	157101
720.324	91974
720.440	9645
720.557	7329
720.673	8494
720.789	11227
720.905	15596
721.021	17950
721.137	6219
721.253	6771
721.369	5756
721.486	6226
721.602	6441
721.718	6849
721.834	4924
721.950	5996
722.066	5346
722.181	5231
722.297	5121
722.413	6734
722.529	4994
722.645	5747
722.761	5613
722.877	5785
722.993	5668
723.108	6074
723.224	5845
723.340	5574
723.456	5022
723.571	4940
723.687	4779
723.803	5645
723.918	5145
724.034	5461
724.150	4789
724.265	4935
724.381	6157
724.497	11555
724.612	6328
724.728	5165
724.843	5162
724.959	5494
725.074	5814
725.190	11742
725.305	6308
725.421	5187
725.536	4854
725.651	4469
725.767	4815
725.882	4682
725.997	4503
726.113	4549
726.228	4596
726.343	3985
726.459	3856
726.574	4620
726.689	4275
726.804	4188
726.920	4267
727.035	4944
727.150	4220
727.265	4504
727.380	4956
727.495	4664
727.610	4582
727.725	4236
727.841	4225
727.956	4583
728.071	4375
728.186	4901
728.301	4091
728.416	4134
728.531	3607
728.645	3546
728.760	3699
728.875	4918
728.990	4916
729.105	4728
729.220	4029
729.335	4942
729.449	3658
729.564	4079
729.679	4173
729.794	3715
729.908	4273
730.023	4244
730.138	3837
730.253	4310
730.367	3706
730.482	3901
730.596	3528
730.711	3916
730.826	4411
730.940	4253
731.055	3547
731.169	4145
731.284	2834
731.398	4535
731.513	3935
731.627	4981
731.742	4220
731.856	6184
731.970	5367
732.085	6074
732.199	6916
732.313	9709
732.428	18683
732.542	62299
732.656	113163
732.771	22173
732.885	7271
732.999	5800
733.113	6009
733.227	6134
733.342	6429
733.456	5347
733.570	4706
733.684	5168
733.798	5076
733.912	5490
734.026	4823
734.140	4789
734.254	5106
734.368	5359
734.482	8105
734.596	6478
734.710	4505
734.824	4730
734.938	4766
735.052	4987
735.166	4671
735.280	5038
735.393	4535
735.507	3773
735.621	4615
735.735	6601
735.849	6948
735.962	4088
736.076	4747
736.190	5049
736.303	4718
736.417	7326
736.531	4824
736.644	4541
736.758	4505
736.872	5168
736.985	3587
737.099	4100
737.212	3221
737.326	4681
737.439	3843
737.553	4564
737.666	3734
737.780	3760
737.893	3465
738.007	3834
738.120	3912
738.233	4296
738.347	3632
738.460	4139
738.573	4429
738.687	3693
738.800	3867
738.913	5089
739.026	5128
739.140	4341
739.253	3688
739.366	3232
739.479	3339
739.592	3723
739.705	3514
739.818	3310
739.932	3716
740.045	4003
740.158	3758
740.271	3357
740.384	3670
740.497	3424
740.610	3861
740.723	3431
740.836	4185
740.949	4315
741.062	4774
741.174	4977
741.287	2737
741.400	3460
741.513	3634
741.626	4794
741.739	3562
741.851	3646
741.964	3693
742.077	3213
742.189	3113
742.302	3363
742.415	4404
742.527	3407
742.640	3125
742.753	3825
742.865	3140
742.978	3752
743.090	2897
743.203	3301
743.316	2648
743.428	3246
743.541	2606
743.653	2578
743.766	3069
743.878	2818
743.990	3640
744.103	4615
744.215	4157
744.327	3120
744.440	3766
744.552	4969
744.664	4698
744.777	2978
744.889	3106
745.001	3412
745.113	2207
745.226	3063
745.338	3394
745.450	2775
745.562	3505
745.674	2617
745.786	3145
745.898	2661
746.010	2520
746.122	1800
746.234	2444
746.347	2662
746.459	3123
746.570	2658
746.682	2868
746.794	3808
746.906	3544
747.018	2084
747.130	2813
747.242	2414
747.354	1896
747.466	3228
747.577	2886
747.689	2889
747.801	3145
747.913	2530
748.024	2189
748.136	2449
748.248	2079
748.359	2336
748.471	2280
748.583	2635
748.694	1796
748.806	2774
748.918	2824
749.029	2878
749.141	3079
749.252	3071
749.364	2491
749.475	4916
749.587	4238
749.698	3166
749.809	2343
749.921	2017
750.032	2393
750.144	2809
750.255	2374
750.366	2026
750.478	2357
750.589	2722
750.700	2952
750.811	2087
750.923	3506
751.034	3412
751.145	6909
751.256	3176
751.367	2092
751.479	2716
751.590	2306
751.701	2031
751.812	2552
751.923	1669
752.034	2300
752.145	1959
752.256	2592
752.367	2497
752.478	2188
752.589	1974
752.700	1994
752.811	1509
752.922	2669
753.032	2236
753.143	2095
753.254	2714
753.365	2403
753.476	2006
753.586	2571
753.697	1630
753.808	1783
753.919	2279
754.029	2375
754.140	1889
754.251	2233
754.361	2031
754.472	2330
754.582	2139
754.693	2144
754.804	2119
754.914	1618
755.025	1746
755.135	1450
755.246	1917
755.356	2268
755.466	2432
755.577	1979
755.687	1407
755.798	1354
755.908	2587
756.018	1934
756.129	1319
756.239	1120
756.349	2772
756.460	1008
756.570	2850
756.680	2171
756.790	1928
756.900	2220
757.011	1922
757.121	2354
757.231	1399
757.341	2066
757.451	1726
757.561	1886
757.671	2153
757.781	1607
757.891	2496
758.001	2889
758.111	2819
758.221	1657
758.331	2296
758.441	1820
758.551	1821
758.661	3026
758.771	2486
758.880	1950
758.990	2586
759.100	2238
759.210	1306
759.320	2179
759.429	2397
759.539	1973
759.649	2397
759.758	2181
759.868	3280
759.978	1914
760.087	2791
760.197	3748
760.307	2646
760.416	2357
760.526	2758
760.635	1934
760.745	2293
760.854	2788
760.964	2482
761.073	2897
761.182	2722
761.292	2964
761.401	2142
761.511	2161
761.620	1796
761.729	1866
761.839	2293
761.948	1512
762.057	2176
762.166	1973
762.276	2247
762.385	2320
762.494	1252
762.603	1907
762.712	1854
762.822	1935
762.931	2628
763.040	1671
763.149	1408
763.258	1559
763.367	2674
763.476	1581
763.585	1740
763.694	2523
763.803	2465
763.912	1500
764.021	2252
764.130	1645
764.238	1826
764.347	1873
764.456	2584
764.565	1743
764.674	1803
764.783	2563
764.891	1689
765.000	1765
765.109	2764
765.217	1806
765.326	1635
765.435	3368
765.543	3093
765.652	2196
765.761	2999
765.869	3226
765.978	6239
766.086	7384
766.195	17056
766.303	36933
766.412	125623
766.520	305473
766.629	96462
766.737	15922
766.846	8157
766.954	6288
767.062	5050
767.171	3302
767.279	3954
767.387	2945
767.496	2329
767.604	2258
767.712	2440
767.820	2407
767.928	2685
768.037	2480
768.145	2321
768.253	2738
768.361	2319
768.469	1800
768.577	2358
768.685	2497
768.793	2885
768.901	2170
769.009	2171
769.117	2486
769.225	2744
769.333	3323
769.441	4882
769.549	7638
769.657	15790
769.765	42482
769.873	164153
769.981	160277
770.088	20441
770.196	6323
770.304	3963
770.412	3615
770.519	3604
770.627	3462
770.735	2829
770.842	2758
770.950	2730
771.058	2235
771.165	2259
771.273	2377
771.380	3140
771.488	2628
771.595	3596
771.703	2859
771.810	4094
771.918	2405
772.025	2893
772.133	2599
772.240	3415
772.348	4072
772.455	3271
772.562	3011
772.670	3536
772.777	2883
772.884	3239
772.991	2702
773.099	3164
773.206	2853
773.313	3132
773.420	2789
773.528	2689
773.635	2096
773.742	3669
773.849	2274
773.956	3155
774.063	2316
774.170	2992
774.277	2596
774.384	2588
774.491	2334
774.598	2604
774.705	2568
774.812	2614
774.919	3211
775.026	2804
775.133	2287
775.239	2910
775.346	2247
775.453	2025
775.560	2455
775.667	2420
775.773	2502
775.880	2798
775.987	3053
776.093	2888
776.200	2096
776.307	1843
776.413	1878
776.520	1990
776.627	2466
776.733	2632
776.840	1969
776.946	2856
777.053	2687
777.159	3548
777.266	4002
777.372	3900
777.478	3952
777.585	3583
777.691	2798
777.798	3212
777.904	2414
778.010	2369
778.117	2868
778.223	2927
778.329	2522
778.435	2188
778.542	2993
778.648	2122
778.754	1781
778.860	2138
778.966	2440
779.072	1950
779.178	2200
779.284	2054
779.391	1732
779.497	2253
779.603	2791
779.708	1769
779.815	2657
779.920	2921
780.026	3993
780.132	4360
780.238	1922
780.344	1385
780.450	1689
780.556	2899
780.661	2060
780.767	1582
780.873	2323
780.979	1948
781.085	1582
781.190	2589
781.296	1471
781.402	1951
781.507	1777
781.613	1758
781.719	1191
781.824	1693
781.930	1858
782.035	1697
782.141	1235
782.246	1422
782.352	1909
782.457	1939
782.563	1104
782.668	1934
782.773	1880
782.879	1825
782.984	2160
783.090	2147
783.195	2571
783.300	2646
783.405	1955
783.511	2132
783.616	2060
783.721	2425
783.826	1705
783.932	1567
784.037	1621
784.142	1884
784.247	1743
784.352	1398
784.457	1463
784.562	1592
784.667	1355
784.772	1214
784.877	1037
784.982	1547
785.087	1640
785.192	1829
785.297	1047
785.402	509
785.507	1145
785.611	1200
785.716	1473
785.821	1343
785.926	817
786.031	1430
786.135	1448
786.240	797
786.345	607
786.450	1085
786.554	1001
786.659	953
786.763	718
786.868	1123
786.973	1642
787.077	1317
787.182	1308
787.286	1508
787.391	707
787.495	1564
787.600	953
787.704	1113
787.809	1189
787.913	1235
788.017	257
788.122	1532
788.226	754
788.330	413
788.435	1046
788.539	1072
788.643	824
788.747	591
788.852	1143
788.956	1266
789.060	382
789.164	1222
789.268	184
789.372	1665
789.476	812
789.580	1078
789.684	937
789.788	726
789.892	208
789.996	1646
790.100	734
790.204	1170
790.308	1455
790.412	1379
790.516	664
790.620	1014
790.724	1423
790.828	898
790.931	1250
791.035	1209
791.139	746
791.242	504
791.346	1042
791.450	1315
791.554	867
791.657	373
791.761	1539
791.864	1650
791.968	1435
792.072	1412
792.175	477
792.279	67
792.382	1005
792.486	930
792.589	766
792.693	1139
792.796	333
792.899	845
793.003	1217
793.106	1066
793.209	713
793.313	1222
793.416	239
793.519	660
793.623	1178
793.726	2869
793.829	1486
793.932	431
794.035	197
794.138	1497
794.242	1215
794.345	727
794.448	142
794.551	1356
794.654	2426
794.757	2555
794.860	1612
794.963	1272
795.066	654
795.169	1057
795.272	887
795.375	1073
795.477	307
795.580	757
795.683	206
795.786	1057
795.889	-421
795.991	1232
796.094	335
796.197	921
796.300	167
796.402	49
796.505	325
796.608	532
796.710	502
796.813	561
796.915	136
797.018	551
797.120	23
797.223	92
797.326	348
797.428	723
797.530	716
797.633	-507
797.735	741
797.838	1112
797.940	1346
798.042	596
798.145	197
798.247	412
798.349	159
798.452	144
798.554	1162
798.656	860
798.758	711
798.860	285
798.962	284
799.065	-732
799.167	37
799.269	1235
799.371	245
799.473	1748
799.575	758
799.677	1574
799.779	1285
799.881	721
799.983	1645
800.085	314
800.187	-64
800.289	523
800.390	2
800.492	964
800.594	254
800.696	945
800.798	169
800.899	575
801.001	856
801.103	779
801.205	253
801.306	147
801.408	219
801.509	701
801.611	182
801.713	1113
801.814	-530
801.916	721
802.017	82
802.119	53
802.220	578
802.322	-257
802.423	1004
802.525	842
802.626	411
802.727	-580
802.829	1072
802.930	-59
803.031	946
803.133	-567
803.234	-876
803.335	-252
803.436	-117
803.538	923
803.639	-983
803.740	400
803.841	276
803.942	180
804.043	976
804.144	429
804.245	212
804.346	735
804.447	138
804.548	833
804.649	1120
804.750	622
804.851	289
804.952	102
805.053	-425
805.154	-1034
805.255	185
805.355	-133
805.456	-156
805.557	298
805.658	-607
805.758	-245
805.859	188
805.960	401
806.061	-22
806.161	313
806.262	-167
806.362	217
806.463	-179
806.564	557
806.664	116
806.765	-43
806.865	488
806.966	162
807.066	209
807.166	810
807.267	-60
807.367	127
807.468	686
807.568	52
807.668	-277
807.769	831
807.869	65
807.969	499
808.069	11
808.170	686
808.270	98
808.370	329
808.470	581
808.570	91
808.670	79
808.770	-268
808.870	-134
808.970	6
809.070	-122
809.170	376
809.271	249
809.370	150
809.470	227
809.570	436
809.670	-1019
809.770	200
809.870	-13
809.970	311
810.070	-546
810.169	612
810.269	-347
810.369	-5
810.469	-248
810.568	-2
810.668	-428
810.768	-475
810.867	-319
810.967	389
811.066	-640
811.166	355
811.265	341
811.365	-40
811.464	-272
811.564	-90
811.663	12
811.763	139
811.862	948
811.962	-335
812.061	-256
812.160	138
812.260	157
812.359	397
812.458	301
812.557	1661
812.657	4787
812.756	2515
812.855	782
812.954	405
813.053	-264
813.153	423
813.252	-196
813.351	702
813.450	75
813.549	250
813.648	170
813.747	495
813.846	753
813.945	67
814.044	423
814.143	693
814.242	64
814.341	258
814.439	529
814.538	223
814.637	66
814.736	712
814.835	-315
814.933	134
815.032	624
815.131	634
815.229	214
815.328	1811
815.427	1460
815.525	1646
815.624	1461
815.722	1074
815.821	1309
815.919	734
816.018	898
816.116	1435
816.215	801
816.313	1052
816.412	1288
816.510	2477
816.609	1657
816.707	2309
816.805	2713
816.904	2595
817.002	2779
817.100	2810
817.198	3191
817.296	2515
817.395	3165
817.493	3725
817.591	3005
817.689	5190
817.787	6653
817.885	10180
817.983	17680
818.081	35171
818.179	80877
818.277	192740
818.375	317500
818.473	137100
818.571	36796
818.669	18710
818.767	14922
818.865	14005
818.963	15269
819.061	20678
819.158	35013
819.256	68059
819.354	146749
819.452	336898
819.549	419754
819.647	161114
819.745	49397
819.842	25317
819.940	16833
820.038	11581
820.135	9571
820.233	7706
820.330	5282
820.428	5306
820.525	4436
820.623	3821
820.720	2877
820.818	3286
820.915	2083
821.012	2555
821.110	1708
821.207	2712
821.304	1863
821.402	2062
821.499	2084
821.596	1837
821.693	1656
821.791	2335
821.888	1516
821.985	2189
822.082	2826
822.179	2410
822.276	809
822.373	1347
822.470	696
822.567	1613
822.664	751
822.761	2037
822.858	972
822.955	1044
823.052	1445
823.149	882
823.246	-17
823.343	947
823.440	769
823.536	410
823.633	129
823.730	470
823.827	1019
823.923	791
824.020	1216
824.117	993
824.213	758
824.310	1136
824.407	709
824.503	641
824.600	1051
824.696	448
824.793	635
824.889	829
824.986	-12
825.082	149
825.179	27
825.275	460
825.371	758
825.468	1140
825.564	-146
825.660	853
825.757	897
825.853	1725
825.949	356
826.045	446
826.142	645
826.238	608
826.334	-266
826.430	-166
826.526	949
826.622	333
826.718	266
826.814	553
826.910	1633
827.006	-250
827.102	-211
827.198	672
827.294	829
827.390	1178
827.486	834
827.582	23
827.678	-11
827.774	961
827.869	12
827.965	535
828.061	-124
828.157	199
828.252	331
828.348	458
828.444	-219
828.539	-51
828.635	-58
828.731	875
828.826	-821
828.922	342
829.017	953
829.113	352
829.208	-59
829.304	-349
829.399	962
829.495	193
829.590	-127
829.685	414
829.781	358
829.876	-403
829.971	-400
830.066	554
830.162	-84
830.257	-793
830.352	153
830.447	-298
830.543	-123
830.638	124
830.733	441
830.828	674
830.923	-659
831.018	408
831.113	613
831.208	-673
831.303	614
831.398	-650
831.493	-649
831.588	-330
831.683	59
831.778	98
831.873	-766
831.967	232
832.062	341
832.157	-402
832.252	840
832.346	-257
832.441	-84
832.536	516
832.631	1273
832.725	2715
832.820	406
832.914	-67
833.009	-246
833.104	423
833.198	568
833.293	232
833.387	807
833.482	351
833.576	179
833.670	-108
833.765	-272
833.859	501
833.954	359
834.048	65
834.142	-236
834.237	8
834.331	237
834.425	644
834.519	-467
834.613	316
834.708	-815
834.802	301
834.896	-413
834.990	-466
835.084	-134
835.178	-693
835.272	-836
835.366	-380
835.460	-671
835.554	-391
835.648	328
835.742	-423
835.836	-186
835.930	-486
836.024	470
836.117	49
836.211	246
836.305	363
836.399	383
836.493	32
836.586	-682
836.680	-183
836.774	-578
836.867	88
836.961	-970
837.055	103
837.148	-318
837.242	-260
837.335	-167
837.429	104
837.522	-171
837.616	29
837.709	141
837.803	888
837.896	126
837.989	214
838.083	526
838.176	1011
838.269	981
838.363	983
838.456	-1065
838.549	-68
838.642	884
838.735	1688
838.829	1543
838.922	-104
839.015	-256
839.108	-1237
839.201	-647
839.294	-446
839.387	-369
839.480	-586
839.573	-192
839.666	192
839.759	-370
839.852	-491
839.945	-562
840.038	-241
840.131	-339
840.223	-215
840.316	-1058
840.409	-573
840.502	-479
840.594	-173
840.687	-962
840.780	-345
840.873	-1006
840.965	472
841.058	685
841.150	354
841.243	-106
841.336	256
841.428	-411
841.521	35
841.613	-421
841.706	-385
841.798	65
841.890	-697
841.983	-503
842.075	-43
842.167	-843
842.260	-443
842.352	88
842.444	436
842.537	663
842.629	2263
842.721	452
842.813	-474
842.905	-708
842.997	-416
843.090	115
843.182	-130
843.274	675
843.366	1679
843.458	4814
843.550	7337
843.642	1482
843.734	142
843.826	-827
843.918	198
844.009	-589
844.101	-294
844.193	-725
844.285	-106
844.377	-930
844.469	347
844.560	-447
844.652	-201
844.744	677
844.835	-727
844.927	-380
845.019	72
845.110	122
845.202	-374
845.293	-860
845.385	-732
845.476	-549
845.568	528
845.659	-708
845.751	-414
845.842	-77
845.934	-156
846.025	-906
846.116	-221
846.208	-592
846.299	-835
846.390	-811
846.482	-570
846.573	-290
846.664	499
846.755	1
846.846	1062
846.937	-120
847.029	-241
847.120	-344
847.211	-790
847.302	-527
847.393	-910
847.484	-500
847.575	-346
847.666	-721
847.757	-181
847.847	-1004
847.938	698
848.029	-103
848.120	-390
848.211	-331
848.302	-273
848.392	-353
848.483	-470
848.574	-904
848.664	42
848.755	-758
848.846	-252
848.936	-746
849.027	304
849.118	-433
849.208	-308
849.299	645
849.389	978
849.480	3371
849.570	7319
849.661	12364
849.751	27779
849.841	26007
849.932	3739
850.022	605
850.112	-106
850.203	-326
850.293	-724
850.383	-186
850.474	3
850.564	-1022
850.654	-915
850.744	-993
850.834	-786
850.924	-217
851.014	34
851.104	166
851.194	70
851.284	-372
851.374	153
851.464	-220
851.554	-188
851.644	-859
851.734	-110
851.824	261
851.914	-343
852.004	-53
852.094	261
852.183	-440
852.273	-637
852.363	-747
852.452	-275
852.542	-515
852.632	-823
852.721	-351
852.811	-660
852.901	245
852.990	-363
853.080	-413
853.169	-387
853.259	265
853.348	315
853.438	281
853.527	970
853.617	1597
853.706	4934
853.795	9938
853.885	21406
853.974	44988
854.063	70746
854.152	143898
854.242	133982
854.331	28041
854.420	4945
854.509	2859
854.598	1832
854.687	1341
854.777	413
854.866	193
854.955	1308
855.044	-660
855.133	302
855.222	-229
855.311	-278
855.400	-695
855.488	-713
855.577	-591
855.666	-627
855.755	461
855.844	-465
855.933	-421
856.021	-402
856.110	-463
856.199	-382
856.288	-592
856.376	-625
856.465	-1290
856.554	283
856.642	-773
856.731	314
856.819	-874
856.908	-557
856.996	-784
857.085	-801
857.173	-224
857.262	-1370
857.350	-794
857.438	-780
857.527	112
857.615	-500
857.703	-801
857.792	-738
857.880	-335
857.968	-501
858.056	-177
858.145	71
858.233	-539
858.321	-1276
858.409	483
858.497	-1197
858.585	-27
858.673	-508
858.761	-488
858.849	-560
858.937	-141
859.025	-529
859.113	334
859.201	-1128
859.289	-524
859.377	-256
859.465	-1237
859.552	-186
859.640	-1052
859.728	168
859.816	-572
859.903	-246
859.991	-1562
860.079	0
860.166	-811
860.254	37
860.342	51
860.429	-1334
860.517	-1024
860.604	-171
860.692	-636
860.779	-127
860.867	-1464
860.954	-679
861.042	-781
861.129	-555
861.216	-256
861.304	-776
861.391	76
861.478	-706
861.565	-373
861.653	-223
861.740	-569
861.827	-146
861.914	-1005
862.001	-1160
862.089	-652
862.176	-815
862.263	-916
862.350	-597
862.437	2
862.524	-754
862.611	-393
862.698	-675
862.785	-264
862.871	-677
862.958	-621
863.045	-365
863.132	-372
863.219	-241
863.306	-574
863.392	-416
863.479	-668
863.566	-219
863.652	-362
863.739	-285
863.826	-603
863.912	-181
863.999	-625
864.086	-540
864.172	-781
864.259	-189
864.345	-874
864.432	-404
864.518	-251
864.604	-195
864.691	-597
864.777	216
864.863	-243
864.950	-543
865.036	48
865.122	1716
865.209	1030
865.295	1472
865.381	1342
865.467	1585
865.553	1831
865.639	3241
865.726	6203
865.812	11695
865.898	23667
865.984	37931
866.070	52945
866.156	107714
866.242	63387
866.328	10881
866.414	3259
866.499	2687
866.585	2172
866.671	1771
866.757	1131
866.843	1744
866.928	651
867.014	803
867.100	898
867.186	408
867.271	895
867.357	617
867.442	1928
867.528	1963
867.614	669
867.699	838
867.785	1587
867.870	736
867.956	1469
868.041	1871
868.127	653
868.212	672
868.297	946
868.383	828
868.468	1554
868.553	2320
868.639	2457
868.724	2106
868.809	4719
868.894	2298
868.979	747
869.065	463
869.150	627
869.235	145
869.320	509
869.405	922
869.490	417
869.575	444
869.660	271
869.745	1579
869.830	56
869.915	380
870.000	-116
870.085	-41
870.169	620
870.254	967
870.339	589
870.424	-450
870.509	156
870.593	708
870.678	772
870.763	417
870.847	954
870.932	-268
871.016	1192
871.101	586
871.186	257
871.270	413
871.355	497
871.439	-519
871.523	-264
871.608	128
871.692	-403
871.777	437
871.861	328
871.945	21
872.030	317
872.114	351
872.198	247
872.282	-178
872.367	34
872.451	-59
872.535	781
872.619	715
872.703	-537
872.787	524
872.871	268
872.955	190
873.039	52
873.123	-523
873.207	872
873.291	298
873.375	-452
873.459	201
873.543	-157
873.627	-359
873.711	469
873.794	618
873.878	-235
873.962	-589
874.045	-103
874.129	-475
874.137	-395
874.213	408
874.245	70
874.296	-475
874.352	-164
874.380	-16
874.460	-121
874.464	-126
874.547	-459
874.568	-160
874.631	743
874.676	142
874.714	-378
874.784	-383
874.798	-386
874.881	1025
874.892	833
874.965	-443
874.999	-112
875.048	296
875.107	262
875.131	268
875.215	-173
875.215	-173
875.298	-297
875.323	-64
875.381	497
875.430	282
875.465	155
875.538	526
875.548	571
875.631	364
875.646	283
875.714	-168
875.753	3
875.798	260
875.861	-178
875.881	-329
875.964	-247
875.968	-239
876.047	-51
876.076	199
876.130	672
876.183	419
876.213	270
876.291	761
876.296	792
876.379	442
876.398	484
876.462	581
876.506	271
876.545	19
876.613	183
876.628	242
876.711	-231
876.721	-96
876.794	827
876.828	648
876.877	387
876.935	974
876.960	1243
877.043	1008
877.043	1006
877.125	611
877.150	624
877.208	776
877.258	1250
877.291	1426
877.365	1408
877.374	1434
877.456	1293
877.472	1235
877.539	882
877.579	788
877.622	759
877.687	846
877.704	888
877.787	1092
877.794	1098
877.869	888
877.901	843
877.952	855
878.008	766
878.034	747
878.115	747
878.117	749
878.199	720
878.222	762
878.282	874
878.329	681
878.364	603
878.437	1405
878.447	1484
878.529	531
878.544	554
878.611	667
878.651	476
878.694	525
878.758	1274
878.776	1402
878.858	692
878.865	690
878.941	752
878.972	588
879.023	302
879.078	605
879.105	819
879.185	1258
879.187	1269
879.269	923
879.292	887
879.351	839
879.399	1052
879.433	1058
879.506	384
879.516	326
879.598	617
879.613	602
879.680	549
879.720	791
879.762	1203
879.827	1060
879.844	940
879.926	530
879.933	529
880.007	994
880.040	1403
880.089	1839
880.147	1549
880.171	1522
880.253	3198
880.254	3199
880.335	4272
880.360	4614
880.417	6746
880.467	8828
880.499	12401
880.574	23074
880.580	22964
880.662	15293
880.680	13484
880.744	6555
880.787	2795
880.825	1940
880.893	1280
880.907	1296
880.989	1400
881.000	1378
881.070	1230
881.106	1127
881.152	1124
881.213	1134
881.233	1048
881.315	365
881.319	376
881.396	1205
881.426	1245
881.478	1045
881.532	985
881.559	1086
881.639	1388
881.641	1383
881.722	1171
881.745	855
881.803	870
881.852	1288
881.885	1362
881.958	1264
881.966	1237
882.047	1224
882.064	1223
882.129	2131
882.171	2356
882.210	2131
882.277	2445
882.291	2702
882.372	3475
882.383	3590
882.454	2495
882.489	1759
882.535	1272
882.596	1167
882.616	1341
882.697	1722
882.702	1722
882.778	1469
882.808	1505
882.859	1294
882.914	1003
882.940	1154
883.020	1253
883.021	1258
883.102	1464
883.127	1511
883.183	1591
883.233	1473
883.264	1350
883.339	1429
883.345	1416
883.426	440
883.445	411
883.507	1054
883.551	1213
883.587	1255
883.657	1611
883.668	1705
883.749	2044
883.763	2062
883.830	1606
883.869	1553
883.910	1411
883.975	834
883.991	851
884.072	1222
884.081	1277
884.152	1928
884.187	1868
884.233	1646
884.292	2026
884.314	1982
884.394	1063
884.398	1050
884.475	1353
884.504	1062
884.555	463
884.610	428
884.636	661
884.716	1103
884.716	1112
884.797	1524
884.821	1635
884.877	1730
884.927	1768
884.958	1689
885.033	1261
885.038	1226
885.118	908
885.139	784
885.199	900
885.244	901
885.279	1139
885.350	1844
885.359	1881
885.439	1871
885.456	1869
885.520	1864
885.561	1937
885.600	1753
885.667	1386
885.680	1422
885.760	1484
885.773	1486
885.840	1495
885.878	1568
885.920	1648
885.984	1481
886.000	1455
886.080	1610
886.089	1591
886.160	1710
886.195	1876
886.240	1941
886.300	1972
886.320	1952
886.400	1705
886.406	1673
886.480	1691
886.511	1822
886.560	2182
886.616	2422
886.640	2564
886.720	2992
886.722	2993
886.800	2561
886.827	2337
886.879	1919
886.932	1570
886.959	1674
887.038	1916
887.039	1926
887.119	1932
887.143	1940
887.198	2020
887.248	2165
887.278	2185
887.354	2108
887.358	2129
887.437	2381
887.459	2442
887.517	2427
887.564	2321
887.596	2251
887.669	2101
887.676	2102
887.755	1958
887.774	1937
887.835	1796
887.880	1649
887.914	1784
887.985	1995
887.994	2054
888.073	2553
888.090	2650
888.153	2706
888.195	2639
888.232	2533
888.300	2437
888.311	2387
888.391	1945
888.405	1839
888.470	1282
888.510	933
888.549	1359
888.615	2109
888.628	2098
888.708	1945
888.720	1918
888.787	2310
888.825	2481
888.866	2355
888.930	2184
888.945	2174
889.024	2043
889.035	2014
889.103	2617
889.140	2947
889.182	2302
889.245	1305
889.261	1421
889.340	1946
889.349	1998
889.419	2062
889.454	2085
889.498	2274
889.559	2526
889.577	2468
889.656	2158
889.664	2121
889.735	2341
889.768	2432
889.814	2461
889.873	2482
889.978	2439
890.083	2942
890.187	2370
890.292	2305
890.397	2462
890.501	2559
890.606	2374
890.710	2439
890.815	1865
890.919	3053
891.024	2157
891.128	2504
891.233	2620
891.337	2018
891.442	2548
891.546	2903
891.650	1929
891.755	2085
891.859	3425
891.963	3661
892.068	3234
892.172	2409
892.276	2869
892.380	1726
892.484	2000
892.589	2085
892.693	3270
892.797	2198
892.901	1743
893.005	2124
893.109	2550
893.213	2904
893.317	2248
893.421	1386
893.525	1361
893.629	1770
893.733	2126
893.837	2372
893.941	1575
894.045	1762
894.148	1984
894.252	1727
894.356	2129
894.460	2557
894.564	2168
894.667	2181
894.771	2473
894.875	1631
894.978	2104
895.082	2409
895.186	2018
895.289	2735
895.393	1448
895.496	1954
895.600	2092
895.703	1243
895.807	2353
895.910	2611
896.014	2274
896.117	2096
896.221	2307
896.324	2443
896.427	1524
896.531	1447
896.634	1723
896.737	1914
896.840	2123
896.944	1743
897.047	1846
897.150	2446
897.253	1697
897.356	2023
897.460	2313
897.563	2098
897.666	2075
897.769	2771
897.872	1817
897.975	2342
898.078	1519
898.181	1030
898.284	1183
898.387	1904
898.490	2700
898.593	2340
898.695	1230
898.798	1749
898.901	1344
899.004	1953
899.107	1356
899.209	2213
899.312	2410
899.415	1460
899.518	1854
899.620	1678
899.723	1645
899.826	2522
899.928	5762
900.031	3067
900.133	2157
900.236	1234
900.338	1830
900.441	2234
900.543	1869
900.646	1320
900.748	1380
900.851	2054
900.953	2208
901.055	1572
901.158	2710
901.260	2222
901.362	1899
901.465	1394
901.567	2531
901.669	2545
901.771	1997
901.873	1785
901.976	1567
902.078	2213
902.180	1352
902.282	2005
902.384	1575
902.486	1635
902.588	2791
902.690	2232
902.792	2737
902.894	1891
902.996	2046
903.098	2134
903.200	990
903.302	1521
903.404	1728
903.505	1859
903.607	1871
903.709	2175
903.811	1983
903.913	2021
904.014	1499
904.116	1755
904.218	1216
904.319	1823
904.421	2577
904.523	1251
904.624	2106
904.726	1292
904.827	1692
904.929	656
905.030	1362
905.132	2441
905.233	2012
905.335	1200
905.436	671
905.537	1198
905.639	2354
905.740	1564
905.841	1836
905.943	2236
906.044	1886
906.145	2093
906.247	810
906.348	1509
906.449	2691
906.550	1933
906.651	1638
906.752	1772
906.854	1337
906.955	1408
907.056	2131
907.157	2031
907.258	1678
907.359	2236
907.460	1674
907.561	1461
907.662	1850
907.762	1261
907.863	2070
907.964	2032
908.065	2350
908.166	1265
908.267	2316
908.367	1862
908.468	1602
908.569	2248
908.670	2678
908.770	2752
908.871	3633
908.971	2956
909.072	2560
909.173	2463
909.273	1537
909.374	1821
909.474	1748
909.575	2100
909.675	1779
909.776	2424
909.876	2242
909.977	2596
910.077	2079
910.177	2299
910.278	1617
910.378	1646
910.478	1432
910.579	1531
910.679	2005
910.779	1793
910.879	1506
910.980	1961
911.080	2007
911.180	1229
911.280	1060
911.380	1413
911.480	1521
911.580	2124
911.680	2169
911.780	1998
911.880	3036
911.980	1709
912.080	1512
912.180	1254
912.280	1961
912.380	2728
912.480	1881
912.580	1184
912.679	1571
912.779	1985
912.879	2075
912.979	1606
913.078	1541
913.178	1531
913.278	1446
913.377	746
913.477	1313
913.577	1661
913.676	1896
913.776	2001
913.875	2402
913.975	1376
914.074	1258
914.174	1411
914.273	1128
914.373	2597
914.472	1664
914.572	1501
914.671	1751
914.770	1408
914.870	2403
914.969	1737
915.068	1475
915.167	2100
915.267	1346
915.366	1983
915.465	1548
915.564	1984
915.663	1294
915.763	1800
915.862	2196
915.961	2169
916.060	739
916.159	2123
916.258	2131
916.357	1484
916.456	1498
916.555	1252
916.654	1773
916.752	2156
916.851	1826
916.950	1659
917.049	1250
917.148	1675
917.247	1681
917.345	2560
917.444	1835
917.543	1001
917.642	2146
917.740	1421
917.839	1999
917.937	2997
918.036	2326
918.135	1718
918.233	1749
918.332	1676
918.430	2144
918.529	1738
918.627	1903
918.726	2104
918.824	2065
918.923	1165
919.021	2000
919.119	1515
919.218	2028
919.316	2014
919.414	2426
919.512	1421
919.611	2158
919.709	1765
919.807	1692
919.905	2537
920.003	2336
920.102	2258
920.200	2203
920.298	2054
920.396	2456
920.494	2639
920.592	1744
920.690	1616
920.788	2025
920.886	2665
920.984	1505
921.082	2287
921.180	2618
921.277	2605
921.375	2187
921.473	3653
921.571	2975
921.669	2946
921.766	2570
921.864	3018
921.962	2899
922.060	2938
922.157	3135
922.255	2335
922.352	3144
922.450	2555
922.548	2596
922.645	3295
922.743	3442
922.840	5787
922.938	7932
923.035	5884
923.133	6411
923.230	5255
923.327	6501
923.425	7507
923.522	6822
923.619	6592
923.717	6098
923.814	5622
923.911	5513
924.008	5744
924.106	5363
924.203	5007
924.300	5245
924.397	5511
924.494	5556
924.591	6133
924.688	5465
924.786	6294
924.883	5641
924.979	5270
925.077	6049
925.173	5265
925.270	5558
925.367	5996
925.464	6611
925.561	6371
925.658	6381
925.755	6950
925.852	6409
925.948	6373
926.045	5767
926.142	5629
926.239	6849
926.335	5477
926.432	5181
926.529	5637
926.625	6039
926.722	5145
926.818	4544
926.915	5603
927.011	5444
927.108	4932
927.204	5027
927.301	4389
927.397	4314
927.494	5820
927.590	5144
927.687	4416
927.783	5835
927.879	5872
927.976	4854
928.072	5243
928.168	4213
928.264	5249
928.361	4598
928.457	5287
928.553	4550
928.649	4483
928.745	4940
928.841	4005
928.937	5269
929.033	5989
929.129	4363
929.225	4957
929.321	5354
929.417	4166
929.513	4398
929.609	5036
929.705	3865
929.801	5171
929.897	5103
929.993	3701
930.089	4802
930.184	4123
930.280	4069
930.376	4924
930.471	4987
930.567	3523
930.663	4203
930.758	4122
930.854	4987
930.950	4828
931.045	3756
931.141	4272
931.236	4786
931.332	5183
931.427	3203
931.523	3972
931.618	4739
931.714	4165
931.809	3657
931.905	4146
932.000	4089
932.095	2575
932.191	3961
932.286	4499
932.381	4970
932.476	2955
932.572	3506
932.667	3779
932.762	3053
932.857	4812
932.952	4126
933.047	3814
933.142	3538
933.237	3978
933.332	4052
933.427	5084
933.522	4357
933.617	2975
933.712	3260
933.807	3269
933.902	4375
933.997	4930
934.092	4022
934.187	3109
934.282	3269
934.376	3301
934.471	4029
934.566	3407
934.661	3419
934.755	4448
934.850	3976
934.945	4543
935.039	3111
935.134	3132
935.228	2574
935.323	4441
935.417	4296
935.512	2655
935.606	2837
935.701	3618
935.795	3640
935.890	3851
935.984	3106
936.079	2933
936.173	3385
936.267	3205
936.362	2781
936.456	4078
936.550	3800
936.644	4205
936.738	2994
936.833	2292
936.927	2797
937.021	2919
937.115	3581
937.209	3387
937.303	3831
937.397	2677
937.491	2748
937.585	4064
937.679	3116
937.773	3651
937.867	3307
937.961	2561
938.055	2914
938.149	3828
938.243	2702
938.337	2254
938.430	2760
938.524	3550
938.618	2999
938.712	3553
938.805	3932
938.899	2987
938.993	3738
939.086	3776
939.180	1903
939.274	2809
939.367	3302
939.461	4033
939.554	3185
939.648	2576
939.741	2759
939.835	3532
939.928	3661
940.022	4086
940.115	3735
940.208	3030
940.302	3813
940.395	4293
940.488	3042
940.582	2747
940.675	2677
940.768	2166
940.861	3126
940.954	4131
941.048	2831
941.141	2841
941.234	3116
941.327	4778
941.420	5904
941.513	4535
941.606	3704
941.699	2975
941.792	3482
941.885	2958
941.978	3011
942.071	3260
942.164	2765
942.257	2576
942.349	2709
942.442	2811
942.535	2606
942.628	2745
942.721	2382
942.813	2721
942.906	2665
942.999	3563
943.091	2023
943.184	2694
943.277	2919
943.369	2124
943.462	2639
943.554	3134
943.647	2600
943.739	3014
943.832	3075
943.924	2141
944.017	1656
944.109	2109
944.201	2123
944.294	2182
944.386	2147
944.478	2399
944.571	1880
944.663	2421
944.755	2227
944.847	3096
944.940	1908
945.032	1816
945.124	1844
945.216	1256
945.308	2392
945.400	2750
945.492	2225
945.584	2148
945.676	2628
945.768	3078
945.860	3191
945.952	2140
946.044	2854
946.136	2511
946.228	2014
946.320	2409
946.412	1646
946.503	2309
946.595	2702
946.687	1871
946.779	1552
946.870	2149
946.962	1665
947.054	2560
947.145	2146
947.237	2515
947.329	1324
947.420	1591
947.512	1691
947.603	2111
947.695	1462
947.786	2202
947.878	1571
947.969	2425
948.061	2766
948.152	2385
948.243	1382
948.335	1728
948.426	1193
948.517	1776
948.609	2557
948.700	1746
948.791	2515
948.882	2146
948.973	2178
949.065	1889
949.156	2431
949.247	2383
949.338	1496
949.429	1364
949.520	808
949.611	1236
949.702	2349
949.793	2058
949.884	2024
949.975	1570
950.066	1614
950.157	1687
950.247	1757
950.338	1707
950.429	2552
950.520	3247
950.611	2527
950.701	2310
950.792	2383
950.883	2434
950.973	2068
951.064	1907
951.155	2301
951.245	2456
951.336	2977
951.427	1836
951.517	2907
951.608	1647
951.698	1999
951.788	1927
951.879	1598
951.969	1808
952.060	1690
952.150	1840
952.240	1439
952.331	1456
952.421	2411
952.511	1889
952.602	1226
952.692	2235
952.782	1386
952.872	1832
952.962	1844
953.052	2479
953.143	1615
953.233	2039
953.323	1876
953.413	1348
953.503	2007
953.593	1651
953.683	1635
953.773	2581
953.863	1375
953.953	1786
954.042	1527
954.132	2221
954.222	2449
954.312	2261
954.402	1077
954.492	2305
954.581	3454
954.671	3071
954.761	2003
954.850	2449
954.940	1247
955.030	874
955.119	1529
955.209	2158
955.298	1689
955.388	1382
955.477	2298
955.567	1784
955.656	905
955.746	1331
955.835	796
955.925	452
956.014	1890
956.103	1915
956.193	2123
956.282	1939
956.371	2218
956.461	627
956.550	983
956.639	1193
956.728	1040
956.817	1632
956.906	1716
956.995	2530
957.085	1840
957.174	1274
957.263	1055
957.352	2042
957.441	2044
957.530	1110
957.619	1499
957.708	1728
957.796	1188
957.885	1442
957.974	1753
958.063	834
958.152	561
958.241	1412
958.329	445
958.418	1843
958.507	1864
958.596	1776
958.684	1205
958.773	1624
958.861	757
958.950	1209
959.039	1030
959.127	727
959.216	1387
959.304	1463
959.393	1622
959.481	1590
959.570	1053
959.658	1517
959.746	636
959.835	1658
959.923	3001
960.011	2993
960.100	1057
960.188	1752
960.276	1111
960.365	921
960.453	1056
960.541	1160
960.629	1038
960.717	1063
960.805	201
960.893	621
960.981	790
961.069	1485
961.158	1858
961.245	2048
961.333	1955
961.421	2038
961.509	1368
961.597	1338
961.685	1310
961.773	866
961.861	1318
961.949	946
962.036	1329
962.124	788
962.212	1230
962.299	997
962.387	1220
962.475	686
962.562	681
962.650	1526
962.738	939
962.825	1374
962.913	999
963.000	1539
963.088	1637
963.175	1249
963.263	858
963.350	1603
963.438	1836
963.525	2626
963.612	2842
963.700	5001
963.787	10430
963.874	14093
963.962	4383
964.049	1663
964.136	1148
964.223	751
964.310	520
964.398	1177
964.485	1120
964.572	687
964.659	2049
964.746	2924
964.833	1565
964.920	1151
965.007	1069
965.094	645
965.181	1381
965.268	1577
965.355	1013
965.441	945
965.528	617
965.615	982
965.702	1098
965.789	1264
965.875	814
965.962	1574
966.049	649
966.136	1125
966.222	1089
966.309	1762
966.395	1331
966.482	1678
966.569	696
966.655	1265
966.742	1552
966.828	943
966.915	1243
967.001	987
967.087	932
967.174	819
967.260	1486
967.347	2111
967.433	3536
967.519	8866
967.605	7833
967.692	2152
967.778	986
967.864	547
967.950	777
968.036	520
968.123	1217
968.209	1148
968.295	670
968.381	1078
968.467	914
968.553	95
968.639	1556
968.725	1170
968.811	2150
968.897	3126
968.983	2295
969.069	545
969.154	475
969.240	822
969.326	1037
969.412	257
969.497	452
969.583	979
969.669	720
969.755	633
969.840	573
969.926	1363
970.012	1550
970.097	2720
970.183	3606
970.268	2650
970.354	1364
970.439	1892
970.525	4448
970.610	4959
970.696	1845
970.781	663
970.866	-31
970.952	368
971.037	147
971.122	554
971.208	276
971.293	903
971.378	-10
971.463	611
971.549	1089
971.634	970
971.719	1508
971.804	1126
971.889	1867
971.974	1450
972.059	-29
972.144	955
972.229	652
972.314	863
972.399	644
972.484	748
972.569	197
972.654	1306
972.739	1776
972.824	3192
972.908	2280
972.993	-526
973.078	-384
973.163	931
973.247	122
973.332	-100
973.417	706
973.501	517
973.586	97
973.671	828
973.755	233
973.840	1129
973.924	1637
974.009	575
974.093	604
974.178	1479
974.262	1749
974.346	3549
974.431	2252
974.515	667
974.600	588
974.684	700
974.768	626
974.852	401
974.937	280
975.021	322
975.105	386
975.189	189
975.273	487
975.358	976
975.442	55
975.526	337
975.610	364
975.694	555
975.778	909
975.862	469
975.946	-763
976.030	467
976.114	310
976.198	-12
976.281	753
976.365	811
976.449	191
976.533	459
976.617	931
976.700	74
976.784	434
976.868	307
976.951	1909
977.035	1600
977.119	301
977.202	449
977.286	416
977.369	605
977.453	1704
977.536	1351
977.620	1306
977.703	1404
977.787	160
977.870	783
977.953	647
978.037	204
978.120	1458
978.203	1180
978.287	2587
978.370	2695
978.453	1388
978.536	58
978.620	565
978.703	1559
978.786	1103
978.869	911
978.952	-364
979.035	557
979.118	362
979.201	11
979.284	527
979.367	218
979.450	661
979.533	-75
979.616	-359
979.699	254
979.782	425
979.865	855
979.948	533
980.030	766
980.113	-57
980.196	122
980.279	384
980.361	-738
980.444	208
980.526	58
980.609	903
980.692	673
980.774	1245
980.857	51
980.939	1183
981.022	186
981.104	158
981.187	45
981.269	1046
981.352	709
981.434	499
981.516	230
981.599	638
981.681	417
981.763	215
981.846	-82
981.928	534
982.010	882
982.092	86
982.174	1484
982.256	272
982.339	-9
982.421	631
982.503	360
982.585	327
982.667	-151
982.749	-38
982.831	-410
982.913	159
982.995	231
983.077	60
983.158	1150
983.240	-410
983.322	955
983.404	1085
983.486	709
983.568	1011
983.649	-113
983.731	543
983.813	538
983.894	164
983.976	599
984.058	702
984.139	1312
984.221	383
984.302	1215
984.384	-244
984.465	495
984.547	834
984.628	258
984.710	328
984.791	-88
984.872	-84
984.954	128
985.035	1101
985.116	398
985.198	919
985.279	490
985.360	384
985.441	783
985.522	910
985.604	94
985.685	223
985.766	1325
985.847	1072
985.928	291
986.009	854
986.090	270
986.171	346
986.252	357
986.333	1207
986.414	553
986.495	79
986.576	507
986.656	966
986.737	527
986.818	671
986.899	233
986.980	763
987.060	482
987.141	-302
987.222	959
987.302	1432
987.383	665
987.464	1058
987.544	1124
987.625	374
987.705	899
987.786	1335
987.866	677
987.947	489
988.027	920
988.108	727
988.188	1004
988.268	980
988.349	433
988.429	1061
988.509	847
988.589	184
988.670	-56
988.750	1920
988.830	362
988.910	777
988.990	1005
989.070	224
989.151	798
989.231	659
989.311	927
989.391	469
989.471	-216
989.551	1243
989.631	490
989.711	1514
989.791	268
989.870	290
989.950	336
990.030	996
990.110	633
990.190	955
990.269	478
990.349	449
990.429	622
990.509	1065
990.588	565
990.668	1205
990.747	198
990.827	622
990.907	500
990.986	-64
991.066	384
991.145	81
991.225	394
991.304	-120
991.383	780
991.463	-414
991.542	190
991.622	264
991.701	-343
991.780	-326
991.859	114
991.939	-135
992.018	609
992.097	236
992.176	900
992.256	563
992.335	311
992.414	81
992.493	550
992.572	-231
992.651	770
992.730	168
992.809	735
992.888	67
992.967	-95
993.046	-442
993.125	-238
993.203	148
993.282	939
993.361	-146
993.440	294
993.519	-152
993.597	273
993.676	-504
993.755	614
993.834	36
993.912	74
993.991	-218
994.069	-2
994.148	171
994.226	-234
994.305	-336
994.384	-90
994.462	666
994.540	-297
994.619	275
994.697	88
994.776	-821
994.854	264
994.932	381
995.011	98
995.089	188
995.167	-305
995.245	517
995.324	-204
995.402	634
995.480	469
995.558	-143
995.636	-61
995.714	312
995.792	499
995.870	-223
995.948	-247
996.026	-322
996.104	172
996.182	218
996.260	-224
996.338	13
996.416	-207
996.494	-440
996.572	158
996.649	-729
996.727	-346
996.805	-264
996.883	-473
996.960	301
997.038	-81
997.116	319
997.193	-77
997.271	65
997.348	-150
997.426	-661
997.504	-711
997.581	698
997.658	-716
997.736	-477
997.813	-184
997.891	-163
997.968	-365
998.046	331
998.123	428
998.200	-6
998.277	-598
998.355	536
998.432	-1131
998.509	-574
998.586	-359
998.663	17
998.741	-148
998.818	358
998.895	-625
998.972	-90
999.049	-134
999.126	-316
999.203	-83
999.280	10
999.357	-720
999.434	-270
999.511	305
999.587	-239
999.664	-353
999.741	-3
999.818	454
999.895	-423
999.971	436
1000.048	-552
1000.125	-348
1000.202	-828
1000.278	-546
1000.355	-264
1000.431	-155
1000.508	-621
1000.584	-787
1000.661	-760
1000.738	-1059
1000.814	-693
1000.890	46
1000.967	-860
1001.043	-313
1001.120	-551
1001.196	-148
1001.272	-451
1001.349	-78
1001.425	-4
1001.501	-300
1001.577	-248
1001.654	-186
1001.730	288
1001.806	-546
1001.882	-1854
1001.958	-429
1002.034	432
1002.110	-454
1002.186	-635
1002.262	-662
1002.338	-1255
1002.414	-561
1002.490	-186
1002.566	-1007
1002.642	-897
1002.718	-201
1002.794	-523
1002.870	-133
1002.945	-200
1003.021	-1014
1003.097	-914
1003.173	48
1003.248	-896
1003.324	-119
1003.400	-572
1003.475	-819
1003.551	-738
1003.626	-964
1003.702	-376
1003.777	-613
1003.853	-878
1003.928	-1115
1004.004	-1067
1004.079	535
1004.155	-748
1004.230	-407
1004.305	-800
1004.381	-734
1004.456	-832
1004.531	-597
1004.607	-9
1004.682	-836
1004.757	-1171
1004.832	-157
1004.907	-440
1004.982	-642
1005.057	-432
1005.133	-536
1005.208	-31
1005.283	-529
1005.358	157
1005.433	-1562
1005.508	-62
1005.583	-1090
1005.657	-460
1005.732	-130
1005.807	-357
1005.882	-865
1005.957	-321
1006.032	-317
1006.106	-1003
1006.181	-988
1006.256	-1347
1006.331	-789
1006.405	-1094
1006.480	-1149
1006.554	-1040
1006.629	-1132
1006.704	-989
1006.778	-891
1006.853	-129
1006.927	-758
1007.002	-1477
1007.076	-340
1007.150	-913
1007.225	-834
1007.299	-846
1007.373	-1443
1007.448	-743
1007.522	96
1007.596	-963
1007.671	-941
1007.745	-650
1007.819	-940
1007.893	-1076
1007.967	-1193
1008.041	-940
1008.115	-1225
1008.190	-1275
1008.264	-577
1008.338	-1416
1008.412	-1420
1008.486	-989
1008.560	-1238
1008.633	-1544
1008.707	-1428
1008.781	-493
1008.855	-1144
1008.929	-534
1009.003	-387
1009.076	-1849
1009.150	-375
1009.224	-1120
1009.298	-695
1009.371	-1072
1009.445	-712
1009.519	-1411
1009.592	-800
1009.666	-1204
1009.739	-1242
1009.813	-1294
1009.886	-386
1009.960	-1509
1010.033	-516
1010.107	-412
1010.180	-1697
1010.253	-1246
1010.327	-1562
1010.400	-997
1010.473	-2021
1010.547	-688
1010.620	-1337
1010.693	-1221
1010.766	-1488
1010.840	-783
1010.913	-1599
1010.986	-1017
1011.059	-1041
1011.132	-1848
1011.205	-581
1011.278	-530
1011.351	-1240
1011.424	-1392
1011.497	-1425
1011.570	-1677
1011.643	-821
1011.716	-2002
1011.789	-1497
1011.862	-668
1011.934	-887
1012.007	-1090
1012.080	-970
1012.153	-1184
1012.225	-1435
1012.298	-1610
1012.371	-561
1012.443	-1062
1012.516	-729
1012.588	-1403
1012.661	-1759
1012.733	-1807
1012.806	-1361
1012.879	-1079
1012.951	-699
1013.023	-955
1013.096	-1286
1013.168	-1845
1013.241	-1468
1013.313	-1431
1013.385	-1441
1013.458	-1793
1013.530	-1460
1013.602	-979
1013.674	-659
1013.746	-1705
1013.819	-1304
1013.891	-1286
1013.963	-1248
1014.035	-1723
1014.107	-1120
1014.179	-830
1014.251	-866
1014.323	-1938
1014.395	-1151
1014.467	-1202
1014.539	-1641
1014.611	-1908
1014.683	-1022
1014.754	-1416
1014.826	-1526
1014.898	-633
1014.970	-1087
1015.042	-843
1015.113	-944
1015.185	-1240
1015.257	-1957
1015.328	-1491
1015.400	-1396
1015.471	-983
1015.543	-1738
1015.615	-1003
1015.686	-1271
1015.757	-1290
1015.829	-1066
1015.901	-1356
1015.972	-1818
1016.043	-2098
1016.115	-1528
1016.186	-1277
1016.257	-1375
1016.328	-1103
1016.400	-1785
1016.471	-1623
1016.542	-1384
1016.613	-1529
1016.685	-1218
1016.756	-1553
1016.827	-1473
1016.898	-1453
1016.969	-527
1017.040	-2304
1017.111	-1432
1017.182	-2079
1017.253	-1341
1017.324	-1890
1017.395	-1686
1017.466	-1459
1017.537	-1309
1017.608	-1650
1017.678	-1653
1017.749	-1345
1017.820	-1680
1017.891	-2045
1017.961	-2233
1018.032	-1100
1018.103	-764
1018.173	-1898
1018.244	-1398
1018.315	-1589
1018.385	-1571
1018.456	-909
1018.526	-1919
1018.597	-1751
1018.667	-1844
1018.738	-1696
1018.808	-686
1018.878	-2422
1018.949	-1366
1019.019	-1708
1019.089	-734
1019.160	-1758
1019.230	-1571
1019.300	-1086
1019.371	-2065
1019.441	-1512
1019.511	-1437
1019.581	-1858
1019.651	-1572
1019.721	-1641
1019.791	-1753
1019.861	-1389
1019.931	-1232
1020.001	-1761
1020.071	-1929
1020.141	-1176
1020.211	-1240
1020.281	-1981
1020.351	-2918
1020.421	-1766
1020.491	-413
1020.560	-1844
1020.630	-1585
1020.700	-1430
1020.770	-1932
1020.839	-1582
1020.909	-1356
1020.979	-1357
1021.048	-2036
1021.118	-1635
1021.187	-1881
1021.257	-1940
1021.326	-1492
1021.396	-1651
1021.465	-1232
1021.535	-1772
1021.604	-1275
1021.674	-1436
1021.743	-2156
1021.812	-1230
1021.882	-1291
1021.951	-1090
1022.020	-1249
1022.089	-1326
1022.159	-2116
1022.228	-1403
1022.297	-1657
1022.366	-1119
1022.435	-1221
1022.504	-1947
1022.573	-2363
1022.642	-1815
1022.711	-1781
1022.781	-2182
1022.849	-1354
1022.918	-1726
1022.987	-1071
1023.056	-1906
1023.125	-2015
1023.194	-1750
1023.263	-1561
1023.331	-1435
1023.400	-1688
1023.469	-2346
1023.538	-1464
1023.606	-2141
1023.675	-2081
1023.744	-2336
1023.812	-1690
1023.881	-2153
1023.949	-1979
1024.018	-2496
1024.086	-1875
1024.155	-2444
1024.223	-1711
1024.292	-1875
1024.360	-2280
1024.429	-2137
1024.497	-2594
1024.565	-1552
1024.634	-2136
1024.702	-2167
1024.770	-2444
1024.838	-2054
1024.907	-1631
1024.975	-1673
1025.043	-1744
1025.111	-2323
1025.179	-1128
1025.247	-1834
1025.315	-1894
1025.383	-2146
1025.451	-1448
1025.519	-2526
1025.587	-1505
1025.655	-2401
1025.723	-1646
1025.791	-1752
1025.859	-749
1025.927	-1420
1025.995	-2076
1026.062	-2158
1026.130	-1746
1026.198	-1869
1026.266	-2711
1026.333	-1948
1026.401	-2001
1026.469	-1509
1026.536	-1665
1026.604	-1938
1026.671	-1398
1026.739	-2492
1026.806	-1684
1026.874	-2260
1026.941	-1863
1027.009	-2366
1027.076	-2108
1027.144	-1351
1027.211	-1633
1027.278	-1433
1027.345	-1837
1027.413	-2032
1027.480	-1893
1027.547	-2469
1027.614	-1883
1027.682	-1597
1027.749	-1316
1027.816	-1842
1027.883	-1961
1027.950	-1174
1028.017	-2142
1028.084	-1577
1028.151	-1790
1028.218	-2293
1028.285	-2089
1028.352	-1318
1028.419	-2650
1028.486	-2386
1028.553	-1605
1028.619	-1366
1028.686	-1668
1028.753	-2071
1028.820	-2393
1028.886	-1829
1028.953	-1407
1029.020	-1666
1029.086	-2462
1029.153	-2104
1029.220	-2650
1029.286	-2459
1029.353	-2285
1029.419	-1890
1029.486	-2419
1029.552	-1964
1029.619	-1261
1029.685	-1631
1029.751	-2205
1029.818	-2292
1029.884	-2028
1029.951	-1529
1030.017	-2230
1030.083	-1906
1030.149	-1637
1030.216	-1832
1030.282	-2440
1030.348	-2107
1030.414	-1523
1030.480	-1583
1030.546	-2296
1030.612	-1219
1030.678	-1823
1030.744	-1985
1030.810	-2040
1030.876	-1304
1030.942	-3051
1031.008	-2673
1031.074	-2672
1031.140	-2050
1031.206	-1518
1031.272	-2039
1031.337	-1860
1031.403	-1868
1031.469	-1147
1031.534	-1578
1031.600	-1669
1031.666	-1338
1031.731	-2029
1031.797	-2088
1031.863	-1936
1031.928	-2053
1031.994	-2298
1032.059	-1624
1032.125	-1871
1032.190	-1911
1032.256	-1914
1032.321	-2113
1032.386	-1797
1032.452	-2091
1032.517	-2109
1032.582	-2101
1032.647	-1868
1032.713	-2555
1032.778	-1167
1032.843	-2092
1032.908	-2241
1032.974	-2190
1033.039	-2044
1033.104	-1711
1033.169	-2476
1033.234	-2191
1033.299	-1597
1033.364	-962
1033.429	-1459
1033.494	-710
1033.559	-1727
1033.624	-1859
1033.688	-1657
1033.753	-2804
1033.818	-1723
1033.883	-1305
1033.948	-947
1034.013	-972
1034.077	-1132
1034.142	-350
1034.207	-205
1034.271	-166
1034.336	1447
1034.400	2113
1034.465	2233
1034.530	940
1034.594	-931
1034.658	-869
1034.723	-1083
1034.787	-1894
1034.852	-1329
1034.916	-2055
1034.981	-2006
1035.045	-1832
1035.109	-1566
1035.173	-1863
1035.238	-2219
1035.302	-2012
1035.366	-1770
1035.430	-2221
1035.495	-1644
1035.559	-1783
1035.623	-1976
1035.687	-2498
1035.751	-1756
1035.815	-1792
1035.879	-1768
1035.943	-1745
1036.007	-2441
1036.071	-1676
1036.135	-1200
1036.198	-1123
1036.262	-1653
1036.326	-1172
1036.390	-1623
1036.454	-1743
1036.517	-1222
1036.581	-1289
1036.645	-364
1036.709	402
1036.772	656
1036.836	-1914
1036.900	-1071
1036.963	-2033
1037.026	-1954
1037.090	-1170
1037.154	-2070
1037.217	-1622
1037.280	-1517
1037.344	-2571
1037.407	-1540
1037.471	-1130
1037.534	-1932
1037.597	-1158
1037.661	-1544
1037.724	-1238
1037.787	-1129
1037.850	-2598
1037.913	-1753
1037.977	-1538
1038.040	-2320
1038.103	-1964
1038.166	-2692
1038.229	-2660
1038.292	-2354
1038.355	-2137
1038.418	-1455
1038.481	-1081
1038.544	-1768
1038.607	-1820
1038.670	-1520
1038.732	-2637
1038.795	-2543
1038.858	-1949
1038.921	-2242
1038.984	-1212
1039.046	-2203
1039.109	-2530
1039.172	-2046
1039.234	-2234
1039.297	-1632
1039.360	-2279
1039.422	-1609
1039.485	-2441
1039.547	-2093
1039.610	-1616
1039.672	-1089
1039.734	-1649
1039.797	-1464
1039.859	-2677
1039.922	-2528
1039.984	-1861
1040.046	-1644
1040.109	-2441
1040.171	-1382
1040.233	-1727
1040.295	-2496
1040.358	-2485
1040.420	-1697
1040.482	-1906
1040.544	-2011
1040.606	-1633
1040.668	-2277
1040.730	-2099
1040.792	-2610
1040.854	-1269
1040.916	-1921
1040.978	-2393
1041.040	-1805
1041.102	-1962
1041.164	-2165
1041.225	-1690
1041.287	-1552
1041.349	-2639
1041.411	-1224
1041.472	-1727
1041.534	-1420
1041.596	-1717
1041.657	-2136
1041.719	-1541
1041.781	-2019
1041.842	-2014
1041.904	-1873
1041.965	-1530
1042.027	-2312
1042.088	-1546
1042.150	-2170
1042.211	-1998
1042.272	-2621
1042.334	-1329
1042.395	-1853
1042.456	-2279
1042.518	-2057
1042.579	-2347
1042.640	-1957
1042.701	-1902
1042.763	-1687
1042.824	-1503
1042.885	-2266
1042.946	-1777
1043.007	-1930
1043.068	-2321
1043.129	-2559
1043.190	-2232
1043.251	-1941
1043.312	-2019
1043.373	-2009
1043.434	-1963
1043.495	-2253
1043.556	-2212
1043.616	-2328
1043.677	-1917
1043.738	-2338
1043.799	-1360
1043.859	-1765
1043.920	-1908
1043.981	-1689
1044.041	-1323
1044.102	-1807
1044.162	-2342
1044.223	-1787
1044.284	-2916
1044.344	-2048
1044.405	-1875
1044.465	-1887
1044.525	-1706
1044.586	-1483
1044.646	-2450
1044.707	-1126
1044.767	-1638
1044.827	-1501
1044.887	-1149
1044.948	-1940
1045.008	-1338
1045.068	-1983
1045.128	-1760
1045.188	-2553
1045.249	-2016
1045.309	-1402
1045.369	-1688
1045.429	-1304
1045.489	-1829
1045.549	-1467
1045.609	-2617
1045.669	-1367
1045.729	-2240
1045.789	-1680
1045.848	-1796
1045.908	-2431
1045.968	-1629
1046.028	-1305
1046.088	-1719
1046.147	-1438
1046.207	-1261
1046.267	-1409
1046.326	-1335
1046.386	-1537
1046.446	-1468
1046.505	-1100
1046.565	-1317
1046.624	-977
1046.684	-385
1046.743	-1009
1046.803	-423
1046.862	-640
1046.922	0
