'Start Wavelength	183.907
'End Wavelength	1046.922
'Gate Delay	5.000
'Gate Width (ms)	1.050
'Laser Output Level	0.000
'X Position	0.000
'Y Position	0.000
'Z Position	0.000
'Grid Point Number	1.000
'Shot Number	100.000
183.907	-331.000
183.977	134.000
184.047	-67
184.116	1019
184.186	233
184.256	-724
184.325	-302
184.395	160
184.465	699
184.534	234
184.604	-574
184.674	-808
184.743	527
184.813	412
184.883	563
184.952	-380
185.022	550
185.092	-348
185.161	-97
185.231	-70
185.301	18
185.370	-89
185.440	-110
185.509	-652
185.579	156
185.649	450
185.718	65
185.788	51
185.857	-397
185.927	-417
185.996	363
186.066	-26
186.136	-338
186.205	367
186.275	819
186.344	216
186.414	-497
186.483	-919
186.553	636
186.622	1017
186.692	-375
186.761	198
186.831	-70
186.900	-146
186.970	-232
187.039	808
187.109	1085
187.178	496
187.248	381
187.317	-685
187.387	-261
187.456	-258
187.526	82
187.595	-151
187.664	-77
187.734	16
187.803	-41
187.873	86
187.942	758
188.012	460
188.081	-536
188.150	-588
188.220	656
188.289	370
188.358	187
188.428	355
188.497	292
188.567	-22
188.636	143
188.705	-388
188.775	41
188.844	432
188.913	705
188.983	-299
189.052	-281
189.121	-462
189.191	-13
189.260	124
189.329	-26
189.399	-75
189.468	154
189.537	-289
189.606	176
189.676	186
189.745	262
189.814	1098
189.883	-207
189.953	353
190.022	-34
190.091	1047
190.161	1854
190.230	198
190.299	531
190.368	-429
190.437	71
190.507	668
190.576	-43
190.645	23
190.714	34
190.783	-491
190.853	378
190.922	134
190.991	-182
191.060	547
191.129	187
191.198	98
191.268	197
191.337	650
191.406	821
191.475	311
191.544	-234
191.613	-644
191.682	-541
191.752	-14
191.821	482
191.890	-165
191.959	-487
192.028	-345
192.097	396
192.166	-44
192.235	370
192.304	386
192.373	17
192.442	-76
192.511	-99
192.580	-147
192.650	437
192.719	-54
192.788	-100
192.857	503
192.926	49
192.995	-448
193.064	212
193.133	-103
193.202	758
193.271	362
193.340	372
193.409	708
193.478	787
193.547	1187
193.615	1407
193.684	153
193.753	65
193.822	2
193.891	391
193.960	-166
194.029	233
194.098	100
194.167	183
194.236	99
194.305	227
194.374	-1036
194.443	577
194.512	294
194.580	413
194.649	978
194.718	586
194.787	-138
194.856	-335
194.925	554
194.994	-53
195.062	269
195.131	1069
195.200	-144
195.269	-2
195.338	251
195.407	-42
195.475	53
195.544	669
195.613	529
195.682	271
195.751	376
195.819	-47
195.888	183
195.957	1490
196.026	621
196.094	555
196.163	45
196.232	450
196.301	35
196.369	339
196.438	404
196.507	399
196.576	700
196.644	-463
196.713	593
196.782	119
196.850	70
196.919	-240
196.988	497
197.056	-156
197.125	639
197.194	-72
197.262	337
197.331	292
197.400	-68
197.468	-204
197.537	-168
197.606	662
197.674	1483
197.743	1343
197.812	680
197.880	1922
197.949	514
198.017	1626
198.086	503
198.155	565
198.223	264
198.292	1527
198.360	779
198.429	663
198.497	520
198.566	1630
198.635	945
198.703	867
198.772	1309
198.840	3739
198.909	1788
198.977	509
199.046	454
199.114	-188
199.183	445
199.251	-505
199.320	552
199.388	569
199.457	321
199.525	182
199.594	569
199.662	-47
199.731	-366
199.799	256
199.867	346
199.936	207
200.004	-89
200.073	407
200.141	698
200.210	-577
200.278	147
200.346	186
200.415	339
200.483	478
200.552	619
200.620	286
200.688	188
200.757	-43
200.825	574
200.893	182
200.962	-82
201.030	120
201.098	34
201.167	430
201.235	64
201.303	65
201.372	675
201.440	481
201.508	1033
201.577	313
201.645	109
201.713	-234
201.781	-16
201.850	1144
201.918	160
201.986	621
202.055	93
202.123	119
202.191	-86
202.259	702
202.327	-84
202.396	640
202.464	745
202.532	974
202.600	4542
202.669	630
202.737	18
202.805	369
202.873	41
202.941	685
203.009	-156
203.078	2
203.146	-198
203.214	-41
203.282	319
203.350	-243
203.418	186
203.487	559
203.555	543
203.623	539
203.691	541
203.759	549
203.827	-269
203.895	100
203.963	255
204.031	286
204.099	212
204.168	-121
204.236	276
204.304	707
204.372	219
204.440	811
204.508	-225
204.576	-31
204.644	-119
204.712	-43
204.780	751
204.848	371
204.916	-195
204.984	498
205.052	238
205.120	171
205.188	-242
205.256	-264
205.324	-4
205.392	207
205.460	474
205.528	197
205.596	264
205.664	260
205.732	88
205.799	3041
205.867	2148
205.935	1091
206.003	284
206.071	-144
206.139	670
206.207	422
206.275	368
206.343	374
206.411	-416
206.478	693
206.546	199
206.614	-324
206.682	628
206.750	62
206.818	869
206.885	1519
206.953	-154
207.021	623
207.089	553
207.157	-36
207.225	447
207.292	367
207.360	678
207.428	335
207.496	83
207.563	546
207.631	-307
207.699	356
207.767	332
207.834	68
207.902	424
207.970	-389
208.038	199
208.105	588
208.173	353
208.241	739
208.309	353
208.376	761
208.444	1124
208.512	726
208.579	134
208.647	640
208.715	1278
208.782	-442
208.850	316
208.918	-374
208.985	28
209.053	272
209.120	578
209.188	-343
209.256	326
209.323	637
209.391	984
209.459	653
209.526	-293
209.594	1032
209.661	1062
209.729	626
209.796	385
209.864	272
209.932	359
209.999	1183
210.067	675
210.134	154
210.202	600
210.269	1102
210.337	1064
210.404	454
210.472	188
210.539	168
210.607	378
210.674	617
210.742	936
210.809	443
210.877	849
210.944	1469
211.012	192
211.079	1320
211.146	557
211.214	775
211.281	1437
211.349	770
211.416	449
211.484	1368
211.551	633
211.618	201
211.686	731
211.753	705
211.821	420
211.888	1480
211.955	174
212.023	468
212.090	1016
212.157	99
212.225	1528
212.292	2653
212.359	5800
212.427	13307
212.494	3695
212.561	1971
212.629	748
212.696	813
212.763	861
212.831	439
212.898	1562
212.965	955
213.032	511
213.100	1056
213.167	833
213.234	1504
213.301	933
213.369	691
213.436	1197
213.503	1008
213.570	702
213.638	1063
213.705	652
213.772	599
213.839	1807
213.906	1805
213.973	996
214.041	679
214.108	493
214.175	1194
214.242	266
214.309	1019
214.376	1089
214.444	1026
214.511	686
214.578	752
214.645	316
214.712	1191
214.779	947
214.846	816
214.913	989
214.980	1381
215.048	1955
215.115	1480
215.182	1086
215.249	1041
215.316	688
215.383	619
215.450	537
215.517	660
215.584	92
215.651	584
215.718	375
215.785	1768
215.852	459
215.919	1288
215.986	949
216.053	723
216.120	616
216.187	1407
216.254	839
216.321	992
216.388	1178
216.455	662
216.522	825
216.589	2019
216.656	3301
216.722	2396
216.789	1954
216.856	1717
216.923	894
216.990	1956
217.057	339
217.124	2129
217.191	1183
217.258	2062
217.324	3271
217.391	2117
217.458	1543
217.525	1084
217.592	840
217.659	894
217.725	984
217.792	3030
217.859	1375
217.926	747
217.993	5
218.059	525
218.126	585
218.193	359
218.260	535
218.327	230
218.393	1370
218.460	614
218.527	624
218.594	945
218.660	2895
218.727	2659
218.794	758
218.860	1154
218.927	133
218.994	267
219.061	595
219.127	691
219.194	2238
219.261	548
219.327	431
219.394	1
219.461	489
219.527	788
219.594	1852
219.661	916
219.727	76
219.794	1055
219.860	-143
219.927	621
219.994	2534
220.060	3463
220.127	2225
220.193	1355
220.260	1359
220.326	2321
220.393	3012
220.460	4343
220.526	1939
220.593	1470
220.659	1581
220.726	2761
220.792	6552
220.859	4519
220.925	6655
220.992	8389
221.058	8953
221.125	7927
221.191	5004
221.258	1407
221.324	1525
221.391	2289
221.457	865
221.524	1494
221.590	1758
221.657	9471
221.723	3866
221.789	5126
221.856	2707
221.922	1686
221.989	1316
222.055	1228
222.121	330
222.188	1942
222.254	1442
222.321	554
222.387	400
222.453	1027
222.520	426
222.586	842
222.652	507
222.719	522
222.785	628
222.851	955
222.918	374
222.984	1381
223.050	559
223.116	392
223.183	868
223.249	358
223.315	260
223.382	566
223.448	1752
223.514	469
223.580	878
223.647	-280
223.713	624
223.779	634
223.845	416
223.911	1075
223.978	322
224.044	376
224.110	136
224.176	1320
224.242	326
224.309	34
224.375	364
224.441	145
224.507	-366
224.573	154
224.639	407
224.705	393
224.772	868
224.838	322
224.904	1042
224.970	663
225.036	120
225.102	1118
225.168	1061
225.234	568
225.300	440
225.366	727
225.432	546
225.499	298
225.565	569
225.631	920
225.697	1024
225.763	1480
225.829	970
225.895	1631
225.961	1812
226.027	1964
226.093	2180
226.159	2005
226.225	3054
226.291	8809
226.357	11377
226.423	5635
226.489	3180
226.554	1954
226.620	1626
226.686	2858
226.752	4370
226.818	8182
226.884	17192
226.950	12458
227.016	5104
227.082	3824
227.148	2422
227.214	2991
227.279	1280
227.345	1105
227.411	1220
227.477	2076
227.543	4299
227.609	4417
227.674	1616
227.740	1229
227.806	984
227.872	605
227.938	1853
228.003	2479
228.069	1125
228.135	368
228.201	694
228.267	1110
228.332	1230
228.398	1482
228.464	796
228.530	608
228.595	574
228.661	837
228.727	1824
228.792	919
228.858	193
228.924	614
228.990	1994
229.055	1253
229.121	1542
229.187	886
229.252	813
229.318	707
229.384	654
229.449	1131
229.515	160
229.581	-503
229.646	1781
229.712	1301
229.777	4114
229.843	2502
229.909	2590
229.974	2230
230.040	2190
230.105	1399
230.171	1120
230.236	1955
230.302	3754
230.368	2086
230.433	869
230.499	576
230.564	1634
230.630	728
230.695	1250
230.761	1347
230.826	398
230.892	2154
230.957	975
231.023	1141
231.088	1240
231.154	761
231.219	1215
231.284	2175
231.350	1923
231.415	864
231.481	166
231.546	685
231.612	790
231.677	797
231.742	-115
231.808	518
231.873	400
231.939	226
232.004	3132
232.069	2317
232.135	754
232.200	507
232.265	864
232.331	426
232.396	160
232.461	283
232.527	458
232.592	448
232.657	1116
232.723	2907
232.788	566
232.853	235
232.918	399
232.984	716
233.049	-294
233.114	2301
233.179	1496
233.245	4632
233.310	2991
233.375	931
233.440	1110
233.506	-123
233.571	268
233.636	383
233.701	341
233.766	2706
233.832	2003
233.897	1243
233.962	486
234.027	550
234.092	1181
234.157	775
234.222	962
234.288	3303
234.353	8962
234.418	7050
234.483	3929
234.548	2338
234.613	2148
234.678	1296
234.743	2266
234.808	9561
234.873	4186
234.938	1266
235.004	1377
235.069	1493
235.134	770
235.199	1718
235.264	814
235.329	836
235.394	354
235.459	2195
235.524	1278
235.589	1163
235.654	1166
235.719	406
235.784	839
235.849	1302
235.913	3988
235.978	5520
236.043	5394
236.108	1795
236.173	2168
236.238	1739
236.303	730
236.368	1304
236.433	3954
236.498	5655
236.563	3240
236.627	7407
236.692	24043
236.757	13638
236.822	6346
236.887	5009
236.952	3886
237.017	3205
237.081	3067
237.146	4668
237.211	8774
237.276	25968
237.341	35556
237.405	13669
237.470	7236
237.535	3927
237.600	2186
237.664	1987
237.729	1423
237.794	3574
237.859	4797
237.923	3967
237.988	1792
238.053	4057
238.118	4306
238.182	15870
238.247	8729
238.312	3862
238.376	2960
238.441	2227
238.506	2338
238.570	750
238.635	1295
238.700	797
238.764	1286
238.829	6465
238.893	4780
238.958	2543
239.023	1965
239.087	1719
239.152	1530
239.216	1040
239.281	888
239.346	1172
239.410	932
239.475	1898
239.539	15349
239.604	7204
239.668	2106
239.733	1068
239.797	3198
239.862	7962
239.926	9172
239.991	3016
240.055	1352
240.120	1403
240.184	1766
240.249	1102
240.313	639
240.378	1353
240.442	8210
240.507	9861
240.571	3057
240.635	5593
240.700	4991
240.764	1556
240.829	1374
240.893	430
240.957	705
241.022	8350
241.086	11098
241.151	3719
241.215	488
241.279	3448
241.344	4722
241.408	1980
241.472	1520
241.537	2183
241.601	1410
241.665	1204
241.730	1060
241.794	1513
241.858	1074
241.922	2224
241.987	1636
242.051	1065
242.115	792
242.179	995
242.244	637
242.308	2143
242.372	1957
242.436	2160
242.501	1282
242.565	1610
242.629	1082
242.693	1686
242.757	845
242.822	970
242.886	2300
242.950	1891
243.014	1388
243.078	2300
243.142	1885
243.206	1605
243.271	1976
243.335	1360
243.399	3075
243.463	18453
243.527	32194
243.591	8573
243.655	4092
243.719	2473
243.783	3100
243.847	4393
243.911	4987
243.975	7727
244.040	3710
244.104	2374
244.168	2527
244.232	4068
244.296	4688
244.360	4784
244.424	2166
244.488	2556
244.552	2484
244.615	1183
244.679	1144
244.743	2815
244.807	1876
244.871	1583
244.935	1286
244.999	508
245.063	695
245.127	2147
245.191	4445
245.255	2767
245.319	3242
245.383	1617
245.446	3297
245.510	1019
245.574	2722
245.638	1248
245.702	1350
245.766	6951
245.829	3002
245.893	2122
245.957	796
246.021	2839
246.085	2092
246.149	3381
246.212	9741
246.276	11725
246.340	5133
246.404	2990
246.467	3810
246.531	4711
246.595	3685
246.659	3456
246.722	2695
246.786	3212
246.850	4842
246.913	4783
246.977	1831
247.041	2713
247.104	2459
247.168	3133
247.232	9370
247.295	17752
247.359	6497
247.423	4623
247.486	6210
247.550	3507
247.614	3060
247.677	4155
247.741	1918
247.804	2243
247.868	2927
247.932	9424
247.995	14505
248.059	4560
248.122	2266
248.186	3833
248.249	7792
248.313	32448
248.376	25521
248.440	14179
248.503	5106
248.567	5930
248.630	6677
248.694	9277
248.757	14732
248.821	29351
248.884	14650
248.948	16046
249.011	21959
249.075	36019
249.138	24511
249.202	8929
249.265	6856
249.328	8184
249.392	5016
249.455	4885
249.519	2872
249.582	5086
249.645	9200
249.709	5400
249.772	3268
249.835	3807
249.899	3938
249.962	3777
250.025	3408
250.089	12783
250.152	13100
250.215	5934
250.279	4657
250.342	5126
250.405	5106
250.468	3767
250.532	4361
250.595	9992
250.658	46123
250.721	49293
250.785	17149
250.848	9233
250.911	5182
250.974	5196
251.038	10463
251.101	15608
251.164	8508
251.227	8265
251.290	7484
251.354	13041
251.417	57513
251.480	37965
251.543	36487
251.606	98928
251.669	52032
251.732	21856
251.795	25016
251.859	27242
251.922	57111
251.985	24974
252.048	11178
252.111	7788
252.174	7741
252.237	19514
252.300	34323
252.363	42567
252.426	69156
252.489	25396
252.552	13124
252.615	8590
252.678	11066
252.741	26835
252.804	39520
252.867	71583
252.930	38730
252.993	20043
253.056	12715
253.119	7791
253.182	6762
253.245	11350
253.308	8345
253.371	8904
253.434	6924
253.497	7669
253.559	15591
253.622	9810
253.685	13465
253.748	11386
253.811	5990
253.874	9397
253.937	6621
254.000	5792
254.062	12364
254.125	14255
254.188	15342
254.251	9837
254.314	5405
254.376	11803
254.439	10500
254.502	8231
254.565	12177
254.628	18039
254.690	9332
254.753	5566
254.816	4550
254.878	5812
254.941	13855
255.004	9454
255.067	5594
255.129	4027
255.192	2364
255.255	1456
255.317	3411
255.380	1552
255.443	2137
255.505	1240
255.568	902
255.631	2209
255.693	2504
255.756	905
255.819	2409
255.881	1232
255.944	1174
256.006	759
256.069	1489
256.132	1655
256.194	3061
256.257	9526
256.319	6809
256.382	4942
256.444	2646
256.507	2714
256.569	1582
256.632	2074
256.694	4164
256.757	15102
256.819	31499
256.882	9975
256.944	4496
257.007	3886
257.069	3960
257.132	2757
257.194	2538
257.257	2682
257.319	1789
257.381	2212
257.444	10483
257.506	46177
257.569	37628
257.631	20349
257.693	10182
257.756	4919
257.818	3032
257.880	2467
257.943	1834
258.005	2372
258.067	1536
258.130	1032
258.192	3857
258.254	7175
258.317	2282
258.379	3101
258.441	10245
258.503	6867
258.566	15398
258.628	12116
258.690	2760
258.753	3652
258.815	6211
258.877	3044
258.939	1944
259.001	1268
259.064	2183
259.126	3293
259.188	4081
259.250	3319
259.312	4551
259.375	11848
259.437	5037
259.499	3176
259.561	2549
259.623	2315
259.685	1526
259.747	1802
259.809	14582
259.872	19669
259.934	39581
259.996	22013
260.058	6143
260.120	3264
260.182	2329
260.244	2176
260.306	956
260.368	2399
260.430	1669
260.492	5779
260.554	10965
260.616	5820
260.678	20640
260.740	17431
260.802	3978
260.864	3351
260.926	1973
260.988	2736
261.050	3008
261.112	8041
261.174	26725
261.236	13141
261.298	4265
261.359	11241
261.421	10474
261.483	2679
261.545	2492
261.607	1043
261.669	1372
261.731	6986
261.793	13433
261.854	4381
261.916	3606
261.978	3243
262.040	3061
262.102	2896
262.164	5084
262.225	3107
262.287	2706
262.349	8610
262.411	4083
262.472	2838
262.534	7813
262.596	12041
262.658	4072
262.719	2100
262.781	4825
262.843	11192
262.904	4325
262.966	3139
263.028	4005
263.090	34896
263.151	52804
263.213	15833
263.275	8012
263.336	3662
263.398	2294
263.459	1172
263.521	2119
263.583	7306
263.644	3792
263.706	1436
263.767	764
263.829	1398
263.891	543
263.952	1150
264.014	144
264.075	3619
264.137	7244
264.198	3546
264.260	53
264.321	1030
264.383	6481
264.444	12253
264.506	3151
264.567	1776
264.629	6678
264.690	8214
264.752	3121
264.813	2480
264.875	1291
264.936	1956
264.998	692
265.059	631
265.120	868
265.182	3812
265.243	19975
265.305	12688
265.366	3118
265.427	1966
265.489	2066
265.550	58
265.611	1522
265.673	2490
265.734	1187
265.795	1122
265.857	13
265.918	735
265.979	5691
266.040	32647
266.102	16081
266.163	5824
266.224	4531
266.286	1977
266.347	654
266.408	1786
266.469	1540
266.530	740
266.592	1322
266.653	4910
266.714	6744
266.775	1891
266.836	500
266.898	1112
266.959	3216
267.020	1170
267.081	1089
267.142	900
267.203	763
267.264	66
267.326	1599
267.387	496
267.448	42
267.509	1059
267.570	954
267.631	672
267.692	-272
267.753	1265
267.814	-545
267.875	6070
267.936	8408
267.997	4576
268.058	2958
268.119	1713
268.180	1340
268.241	452
268.302	2061
268.363	956
268.424	1643
268.485	1292
268.546	505
268.607	165
268.668	15
268.729	755
268.790	896
268.851	1082
268.912	6568
268.972	5490
269.033	2423
269.094	399
269.155	633
269.216	650
269.277	989
269.338	659
269.398	1434
269.459	1033
269.520	2856
269.581	3874
269.642	3794
269.702	2430
269.763	1531
269.824	1233
269.885	3545
269.945	3852
270.006	1133
270.067	238
270.128	59
270.188	427
270.249	857
270.310	920
270.370	1673
270.431	869
270.492	357
270.553	1103
270.613	5408
270.674	8786
270.734	2144
270.795	1424
270.856	3547
270.916	1194
270.977	1661
271.038	2908
271.098	1711
271.159	5607
271.219	2331
271.280	2091
271.340	1144
271.401	2473
271.462	5571
271.522	2356
271.583	2487
271.643	1737
271.704	468
271.764	2296
271.825	8485
271.885	30898
271.946	28979
272.006	8501
272.066	20345
272.127	22580
272.187	5559
272.248	3678
272.308	5167
272.369	19025
272.429	6525
272.489	7538
272.550	4893
272.610	7008
272.671	3715
272.731	6194
272.791	7900
272.852	3444
272.912	3572
272.972	838
273.033	2204
273.093	3483
273.153	4102
273.214	3178
273.274	3049
273.334	18112
273.394	22885
273.455	8389
273.515	11932
273.575	19925
273.635	7285
273.696	15764
273.756	23821
273.816	7327
273.876	5244
273.936	17869
273.997	18747
274.057	4469
274.117	3664
274.177	7655
274.237	36600
274.297	22380
274.358	16214
274.418	20831
274.478	11748
274.538	4184
274.598	4842
274.658	21864
274.718	20507
274.778	6904
274.838	3132
274.898	14958
274.958	31976
275.018	28774
275.078	12870
275.138	5722
275.198	2816
275.258	2350
275.318	3482
275.378	7263
275.438	6093
275.498	4466
275.558	20501
275.618	30584
275.678	14455
275.738	11195
275.798	7252
275.858	3244
275.918	1253
275.978	3266
276.038	2395
276.098	2150
276.157	6202
276.217	16429
276.277	6372
276.337	4684
276.397	1972
276.457	3326
276.517	1284
276.576	1738
276.636	894
276.696	4159
276.756	11983
276.815	6204
276.875	3054
276.935	3719
276.995	2033
277.055	1672
277.114	1796
277.174	5593
277.234	14024
277.293	4806
277.353	2727
277.413	2327
277.472	2308
277.532	2684
277.592	3534
277.651	19906
277.711	23039
277.771	8834
277.830	35558
277.890	18080
277.950	23206
278.009	50583
278.069	14609
278.128	23556
278.188	22867
278.248	11226
278.307	33307
278.367	13144
278.426	4739
278.486	3398
278.545	2222
278.605	2788
278.664	1724
278.724	3129
278.783	14190
278.843	24483
278.902	5979
278.962	4642
279.021	5497
279.081	10508
279.140	6584
279.199	5025
279.259	5162
279.318	5317
279.378	6751
279.437	15102
279.496	64766
279.556	200125
279.615	99287
279.675	29753
279.734	18477
279.793	32337
279.853	37358
279.912	12143
279.971	6072
280.031	6197
280.090	17666
280.149	21345
280.208	25978
280.268	144396
280.327	86090
280.386	22009
280.445	18806
280.505	13112
280.564	6614
280.623	5351
280.682	10940
280.742	10718
280.801	3629
280.860	3056
280.919	3155
280.978	2919
281.037	3386
281.097	1926
281.156	2551
281.215	1736
281.274	3721
281.333	21255
281.392	9155
281.451	3109
281.510	2649
281.569	1272
281.628	1499
281.688	1869
281.747	3272
281.806	2092
281.865	1571
281.924	2071
281.983	1500
282.042	1292
282.101	1972
282.160	1120
282.219	1279
282.278	2070
282.337	10208
282.396	4807
282.454	1962
282.513	4094
282.572	15923
282.631	6150
282.690	2117
282.749	2220
282.808	2276
282.867	3541
282.926	2284
282.985	1372
283.043	560
283.102	1953
283.161	2112
283.220	10191
283.279	15150
283.338	3197
283.396	2477
283.455	2428
283.514	3325
283.573	5114
283.631	2930
283.690	2142
283.749	2406
283.808	7484
283.866	6372
283.925	2128
283.984	2639
284.043	4547
284.101	3334
284.160	2042
284.219	4234
284.277	3688
284.336	7073
284.395	24947
284.453	12970
284.512	5853
284.570	9709
284.629	7179
284.688	6712
284.746	7486
284.805	9080
284.863	12641
284.922	14814
284.981	17191
285.039	24588
285.098	48434
285.156	121504
285.215	208580
285.273	183409
285.332	101815
285.390	56460
285.449	34587
285.507	23253
285.566	16560
285.624	11535
285.683	9071
285.741	8226
285.799	5716
285.858	5402
285.916	5143
285.975	4051
286.033	3669
286.091	3213
286.150	2505
286.208	3298
286.267	3097
286.325	3499
286.383	6362
286.442	4397
286.500	2402
286.558	2621
286.616	2247
286.675	4176
286.733	2964
286.791	3030
286.850	3876
286.908	5600
286.966	7500
287.024	2944
287.083	2577
287.141	1611
287.199	2863
287.257	3987
287.315	2723
287.374	3138
287.432	9852
287.490	4861
287.548	2988
287.606	1604
287.664	2192
287.723	4542
287.781	4743
287.839	2317
287.897	4286
287.955	3702
288.013	5361
288.071	16061
288.129	103716
288.187	202790
288.245	69440
288.303	25436
288.361	14669
288.419	10631
288.477	6583
288.535	4492
288.593	2936
288.651	2525
288.709	2199
288.767	2686
288.825	1404
288.883	1004
288.941	1941
288.999	1504
289.057	1051
289.115	1801
289.173	1816
289.231	1591
289.289	2044
289.346	1835
289.404	2262
289.462	4795
289.520	4607
289.578	1544
289.636	1195
289.694	1263
289.751	1027
289.809	1359
289.867	2163
289.925	2542
289.983	2075
290.040	1264
290.098	1583
290.156	2741
290.214	2775
290.271	1370
290.329	1207
290.387	164
290.444	1148
290.502	312
290.560	1115
290.617	1399
290.675	873
290.733	525
290.790	1612
290.848	658
290.906	2136
290.963	1348
291.021	1125
291.078	906
291.136	1928
291.194	11841
291.251	16366
291.309	3983
291.366	2245
291.424	1242
291.481	2173
291.539	1409
291.596	1202
291.654	-495
291.711	674
291.769	2603
291.826	5015
291.884	1379
291.941	1211
291.999	1524
292.056	1861
292.114	2383
292.171	1577
292.228	1436
292.286	2337
292.343	5426
292.401	6818
292.458	2598
292.515	1508
292.573	2325
292.630	2834
292.687	3314
292.745	1886
292.802	3464
292.859	12168
292.917	20430
292.974	8793
293.031	2637
293.089	2424
293.146	1855
293.203	1442
293.260	1027
293.318	2424
293.375	3926
293.432	1037
293.489	1743
293.546	732
293.604	2733
293.661	18194
293.718	33501
293.775	13280
293.832	7613
293.889	5962
293.947	5662
294.004	3207
294.061	3230
294.118	9878
294.175	20056
294.232	21259
294.289	7477
294.346	4610
294.403	3620
294.460	3463
294.517	2045
294.574	1733
294.631	1596
294.688	2960
294.745	12001
294.802	43192
294.859	33340
294.916	13593
294.973	7051
295.030	6295
295.087	4353
295.144	2769
295.201	2590
295.258	2136
295.315	4184
295.372	18376
295.429	24583
295.486	8785
295.542	5591
295.599	20378
295.656	25133
295.713	22460
295.770	23435
295.827	8345
295.883	3921
295.940	3993
295.997	7772
296.054	5436
296.111	3066
296.167	1712
296.224	1843
296.281	2069
296.338	1824
296.394	1178
296.451	2837
296.508	14153
296.564	18413
296.621	13162
296.678	39403
296.734	38657
296.791	13497
296.848	6787
296.904	7496
296.961	20009
297.018	30975
297.074	17740
297.131	6923
297.187	4728
297.244	7381
297.301	41585
297.357	47669
297.414	15070
297.470	6613
297.527	4775
297.583	3708
297.640	4147
297.696	2492
297.753	2385
297.809	1391
297.866	1741
297.922	1948
297.979	1442
298.035	1715
298.092	5624
298.148	19827
298.204	12830
298.261	5650
298.317	18992
298.374	38610
298.430	18161
298.486	9391
298.543	6692
298.599	5693
298.656	5693
298.712	14452
298.768	29914
298.824	16384
298.881	5440
298.937	3153
298.993	3759
299.050	4830
299.106	3167
299.162	3801
299.218	3487
299.275	2442
299.331	3070
299.387	10369
299.443	39497
299.500	29666
299.556	12265
299.612	5952
299.668	5223
299.724	8509
299.780	7400
299.837	3224
299.893	7228
299.949	31618
300.005	26251
300.061	33469
300.117	44888
300.173	18095
300.229	9251
300.285	12450
300.341	11194
300.397	6076
300.453	3477
300.510	2989
300.566	2181
300.622	4782
300.678	20545
300.734	29788
300.790	29324
300.845	29951
300.901	21773
300.957	30774
301.013	18540
301.069	7559
301.125	6505
301.181	5826
301.237	4089
301.293	3093
301.349	2266
301.405	1868
301.461	3132
301.516	3150
301.572	4483
301.628	7587
301.684	6409
301.740	14073
301.796	16061
301.851	12181
301.907	19944
301.963	16489
302.019	44958
302.074	106224
302.130	83757
302.186	36108
302.242	16101
302.297	10150
302.353	11129
302.409	20460
302.464	13080
302.520	14716
302.576	38550
302.631	34681
302.687	18829
302.743	8470
302.798	5397
302.854	3909
302.910	4543
302.965	5262
303.021	10656
303.076	8926
303.132	13933
303.187	13358
303.243	6343
303.299	3652
303.354	2610
303.410	2632
303.465	2185
303.521	2455
303.576	2727
303.632	3307
303.687	12826
303.743	33331
303.798	21956
303.853	9275
303.909	5249
303.964	4718
304.020	8102
304.075	9872
304.130	10523
304.186	19837
304.241	19071
304.297	13667
304.352	7655
304.358	7294
304.407	4370
304.449	4623
304.463	4715
304.518	4511
304.539	4031
304.573	3260
304.629	3821
304.630	3915
304.684	8291
304.720	21700
304.739	28558
304.794	31830
304.811	27037
304.850	15329
304.902	8066
304.905	7617
304.960	4396
304.992	4927
305.015	5326
305.071	4238
305.083	4053
305.126	3327
305.173	2665
305.181	2572
305.236	2051
305.264	2677
305.292	3303
305.347	4678
305.354	4598
305.402	4084
305.445	4674
305.457	4851
305.512	6142
305.535	5775
305.567	5196
305.622	5657
305.626	6032
305.678	13225
305.716	28553
305.733	34704
305.788	30088
305.807	27118
305.843	21495
305.897	33966
305.898	34130
305.953	26062
305.988	18329
306.008	13868
306.063	8901
306.078	7766
306.118	5431
306.168	4075
306.173	3944
306.228	3134
306.259	2706
306.283	2456
306.338	2761
306.349	2831
306.393	3214
306.440	3463
306.448	3465
306.503	3127
306.530	3964
306.558	5565
306.613	14025
306.620	15064
306.668	21854
306.711	28873
306.723	30042
306.778	20967
306.801	16800
306.833	11440
306.888	5514
306.892	5328
306.943	4127
306.982	3888
306.997	3867
307.052	3089
307.072	3011
307.107	2951
307.162	4415
307.163	4446
307.217	7642
307.253	9720
307.272	10510
307.327	10593
307.343	9809
307.381	7558
307.434	6473
307.436	6582
307.491	14524
307.524	22087
307.546	25834
307.600	23899
307.614	21875
307.655	13439
307.704	6723
307.710	6375
307.765	6898
307.795	9769
307.819	12743
307.874	18977
307.885	18681
307.929	13680
307.975	9320
307.984	9075
308.038	10564
308.065	13267
308.093	21156
308.148	56162
308.156	65166
308.202	123838
308.246	140459
308.257	134459
308.312	71322
308.336	50395
308.366	39059
308.421	23908
308.426	22931
308.475	14711
308.517	10218
308.530	9359
308.585	7648
308.607	7209
308.639	6809
308.694	7188
308.697	7443
308.748	15174
308.787	21874
308.803	22555
308.857	17180
308.877	15112
308.912	12262
308.967	10225
308.967	10230
309.021	12967
309.058	16397
309.076	20030
309.130	35062
309.148	42993
309.185	78048
309.238	152776
309.239	153684
309.293	186953
309.328	176654
309.348	148342
309.402	68494
309.418	49084
309.457	33139
309.508	20469
309.511	19987
309.566	17688
309.598	18123
309.620	21299
309.674	32902
309.688	35495
309.729	34804
309.778	28851
309.783	27949
309.837	18449
309.868	13732
309.892	14281
309.946	20629
309.959	23008
310.001	33144
310.049	39750
310.055	38523
310.109	23058
310.139	15179
310.163	11782
310.218	6820
310.229	5959
310.272	4581
310.319	4258
310.326	4203
310.381	3446
310.409	3179
310.435	3116
310.489	3346
310.499	3385
310.543	3143
310.589	3103
310.598	3131
310.652	3367
310.679	3315
310.706	2950
310.760	2138
310.769	2045
310.814	1945
310.859	1953
310.868	1966
310.923	2091
310.948	2186
310.977	2358
311.031	2677
311.038	2750
311.085	2905
311.128	2721
311.139	2651
311.193	2516
311.218	2486
311.247	2491
311.301	2407
311.308	2411
311.356	2193
311.398	2006
311.410	1930
311.464	1490
311.488	1313
311.518	1569
311.572	2217
311.578	2292
311.626	2581
311.668	2821
311.680	2868
311.734	3088
311.758	3212
311.788	3198
311.842	3104
311.847	3112
311.896	4050
311.937	4933
311.950	4878
312.004	4600
312.027	4489
312.058	3739
312.112	2444
312.117	2326
312.165	2292
312.207	2287
312.297	3301
312.386	2174
312.476	3253
312.566	5276
312.656	2799
312.745	2586
312.835	2162
312.925	2429
313.015	2765
313.104	2072
313.194	1872
313.284	2710
313.374	2832
313.463	3184
313.553	2157
313.643	1078
313.732	2043
313.822	1564
313.912	2248
314.001	2248
314.091	2777
314.180	2949
314.270	3771
314.360	3693
314.449	3274
314.539	2638
314.628	2053
314.718	2490
314.808	3160
314.897	2407
314.987	2595
315.076	2307
315.166	3367
315.255	3662
315.345	3552
315.434	3283
315.524	2807
315.613	3763
315.703	4487
315.792	7326
315.881	19312
315.971	9268
316.060	5745
316.150	8926
316.239	9749
316.328	4303
316.418	1905
316.507	2484
316.597	2732
316.686	2983
316.775	4176
316.865	10895
316.954	3167
317.043	2074
317.133	1598
317.222	2466
317.311	1181
317.400	1527
317.490	2447
317.579	4176
317.668	2906
317.757	3940
317.847	10121
317.936	35638
318.025	16973
318.114	7453
318.203	5487
318.293	6207
318.382	12453
318.471	9340
318.560	13647
318.649	23693
318.738	6852
318.828	3310
318.917	3470
319.006	3727
319.095	12367
319.184	28478
319.273	19685
319.362	9058
319.451	2643
319.540	2776
319.629	6485
319.718	11202
319.807	4649
319.896	9301
319.985	36347
320.074	17343
320.163	3369
320.252	6551
320.341	4138
320.430	4664
320.519	5344
320.608	4053
320.697	2766
320.786	3520
320.875	3917
320.964	4872
321.053	7059
321.142	10127
321.230	12266
321.319	7592
321.408	18981
321.497	9142
321.586	7489
321.675	9190
321.764	9417
321.852	6377
321.941	10007
322.030	7553
322.119	7118
322.207	19603
322.296	15599
322.385	6380
322.474	8167
322.562	23976
322.651	15436
322.740	7943
322.829	13728
322.917	14075
323.006	8683
323.095	6535
323.183	4564
323.272	6958
323.361	13714
323.449	46397
323.538	17829
323.626	28986
323.715	23957
323.804	6275
323.892	25655
323.981	17235
324.069	4911
324.158	12243
324.246	16312
324.335	4641
324.424	8034
324.512	3362
324.601	3590
324.689	7111
324.778	15810
324.866	10786
324.954	3854
325.043	2908
325.131	4867
325.220	10676
325.308	12831
325.397	7968
325.485	7245
325.574	1763
325.662	2714
325.750	2575
325.839	2199
325.927	1625
326.015	2338
326.104	4445
326.192	7717
326.280	2397
326.369	2033
326.457	3059
326.545	5429
326.634	3292
326.722	1648
326.810	1437
326.898	2013
326.987	2615
327.075	4849
327.163	6825
327.251	3193
327.340	4780
327.428	8515
327.516	2555
327.604	2092
327.692	2915
327.781	2488
327.869	4700
327.957	3557
328.045	2817
328.133	1872
328.221	1986
328.309	2856
328.397	2297
328.485	2450
328.574	3804
328.662	12525
328.750	8113
328.838	3317
328.926	1834
329.014	2186
329.102	2507
329.190	5884
329.278	5222
329.366	2694
329.454	1443
329.542	1672
329.630	2009
329.718	1595
329.806	2505
329.893	2476
329.981	2366
330.069	2872
330.157	14416
330.245	56055
330.333	35034
330.421	5484
330.509	4131
330.597	13046
330.684	11064
330.772	3443
330.860	5010
330.948	6309
331.036	2873
331.123	708
331.211	1281
331.299	2155
331.387	4324
331.475	9722
331.562	3126
331.650	1504
331.738	1866
331.825	3443
331.913	2280
332.001	1253
332.089	1815
332.176	4685
332.264	11721
332.352	12430
332.439	2861
332.527	2498
332.614	1563
332.702	2968
332.790	1183
332.877	5301
332.965	14225
333.052	3924
333.140	3141
333.228	9788
333.315	4263
333.403	2361
333.490	7010
333.578	9172
333.665	11249
333.753	7423
333.840	2015
333.928	3061
334.015	6815
334.103	11327
334.190	41567
334.278	14957
334.365	4401
334.452	3861
334.540	3018
334.627	2939
334.715	4716
334.802	7050
334.889	45102
334.977	69075
335.064	8817
335.151	2763
335.239	2742
335.326	3500
335.413	15525
335.501	30781
335.588	3893
335.675	2221
335.762	2818
335.850	6140
335.937	4039
336.024	10504
336.111	54565
336.199	32310
336.286	5663
336.373	2326
336.460	1924
336.547	1728
336.635	2424
336.722	2432
336.809	1832
336.896	2747
336.983	8942
337.070	24747
337.157	42454
337.245	32089
337.332	31247
337.419	3013
337.506	1502
337.593	2238
337.680	6550
337.767	25071
337.854	8151
337.941	7638
338.028	10912
338.115	3945
338.202	3342
338.289	6785
338.376	32487
338.463	13539
338.550	12643
338.637	18628
338.724	4247
338.811	10655
338.898	2467
338.984	1107
339.071	1576
339.158	2783
339.245	6835
339.332	5259
339.419	5106
339.506	7703
339.593	1460
339.679	1961
339.766	1610
339.853	1794
339.940	5126
340.027	2588
340.113	1977
340.200	2243
340.287	2469
340.374	2223
340.460	4189
340.547	1865
340.634	3291
340.720	13322
340.807	11164
340.894	1192
340.980	1816
341.067	1676
341.154	2171
341.240	2293
341.327	7498
341.414	2506
341.500	2460
341.587	1983
341.674	1562
341.760	3666
341.847	5538
341.933	2226
342.020	-4
342.106	1369
342.193	1770
342.279	4082
342.366	2453
342.452	4772
342.539	3135
342.625	5345
342.712	15688
342.798	7885
342.885	2643
342.971	670
343.058	1318
343.144	1243
343.230	831
343.317	1407
343.403	1786
343.490	705
343.576	903
343.662	1706
343.749	2158
343.835	3090
343.921	4237
344.008	28899
344.094	100483
344.180	27110
344.267	5501
344.353	18304
344.439	28050
344.525	8090
344.612	3451
344.698	2184
344.784	2031
344.870	1656
344.957	1624
345.043	3040
345.129	2112
345.215	4105
345.301	3076
345.387	2438
345.474	1285
345.560	1324
345.646	976
345.732	1731
345.818	1930
345.904	1789
345.990	1436
346.076	2021
346.162	5087
346.249	2027
346.335	1159
346.421	1575
346.507	6120
346.593	34126
346.679	11270
346.765	2161
346.851	2057
346.937	1585
347.023	1511
347.108	2013
347.194	1681
347.280	1762
347.366	2743
347.452	6718
347.538	38825
347.624	31568
347.710	24721
347.796	4543
347.882	1322
347.967	1613
348.053	2337
348.139	2185
348.225	1981
348.311	1612
348.397	1466
348.482	1921
348.568	2382
348.654	1733
348.740	2040
348.825	1701
348.911	2745
348.997	13836
349.083	42169
349.168	9231
349.254	1341
349.340	2413
349.425	1158
349.511	1733
349.597	2790
349.682	4414
349.768	19253
349.854	13674
349.939	2201
350.025	1589
350.110	1289
350.196	233
350.282	1342
350.367	1812
350.453	2225
350.538	3339
350.624	2322
350.709	2179
350.795	1469
350.880	1832
350.966	1921
351.051	3262
351.137	3004
351.222	1046
351.308	4692
351.393	17196
351.479	5504
351.564	1806
351.649	1643
351.735	1934
351.820	1002
351.906	1450
351.991	1326
352.076	7904
352.162	19132
352.247	4499
352.332	1997
352.418	3199
352.503	4947
352.588	19566
352.673	22271
352.759	4928
352.844	2423
352.929	1607
353.014	3653
353.100	2437
353.185	4451
353.270	5016
353.355	6053
353.441	1902
353.526	1968
353.611	4880
353.696	6689
353.781	3581
353.866	2151
353.952	2582
354.037	3213
354.122	11201
354.207	10662
354.292	5179
354.377	1553
354.462	1833
354.547	2155
354.632	1901
354.717	3366
354.802	4828
354.887	3146
354.972	1328
355.057	641
355.142	1523
355.227	1095
355.312	3473
355.397	6689
355.482	16469
355.567	10768
355.652	5913
355.737	6054
355.822	20663
355.907	25783
355.991	3892
356.076	1743
356.161	2290
356.246	1717
356.331	2035
356.416	4037
356.501	34626
356.585	57310
356.670	6899
356.755	3828
356.840	4364
356.924	20146
357.009	102991
357.094	55004
357.179	7464
357.263	5067
357.348	4296
357.433	4852
357.517	4120
357.602	3308
357.687	3233
357.771	3881
357.856	11246
357.941	9619
358.025	15783
358.110	98234
358.195	66672
358.279	7564
358.364	4237
358.448	12042
358.533	40898
358.617	33601
358.702	30492
358.787	14800
358.871	5231
358.956	5619
359.040	2232
359.125	1765
359.209	2348
359.294	3811
359.378	9723
359.462	5259
359.547	3429
359.631	1910
359.716	1434
359.800	1883
359.885	2732
359.969	1851
360.053	2199
360.138	1590
360.222	2423
360.306	4905
360.391	5562
360.475	5461
360.559	16666
360.644	14687
360.728	13458
360.812	16476
360.896	68116
360.981	30817
361.065	13383
361.149	3566
361.233	2730
361.318	2430
361.402	2980
361.486	3158
361.570	2019
361.654	2849
361.739	6924
361.823	30522
361.907	77208
361.991	15951
362.075	4310
362.159	9671
362.243	9088
362.327	6687
362.411	10913
362.495	5762
362.580	2859
362.664	1677
362.748	2589
362.832	2768
362.916	3587
363.000	12575
363.084	43835
363.168	88146
363.252	25304
363.336	5355
363.420	6077
363.503	21020
363.587	37724
363.671	7514
363.755	3417
363.839	5110
363.923	3532
364.007	4026
364.091	8469
364.175	7406
364.258	39460
364.342	34209
364.426	32944
364.510	24083
364.594	9469
364.677	9334
364.761	48660
364.845	53035
364.929	11301
365.013	8914
365.096	6637
365.180	8967
365.264	7599
365.347	41293
365.431	25013
365.515	5034
365.598	3069
365.682	2679
365.766	3420
365.849	5180
365.933	2787
366.017	4087
366.100	2874
366.184	1147
366.267	1624
366.351	1966
366.435	1292
366.518	609
366.602	923
366.685	871
366.769	1771
366.852	2955
366.936	6356
367.019	4611
367.103	2431
367.186	5209
367.270	2880
367.353	222
367.436	1830
367.520	831
367.603	1758
367.687	2608
367.770	6640
367.853	3780
367.937	12130
368.020	30361
368.104	7331
368.187	4313
368.270	6649
368.353	6240
368.437	7193
368.520	19178
368.603	14994
368.687	13797
368.770	35187
368.853	11657
368.936	6292
369.020	6896
369.103	3537
369.186	1296
369.269	1777
369.352	3710
369.436	5982
369.519	4453
369.602	1819
369.685	2353
369.768	2558
369.851	2232
369.934	893
370.018	1136
370.101	5242
370.184	5574
370.267	3582
370.350	5694
370.433	8568
370.516	23471
370.599	42703
370.682	12706
370.765	14567
370.848	19860
370.931	40160
371.014	22339
371.097	4181
371.180	3218
371.263	1896
371.346	1187
371.429	2267
371.511	1808
371.594	3671
371.677	5618
371.760	6224
371.843	6201
371.926	25222
372.009	91912
372.091	38190
372.174	13503
372.257	40718
372.340	23606
372.423	9487
372.505	11287
372.588	5180
372.671	8974
372.754	36872
372.836	28567
372.919	9921
373.002	24107
373.085	9825
373.167	5115
373.250	13863
373.332	38403
373.415	46818
373.498	118718
373.580	56998
373.663	42547
373.746	90100
373.828	22259
373.911	6619
373.993	5984
374.076	19760
374.159	26989
374.241	10404
374.324	29050
374.406	28274
374.489	23890
374.571	94129
374.654	54490
374.736	15651
374.819	50516
374.901	77964
374.983	102449
375.066	23272
375.148	5699
375.231	13713
375.313	39180
375.395	17543
375.478	5010
375.560	3216
375.643	4214
375.725	11174
375.807	62687
375.890	69713
375.972	24693
376.054	9986
376.136	16653
376.219	11073
376.301	13959
376.383	59657
376.465	33003
376.548	10561
376.630	12840
376.712	45236
376.794	33115
376.877	3772
376.959	1380
377.041	2010
377.123	3121
377.205	5922
377.287	1256
377.369	1996
377.452	1360
377.534	1328
377.616	1600
377.698	1351
377.780	502
377.862	2033
377.944	1691
378.026	1540
378.108	1186
378.190	910
378.272	1227
378.354	592
378.436	680
378.518	1439
378.600	8417
378.682	9246
378.764	18233
378.846	22359
378.928	4556
379.010	5994
379.091	3945
379.173	1495
379.255	1307
379.337	2152
379.419	6573
379.501	30671
379.583	18781
379.664	3641
379.746	5853
379.828	18640
379.910	28708
379.991	31687
380.073	7244
380.155	2804
380.237	1447
380.318	1608
380.400	1016
380.482	3436
380.564	7171
380.645	5592
380.727	6373
380.809	3457
380.890	2405
380.972	3071
381.053	2568
381.135	3051
381.217	6185
381.298	21748
381.380	14046
381.461	8406
381.543	37165
381.624	72507
381.706	16704
381.787	5586
381.869	5363
381.951	15508
382.032	80033
382.113	74170
382.195	12947
382.276	7067
382.358	12416
382.439	42700
382.521	51354
382.602	86832
382.684	45558
382.765	52990
382.846	69342
382.928	91678
383.009	68903
383.090	29566
383.172	101786
383.253	229181
383.334	92784
383.416	70073
383.497	51107
383.578	15575
383.659	23379
383.741	80848
383.822	288472
383.903	212547
383.984	51696
384.066	79982
384.147	62877
384.228	14949
384.309	7224
384.390	6476
384.471	4893
384.553	5052
384.634	5497
384.715	7380
384.796	3646
384.877	4796
384.958	15869
385.039	27968
385.120	11203
385.201	5149
385.282	4317
385.363	5315
385.444	4481
385.525	6839
385.606	29300
385.687	40066
385.768	9527
385.849	6720
385.930	28501
386.011	76815
386.092	29207
386.173	4739
386.254	2461
386.335	3082
386.416	3344
386.496	9863
386.577	22745
386.658	9855
386.739	4382
386.820	4364
386.901	2392
386.981	3234
387.062	2290
387.143	4078
387.224	17363
387.304	22992
387.385	7872
387.466	3897
387.547	5289
387.627	4362
387.708	6310
387.789	31478
387.869	56454
387.950	21762
388.031	2839
388.111	1605
388.192	4538
388.273	8448
388.353	5952
388.434	3011
388.514	5580
388.595	33587
388.676	61018
388.756	28264
388.837	17653
388.917	15408
388.998	2100
389.078	2808
389.159	1853
389.239	1412
389.320	3166
389.400	2754
389.480	6766
389.561	22317
389.641	17271
389.722	3398
389.802	5702
389.883	8693
389.963	26531
390.043	23379
390.124	5858
390.204	6171
390.284	21037
390.365	19313
390.445	13030
390.525	38920
390.605	45659
390.686	16894
390.766	5515
390.846	2681
390.927	1728
391.007	1800
391.087	2043
391.167	2781
391.247	2055
391.328	3789
391.408	5884
391.488	4380
391.568	544
391.648	2344
391.728	3922
391.808	4663
391.888	4180
391.969	9856
392.049	22407
392.129	10993
392.209	8242
392.289	26595
392.369	20303
392.449	9572
392.529	7712
392.609	5712
392.689	6693
392.769	23223
392.849	29277
392.929	14303
393.009	33712
393.089	37094
393.169	22668
393.248	59893
393.328	284896
393.408	453198
393.488	137205
393.568	28081
393.648	13375
393.728	8938
393.807	6955
393.887	5777
393.967	4445
394.047	5440
394.127	5527
394.206	9102
394.286	24190
394.366	132017
394.446	215050
394.525	57183
394.605	10206
394.685	7682
394.764	12428
394.844	23191
394.924	20906
395.003	6619
395.083	4007
395.163	4152
395.242	3647
395.322	4087
395.402	2150
395.481	4015
395.561	7379
395.640	25684
395.720	26368
395.799	28847
395.879	29801
395.958	14403
396.038	34369
396.117	175548
396.197	284583
396.276	86671
396.356	21032
396.435	13758
396.515	11132
396.594	10291
396.673	19615
396.753	66125
396.832	284533
396.912	301006
396.991	72121
397.070	16260
397.150	7119
397.229	6342
397.308	6031
397.388	11522
397.467	7324
397.546	2208
397.625	1088
397.705	3897
397.784	3447
397.863	3041
397.942	1581
398.022	1754
398.101	5079
398.180	23677
398.259	16338
398.338	3941
398.417	2008
398.497	1149
398.576	923
398.655	977
398.734	845
398.813	1085
398.892	5780
398.971	24903
399.050	19848
399.129	2041
399.208	1045
399.287	1255
399.366	313
399.445	147
399.524	648
399.603	197
399.682	1841
399.761	6435
399.840	26697
399.919	30894
399.998	4899
400.077	606
400.156	-206
400.235	1961
400.313	329
400.392	365
400.471	7373
400.550	18098
400.629	6890
400.708	1168
400.786	888
400.865	3859
400.944	4945
401.023	3869
401.102	833
401.180	482
401.259	150
401.338	462
401.416	1233
401.495	1865
401.574	725
401.652	307
401.731	1253
401.810	1045
401.888	-161
401.967	842
402.046	764
402.124	561
402.203	1029
402.281	977
402.360	750
402.438	5697
402.517	4831
402.596	1037
402.674	1132
402.753	309
402.831	377
402.910	-45
402.988	5312
403.066	25211
403.145	22222
403.223	6551
403.302	20504
403.380	19356
403.459	16301
403.537	8374
403.615	2383
403.694	331
403.772	452
403.850	-72
403.929	388
404.007	-719
404.085	2328
404.164	2708
404.242	209
404.320	763
404.398	1674
404.477	6498
404.555	47531
404.633	69209
404.711	12680
404.789	1320
404.868	1120
404.946	177
405.024	-692
405.102	-88
405.180	-25
405.258	146
405.336	936
405.415	650
405.493	1255
405.571	2953
405.649	464
405.727	-541
405.805	927
405.883	850
405.961	873
406.039	879
406.117	-595
406.195	1921
406.273	7603
406.351	43827
406.429	41529
406.507	4733
406.585	468
406.663	1631
406.740	429
406.818	1820
406.896	23
406.974	854
407.052	1111
407.130	19233
407.208	45180
407.285	13893
407.363	145
407.441	536
407.519	-347
407.596	1222
407.674	2139
407.752	6142
407.830	9034
407.907	4620
407.985	857
408.063	560
408.141	-315
408.218	550
408.296	704
408.373	828
408.451	621
408.529	766
408.606	-631
408.684	33
408.762	-208
408.839	-472
408.917	-455
408.994	654
409.072	-747
409.149	-94
409.227	337
409.304	825
409.382	1034
409.459	477
409.537	1729
409.614	1967
409.692	324
409.769	314
409.846	2048
409.924	3815
410.001	1437
410.079	753
410.156	408
410.233	436
410.311	-74
410.388	362
410.465	63
410.543	625
410.620	567
410.697	48
410.775	520
410.852	-1103
410.929	1032
411.006	2486
411.083	369
411.161	2432
411.238	3729
411.315	1889
411.392	168
411.469	815
411.547	1628
411.624	113
411.701	-328
411.778	395
411.855	1250
411.932	951
412.009	240
412.086	-314
412.163	188
412.240	905
412.317	430
412.394	365
412.471	628
412.548	-244
412.625	-359
412.702	366
412.779	1587
412.856	1704
412.933	-932
413.010	100
413.087	-243
413.164	5514
413.241	16344
413.318	4323
413.395	1612
413.471	1409
413.548	1588
413.625	489
413.702	-18
413.779	510
413.855	-252
413.932	-955
414.009	-1775
414.086	-103
414.162	-142
414.239	472
414.316	5481
414.393	21012
414.469	11376
414.546	541
414.623	-473
414.699	-651
414.776	698
414.853	-256
414.929	-1321
415.006	140
415.082	-433
415.159	-107
415.236	-114
415.312	-161
415.389	218
415.465	1848
415.542	648
415.618	-247
415.695	1146
415.771	-419
415.848	244
415.924	715
416.000	-345
416.077	-184
416.153	-1031
416.230	-700
416.306	-1502
416.383	-701
416.459	-568
416.535	-1383
416.612	-1267
416.688	-540
416.764	-352
416.841	-796
416.917	-55
416.993	-174
417.069	-626
417.146	170
417.222	378
417.298	21
417.374	-231
417.451	503
417.527	-964
417.603	857
417.679	327
417.755	84
417.831	-785
417.908	-1025
417.984	-777
418.060	-1302
418.136	829
418.212	2477
418.288	829
418.364	-244
418.440	-1026
418.516	825
418.592	536
418.668	3024
418.744	5189
418.820	4445
418.896	619
418.972	-677
419.048	-612
419.124	1581
419.200	1216
419.276	-126
419.352	-1045
419.428	-618
419.504	-1461
419.579	446
419.655	-130
419.731	-221
419.807	1413
419.883	5818
419.959	6048
420.034	1639
420.110	1494
420.186	10176
420.262	14025
420.337	1830
420.413	243
420.489	521
420.565	194
420.640	-14
420.716	-414
420.792	-1024
420.867	946
420.943	-526
421.019	939
421.094	1148
421.170	840
421.245	-523
421.321	141
421.397	-320
421.472	888
421.548	2376
421.623	3936
421.699	1026
421.774	1239
421.850	662
421.925	2453
422.001	2944
422.076	1760
422.152	1774
422.227	3897
422.302	5993
422.378	7374
422.453	15004
422.529	33493
422.604	100920
422.679	228868
422.755	183836
422.830	64707
422.905	22422
422.981	10558
423.056	6282
423.131	4766
423.207	3215
423.282	2115
423.357	5272
423.432	3452
423.508	2764
423.583	5356
423.658	6539
423.733	1463
423.808	1815
423.883	1014
423.959	1243
424.034	1131
424.109	1439
424.184	69
424.259	-362
424.334	-249
424.409	-779
424.484	-144
424.559	372
424.634	-1043
424.709	201
424.784	1155
424.859	661
424.934	952
425.009	5766
425.084	15952
425.159	9541
425.234	437
425.309	-495
425.384	836
425.459	3921
425.534	1588
425.609	-890
425.683	-69
425.758	-79
425.833	-533
425.908	505
425.983	2005
426.058	14886
426.132	9977
426.207	897
426.282	1793
426.357	767
426.431	-200
426.506	146
426.581	196
426.655	301
426.730	-998
426.805	-347
426.879	48
426.954	147
427.029	636
427.103	10058
427.178	40266
427.253	31284
427.327	3307
427.402	597
427.476	4430
427.551	4266
427.625	381
427.700	327
427.774	-383
427.849	-106
427.923	-526
427.998	-46
428.072	-208
428.147	1853
428.221	7996
428.296	34247
428.370	32185
428.444	4661
428.519	1460
428.593	3965
428.667	4992
428.742	4440
428.816	5206
428.890	16418
428.965	42196
429.039	19491
429.113	6279
429.188	3095
429.262	209
429.336	1253
429.410	5550
429.485	5955
429.559	3682
429.633	4595
429.707	1197
429.781	1525
429.855	17373
429.930	44421
430.004	24751
430.078	23677
430.152	28646
430.226	43270
430.300	71928
430.374	18042
430.448	3208
430.522	4982
430.596	23441
430.670	23023
430.744	31672
430.818	79013
430.892	28245
430.966	2504
431.040	560
431.114	-186
431.188	-802
431.262	-67
431.336	-1125
431.410	1069
431.484	4557
431.557	6514
431.631	253
431.705	-848
431.779	3364
431.853	26781
431.927	34994
432.000	6710
432.074	-17
432.148	96
432.222	-570
432.295	341
432.369	-351
432.443	330
432.516	9289
432.590	43214
432.664	29466
432.737	2675
432.811	-435
432.885	-521
432.958	-108
433.032	-463
433.106	-871
433.179	-1237
433.253	-881
433.326	-523
433.400	-927
433.473	-482
433.547	-1589
433.620	-1082
433.694	-385
433.767	1646
433.841	-843
433.914	-852
433.988	-1026
434.061	-186
434.134	-1567
434.208	-1455
434.281	-673
434.355	-784
434.428	-444
434.501	-325
434.575	-1604
434.648	-782
434.721	-857
434.795	-819
434.868	-597
434.941	-812
435.014	-741
435.088	-147
435.161	-195
435.234	1237
435.307	2276
435.381	425
435.454	-946
435.527	459
435.600	543
435.673	393
435.746	-1066
435.819	-315
435.892	-860
435.966	-735
436.039	-992
436.112	-172
436.185	-1065
436.258	-1176
436.331	-743
436.404	-687
436.477	-1166
436.550	-1193
436.623	-743
436.696	-1640
436.769	-322
436.842	-290
436.915	-1272
436.987	80
437.060	-570
437.133	-463
437.206	-629
437.279	-1341
437.352	-594
437.425	-1244
437.498	146
437.570	797
437.643	1604
437.716	612
437.789	-977
437.861	-242
437.934	5136
438.007	5022
438.080	503
438.152	-260
438.225	987
438.298	12500
438.370	66440
438.443	50961
438.516	9935
438.588	2414
438.661	47
438.734	-131
438.806	-664
438.879	387
438.951	-540
439.024	2535
439.096	1386
439.169	313
439.241	-925
439.314	-834
439.386	691
439.459	1318
439.531	1939
439.604	2677
439.676	-484
439.749	-960
439.821	-1244
439.893	-311
439.966	-503
440.038	-404
440.110	450
440.183	380
440.255	-1101
440.327	418
440.400	3987
440.472	32896
440.544	43446
440.617	7817
440.689	1562
440.761	1935
440.833	4997
440.905	5260
440.978	519
441.050	-937
441.122	-718
441.194	-850
441.266	-461
441.338	-633
441.411	562
441.483	6739
441.555	20964
441.627	8550
441.699	1084
441.771	1361
441.843	-372
441.915	-586
441.987	-358
442.059	177
442.131	-379
442.203	1172
442.275	1235
442.347	2821
442.419	2289
442.491	10182
442.563	42749
442.635	36412
442.706	10287
442.778	9799
442.850	2659
442.922	731
442.994	-23
443.066	1090
443.137	1416
443.209	182
443.281	1230
443.353	4399
443.425	15125
443.496	68378
443.568	105698
443.640	54731
443.711	12386
443.783	2060
443.855	1459
443.926	-220
443.998	-62
444.070	1491
444.141	147
444.213	2091
444.285	2698
444.356	1694
444.428	1860
444.499	1142
444.571	-561
444.642	-781
444.714	-390
444.785	381
444.857	2395
444.928	4167
445.000	5078
445.071	3136
445.143	5744
445.214	3864
445.285	4897
445.357	13864
445.428	38785
445.500	130102
445.571	124521
445.642	65044
445.714	26450
445.785	14797
445.856	6742
445.928	3811
445.999	3174
446.070	3230
446.141	2156
446.213	3723
446.284	1705
446.355	984
446.426	87
446.497	337
446.569	980
446.640	2767
446.711	2804
446.782	1118
446.853	778
446.924	1352
446.995	1186
447.066	279
447.138	856
447.209	841
447.280	-1137
447.351	-368
447.422	-1141
447.493	-547
447.564	252
447.635	504
447.706	766
447.777	377
447.847	-492
447.918	-496
447.989	-279
448.060	678
448.131	1765
448.202	4602
448.273	3050
448.344	1498
448.414	188
448.485	90
448.556	-529
448.627	-811
448.698	-127
448.768	-753
448.839	-625
448.910	510
448.981	1555
449.051	714
449.122	-53
449.193	-185
449.263	-68
449.334	-371
449.405	5
449.475	2050
449.546	3391
449.616	2074
449.687	2830
449.758	1417
449.828	-463
449.899	11
449.969	-711
450.040	-154
450.110	258
450.181	1267
450.251	270
450.322	206
450.392	517
450.463	-659
450.533	5
450.604	-247
450.674	4
450.744	-434
450.815	-161
450.885	-200
450.955	-227
451.026	-700
451.096	121
451.166	373
451.237	633
451.307	6214
451.377	6116
451.447	429
451.518	-899
451.588	203
451.658	-42
451.728	-84
451.799	4213
451.869	10640
451.939	4711
452.009	269
452.079	-674
452.149	-80
452.219	880
452.289	6393
452.360	10311
452.430	3428
452.500	286
452.570	677
452.640	1058
452.710	4880
452.780	11864
452.850	10475
452.920	8508
452.990	5008
453.060	1256
453.129	1785
453.199	2754
453.269	6017
453.339	29298
453.409	52618
453.479	34822
453.549	52554
453.619	63379
453.688	43767
453.758	9128
453.828	445
453.898	586
453.968	420
454.037	328
454.087	223
454.107	156
454.168	-63
454.177	-124
454.247	-253
454.249	-201
454.316	394
454.330	454
454.386	435
454.411	1231
454.456	1939
454.492	5221
454.525	8087
454.574	5734
454.595	4760
454.655	1934
454.665	1501
454.734	1567
454.736	1682
454.804	3120
454.817	4102
454.873	6238
454.898	8696
454.943	12741
454.979	9736
455.013	7430
455.060	4149
455.082	2946
455.141	3452
455.152	3371
455.221	6278
455.222	6514
455.291	11270
455.303	10748
455.360	9794
455.384	7605
455.430	4020
455.465	4856
455.499	5106
455.546	7535
455.569	7733
455.627	8240
455.638	8601
455.707	2431
455.708	2444
455.777	665
455.789	680
455.846	743
455.869	936
455.916	1217
455.950	1087
455.985	899
456.031	932
456.054	859
456.112	825
456.124	847
456.193	867
456.193	842
456.262	1066
456.274	1325
456.332	2332
456.355	2500
456.401	2313
456.436	1852
456.470	1431
456.516	982
456.540	876
456.597	777
456.609	720
456.678	1124
456.678	1104
456.747	521
456.759	493
456.817	520
456.840	632
456.886	740
456.920	900
456.955	1193
457.001	1254
457.024	1363
457.082	2488
457.093	2623
457.162	3402
457.163	3435
457.232	3312
457.243	3306
457.301	2747
457.324	2105
457.370	1522
457.405	1842
457.439	2149
457.485	2102
457.508	2097
457.566	1924
457.577	1990
457.646	3342
457.647	3389
457.715	6770
457.727	7401
457.784	11081
457.808	13329
457.853	15774
457.889	18335
457.922	17752
457.969	14744
457.991	16187
458.050	18451
458.060	19114
458.129	27685
458.130	28072
458.198	24685
458.211	22792
458.267	16680
458.292	12482
458.336	9477
458.372	8535
458.405	10457
458.453	14768
458.474	18366
458.533	30318
458.543	31115
458.611	43507
458.614	44068
458.680	29764
458.694	24247
458.749	15511
458.775	11239
458.818	6588
458.855	5152
458.887	4361
458.936	4062
458.955	4038
459.016	3865
459.024	3783
459.093	4279
459.097	4255
459.162	3923
459.177	4067
459.230	4788
459.257	5209
459.299	5641
459.338	5883
459.368	6015
459.418	6182
459.437	5762
459.499	5443
459.505	5529
459.574	3961
459.579	3992
459.643	4025
459.659	4014
459.711	4243
459.740	4093
459.780	4096
459.820	4725
459.849	5148
459.900	5653
459.917	5528
459.981	5000
459.986	4983
460.054	4766
460.061	4774
460.123	5613
460.141	5885
460.191	6840
460.222	7315
460.260	7545
460.302	8303
460.328	8008
460.382	7397
460.397	7473
460.462	6642
460.465	6708
460.534	8936
460.543	9271
460.602	17742
460.623	20823
460.671	33213
460.703	42813
460.739	33860
460.783	23839
460.808	21340
460.864	9563
460.876	8934
460.944	4963
460.945	4919
461.013	5010
461.024	5061
461.081	5481
461.104	5788
461.150	5303
461.184	4779
461.218	4890
461.264	4886
461.286	4850
461.345	4693
461.355	4691
461.423	5353
461.425	5355
461.491	6207
461.505	6511
461.559	11893
461.585	14261
461.628	23097
461.665	31337
461.696	32058
461.745	34765
461.764	29447
461.825	10668
461.832	10744
461.901	7437
461.905	7346
461.969	5629
461.985	5554
462.037	5792
462.065	5757
462.105	7222
462.145	8736
462.173	11699
462.225	17059
462.241	18724
462.305	26261
462.310	25333
462.378	11601
462.385	9809
462.446	7983
462.465	7295
462.514	6033
462.545	5723
462.582	5830
462.625	6132
462.650	6271
462.705	6498
462.718	6752
462.785	7835
462.786	7888
462.854	10944
462.865	11479
462.922	13454
462.945	14354
462.990	10619
463.025	7260
463.058	6878
463.104	6300
463.126	6111
463.184	5686
463.194	5780
463.262	6639
463.264	6664
463.330	6190
463.344	6079
463.398	7116
463.424	7598
463.466	7365
463.504	7208
463.533	7510
463.583	7984
463.601	8314
463.663	9313
463.669	9566
463.737	12437
463.743	12698
463.805	19425
463.823	21403
463.873	33375
463.903	40587
463.940	39702
463.982	39443
464.008	31109
464.062	12650
464.076	12121
464.142	7449
464.144	7412
464.211	6894
464.221	6903
464.279	7720
464.301	8010
464.347	8909
464.381	9597
464.414	10590
464.461	12014
464.482	11927
464.540	11660
464.550	11392
464.617	9325
464.620	9235
464.685	10434
464.699	10659
464.753	11806
464.779	12500
464.820	13812
464.859	15076
464.888	14790
464.938	13950
464.956	13991
465.018	14116
465.023	13939
465.091	11344
465.098	11058
465.158	11611
465.177	11763
465.226	11651
465.257	11599
465.293	12203
465.336	12856
465.361	14065
465.416	16570
465.428	17806
465.495	24551
465.496	24695
465.563	40895
465.575	43660
465.631	48101
465.654	50076
465.698	31391
465.734	15628
465.765	14825
465.813	12789
465.833	12482
465.893	12124
465.900	12207
465.968	13097
465.972	13124
466.035	12573
466.052	12403
466.102	13546
466.131	14171
466.170	14157
466.210	14092
466.237	14567
466.290	15527
466.304	15586
466.369	15545
466.372	15614
466.439	16934
466.449	17079
466.506	20128
466.528	21262
466.573	28404
466.607	33702
466.641	47082
466.687	65576
466.708	69713
466.766	80772
466.775	74794
466.842	28888
466.845	26654
466.909	23145
466.925	22251
466.977	21149
467.004	20637
467.044	21121
467.083	21527
467.111	22251
467.163	23498
467.178	24056
467.242	26169
467.245	26130
467.312	24261
467.321	23966
467.379	23124
467.400	22748
467.446	24028
467.480	24871
467.559	21124
467.638	18561
467.717	19152
467.796	19380
467.875	21120
467.955	20702
468.034	34709
468.113	70216
468.192	95443
468.271	23308
468.350	19592
468.429	21745
468.508	22433
468.588	18152
468.667	17632
468.746	17620
468.825	16805
468.904	14948
468.983	18350
469.062	28458
469.141	32007
469.220	14297
469.299	15073
469.378	15793
469.456	18310
469.535	16436
469.614	16242
469.693	17136
469.772	22406
469.851	30624
469.930	18860
470.009	14479
470.088	15147
470.166	17852
470.245	22836
470.324	26288
470.403	21092
470.482	16865
470.560	15094
470.639	14930
470.718	17641
470.797	15093
470.875	18442
470.954	26155
471.033	25766
471.111	12056
471.190	11790
471.269	12045
471.347	11994
471.426	14434
471.505	15537
471.583	14956
471.662	14543
471.740	13121
471.819	13044
471.898	12290
471.976	12760
472.055	12557
472.133	15885
472.212	20371
472.290	20549
472.369	13464
472.447	12727
472.526	11217
472.604	12887
472.683	13276
472.761	13882
472.839	13288
472.918	13088
472.996	13499
473.075	15487
473.153	14922
473.231	12805
473.310	15244
473.388	14380
473.466	13198
473.545	15475
473.623	19127
473.701	18072
473.780	12547
473.858	13212
473.936	13995
474.014	13439
474.093	15477
474.171	22879
474.249	32296
474.327	18232
474.405	11131
474.484	12204
474.562	11919
474.640	12583
474.718	13871
474.796	14818
474.874	14292
474.952	12223
475.030	12467
475.108	14491
475.187	16827
475.265	17864
475.343	21677
475.421	22647
475.499	12782
475.577	14320
475.655	18801
475.733	38321
475.811	62665
475.889	58109
475.966	31069
476.044	13448
476.122	17372
476.200	20119
476.278	15219
476.356	11999
476.434	13027
476.512	15662
476.590	20479
476.667	16003
476.745	11301
476.823	13280
476.901	12136
476.979	13522
477.056	12520
477.134	13739
477.212	12770
477.290	12306
477.367	10180
477.445	11268
477.523	11203
477.601	12009
477.678	11376
477.756	14124
477.834	14973
477.911	10483
477.989	11573
478.066	11984
478.144	14348
478.222	15352
478.299	23880
478.377	19645
478.454	10797
478.532	9990
478.609	11897
478.687	12008
478.764	9838
478.842	11966
478.919	12582
478.997	11467
479.074	11607
479.152	14301
479.229	17163
479.307	10850
479.384	9420
479.461	10212
479.539	10856
479.616	13318
479.694	11673
479.771	12622
479.848	13155
479.926	19226
480.003	17902
480.080	10068
480.157	10689
480.235	9399
480.312	10206
480.389	13264
480.467	21652
480.544	25918
480.621	12340
480.698	13080
480.775	14683
480.853	13938
480.930	11382
481.007	12306
481.084	13603
481.161	15286
481.238	13070
481.315	10587
481.392	10555
481.470	10963
481.547	12083
481.624	11736
481.701	10858
481.778	10760
481.855	14547
481.932	20538
482.009	36494
482.086	20986
482.163	13061
482.240	18231
482.317	29730
482.393	20091
482.470	12961
482.547	10967
482.624	10784
482.701	12608
482.778	11131
482.855	9701
482.932	9922
483.009	10295
483.085	12575
483.162	14994
483.239	13906
483.316	11566
483.393	11025
483.469	11026
483.546	12821
483.623	14141
483.699	10174
483.776	10736
483.853	13205
483.930	21974
484.006	52644
484.083	87381
484.160	37192
484.236	51318
484.313	36857
484.389	29660
484.466	26312
484.543	25594
484.619	27216
484.696	29093
484.772	29788
484.849	30205
484.925	24775
485.002	24306
485.078	27429
485.155	28187
485.231	23065
485.308	23893
485.384	24236
485.461	31930
485.537	54756
485.614	58103
485.690	23970
485.766	22811
485.843	24226
485.919	32503
485.995	32106
486.072	20699
486.148	20378
486.224	21100
486.301	22542
486.377	27108
486.453	27442
486.530	24464
486.606	31784
486.682	34771
486.758	44174
486.835	51547
486.911	41259
486.987	68741
487.063	61355
487.139	72694
487.215	49905
487.292	26916
487.368	24784
487.444	28776
487.520	36475
487.596	35248
487.672	56093
487.748	132764
487.824	187203
487.900	66583
487.976	32949
488.052	31121
488.128	36608
488.204	28065
488.280	23048
488.356	31206
488.432	61714
488.508	88670
488.584	27396
488.660	20566
488.736	20580
488.812	21130
488.888	27678
488.964	37300
489.039	72288
489.115	105088
489.191	55269
489.267	22807
489.343	21023
489.418	18152
489.494	17789
489.570	16995
489.646	18039
489.722	17609
489.797	21073
489.873	34191
489.949	72211
490.024	49287
490.100	17807
490.176	18779
490.251	21686
490.327	27483
490.403	16910
490.478	17063
490.554	14176
490.629	15633
490.705	15172
490.781	16785
490.856	16835
490.932	19242
491.007	18031
491.083	18504
491.158	17858
491.234	25565
491.309	54153
491.385	48273
491.460	17410
491.536	17985
491.611	15078
491.686	17921
491.762	23338
491.837	47869
491.913	78147
491.988	106675
492.063	121549
492.139	37766
492.214	22619
492.289	13364
492.365	14301
492.440	16720
492.515	16622
492.590	17123
492.666	13274
492.741	20300
492.816	30544
492.891	15835
492.967	12487
493.042	11386
493.117	11505
493.192	11969
493.267	14057
493.342	18742
493.418	17357
493.493	12084
493.568	11368
493.643	12488
493.718	17016
493.793	25612
493.868	26014
493.943	15400
494.018	12669
494.093	13936
494.168	11992
494.243	11367
494.318	11494
494.393	11497
494.468	10257
494.543	11684
494.618	13343
494.693	12441
494.768	12644
494.842	13425
494.917	10931
494.992	11546
495.067	10864
495.142	10266
495.217	12302
495.292	11718
495.366	14416
495.441	17231
495.516	21780
495.591	34755
495.665	100575
495.740	218033
495.815	71088
495.890	20431
495.964	16576
496.039	17236
496.114	16202
496.188	18173
496.263	17406
496.338	16757
496.412	19726
496.487	21065
496.561	21520
496.636	22951
496.710	19081
496.785	21192
496.860	25194
496.934	20339
497.009	19814
497.083	21808
497.158	23876
497.232	27400
497.307	31228
497.381	28718
497.455	33241
497.530	41499
497.604	30663
497.679	34429
497.753	51685
497.827	64254
497.902	60842
497.976	73334
498.050	152119
498.125	455306
498.199	380785
498.273	86820
498.348	73806
498.422	59897
498.496	55641
498.570	49001
498.645	38788
498.719	37025
498.793	39805
498.867	55985
498.941	78716
499.016	194257
499.090	465119
499.164	117396
499.238	24833
499.312	23541
499.386	27222
499.460	24158
499.534	21955
499.609	27308
499.683	38205
499.757	39071
499.831	94183
499.905	321060
499.979	240450
500.053	43695
500.127	41473
500.201	28052
500.275	18671
500.349	17979
500.422	21048
500.496	34596
500.570	74153
500.644	177857
500.718	307976
500.792	49805
500.866	19788
500.940	26167
501.013	19234
501.087	20798
501.161	34260
501.235	51023
501.309	115581
501.382	297437
501.456	205247
501.530	54142
501.603	94425
501.677	29105
501.751	15509
501.825	20697
501.898	43744
501.972	119249
502.046	56020
502.119	22672
502.193	53524
502.266	128382
502.340	50086
502.413	59345
502.487	104501
502.561	55390
502.634	17903
502.708	15435
502.781	13477
502.855	11166
502.928	10565
503.002	10622
503.075	10764
503.149	11620
503.222	10348
503.295	12205
503.369	16227
503.442	29389
503.516	93891
503.589	215945
503.662	118959
503.736	42199
503.809	102797
503.882	75901
503.956	123718
504.029	98796
504.102	77301
504.175	92085
504.249	35430
504.322	23605
504.395	18793
504.468	13840
504.542	13192
504.615	10640
504.688	10734
504.761	9356
504.834	13602
504.907	14686
504.980	22661
505.053	12758
505.127	16508
505.200	18523
505.273	19232
505.346	11001
505.419	9146
505.492	7865
505.565	7783
505.638	7492
505.711	7690
505.784	8366
505.857	7490
505.930	8627
506.003	8702
506.076	9239
506.149	12643
506.221	16610
506.294	17402
506.367	51731
506.440	155616
506.513	59133
506.586	17433
506.659	9731
506.731	9014
506.804	12233
506.877	15276
506.950	11896
507.022	9561
507.095	12996
507.168	14310
507.241	9151
507.313	7875
507.386	8852
507.459	11952
507.531	8430
507.604	7586
507.677	8338
507.749	7624
507.822	10535
507.894	19575
507.967	22629
508.040	12944
508.112	11856
508.185	10910
508.257	11418
508.330	15385
508.402	11241
508.475	10959
508.547	12137
508.620	12558
508.692	19795
508.765	11544
508.837	9245
508.909	8971
508.982	9705
509.054	10481
509.127	9086
509.199	8362
509.271	8563
509.344	7236
509.416	8368
509.488	9061
509.560	9814
509.633	9729
509.705	10362
509.777	11009
509.849	15599
509.922	9467
509.994	8810
510.066	9253
510.138	10371
510.210	18347
510.283	16115
510.355	13597
510.427	11704
510.499	11312
510.571	11624
510.643	12190
510.715	19352
510.787	15251
510.859	11825
510.931	15576
511.003	19067
511.076	15532
511.148	10227
511.219	11601
511.291	19572
511.363	20409
511.435	9537
511.507	8229
511.579	9240
511.651	9616
511.723	9377
511.795	8065
511.867	10419
511.939	14052
512.010	28370
512.082	18943
512.154	10914
512.226	10452
512.298	17555
512.369	21315
512.441	16294
512.513	15518
512.585	13143
512.656	13235
512.728	15214
512.800	11400
512.871	11201
512.943	11912
513.015	9809
513.086	11319
513.158	12976
513.230	12269
513.301	17929
513.373	17929
513.444	12090
513.516	9979
513.588	11032
513.659	11476
513.731	14477
513.802	14668
513.874	26989
513.945	41801
514.016	14633
514.088	10575
514.159	12061
514.231	15775
514.302	20801
514.374	15199
514.445	17547
514.516	32432
514.588	21396
514.659	16582
514.730	31165
514.802	21720
514.873	22113
514.944	21707
515.016	18572
515.087	19138
515.158	25182
515.229	32200
515.301	25297
515.372	32644
515.443	22044
515.514	15916
515.585	12672
515.656	12612
515.728	11785
515.799	11250
515.870	12441
515.941	12214
516.012	12785
516.083	15377
516.154	16166
516.225	19357
516.296	17978
516.367	15174
516.438	18694
516.509	24550
516.580	45941
516.651	131179
516.722	395808
516.793	144266
516.864	31346
516.935	29572
517.006	36813
517.077	61365
517.148	152481
517.219	464994
517.289	640032
517.360	195108
517.431	51744
517.502	19097
517.573	19524
517.643	18764
517.714	19267
517.785	19258
517.856	19486
517.926	21930
517.997	25624
518.068	33144
518.138	52970
518.209	103455
518.280	336371
518.350	981637
518.421	332350
518.492	44736
518.562	28018
518.633	30795
518.703	33070
518.774	56649
518.845	114180
518.915	96523
518.986	36639
519.056	30583
519.127	47023
519.197	74322
519.268	160867
519.338	84536
519.408	24899
519.479	27701
519.549	19395
519.620	15328
519.690	12619
519.760	12153
519.831	12792
519.901	12207
519.971	10234
520.042	12861
520.112	15262
520.182	14667
520.253	16581
520.323	12281
520.393	14876
520.463	20007
520.534	15669
520.604	26809
520.674	15573
520.744	17215
520.814	31513
520.885	33977
520.955	61312
521.025	184324
521.095	52912
521.165	12499
521.235	12513
521.305	10394
521.375	9725
521.445	12236
521.515	15448
521.585	16443
521.655	15916
521.725	13397
521.795	12313
521.865	10299
521.935	18236
522.005	14360
522.075	9907
522.145	10799
522.215	13833
522.285	19494
522.355	27795
522.424	48500
522.494	39072
522.564	21467
522.634	39022
522.704	97593
522.774	31106
522.843	11580
522.913	10645
522.983	13779
523.053	11037
523.122	11806
523.192	20075
523.262	53563
523.331	45921
523.401	11929
523.471	8582
523.540	9393
523.610	7601
523.680	8075
523.749	9090
523.819	12255
523.888	11725
523.958	9043
524.027	9053
524.097	10204
524.166	8727
524.236	10561
524.305	11038
524.375	8808
524.444	8945
524.514	9825
524.583	10398
524.653	12657
524.722	14095
524.791	10506
524.861	9712
524.930	9188
524.999	9900
525.069	13140
525.138	11725
525.207	14231
525.277	9872
525.346	10344
525.415	9421
525.484	10369
525.554	13137
525.623	11171
525.692	10821
525.761	11016
525.830	13365
525.900	14671
525.969	25521
526.038	43745
526.107	88991
526.176	223418
526.245	163413
526.314	61388
526.383	126356
526.452	166171
526.522	265603
526.591	234300
526.660	60976
526.729	33801
526.797	48303
526.867	108247
526.935	360647
527.004	571137
527.073	271994
527.142	28516
527.211	15427
527.280	14695
527.349	14555
527.418	9554
527.487	8998
527.555	9040
527.624	7785
527.693	7419
527.762	8811
527.831	7593
527.899	8321
527.968	7836
528.037	8588
528.106	11504
528.174	18102
528.243	16526
528.312	22598
528.380	25031
528.449	8669
528.518	8028
528.586	6506
528.655	7249
528.723	6721
528.792	6075
528.861	8396
528.929	6065
528.998	6374
529.066	7219
529.135	6896
529.203	7057
529.272	5948
529.340	7464
529.409	8129
529.477	7513
529.545	10164
529.614	11291
529.682	12047
529.751	13244
529.819	14537
529.887	10185
529.956	8116
530.024	8562
530.092	7332
530.161	9444
530.229	13756
530.297	7763
530.365	8266
530.434	6544
530.502	6932
530.570	7663
530.638	6168
530.707	8549
530.775	9258
530.843	7428
530.911	7553
530.979	7265
531.047	7807
531.115	7200
531.183	7513
531.252	7284
531.320	7903
531.388	6460
531.456	7857
531.524	6749
531.592	7990
531.660	8452
531.728	7543
531.796	6907
531.864	6701
531.932	7658
532.000	7458
532.067	7447
532.135	8991
532.203	10345
532.271	11326
532.339	16682
532.407	39763
532.475	21779
532.542	12808
532.610	16293
532.678	27129
532.746	86661
532.814	178232
532.881	37193
532.949	10246
533.017	8300
533.084	8099
533.152	8433
533.220	8415
533.287	8467
533.355	8108
533.423	7639
533.490	7102
533.558	7586
533.625	8186
533.693	8083
533.761	8850
533.828	9605
533.896	9117
533.963	16523
534.031	19387
534.098	25888
534.166	12379
534.233	8673
534.300	9798
534.368	8696
534.435	8010
534.503	8888
534.570	9589
534.637	9967
534.705	11856
534.772	16740
534.840	31754
534.907	105436
534.974	115732
535.041	16074
535.109	12764
535.176	8801
535.243	8377
535.310	8553
535.378	8589
535.445	7485
535.512	8201
535.579	8501
535.646	7701
535.714	8306
535.781	10031
535.848	9773
535.915	10326
535.982	8548
536.049	8146
536.116	9347
536.183	8871
536.250	8707
536.317	10048
536.384	11018
536.451	14795
536.518	14098
536.585	10489
536.652	14663
536.719	17364
536.786	13827
536.853	12795
536.920	18322
536.987	29163
537.053	32850
537.120	94439
537.187	71395
537.254	11749
537.321	9000
537.388	10365
537.454	8191
537.521	8152
537.588	7969
537.654	10022
537.721	10293
537.788	11460
537.855	9647
537.921	8995
537.988	9448
538.055	9466
538.121	8934
538.188	11819
538.254	15502
538.321	25033
538.388	14980
538.454	9731
538.521	9203
538.587	9014
538.654	8248
538.720	8572
538.787	8695
538.853	9803
538.920	11870
538.986	12367
539.053	9796
539.119	10460
539.185	10205
539.252	11910
539.318	16553
539.385	13099
539.451	12426
539.517	13230
539.583	16795
539.650	32926
539.716	68616
539.782	18488
539.849	9445
539.915	10098
539.981	10430
540.047	11685
540.114	10597
540.180	11936
540.246	10855
540.312	15448
540.378	26674
540.444	27995
540.510	33473
540.576	74939
540.643	22016
540.709	8809
540.775	9423
540.841	10895
540.907	14486
540.973	18454
541.039	15628
541.105	15377
541.171	11492
541.237	10572
541.303	11333
541.369	13187
541.435	14848
541.500	22131
541.566	13565
541.632	9907
541.698	9520
541.764	9398
541.830	9524
541.896	8747
541.961	9143
542.027	9850
542.093	10363
542.159	10677
542.224	11646
542.290	15994
542.356	21325
542.421	23734
542.487	12029
542.553	9836
542.618	12192
542.684	10083
542.750	11042
542.815	15624
542.881	26128
542.947	67769
543.012	43162
543.078	9880
543.143	9117
543.209	10814
543.274	10965
543.340	14428
543.405	28247
543.471	39201
543.536	11434
543.602	10233
543.667	8928
543.732	9846
543.798	8824
543.863	10161
543.928	9025
543.994	7900
544.059	8616
544.124	8761
544.190	9486
544.255	9327
544.320	9277
544.386	10500
544.451	13656
544.516	16869
544.581	18732
544.646	43943
544.712	61131
544.777	15524
544.842	12509
544.907	12845
544.972	10882
545.037	11287
545.102	13133
545.168	12793
545.233	13387
545.298	14396
545.363	16869
545.428	19073
545.493	28111
545.558	54229
545.623	22310
545.688	12228
545.753	12742
545.818	12365
545.883	13705
545.947	13483
546.012	15062
546.077	14298
546.142	14488
546.207	13459
546.272	18022
546.337	16905
546.401	14144
546.466	14293
546.531	14280
546.596	16444
546.661	15336
546.725	15788
546.790	15124
546.855	15395
546.919	15617
546.984	18167
547.049	19201
547.113	22752
547.178	21367
547.243	25412
547.307	28079
547.372	30476
547.436	31473
547.501	28256
547.565	31065
547.630	31248
547.695	30676
547.759	32192
547.823	29595
547.888	28458
547.952	28381
548.017	30185
548.081	31899
548.146	37829
548.210	35252
548.274	32208
548.339	30119
548.403	29408
548.468	26206
548.532	26982
548.596	27872
548.660	28554
548.725	31273
548.789	35532
548.853	34993
548.917	32188
548.982	34965
549.046	33232
549.110	25046
549.174	26434
549.238	28063
549.303	29459
549.367	31795
549.431	30007
549.495	28161
549.559	28901
549.623	33417
549.687	38742
549.751	41434
549.815	42157
549.879	41398
549.943	37388
550.007	41620
550.071	40573
550.135	41529
550.199	36495
550.263	34733
550.327	36242
550.391	39521
550.455	38586
550.519	40138
550.582	42316
550.646	49343
550.710	50430
550.774	46199
550.838	46909
550.901	47942
550.965	51225
551.029	53434
551.093	60404
551.156	70061
551.220	94137
551.284	97998
551.347	69079
551.411	84823
551.475	83328
551.538	50387
551.602	45586
551.666	42168
551.729	40004
551.793	38960
551.856	38270
551.920	37756
551.983	37830
552.047	37703
552.110	38129
552.174	38153
552.237	38619
552.301	36474
552.364	35225
552.428	34579
552.491	35647
552.554	37882
552.618	36618
552.681	39128
552.745	39543
552.808	47980
552.871	57371
552.934	44010
552.998	37414
553.061	37796
553.124	34844
553.187	34752
553.251	36203
553.314	36694
553.377	35471
553.440	38015
553.503	41004
553.567	42127
553.630	38105
553.693	35537
553.756	37115
553.819	36586
553.882	35630
553.945	35151
554.008	35100
554.071	34593
554.134	36698
554.197	33190
554.260	33332
554.323	35163
554.386	35097
554.449	34089
554.512	35975
554.575	33996
554.638	33956
554.701	33134
554.764	33214
554.827	32158
554.889	31985
554.952	29274
555.015	27687
555.078	29433
555.141	30315
555.203	28569
555.266	29944
555.329	29864
555.391	27223
555.454	28761
555.517	27878
555.580	26884
555.642	25310
555.705	24549
555.768	25772
555.830	24257
555.893	23849
555.955	24017
556.018	23622
556.080	23527
556.143	23927
556.206	22926
556.268	23886
556.330	24332
556.393	24064
556.455	22660
556.518	27978
556.580	26808
556.643	20206
556.705	20727
556.767	20387
556.830	20765
556.892	20827
556.955	27405
557.017	22266
557.079	20447
557.142	19657
557.204	22005
557.266	31993
557.328	26347
557.391	16908
557.453	17240
557.515	18597
557.577	19634
557.639	19938
557.701	16397
557.764	16613
557.826	16938
557.888	20047
557.950	20344
558.012	25501
558.074	35241
558.136	62758
558.198	136969
558.260	47247
558.322	19486
558.384	20232
558.446	23694
558.508	26681
558.570	35103
558.632	55345
558.694	89310
558.756	126352
558.818	281555
558.880	620939
558.942	190202
559.003	140573
559.065	65802
559.127	28608
559.189	32736
559.251	45493
559.312	73021
559.374	140982
559.436	400212
559.498	184653
559.559	33040
559.621	33363
559.683	48466
559.744	79634
559.806	192893
559.868	275090
559.929	54631
559.991	39394
560.052	56287
560.114	138570
560.176	91540
560.237	79588
560.299	123102
560.360	29987
560.422	16395
560.483	15329
560.545	14343
560.606	14084
560.667	12927
560.729	12497
560.790	12681
560.852	12639
560.913	12670
560.974	13062
561.036	12947
561.097	12153
561.158	12014
561.220	13415
561.281	12491
561.342	13732
561.403	16863
561.465	19758
561.526	32580
561.587	39988
561.648	15026
561.709	13558
561.771	12109
561.832	12854
561.893	11068
561.954	12070
562.015	12344
562.076	12279
562.137	11965
562.198	11951
562.259	11841
562.320	12212
562.381	14032
562.442	16698
562.503	14740
562.564	12481
562.625	11390
562.686	12343
562.747	13672
562.808	13502
562.869	12142
562.930	14336
562.991	13340
563.051	13041
563.112	12471
563.173	12149
563.234	12056
563.294	12918
563.355	11032
563.416	12278
563.477	12645
563.537	12952
563.598	13206
563.659	13126
563.720	12743
563.780	12990
563.841	12968
563.901	12118
563.962	12374
564.023	12688
564.083	11937
564.144	13155
564.204	13029
564.265	13893
564.325	15970
564.386	25098
564.446	21907
564.507	12310
564.567	12499
564.628	12958
564.688	12289
564.749	12773
564.809	14257
564.869	15835
564.930	12828
564.990	13892
565.050	11867
565.111	13923
565.171	11876
565.231	11556
565.292	13478
565.352	12259
565.412	13077
565.472	13328
565.532	13107
565.593	13311
565.653	12463
565.713	13310
565.773	14268
565.833	15205
565.893	18737
565.953	14372
566.013	13797
566.074	15449
566.134	18041
566.194	25025
566.254	25009
566.314	19388
566.374	15344
566.434	16780
566.494	16458
566.554	16906
566.614	17365
566.673	18286
566.733	19747
566.793	21163
566.853	22040
566.913	21187
566.973	21655
567.033	23512
567.092	22625
567.152	22457
567.212	23105
567.272	23297
567.331	23670
567.391	25323
567.451	27929
567.511	29851
567.570	29818
567.630	22948
567.690	21521
567.749	22674
567.809	23672
567.868	26985
567.928	31101
567.988	37849
568.047	44719
568.107	58955
568.166	78040
568.226	115937
568.285	151326
568.345	129657
568.404	102582
568.464	89915
568.523	86043
568.582	90199
568.642	104721
568.701	130847
568.761	178986
568.820	261588
568.879	251283
568.939	189776
568.998	140972
569.057	110413
569.116	86972
569.176	72649
569.235	60477
569.294	51976
569.353	44934
569.413	39835
569.472	36697
569.531	31565
569.590	29261
569.649	28268
569.708	25633
569.767	26056
569.827	25994
569.886	23082
569.945	20640
570.004	19937
570.063	18813
570.122	19970
570.181	19142
570.240	19803
570.299	20172
570.358	20887
570.417	16642
570.475	15820
570.534	16274
570.593	15967
570.652	15653
570.711	16309
570.770	14473
570.829	16562
570.887	15194
570.946	16258
571.005	13016
571.064	14000
571.122	14282
571.181	16216
571.240	12436
571.299	13218
571.357	13277
571.416	13797
571.475	14733
571.533	16911
571.592	13506
571.650	14672
571.709	11999
571.768	13133
571.826	12359
571.885	11582
571.943	12303
572.002	11702
572.060	12376
572.119	11050
572.177	10531
572.236	11346
572.294	10918
572.352	11077
572.411	10806
572.469	11287
572.528	12040
572.586	12575
572.644	12515
572.703	16612
572.761	12435
572.819	9883
572.877	10433
572.936	9380
572.994	9820
573.052	10210
573.110	11163
573.169	11062
573.227	10360
573.285	10778
573.343	10754
573.401	10180
573.459	10987
573.517	10363
573.576	10564
573.634	10579
573.692	10394
573.750	11222
573.808	9757
573.866	10744
573.924	13476
573.982	13807
574.040	9864
574.098	10477
574.155	9891
574.213	10720
574.271	9869
574.329	10586
574.387	10209
574.445	9923
574.503	8778
574.560	9164
574.618	9478
574.676	9303
574.734	8795
574.792	9766
574.849	9480
574.907	8819
574.965	8353
575.022	9033
575.080	8944
575.138	9297
575.195	9758
575.253	10471
575.311	10262
575.368	10008
575.426	8992
575.483	9027
575.541	9816
575.598	9200
575.656	9149
575.713	10081
575.771	9202
575.828	10314
575.886	9737
575.943	10142
576.001	10123
576.058	10967
576.115	10695
576.173	11617
576.230	13297
576.287	13670
576.345	11873
576.402	10829
576.459	10827
576.517	10822
576.574	11297
576.631	11171
576.688	10257
576.746	9420
576.803	10480
576.860	10053
576.917	10232
576.974	10378
577.031	9566
577.089	10504
577.146	10416
577.203	10737
577.260	11291
577.317	12081
577.374	12647
577.431	11487
577.488	10422
577.545	9660
577.602	9636
577.659	10493
577.716	8871
577.773	9734
577.830	9112
577.886	9981
577.943	9021
578.000	10174
578.057	10593
578.114	10395
578.171	9388
578.227	10409
578.284	9541
578.341	10617
578.398	10084
578.454	11234
578.511	11491
578.568	12996
578.625	11058
578.681	10571
578.738	9685
578.794	10676
578.851	10305
578.908	10626
578.964	10877
579.021	12171
579.077	9807
579.134	11781
579.190	10337
579.247	10687
579.303	10472
579.360	10261
579.416	9802
579.473	9679
579.529	10306
579.586	10400
579.642	9817
579.698	10550
579.755	10996
579.811	10343
579.867	10378
579.924	10305
579.980	10669
580.036	10143
580.093	10178
580.149	10566
580.205	10755
580.261	10987
580.317	11151
580.374	12193
580.430	12362
580.486	12431
580.542	11379
580.598	11515
580.619	11704
580.654	12047
580.692	11974
580.710	11959
580.765	11779
580.767	11784
580.823	12059
580.838	11959
580.879	11734
580.911	11579
580.935	11483
580.984	11136
580.991	11108
581.047	11744
581.057	11708
581.103	11564
581.130	11510
581.159	11487
581.203	11672
581.215	11723
581.270	12360
581.276	12258
581.326	11465
581.349	11774
581.382	12238
581.422	11470
581.438	11162
581.494	11466
581.494	11459
581.550	11494
581.567	11705
581.606	12205
581.640	11925
581.661	11763
581.713	12858
581.717	12951
581.773	12124
581.786	12162
581.829	12413
581.859	12265
581.885	12061
581.932	12867
581.940	13038
581.996	12306
582.004	12414
582.052	13014
582.077	12516
582.107	11963
582.150	12970
582.163	13275
582.219	12378
582.223	12425
582.274	13111
582.296	12920
582.330	12655
582.368	13485
582.386	13837
582.441	13224
582.441	13226
582.497	11505
582.514	11703
582.552	12312
582.587	12525
582.608	12644
582.659	12834
582.663	12848
582.719	12976
582.732	12996
582.774	13071
582.805	13281
582.830	13457
582.877	13159
582.885	13125
582.941	13152
582.950	13304
582.996	14032
583.023	13966
583.052	13867
583.095	14307
583.107	14438
583.162	13823
583.168	13853
583.218	14087
583.240	14025
583.273	13939
583.313	13589
583.328	13441
583.384	14291
583.385	14264
583.439	13724
583.458	13861
583.494	13967
583.531	13737
583.549	13649
583.603	14448
583.605	14473
583.660	14631
583.676	14527
583.715	14136
583.748	14365
583.770	14580
583.820	14526
583.825	14534
583.881	15203
583.893	15210
583.936	15009
583.965	14573
583.991	14155
584.038	15104
584.046	15314
584.101	15020
584.110	15065
584.156	15251
584.183	15000
584.211	14613
584.255	15517
584.266	15782
584.321	15539
584.328	15579
584.376	15907
584.400	15892
584.431	15736
584.472	15938
584.486	16098
584.541	16317
584.545	16357
584.596	16901
584.617	16858
584.651	16645
584.689	17370
584.706	17706
584.761	17509
584.762	17516
584.816	17986
584.834	18236
584.871	18576
584.906	18579
584.926	18554
584.978	18164
584.980	18166
585.035	19552
585.051	19748
585.090	20293
585.123	21081
585.145	21354
585.195	21502
585.200	21540
585.254	22113
585.267	22350
585.309	23208
585.340	25114
585.364	26749
585.412	29145
585.419	29459
585.473	34973
585.484	36486
585.528	42914
585.556	47857
585.583	55143
585.628	69965
585.637	75865
585.692	135265
585.700	148223
585.747	222935
585.772	205860
585.801	145182
585.845	68253
585.856	55602
585.910	33666
585.917	31625
585.965	29329
585.989	28635
586.019	28023
586.061	27696
586.074	27688
586.128	27746
586.133	27804
586.183	28641
586.205	28939
586.237	29383
586.277	30072
586.292	30181
586.346	30202
586.349	30232
586.401	30774
586.421	31242
586.455	31895
586.493	32596
586.509	33424
586.564	37351
586.565	37563
586.618	48089
586.637	49083
586.672	46878
586.709	41679
586.727	39172
586.781	37953
586.781	37938
586.835	37875
586.853	37907
586.889	37699
586.925	37686
586.944	37996
586.996	39705
586.998	39720
587.052	40760
587.068	41059
587.106	42166
587.140	43133
587.161	43543
587.212	45330
587.215	45429
587.269	47482
587.284	48325
587.323	49793
587.356	50617
587.377	51490
587.427	54365
587.431	54534
587.485	57076
587.499	57726
587.539	59112
587.571	60690
587.593	62161
587.643	66278
587.648	66666
587.702	71380
587.715	72516
587.755	75290
587.786	77991
587.810	80321
587.858	85616
587.864	86222
587.917	93650
587.930	95322
587.971	102233
588.001	108259
588.025	112643
588.073	121967
588.079	123286
588.133	137175
588.145	140698
588.187	154146
588.217	164605
588.241	174077
588.288	194742
588.295	197747
588.348	228017
588.360	235471
588.402	265286
588.431	288384
588.456	309885
588.503	357423
588.510	365031
588.564	439627
588.575	457299
588.617	534826
588.646	594757
588.671	661287
588.718	799310
588.725	827853
588.778	1068197
588.789	1119332
588.832	1405889
588.861	1588019
588.886	1723629
588.932	1888931
588.939	1868284
588.993	1659494
589.004	1653752
589.047	1815365
589.075	1879070
589.100	1759483
589.147	1435818
589.154	1392109
589.207	1057892
589.218	996881
589.261	891433
589.290	833716
589.314	832738
589.361	853088
589.368	870970
589.421	1053584
589.433	1096725
589.475	1382364
589.504	1559491
589.528	1657388
589.576	1767079
589.582	1752052
589.635	1703124
589.647	1677521
589.689	1414099
589.718	1183910
589.742	1002937
589.790	663131
589.795	642501
589.849	473761
589.861	438119
589.902	369605
589.932	322481
589.955	296124
590.004	245036
590.009	241126
590.062	204470
590.075	196055
590.115	178283
590.146	165737
590.168	157787
590.218	141525
590.222	140382
590.275	127564
590.289	124501
590.328	116597
590.360	110415
590.381	106627
590.431	98357
590.435	97866
590.488	90973
590.503	89336
590.541	85936
590.574	82926
590.594	80869
590.645	75923
590.647	75724
590.700	71993
590.716	71025
590.753	68454
590.787	65913
590.806	64830
590.859	62278
590.859	62201
590.912	59436
590.930	58555
590.965	56971
591.001	55430
591.018	54562
591.071	52325
591.072	52333
591.124	51466
591.143	51162
591.177	49825
591.214	48650
591.230	48598
591.283	48445
591.285	48452
591.336	46759
591.356	46129
591.389	46442
591.427	46825
591.442	45781
591.495	41830
591.498	41572
591.547	41555
591.569	41498
591.600	41129
591.640	40698
591.653	40511
591.706	39923
591.711	39849
591.759	39629
591.782	39610
591.811	40132
591.853	40923
591.864	40561
591.917	38503
591.924	38222
591.969	37304
591.995	36816
592.022	37010
592.066	37321
592.075	37150
592.127	36077
592.137	35903
592.180	38022
592.208	39351
592.233	38171
592.279	35830
592.285	35705
592.338	34700
592.350	34467
592.390	34070
592.421	33782
592.443	33862
592.491	34007
592.495	33952
592.548	33130
592.562	32901
592.600	33122
592.633	33305
592.653	33122
592.704	32449
592.705	32620
592.775	31879
592.846	32076
592.916	31107
592.987	32437
593.058	32030
593.128	30413
593.199	29783
593.270	30010
593.341	28975
593.411	28498
593.482	29528
593.553	30240
593.623	28953
593.694	29682
593.764	30547
593.835	30636
593.906	28508
593.976	29123
594.047	29230
594.117	30621
594.188	32961
594.258	29500
594.329	29080
594.399	28272
594.470	28981
594.540	29676
594.611	30110
594.681	28986
594.751	29130
594.822	29690
594.892	30880
594.963	30793
595.033	31234
595.103	31063
595.174	31561
595.244	35438
595.314	42871
595.384	34899
595.455	32174
595.525	32384
595.595	33530
595.665	34731
595.736	33368
595.806	32526
595.876	33249
595.946	33699
596.016	32595
596.087	35186
596.157	33386
596.227	34715
596.297	35038
596.367	36214
596.437	39262
596.507	41797
596.577	47288
596.647	42391
596.717	39688
596.787	40190
596.857	39534
596.927	40462
596.997	39984
597.067	39827
597.137	41313
597.207	41709
597.277	40970
597.347	40976
597.417	38892
597.487	39519
597.557	40953
597.626	40861
597.696	42741
597.766	44036
597.836	47980
597.906	42454
597.975	37001
598.045	37377
598.115	37538
598.185	39693
598.254	42555
598.324	47506
598.394	47213
598.464	47946
598.533	45710
598.603	43859
598.672	42449
598.742	41713
598.812	42765
598.881	43357
598.951	42665
599.020	42361
599.090	44205
599.159	45429
599.229	43632
599.299	43075
599.368	43317
599.437	44411
599.507	40587
599.576	39359
599.646	39384
599.715	38780
599.785	38340
599.854	38514
599.924	39886
599.993	38845
600.062	36950
600.132	38942
600.201	39863
600.270	44335
600.340	48038
600.409	46018
600.478	45376
600.547	46422
600.617	44716
600.686	38864
600.755	35153
600.824	34938
600.894	33300
600.963	31991
601.032	32616
601.101	31308
601.170	30197
601.239	30351
601.308	31377
601.378	31598
601.447	30850
601.516	30547
601.585	31254
601.654	32906
601.723	32604
601.792	30915
601.861	32390
601.930	33503
601.999	35587
602.068	34312
602.137	34258
602.206	36670
602.275	34673
602.343	36810
602.412	39528
602.481	35522
602.550	35482
602.619	35412
602.688	35982
602.756	36313
602.825	36575
602.894	37103
602.963	36659
603.032	37698
603.100	37450
603.169	36756
603.238	37615
603.307	38591
603.375	37972
603.444	38071
603.513	38772
603.581	39160
603.650	40795
603.719	39037
603.787	39251
603.856	39604
603.924	39898
603.993	41529
604.061	41904
604.130	43804
604.198	46900
604.267	45803
604.335	45433
604.404	47007
604.472	46764
604.541	48063
604.609	48199
604.678	49111
604.746	49151
604.815	49603
604.883	51246
604.951	49618
605.020	51093
605.088	51874
605.156	51994
605.225	53269
605.293	52319
605.361	52705
605.429	54269
605.498	54302
605.566	55196
605.634	57744
605.702	59361
605.771	61187
605.839	62733
605.907	61015
605.975	58861
606.043	57510
606.111	56668
606.180	56431
606.248	57864
606.316	55336
606.384	56199
606.452	60135
606.520	59842
606.588	60474
606.656	58468
606.724	58212
606.792	54869
606.860	50577
606.928	46662
606.996	42911
607.064	42833
607.132	43623
607.200	45573
607.267	48039
607.335	47087
607.403	48854
607.471	48816
607.539	46019
607.607	47409
607.674	42396
607.742	41510
607.810	42720
607.878	42214
607.946	42171
608.013	43668
608.081	44467
608.149	45729
608.216	45384
608.284	47509
608.352	47497
608.419	48010
608.487	49552
608.555	48810
608.622	46251
608.690	47646
608.757	52352
608.825	57016
608.893	55151
608.960	53749
609.028	54754
609.095	54409
609.163	51132
609.230	47023
609.298	42145
609.365	41702
609.432	45057
609.500	48208
609.567	55033
609.635	62342
609.702	67920
609.769	66096
609.837	59090
609.904	46306
609.971	47157
610.039	52021
610.106	63809
610.173	109876
610.241	264674
610.308	321781
610.375	167565
610.442	72335
610.509	51416
610.577	48124
610.644	47103
610.711	49213
610.778	49544
610.845	49576
610.912	54042
610.980	54703
611.047	55349
611.114	55307
611.181	55478
611.248	52487
611.315	54340
611.382	55314
611.449	57837
611.516	58945
611.583	58929
611.650	59363
611.717	58627
611.784	60414
611.851	63621
611.918	68651
611.984	79661
612.051	103991
612.118	194224
612.185	496349
612.252	597848
612.319	132203
612.386	81959
612.452	73017
612.519	68351
612.586	69063
612.653	70143
612.719	68638
612.786	67999
612.853	63614
612.919	59064
612.986	60913
613.053	58437
613.120	55684
613.186	51746
613.253	53571
613.319	52474
613.386	52228
613.453	54065
613.519	56824
613.586	56537
613.652	65330
613.719	61741
613.785	60425
613.852	56330
613.918	54505
613.985	55900
614.051	56472
614.118	57158
614.184	56087
614.250	53456
614.317	56241
614.383	54922
614.449	55546
614.516	54875
614.582	55926
614.648	54525
614.715	55192
614.781	54056
614.847	53538
614.914	54620
614.980	52770
615.046	51757
615.112	53845
615.179	55145
615.245	55980
615.311	60762
615.377	73792
615.443	91751
615.509	70528
615.575	61515
615.642	58901
615.708	60340
615.774	64121
615.840	68505
615.906	78154
615.972	98918
616.038	165274
616.104	299113
616.170	605113
616.236	919270
616.302	223487
616.368	107250
616.434	83530
616.500	70161
616.565	72169
616.631	89703
616.697	82245
616.763	75225
616.829	95569
616.895	169983
616.961	216504
617.026	110387
617.092	64724
617.158	58818
617.224	56562
617.289	53888
617.355	50844
617.421	49623
617.487	51117
617.552	49081
617.618	46257
617.684	47062
617.749	48560
617.815	46499
617.880	45648
617.946	44856
618.012	45113
618.077	46877
618.143	45400
618.208	44202
618.274	47316
618.339	50534
618.405	44857
618.470	40240
618.536	40485
618.601	42128
618.667	41435
618.732	37326
618.798	37158
618.863	35935
618.928	36991
618.994	37907
619.059	39058
619.124	42325
619.190	42135
619.255	36200
619.320	35244
619.386	36206
619.451	35968
619.516	34977
619.581	35514
619.647	36181
619.712	37611
619.777	35424
619.842	36049
619.907	37340
619.972	36927
620.038	37099
620.103	35311
620.168	35153
620.233	35092
620.298	36494
620.363	34407
620.428	35815
620.493	37743
620.558	37406
620.623	39118
620.688	38900
620.753	37361
620.818	38107
620.883	38852
620.948	38989
621.013	37918
621.078	37949
621.143	37240
621.207	39848
621.272	38596
621.337	39349
621.402	38177
621.467	40854
621.532	43081
621.596	39436
621.661	39269
621.726	36685
621.791	36268
621.855	37195
621.920	38805
621.985	38425
622.049	40063
622.114	40815
622.179	40293
622.243	40843
622.308	40214
622.373	42870
622.437	42383
622.502	39055
622.566	38737
622.631	38696
622.695	39391
622.760	39985
622.824	39595
622.889	39750
622.953	41202
623.018	45809
623.082	52365
623.147	42974
623.211	40238
623.276	41322
623.340	39306
623.404	37517
623.469	37458
623.533	38466
623.597	36366
623.662	37316
623.726	35551
623.790	33007
623.854	32972
623.919	32717
623.983	32913
624.047	34691
624.111	33194
624.176	33852
624.240	36091
624.304	39273
624.368	35407
624.432	35070
624.496	34963
624.560	36228
624.625	40151
624.689	38409
624.753	36422
624.817	36603
624.881	34338
624.945	34126
625.009	32001
625.073	31978
625.137	33567
625.201	36319
625.265	39446
625.329	34618
625.393	33970
625.456	33979
625.520	35523
625.584	35745
625.648	38866
625.712	42773
625.776	60971
625.839	77587
625.903	55320
625.967	31353
626.031	35117
626.095	51706
626.158	42406
626.222	27020
626.286	25129
626.349	24552
626.413	23698
626.477	24108
626.540	24103
626.604	23414
626.668	21966
626.731	22791
626.795	23179
626.858	23213
626.922	22487
626.986	21733
627.049	21089
627.113	22382
627.176	22960
627.240	20749
627.303	20949
627.366	21056
627.430	21816
627.493	21752
627.557	21313
627.620	21745
627.684	21179
627.747	22034
627.810	21176
627.874	20291
627.937	18149
628.000	19670
628.064	19302
628.127	18550
628.190	17889
628.253	17799
628.317	17476
628.380	15532
628.443	15950
628.506	16979
628.569	15599
628.632	14618
628.696	14557
628.759	14800
628.822	14849
628.885	13763
628.948	13467
629.011	14563
629.074	14327
629.137	13639
629.200	13775
629.263	14664
629.326	13245
629.389	13312
629.452	13323
629.515	13539
629.578	13697
629.641	12945
629.704	13912
629.767	13783
629.830	12757
629.892	11693
629.955	12479
630.018	13190
630.081	13236
630.144	16353
630.207	14177
630.269	14404
630.332	12691
630.395	13630
630.458	12062
630.520	11676
630.583	12872
630.646	11785
630.708	11658
630.771	11453
630.834	12017
630.896	11576
630.959	11675
631.021	11346
631.084	12381
631.146	11592
631.209	13582
631.272	12153
631.334	11314
631.397	11123
631.459	12521
631.522	11758
631.584	12241
631.646	13050
631.709	13594
631.771	15333
631.834	15488
631.896	12749
631.958	11498
632.021	11383
632.083	11332
632.145	11017
632.208	11348
632.270	11858
632.332	10086
632.395	10887
632.457	11389
632.519	10357
632.581	11240
632.643	9672
632.706	11138
632.768	10571
632.830	10682
632.892	10532
632.954	10910
633.016	10875
633.078	10352
633.141	10704
633.203	9746
633.265	10611
633.327	10785
633.389	10323
633.451	10319
633.513	12779
633.575	12601
633.637	12022
633.698	12925
633.760	11517
633.822	11033
633.884	11415
633.946	11431
634.008	10207
634.070	12255
634.132	12617
634.193	12600
634.255	13746
634.317	13351
634.379	13347
634.441	13020
634.502	12750
634.564	11225
634.626	11401
634.687	10923
634.749	10943
634.811	9924
634.873	9746
634.934	9482
634.996	10253
635.057	9090
635.119	8986
635.181	10201
635.242	10630
635.304	8654
635.365	10966
635.427	10022
635.488	10286
635.550	10121
635.611	9695
635.673	8260
635.734	10369
635.796	10880
635.857	12241
635.918	11602
635.980	12449
636.041	12755
636.102	14258
636.164	13689
636.225	13559
636.286	11691
636.348	12163
636.409	10132
636.470	9686
636.531	10396
636.593	10390
636.654	10976
636.715	9403
636.776	8578
636.838	8864
636.899	8683
636.960	9153
637.021	8862
637.082	8684
637.143	8401
637.204	7993
637.265	7829
637.326	8929
637.387	7810
637.448	7524
637.509	8018
637.570	9068
637.631	7795
637.692	8250
637.753	6935
637.814	7287
637.875	7799
637.936	7372
637.997	7200
638.058	8193
638.119	8022
638.179	7836
638.240	7408
638.301	7771
638.362	7114
638.423	7725
638.483	7680
638.544	6357
638.605	7085
638.666	7026
638.726	6485
638.787	7557
638.848	7085
638.908	7136
638.969	6921
639.030	6410
639.090	6503
639.151	6916
639.211	7005
639.272	9221
639.332	11565
639.393	11278
639.453	7690
639.514	7424
639.574	6945
639.635	6985
639.695	6194
639.756	6149
639.816	7161
639.877	7557
639.937	10354
639.997	15874
640.058	9624
640.118	6602
640.178	6607
640.239	6453
640.299	5718
640.359	6115
640.420	6161
640.480	6493
640.540	7475
640.600	8572
640.661	7511
640.721	5961
640.781	9915
640.841	6557
640.901	6905
640.961	6559
641.021	7450
641.082	7684
641.142	9368
641.202	9511
641.262	6261
641.322	6489
641.382	5941
641.442	6284
641.502	5709
641.562	6461
641.622	5268
641.682	5566
641.742	6670
641.802	7459
641.861	7172
641.921	7067
641.981	7584
642.041	7062
642.101	6911
642.161	7824
642.221	6032
642.280	5056
642.340	5263
642.400	5849
642.460	6343
642.519	6301
642.579	4801
642.639	5999
642.698	4706
642.758	7467
642.818	5472
642.877	6562
642.937	6530
642.997	7107
643.056	7827
643.116	8049
643.175	6692
643.235	6133
643.294	5669
643.354	6520
643.414	6928
643.473	8652
643.532	9708
643.592	13699
643.651	20799
643.711	36173
643.770	66575
643.830	140890
643.889	442638
643.948	270048
644.008	27733
644.067	12546
644.126	10007
644.186	8062
644.245	7797
644.304	6599
644.363	7063
644.423	5725
644.482	6041
644.541	6416
644.600	5430
644.659	7152
644.719	7285
644.778	12321
644.837	17556
644.896	33293
644.955	89053
645.014	72373
645.073	11336
645.132	6781
645.191	6819
645.250	5929
645.309	6863
645.368	6282
645.427	8011
645.486	9479
645.545	20719
645.604	12716
645.663	6747
645.722	5676
645.781	6196
645.840	7179
645.898	8153
645.957	11783
646.016	17897
646.075	32395
646.134	59896
646.192	133138
646.251	368338
646.310	127241
646.369	16861
646.427	10316
646.486	7620
646.545	7211
646.603	6766
646.662	5553
646.721	5262
646.779	4882
646.838	4657
646.896	6573
646.955	7878
647.014	12181
647.072	19032
647.131	48262
647.189	59991
647.248	8889
647.306	6148
647.365	5510
647.423	3597
647.481	5547
647.540	3761
647.598	4407
647.657	4971
647.715	5010
647.773	3553
647.832	4512
647.890	3368
647.948	3039
648.007	4127
648.065	4030
648.123	3844
648.181	4771
648.240	3736
648.298	3710
648.356	3539
648.414	4444
648.472	4170
648.531	4457
648.589	4002
648.647	3635
648.705	3786
648.763	3865
648.821	3901
648.879	3968
648.937	4260
648.995	5909
649.053	6066
649.111	9741
649.169	14468
649.227	25204
649.285	46547
649.343	135680
649.401	173225
649.459	26852
649.516	16470
649.574	5958
649.632	6920
649.690	5896
649.748	7050
649.806	7406
649.863	13756
649.921	30803
649.979	49417
650.037	9629
650.094	3530
650.152	3692
650.210	3685
650.268	4250
650.325	3342
650.383	3877
650.440	2479
650.498	2792
650.556	2406
650.613	2254
650.671	3545
650.728	2019
650.786	3342
650.843	3671
650.901	2948
650.958	2618
651.016	3022
651.073	3178
651.131	2298
651.188	2299
651.246	2809
651.303	2247
651.360	2363
651.418	2055
651.475	2802
651.532	2426
651.590	2692
651.647	1938
651.704	2871
651.762	2924
651.819	1861
651.876	1961
651.933	2541
651.990	2483
652.048	1296
652.105	1800
652.162	2115
652.219	2550
652.276	2169
652.333	2404
652.390	1240
652.448	1807
652.505	1697
652.562	2113
652.619	2262
652.676	2342
652.733	1993
652.790	2183
652.847	1979
652.904	2248
652.961	1625
653.017	1646
653.074	2643
653.131	2172
653.188	1905
653.245	2182
653.302	1613
653.359	1725
653.415	2456
653.472	1010
653.529	1965
653.586	1967
653.642	1514
653.699	1864
653.756	1359
653.813	1609
653.869	1951
653.926	2421
653.983	2452
654.039	2077
654.096	2149
654.152	2001
654.209	1608
654.266	2389
654.322	2069
654.379	2523
654.435	2167
654.492	2215
654.548	2247
654.605	5302
654.661	4848
654.717	2319
654.774	2806
654.830	2441
654.887	2094
654.943	2197
655.000	2312
655.056	2249
655.112	1519
655.168	1920
655.225	2017
655.281	1954
655.337	3336
655.394	3945
655.450	4945
655.506	3398
655.562	3688
655.618	6549
655.675	2108
655.731	2122
655.787	1628
655.843	2221
655.899	1821
655.955	2988
656.011	2956
656.067	1953
656.123	2915
656.179	3185
656.235	4667
656.291	2793
656.347	3712
656.403	3326
656.459	2906
656.515	2727
656.571	3550
656.627	2778
656.683	2449
656.739	3780
656.795	1859
656.850	2064
656.906	2394
656.962	2696
657.018	2753
657.074	1677
657.129	2423
657.185	2962
657.241	5877
657.297	5636
657.352	2963
657.408	2457
657.464	3208
657.519	2386
657.575	1299
657.630	2005
657.686	2139
657.742	1029
657.797	1670
657.853	1150
657.908	2854
657.964	912
658.019	839
658.075	1821
658.130	2040
658.186	251
658.241	1453
658.297	1063
658.352	1203
658.407	1797
658.463	1226
658.518	1609
658.573	1823
658.629	876
658.684	1542
658.739	1613
658.795	1126
658.850	2553
658.905	1197
658.960	2236
659.016	529
659.071	1119
659.126	2111
659.181	1798
659.236	3121
659.291	4743
659.346	1926
659.401	1974
659.457	2914
659.512	1615
659.567	2076
659.622	1280
659.677	1023
659.732	1442
659.787	1866
659.842	1630
659.897	1847
659.952	2608
660.007	1428
660.061	1457
660.116	780
660.171	1096
660.226	2056
660.281	2410
660.336	1045
660.391	1647
660.445	2336
660.500	1586
660.555	2012
660.610	781
660.664	1413
660.719	1387
660.774	1504
660.828	1354
660.883	1790
660.938	2050
660.992	1644
661.047	2149
661.101	1807
661.156	1330
661.211	1864
661.265	842
661.320	1202
661.374	1048
661.429	1651
661.483	1250
661.538	999
661.592	1081
661.647	1474
661.701	665
661.755	501
661.810	1053
661.864	715
661.919	1239
661.973	1397
662.027	877
662.081	1117
662.136	1136
662.190	1526
662.244	2275
662.299	1153
662.353	2050
662.407	1789
662.461	1193
662.515	1974
662.569	2076
662.624	2389
662.678	1694
662.732	1597
662.786	1316
662.840	2072
662.894	1462
662.948	1394
663.002	901
663.056	1622
663.110	1208
663.164	1200
663.218	1402
663.272	1366
663.326	1795
663.380	1629
663.434	2060
663.488	823
663.542	2068
663.595	1484
663.649	534
663.703	1674
663.757	1829
663.811	1020
663.864	936
663.918	2175
663.972	1403
664.026	1312
664.079	1215
664.133	1004
664.187	2297
664.240	1512
664.294	1388
664.348	2047
664.401	1240
664.455	1704
664.508	987
664.562	1475
664.615	1870
664.669	624
664.722	1481
664.776	1014
664.829	911
664.883	2042
664.936	1305
664.990	1702
665.043	1692
665.097	1150
665.150	1993
665.203	1286
665.257	1060
665.310	2113
665.363	1499
665.417	1771
665.470	1326
665.523	1738
665.576	2002
665.630	1886
665.683	1724
665.736	2253
665.789	1410
665.842	1331
665.895	1678
665.949	1248
666.002	1401
666.055	993
666.108	2569
666.161	1907
666.214	2378
666.267	2575
666.320	1621
666.373	2790
666.426	1756
666.479	978
666.532	1935
666.585	2291
666.638	2917
666.691	2309
666.744	2581
666.796	1540
666.849	2104
666.902	1997
666.955	1690
667.008	1443
667.060	1441
667.113	1596
667.166	1766
667.219	1293
667.271	1169
667.324	1970
667.377	1451
667.430	1932
667.482	696
667.535	1916
667.587	1961
667.640	1659
667.693	2433
667.745	2307
667.798	4881
667.850	1936
667.903	1684
667.955	1135
668.008	1871
668.060	2342
668.113	1406
668.165	2029
668.218	1666
668.270	2162
668.322	1471
668.375	1784
668.427	2257
668.479	1754
668.532	2654
668.584	1841
668.636	1916
668.689	2079
668.741	1159
668.793	1511
668.845	1761
668.898	1966
668.950	2188
669.002	2063
669.054	1453
669.106	1550
669.158	1975
669.211	1152
669.263	1615
669.315	2110
669.367	2166
669.419	1836
669.471	2166
669.523	2478
669.575	2765
669.627	2921
669.679	2346
669.731	1542
669.783	1904
669.835	2979
669.886	2264
669.938	2563
669.990	2654
670.042	2467
670.094	2001
670.146	2614
670.197	3837
670.249	4020
670.301	6026
670.353	7287
670.404	10335
670.456	14357
670.508	23766
670.560	39549
670.611	69980
670.663	124780
670.715	241101
670.766	571013
670.818	406152
670.869	73045
670.921	23483
670.972	14051
671.024	10262
671.075	7725
671.127	5181
671.178	5139
671.230	3826
671.281	3422
671.333	3926
671.384	2989
671.436	3282
671.487	4256
671.538	4875
671.590	5291
671.641	8569
671.692	11930
671.744	25609
671.795	30212
671.846	11344
671.897	5127
671.949	3194
672.000	3296
672.051	1804
672.102	2721
672.153	2371
672.204	2418
672.256	1708
672.307	1377
672.358	2343
672.409	2745
672.460	2233
672.511	1991
672.562	1648
672.613	1792
672.664	800
672.715	1585
672.766	1167
672.817	1519
672.868	1178
672.919	1451
672.970	1478
673.021	2020
673.071	1984
673.122	1150
673.173	1507
673.224	709
673.275	1609
673.326	1702
673.376	1737
673.427	1066
673.478	857
673.528	967
673.579	1490
673.630	808
673.680	1849
673.731	1813
673.782	1091
673.832	1901
673.883	1559
673.934	939
673.984	849
674.035	972
674.085	1695
674.136	1616
674.186	1695
674.237	2374
674.287	2581
674.338	2643
674.388	1619
674.438	555
674.489	1812
674.539	1433
674.589	1067
674.640	1294
674.690	1716
674.740	117
674.791	1320
674.841	2221
674.891	1825
674.942	1670
674.992	1544
675.042	1074
675.092	938
675.142	1361
675.193	944
675.243	867
675.293	1471
675.343	1173
675.393	1411
675.443	1712
675.493	1319
675.543	874
675.593	1505
675.643	1470
675.693	1286
675.743	1616
675.793	2067
675.843	402
675.893	1692
675.943	1559
675.993	672
676.043	1690
676.093	2061
676.142	1229
676.192	1098
676.242	1447
676.292	980
676.341	1321
676.391	1838
676.441	1121
676.491	1126
676.540	431
676.590	494
676.640	1475
676.689	923
676.739	1249
676.789	940
676.838	569
676.888	875
676.937	198
676.987	826
677.037	734
677.086	652
677.136	876
677.185	1142
677.235	901
677.284	728
677.333	410
677.383	1343
677.432	1239
677.482	353
677.531	655
677.580	219
677.630	313
677.679	963
677.728	517
677.778	1382
677.827	501
677.876	981
677.925	600
677.975	992
678.024	1098
678.073	843
678.122	-23
678.171	1282
678.220	826
678.269	946
678.319	1285
678.368	756
678.417	482
678.466	1090
678.515	1205
678.564	1303
678.613	1508
678.662	712
678.711	1028
678.760	592
678.809	966
678.857	893
678.906	776
678.955	234
679.004	1374
679.053	725
679.102	195
679.151	537
679.199	937
679.248	774
679.297	963
679.346	749
679.394	503
679.443	998
679.492	684
679.540	669
679.589	647
679.638	667
679.686	960
679.735	871
679.784	1143
679.832	1686
679.881	532
679.929	749
679.978	1006
680.026	424
680.075	825
680.123	277
680.172	1165
680.220	585
680.268	482
680.317	557
680.365	-134
680.414	810
680.462	997
680.510	505
680.559	377
680.607	548
680.655	651
680.703	261
680.752	517
680.800	910
680.848	592
680.896	1012
680.945	1145
680.993	68
681.041	742
681.089	656
681.137	748
681.185	177
681.233	-193
681.258	15
681.281	176
681.329	835
681.377	1283
681.380	1280
681.425	565
681.473	1185
681.502	911
681.521	660
681.569	1920
681.617	606
681.624	693
681.665	969
681.713	1156
681.745	1640
681.761	1818
681.809	675
681.857	1880
681.867	1875
681.904	1688
681.952	1817
681.989	1138
682.000	897
682.048	2058
682.096	1902
682.111	1774
682.143	1371
682.191	1682
682.233	1460
682.239	1395
682.286	2367
682.334	2128
682.354	1863
682.382	1417
682.430	2420
682.476	2347
682.477	2312
682.525	2056
682.572	2039
682.598	1997
682.620	1943
682.667	2674
682.715	3149
682.720	3174
682.763	3045
682.810	2663
682.841	3144
682.857	3357
682.905	3070
682.952	3726
682.963	3648
683.000	3214
683.047	2155
683.085	3031
683.095	3243
683.142	3280
683.190	3639
683.206	3496
683.237	3141
683.284	3731
683.328	3516
683.332	3472
683.379	3685
683.426	3754
683.449	3916
683.473	4039
683.521	3733
683.568	3182
683.571	3260
683.615	3962
683.662	4463
683.693	4114
683.709	3859
683.757	4214
683.804	4317
683.814	4294
683.851	4171
683.898	4765
683.936	4618
683.945	4531
683.992	4426
684.039	4543
684.057	4567
684.086	4685
684.133	4944
684.179	5302
684.180	5282
684.227	5392
684.274	5390
684.300	5205
684.321	5083
684.368	4494
684.415	5175
684.422	5124
684.462	4679
684.509	5020
684.543	5237
684.556	5284
684.603	5929
684.649	5560
684.665	5426
684.696	5105
684.743	5672
684.786	5450
684.790	5421
684.837	5733
684.883	5829
684.908	5965
684.930	6085
684.977	6805
685.023	6589
685.029	6668
685.070	6814
685.117	6205
685.150	6354
685.164	6478
685.210	6681
685.257	6908
685.272	6898
685.303	6805
685.350	7225
685.393	7199
685.396	7172
685.443	7596
685.490	8123
685.514	7806
685.536	7594
685.583	7275
685.629	7977
685.636	8022
685.675	7931
685.722	7749
685.757	7726
685.768	7766
685.815	7907
685.861	7900
685.878	7959
685.908	7988
685.954	7962
686.000	7946
686.000	7941
686.047	8133
686.093	9059
686.121	9567
686.139	9808
686.185	9882
686.232	9110
686.242	9238
686.278	9334
686.324	9264
686.363	8905
686.370	8859
686.416	8043
686.463	8702
686.484	8480
686.509	8292
686.555	7879
686.601	8242
686.606	8265
686.647	8482
686.693	8468
686.727	8391
686.739	8322
686.785	8180
686.831	8975
686.848	8795
686.877	8609
686.923	8656
686.969	8696
686.969	8694
687.015	8805
687.061	8802
687.090	8991
687.107	9036
687.153	9170
687.199	9163
687.211	9034
687.245	8833
687.291	8961
687.332	9380
687.336	9429
687.382	9547
687.428	9995
687.453	9968
687.474	9810
687.520	9344
687.565	9587
687.574	9518
687.611	9243
687.657	8885
687.695	9097
687.702	9223
687.748	9453
687.794	10309
687.816	10434
687.839	10283
687.885	10198
687.931	9928
687.937	9904
687.976	9943
688.022	9319
688.058	9830
688.067	9970
688.113	10143
688.158	10022
688.179	10035
688.204	10011
688.249	9762
688.295	10335
688.300	10257
688.340	9994
688.386	10972
688.421	10876
688.431	10784
688.477	10778
688.522	10871
688.542	10706
688.567	10639
688.613	11089
688.658	10610
688.663	10644
688.703	10932
688.749	10659
688.784	10798
688.794	10825
688.839	10653
688.884	10685
688.905	10743
688.930	10845
688.975	11135
689.020	10638
689.026	10711
689.065	11422
689.110	11125
689.146	11103
689.155	11096
689.201	11116
689.246	11126
689.267	11069
689.291	10993
689.336	10907
689.381	11071
689.388	11070
689.426	11158
689.471	10674
689.509	10746
689.516	10806
689.561	10918
689.606	10994
689.630	11071
689.651	11105
689.696	11100
689.741	11451
689.750	11458
689.785	11517
689.830	11377
689.871	11483
689.875	11499
689.920	11104
689.965	11190
689.992	10962
690.010	10837
690.054	10934
690.099	10690
690.112	10672
690.144	10955
690.189	11111
690.233	11390
690.233	11407
690.278	11589
690.323	11615
690.354	11507
690.367	11491
690.412	11711
690.457	11377
690.474	11516
690.501	11657
690.546	11614
690.590	11247
690.595	11195
690.635	11126
690.680	11395
690.716	11471
690.724	11482
690.769	11545
690.813	11383
690.836	11289
690.857	11493
690.902	11921
690.946	12494
690.957	12604
690.991	12835
691.035	12843
691.077	12986
691.080	13022
691.124	12987
691.168	13757
691.198	13704
691.213	13625
691.257	14015
691.301	13936
691.318	13917
691.346	13894
691.390	13451
691.434	13713
691.439	13677
691.478	13379
691.522	12940
691.559	12446
691.567	12510
691.611	13079
691.655	13642
691.680	13992
691.699	14000
691.743	13739
691.787	13162
691.800	13074
691.831	13321
691.875	13526
691.919	13989
691.921	13970
691.964	13988
692.008	13876
692.041	13906
692.052	13980
692.096	13971
692.139	14142
692.162	14283
692.183	14403
692.227	14335
692.271	14476
692.282	14392
692.315	14187
692.359	14095
692.402	14255
692.403	14285
692.447	14330
692.490	13987
692.523	13984
692.534	14124
692.578	14054
692.622	14584
692.643	14709
692.666	14686
692.709	14460
692.753	14278
692.763	14242
692.797	14232
692.840	14095
692.884	13677
692.884	13707
692.928	13925
692.971	14472
693.004	14467
693.015	14487
693.059	14448
693.102	14658
693.124	14601
693.146	14578
693.189	14710
693.233	14622
693.245	14669
693.276	15116
693.320	15332
693.363	15630
693.365	15603
693.407	15338
693.450	15321
693.485	15134
693.493	15178
693.537	15006
693.580	15170
693.605	15067
693.624	14990
693.667	14981
693.710	15271
693.725	15009
693.753	15044
693.797	15784
693.840	16638
693.845	16647
693.883	16790
693.926	17112
693.966	17438
693.970	17429
694.013	16835
694.056	16380
694.086	15776
694.099	15692
694.142	15630
694.185	15518
694.206	15348
694.229	15463
694.272	15821
694.315	16180
694.326	16181
694.358	16142
694.401	16227
694.444	16138
694.446	16108
694.487	16427
694.530	16471
694.566	16479
694.573	16449
694.616	15999
694.659	15853
694.686	15484
694.702	15329
694.745	15145
694.787	14604
694.806	14421
694.830	14722
694.873	14983
694.916	15475
694.926	15523
694.959	15433
695.002	15446
695.044	15149
695.046	15112
695.087	15333
695.130	15216
695.166	15331
695.172	15427
695.215	15745
695.258	15846
695.286	15977
695.301	16028
695.343	16103
695.386	16165
695.406	16106
695.428	16085
695.471	15968
695.514	15995
695.526	15899
695.556	15876
695.599	16071
695.641	16008
695.646	15973
695.684	16112
695.726	16076
695.766	16104
695.769	16163
695.811	16520
695.854	16663
695.886	16920
695.896	16965
695.938	16712
695.981	16608
696.005	16447
696.023	16444
696.065	16441
696.108	16401
696.125	16270
696.150	16374
696.192	16729
696.235	16990
696.245	16983
696.277	16930
696.319	16913
696.361	16907
696.365	16860
696.404	16861
696.446	16819
696.485	16618
696.488	16646
696.530	16599
696.572	16494
696.604	16345
696.614	16447
696.656	16634
696.698	16978
696.724	17074
696.740	16924
696.783	16408
696.825	16016
696.844	15747
696.867	15852
696.909	16001
696.951	16103
696.964	16115
696.992	16333
697.034	16551
697.076	16661
697.083	16665
697.118	16900
697.160	17021
697.202	17204
697.203	17159
697.244	16859
697.286	16699
697.323	16499
697.327	16550
697.369	16476
697.411	16501
697.442	16467
697.453	16637
697.494	17163
697.536	17633
697.562	17862
697.578	17915
697.620	17997
697.661	18062
697.682	18040
697.703	18028
697.744	17928
697.786	17851
697.801	17753
697.828	18318
697.869	19126
697.911	19931
697.921	20085
697.952	19652
697.994	18969
698.035	18309
698.040	18173
698.077	18076
698.118	17942
698.160	17818
698.160	17767
698.201	17517
698.243	17264
698.279	16961
698.284	17078
698.325	17750
698.367	18406
698.399	18853
698.408	18811
698.449	18393
698.491	17988
698.518	17644
698.532	17745
698.573	17935
698.614	18099
698.638	18139
698.656	18141
698.697	18054
698.738	17931
698.757	17832
698.779	18156
698.820	18671
698.862	19192
698.877	19332
698.903	19328
698.944	19230
698.985	19130
698.996	19050
699.026	19105
699.067	19112
699.116	19066
699.235	18550
699.354	17450
699.474	18015
699.593	18504
699.713	19450
699.832	17923
699.951	19002
700.070	18417
700.190	17881
700.309	17959
700.428	18151
700.547	18409
700.667	17354
700.786	17804
700.905	17801
701.024	17745
701.143	17814
701.262	16511
701.381	16264
701.500	16679
701.619	17315
701.738	17290
701.857	16371
701.976	16203
702.095	15485
702.214	17351
702.333	18200
702.452	17071
702.571	16346
702.690	16238
702.809	16194
702.928	16064
703.047	14772
703.165	15223
703.284	14643
703.403	15646
703.522	15486
703.640	16866
703.759	16254
703.878	20407
703.997	18483
704.115	15134
704.234	14234
704.353	14481
704.471	13766
704.590	14827
704.708	14199
704.827	13981
704.946	13795
705.064	15649
705.183	15331
705.301	14903
705.420	19577
705.538	21193
705.656	18906
705.775	16812
705.893	16277
706.012	18673
706.130	18027
706.249	18362
706.367	18250
706.485	17982
706.604	17553
706.722	17763
706.840	18351
706.958	20675
707.077	19104
707.195	17080
707.313	16710
707.431	16338
707.549	15656
707.668	16625
707.786	16250
707.904	16241
708.022	15524
708.140	16187
708.258	14583
708.376	14648
708.494	15008
708.612	16022
708.730	19943
708.848	24176
708.966	19939
709.084	20180
709.202	18425
709.320	18154
709.438	18157
709.556	18761
709.674	18435
709.791	18088
709.909	17507
710.027	18015
710.145	17664
710.263	18320
710.380	16742
710.498	18554
710.616	16845
710.733	16160
710.851	16938
710.969	17833
711.086	17057
711.204	17644
711.322	16687
711.439	16731
711.557	17105
711.674	17110
711.792	15199
711.909	16646
712.027	15265
712.144	15963
712.262	16289
712.379	16262
712.497	19480
712.614	24999
712.732	21172
712.849	18546
712.966	19005
713.084	21825
713.201	21013
713.318	20293
713.436	19236
713.553	19825
713.670	20053
713.787	20433
713.905	22070
714.022	19919
714.139	18455
714.256	21104
714.373	22558
714.490	30968
714.608	48697
714.725	152773
714.842	510677
714.959	104882
715.076	25283
715.193	20783
715.310	19244
715.427	18315
715.544	16762
715.661	17296
715.778	16195
715.895	17825
716.011	17975
716.128	18239
716.245	16296
716.362	17346
716.479	19793
716.596	17273
716.713	16054
716.829	16181
716.946	15899
717.063	15318
717.180	15011
717.296	15066
717.413	14789
717.530	16010
717.646	15478
717.763	14881
717.880	14974
717.996	15117
718.113	14761
718.229	13677
718.346	13744
718.462	14192
718.579	15515
718.695	20035
718.812	23263
718.928	17312
719.045	17628
719.161	13928
719.277	13862
719.394	13607
719.510	13544
719.626	13821
719.743	15252
719.859	18276
719.975	21451
720.092	48110
720.208	180146
720.324	112989
720.440	18502
720.557	15412
720.673	17868
720.789	24156
720.905	33355
721.021	38788
721.137	12954
721.253	13020
721.369	13321
721.486	13574
721.602	16989
721.718	16406
721.834	11168
721.950	12790
722.066	11692
722.181	12040
722.297	12083
722.413	13347
722.529	10958
722.645	12667
722.761	11488
722.877	12263
722.993	11118
723.108	12097
723.224	11807
723.340	11843
723.456	11789
723.571	11935
723.687	10060
723.803	11480
723.918	10901
724.034	10791
724.150	11037
724.265	11020
724.381	14010
724.497	26758
724.612	14046
724.728	10497
724.843	10553
724.959	11284
725.074	13616
725.190	24647
725.305	12569
725.421	11400
725.536	9397
725.651	9752
725.767	9760
725.882	10048
725.997	9214
726.113	9755
726.228	9411
726.343	9724
726.459	9164
726.574	9828
726.689	9761
726.804	9398
726.920	9163
727.035	8518
727.150	9164
727.265	9474
727.380	9279
727.495	10305
727.610	8683
727.725	8717
727.841	8655
727.956	8617
728.071	9322
728.186	9414
728.301	8034
728.416	9172
728.531	8648
728.645	7846
728.760	8865
728.875	9485
728.990	9057
729.105	8956
729.220	9053
729.335	9583
729.449	8983
729.564	8810
729.679	7606
729.794	8128
729.908	8235
730.023	9214
730.138	7957
730.253	7607
730.367	7754
730.482	6543
730.596	7921
730.711	8216
730.826	7831
730.940	8475
731.055	7632
731.169	8519
731.284	7461
731.398	8080
731.513	8061
731.627	8392
731.742	9034
731.856	10933
731.970	9321
732.085	9528
732.199	10695
732.313	13720
732.428	23427
732.542	63435
732.656	110179
732.771	26869
732.885	11106
732.999	9805
733.113	9520
733.227	9335
733.342	7820
733.456	7999
733.570	7770
733.684	8279
733.798	8170
733.912	7779
734.026	7866
734.140	8066
734.254	7826
734.368	8805
734.482	15229
734.596	10079
734.710	6832
734.824	7322
734.938	7687
735.052	7627
735.166	8091
735.280	9193
735.393	6619
735.507	7145
735.621	8239
735.735	10656
735.849	11975
735.962	7818
736.076	7295
736.190	7820
736.303	8335
736.417	11340
736.531	7749
736.644	7833
736.758	6941
736.872	6864
736.985	6365
737.099	6658
737.212	6223
737.326	6700
737.439	6240
737.553	6378
737.666	5773
737.780	7217
737.893	5796
738.007	6351
738.120	6602
738.233	6634
738.347	6282
738.460	6180
738.573	6229
738.687	7110
738.800	5757
738.913	7734
739.026	7711
739.140	6885
739.253	6353
739.366	6056
739.479	5624
739.592	6038
739.705	6465
739.818	5968
739.932	5808
740.045	6850
740.158	5775
740.271	6658
740.384	6050
740.497	5745
740.610	6357
740.723	7131
740.836	6289
740.949	6467
741.062	6489
741.174	8349
741.287	6075
741.400	5936
741.513	6239
741.626	6799
741.739	6359
741.851	6212
741.964	5231
742.077	6014
742.189	5559
742.302	7323
742.415	6536
742.527	6486
742.640	5621
742.753	5839
742.865	5306
742.978	5225
743.090	4585
743.203	6002
743.316	5758
743.428	4749
743.541	4604
743.653	4893
743.766	5182
743.878	5690
743.990	5534
744.103	8021
744.215	6527
744.327	6494
744.440	5666
744.552	7718
744.664	7587
744.777	4931
744.889	4866
745.001	5134
745.113	4710
745.226	5494
745.338	5134
745.450	5597
745.562	4634
745.674	5475
745.786	4203
745.898	5121
746.010	4978
746.122	4624
746.234	4903
746.347	5439
746.459	4481
746.570	4840
746.682	5215
746.794	7311
746.906	6777
747.018	5738
747.130	5125
747.242	5000
747.354	4144
747.466	5278
747.577	4321
747.689	5089
747.801	4520
747.913	4998
748.024	4570
748.136	4136
748.248	3750
748.359	4980
748.471	4563
748.583	4674
748.694	4236
748.806	4690
748.918	5109
749.029	6334
749.141	4750
749.252	4565
749.364	5189
749.475	7322
749.587	8598
749.698	4508
749.809	4298
749.921	4760
750.032	4759
750.144	4964
750.255	4274
750.366	4282
750.478	4039
750.589	4453
750.700	4064
750.811	4927
750.923	4317
751.034	6677
751.145	12796
751.256	5978
751.367	4045
751.479	4053
751.590	3762
751.701	4403
751.812	3729
751.923	4157
752.034	4037
752.145	4204
752.256	3518
752.367	4343
752.478	3791
752.589	3979
752.700	3356
752.811	4208
752.922	3939
753.032	3586
753.143	5900
753.254	4363
753.365	3548
753.476	4196
753.586	3383
753.697	3992
753.808	3862
753.919	3914
754.029	3576
754.140	4635
754.251	3106
754.361	4198
754.472	3166
754.582	3496
754.693	3529
754.804	3627
754.914	3693
755.025	3942
755.135	3293
755.246	3324
755.356	3304
755.466	3833
755.577	3214
755.687	3069
755.798	3762
755.908	3657
756.018	3150
756.129	4705
756.239	3350
756.349	3396
756.460	3296
756.570	4120
756.680	3930
756.790	3987
756.900	4375
757.011	3391
757.121	3767
757.231	2974
757.341	3291
757.451	3260
757.561	3298
757.671	3288
757.781	3344
757.891	4769
758.001	3344
758.111	4116
758.221	4137
758.331	4786
758.441	3571
758.551	4572
758.661	5301
758.771	4005
758.880	3315
758.990	4119
759.100	3460
759.210	4362
759.320	3409
759.429	4848
759.539	4172
759.649	4164
759.758	4110
759.868	4090
759.978	4622
760.087	5492
760.197	4546
760.307	4082
760.416	3706
760.526	4363
760.635	3550
760.745	3799
760.854	3689
760.964	4552
761.073	4831
761.182	4977
761.292	3705
761.401	3929
761.511	4007
761.620	3454
761.729	3496
761.839	3751
761.948	3826
762.057	4110
762.166	3842
762.276	4159
762.385	4688
762.494	4233
762.603	2888
762.712	4547
762.822	3562
762.931	3958
763.040	3738
763.149	3714
763.258	4208
763.367	4383
763.476	3646
763.585	3821
763.694	3817
763.803	3551
763.912	3554
764.021	4574
764.130	3009
764.238	4561
764.347	3392
764.456	3831
764.565	3391
764.674	3804
764.783	3806
764.891	3140
765.000	3369
765.109	4756
765.217	4195
765.326	4873
765.435	5285
765.543	5939
765.652	4912
765.761	6734
765.869	6470
765.978	8784
766.086	13148
766.195	24434
766.303	52761
766.412	170448
766.520	417358
766.629	161036
766.737	31732
766.846	15527
766.954	10068
767.062	8431
767.171	7027
767.279	6696
767.387	5391
767.496	5957
767.604	4527
767.712	5483
767.820	4641
767.928	4975
768.037	4563
768.145	4538
768.253	4029
768.361	4263
768.469	3890
768.577	3775
768.685	4207
768.793	4925
768.901	4676
769.009	5454
769.117	3850
769.225	5568
769.333	6298
769.441	8094
769.549	10602
769.657	20095
769.765	55630
769.873	206899
769.981	241481
770.088	34395
770.196	11240
770.304	8473
770.412	6166
770.519	5876
770.627	5168
770.735	4243
770.842	4132
770.950	5471
771.058	4850
771.165	4940
771.273	4165
771.380	4514
771.488	4521
771.595	5059
771.703	4114
771.810	4995
771.918	4126
772.025	4534
772.133	3444
772.240	4436
772.348	4902
772.455	5140
772.562	4675
772.670	4669
772.777	3857
772.884	4409
772.991	3671
773.099	4432
773.206	3182
773.313	4362
773.420	3757
773.528	3755
773.635	3942
773.742	4645
773.849	4173
773.956	3827
774.063	3974
774.170	3983
774.277	3333
774.384	3933
774.491	3739
774.598	4181
774.705	3756
774.812	5339
774.919	4247
775.026	4114
775.133	3313
775.239	3921
775.346	3590
775.453	4258
775.560	3725
775.667	3752
775.773	3421
775.880	4736
775.987	3420
776.093	4479
776.200	3810
776.307	4650
776.413	4207
776.520	3657
776.627	3908
776.733	3872
776.840	3706
776.946	5027
777.053	4725
777.159	8557
777.266	8218
777.372	7989
777.478	8036
777.585	7321
777.691	4356
777.798	3476
777.904	4184
778.010	4955
778.117	4931
778.223	4320
778.329	3320
778.435	4255
778.542	3720
778.648	3243
778.754	2860
778.860	3490
778.966	4004
779.072	3544
779.178	2989
779.284	3958
779.391	3465
779.497	3188
779.603	3689
779.708	3125
779.815	3689
779.920	4098
780.026	7141
780.132	6777
780.238	2611
780.344	3450
780.450	3139
780.556	3437
780.661	2593
780.767	2583
780.873	3232
780.979	2798
781.085	3191
781.190	2943
781.296	2853
781.402	3187
781.507	2695
781.613	2859
781.719	2153
781.824	3154
781.930	3237
782.035	2991
782.141	3009
782.246	2386
782.352	3192
782.457	3487
782.563	2923
782.668	3078
782.773	2928
782.879	3355
782.984	2845
783.090	3775
783.195	3587
783.300	4428
783.405	2716
783.511	3358
783.616	3009
783.721	2375
783.826	2648
783.932	1759
784.037	2832
784.142	3370
784.247	2622
784.352	3121
784.457	2887
784.562	3654
784.667	2269
784.772	3433
784.877	2177
784.982	3581
785.087	1953
785.192	3771
785.297	2217
785.402	3272
785.507	2372
785.611	2760
785.716	3075
785.821	3884
785.926	2171
786.031	2408
786.135	2056
786.240	3015
786.345	2421
786.450	2613
786.554	1849
786.659	2758
786.763	1743
786.868	2609
786.973	3138
787.077	2719
787.182	2861
787.286	2487
787.391	2584
787.495	2043
787.600	2388
787.704	2372
787.809	2531
787.913	2208
788.017	2249
788.122	2585
788.226	2835
788.330	1676
788.435	2274
788.539	2793
788.643	2105
788.747	2432
788.852	1744
788.956	2234
789.060	2514
789.164	2885
789.268	2060
789.372	2233
789.476	2354
789.580	2966
789.684	1557
789.788	3155
789.892	2097
789.996	2691
790.100	2228
790.204	1677
790.308	2933
790.412	2633
790.516	1953
790.620	3026
790.724	1817
790.828	3367
790.931	2587
791.035	2479
791.139	2157
791.242	1762
791.346	2206
791.450	2722
791.554	1974
791.657	2374
791.761	2553
791.864	2685
791.968	2386
792.072	2386
792.175	2569
792.279	1835
792.382	2571
792.486	2327
792.589	2340
792.693	2426
792.796	1896
792.899	2516
793.003	2436
793.106	2501
793.209	1635
793.313	2619
793.416	1254
793.519	1842
793.623	2255
793.726	4414
793.829	3626
793.932	2975
794.035	1171
794.138	2560
794.242	2618
794.345	2982
794.448	2622
794.551	2798
794.654	4359
794.757	4217
794.860	3083
794.963	3782
795.066	1495
795.169	1967
795.272	838
795.375	2604
795.477	1457
795.580	2404
795.683	1229
795.786	2650
795.889	1008
795.991	2503
796.094	2152
796.197	2447
796.300	2185
796.402	2351
796.505	1353
796.608	2292
796.710	2072
796.813	2325
796.915	1945
797.018	2002
797.120	1819
797.223	1648
797.326	2128
797.428	2079
797.530	2308
797.633	1494
797.735	1896
797.838	3015
797.940	3667
798.042	2356
798.145	1530
798.247	2115
798.349	1512
798.452	2022
798.554	1598
798.656	1592
798.758	2212
798.860	2236
798.962	771
799.065	1751
799.167	1429
799.269	2339
799.371	1414
799.473	2270
799.575	2780
799.677	2671
799.779	2516
799.881	2313
799.983	3231
800.085	2092
800.187	1425
800.289	1909
800.390	1571
800.492	2559
800.594	2112
800.696	1569
800.798	1337
800.899	1661
801.001	1782
801.103	1785
801.205	1411
801.306	1702
801.408	1209
801.509	1121
801.611	1461
801.713	1812
801.814	471
801.916	882
802.017	1932
802.119	2290
802.220	1276
802.322	1071
802.423	2230
802.525	1991
802.626	1637
802.727	1673
802.829	1677
802.930	867
803.031	2066
803.133	1972
803.234	863
803.335	2043
803.436	134
803.538	1285
803.639	1552
803.740	1793
803.841	597
803.942	1116
804.043	1406
804.144	1684
804.245	1614
804.346	1416
804.447	1370
804.548	2030
804.649	2956
804.750	1936
804.851	876
804.952	1426
805.053	1868
805.154	929
805.255	1241
805.355	1314
805.456	1446
805.557	1892
805.658	254
805.758	1965
805.859	1169
805.960	1614
806.061	1410
806.161	1481
806.262	1121
806.362	1174
806.463	1752
806.564	1997
806.664	710
806.765	2211
806.865	1762
806.966	2401
807.066	1074
807.166	1767
807.267	1800
807.367	1174
807.468	1029
807.568	1003
807.668	1123
807.769	1466
807.869	1106
807.969	1506
808.069	1203
808.170	945
808.270	1289
808.370	1653
808.470	1435
808.570	1751
808.670	1465
808.770	1329
808.870	980
808.970	1544
809.070	905
809.170	860
809.271	1083
809.370	908
809.470	1861
809.570	1643
809.670	844
809.770	1740
809.870	1411
809.970	1470
810.070	1299
810.169	1314
810.269	669
810.369	2790
810.469	1201
810.568	679
810.668	532
810.768	1799
810.867	1668
810.967	931
811.066	1067
811.166	894
811.265	1372
811.365	899
811.464	933
811.564	2032
811.663	1933
811.763	833
811.862	1590
811.962	2044
812.061	952
812.160	2073
812.260	1471
812.359	1894
812.458	2177
812.557	5298
812.657	11905
812.756	11331
812.855	3506
812.954	1879
813.053	2033
813.153	1600
813.252	2026
813.351	2611
813.450	1855
813.549	1387
813.648	1197
813.747	2081
813.846	1982
813.945	2089
814.044	1480
814.143	1646
814.242	2495
814.341	2214
814.439	1979
814.538	2393
814.637	2044
814.736	2476
814.835	2067
814.933	1891
815.032	1958
815.131	2745
815.229	2620
815.328	3045
815.427	3031
815.525	2475
815.624	3011
815.722	3004
815.821	3214
815.919	3393
816.018	3079
816.116	4805
816.215	4249
816.313	3579
816.412	3960
816.510	5035
816.609	4533
816.707	5545
816.805	4456
816.904	5068
817.002	5576
817.100	7018
817.198	7650
817.296	8465
817.395	9085
817.493	11278
817.591	11802
817.689	16654
817.787	20910
817.885	29952
817.983	47691
818.081	84975
818.179	170231
818.277	363362
818.375	598770
818.473	384709
818.571	149951
818.669	76643
818.767	55596
818.865	49692
818.963	51369
819.061	64418
819.158	93943
819.256	156703
819.354	294092
819.452	557716
819.549	710431
819.647	452695
819.745	203829
819.842	105330
819.940	66192
820.038	46381
820.135	34359
820.233	27602
820.330	20387
820.428	17628
820.525	15173
820.623	12381
820.720	11399
820.818	10800
820.915	9359
821.012	8522
821.110	7408
821.207	7551
821.304	5845
821.402	5961
821.499	6900
821.596	6832
821.693	6296
821.791	6042
821.888	4829
821.985	6426
822.082	7507
822.179	5703
822.276	4873
822.373	4829
822.470	2760
822.567	3412
822.664	3115
822.761	4589
822.858	2549
822.955	3364
823.052	3020
823.149	3392
823.246	2724
823.343	2647
823.440	2777
823.536	1920
823.633	2011
823.730	3044
823.827	3169
823.923	2081
824.020	3425
824.117	2543
824.213	2035
824.310	3525
824.407	2073
824.503	2245
824.600	1981
824.696	2430
824.793	2306
824.889	1352
824.986	2589
825.082	1854
825.179	2367
825.275	1720
825.371	1916
825.468	2876
825.564	893
825.660	1911
825.757	2164
825.853	2900
825.949	977
826.045	1691
826.142	841
826.238	2087
826.334	2424
826.430	935
826.526	1748
826.622	1203
826.718	1140
826.814	1772
826.910	2325
827.006	1604
827.102	907
827.198	1613
827.294	447
827.390	1538
827.486	742
827.582	1152
827.678	827
827.774	1550
827.869	580
827.965	1676
828.061	-110
828.157	1468
828.252	997
828.348	1705
828.444	1079
828.539	833
828.635	459
828.731	1940
828.826	345
828.922	2125
829.017	100
829.113	853
829.208	663
829.304	1039
829.399	1505
829.495	956
829.590	701
829.685	1196
829.781	1061
829.876	1019
829.971	794
830.066	1314
830.162	832
830.257	1215
830.352	617
830.447	2266
830.543	1569
830.638	27
830.733	1540
830.828	1476
830.923	1268
831.018	1079
831.113	972
831.208	713
831.303	1052
831.398	1804
831.493	1398
831.588	896
831.683	822
831.778	1358
831.873	675
831.967	971
832.062	814
832.157	450
832.252	2011
832.346	774
832.441	891
832.536	1755
832.631	3176
832.725	5217
832.820	2346
832.914	1738
833.009	757
833.104	1818
833.198	1208
833.293	1804
833.387	741
833.482	1105
833.576	451
833.670	1179
833.765	754
833.859	531
833.954	1063
834.048	1018
834.142	256
834.237	786
834.331	808
834.425	1319
834.519	393
834.613	793
834.708	446
834.802	1815
834.896	529
834.990	1893
835.084	1226
835.178	1367
835.272	856
835.366	1040
835.460	651
835.554	1188
835.648	421
835.742	195
835.836	401
835.930	607
836.024	10
836.117	1131
836.211	535
836.305	1006
836.399	1042
836.493	724
836.586	1353
836.680	702
836.774	247
836.867	759
836.961	78
837.055	32
837.148	421
837.242	1139
837.335	13
837.429	579
837.522	356
837.616	727
837.709	1407
837.803	3087
837.896	1447
837.989	1241
838.083	1447
838.176	2079
838.269	2224
838.363	1975
838.456	757
838.549	1590
838.642	1467
838.735	3847
838.829	4143
838.922	1773
839.015	434
839.108	184
839.201	814
839.294	594
839.387	519
839.480	1307
839.573	773
839.666	1451
839.759	1388
839.852	802
839.945	198
840.038	1071
840.131	-26
840.223	-305
840.316	-57
840.409	777
840.502	-916
840.594	1805
840.687	586
840.780	1359
840.873	-503
840.965	403
841.058	485
841.150	1862
841.243	2107
841.336	1403
841.428	461
841.521	570
841.613	-501
841.706	1667
841.798	177
841.890	548
841.983	-183
842.075	1168
842.167	478
842.260	612
842.352	1000
842.444	1528
842.537	1615
842.629	4635
842.721	3047
842.813	488
842.905	364
842.997	1102
843.090	192
843.182	1790
843.274	1512
843.366	5077
843.458	8259
843.550	13356
843.642	4838
843.734	1979
843.826	317
843.918	1796
844.009	1568
844.101	510
844.193	706
844.285	-140
844.377	572
844.469	1235
844.560	1447
844.652	1908
844.744	1295
844.835	566
844.927	149
845.019	888
845.110	1090
845.202	129
845.293	902
845.385	-140
845.476	-493
845.568	763
845.659	201
845.751	1427
845.842	-43
845.934	-101
846.025	593
846.116	498
846.208	902
846.299	975
846.390	174
846.482	210
846.573	357
846.664	1701
846.755	954
846.846	3248
846.937	-95
847.029	1144
847.120	576
847.211	749
847.302	1284
847.393	-715
847.484	232
847.575	194
847.666	245
847.757	9
847.847	-344
847.938	1409
848.029	744
848.120	226
848.211	-253
848.302	1033
848.392	38
848.483	807
848.574	-250
848.664	612
848.755	-396
848.846	550
848.936	-86
849.027	863
849.118	746
849.208	175
849.299	16
849.389	2266
849.480	1879
849.570	3291
849.661	6274
849.751	13862
849.841	15026
849.932	3491
850.022	109
850.112	1349
850.203	584
850.293	690
850.383	-260
850.474	711
850.564	389
850.654	959
850.744	109
850.834	885
850.924	1152
851.014	482
851.104	100
851.194	976
851.284	1025
851.374	779
851.464	348
851.554	716
851.644	418
851.734	710
851.824	217
851.914	1376
852.004	23
852.094	530
852.183	89
852.273	698
852.363	29
852.452	860
852.542	667
852.632	306
852.721	552
852.811	503
852.901	495
852.990	410
853.080	183
853.169	885
853.259	173
853.348	280
853.438	50
853.527	1288
853.617	1499
853.706	3307
853.795	4799
853.885	12593
853.974	25849
854.063	43914
854.152	87755
854.242	93162
854.331	20225
854.420	4362
854.509	1951
854.598	1556
854.687	998
854.777	1619
854.866	1439
854.955	1087
855.044	-4
855.133	497
855.222	-259
855.311	452
855.400	-81
855.488	150
855.577	-187
855.666	328
855.755	29
855.844	865
855.933	118
856.021	364
856.110	-262
856.199	-46
856.288	-119
856.376	-36
856.465	323
856.554	526
856.642	562
856.731	113
856.819	-109
856.908	98
856.996	-385
857.085	481
857.173	82
857.262	-619
857.350	108
857.438	-112
857.527	-27
857.615	532
857.703	657
857.792	-651
857.880	340
857.968	268
858.056	-319
858.145	365
858.233	411
858.321	67
858.409	281
858.497	262
858.585	-428
858.673	65
858.761	-599
858.849	-93
858.937	250
859.025	787
859.113	942
859.201	73
859.289	445
859.377	635
859.465	-18
859.552	-143
859.640	-573
859.728	1497
859.816	-220
859.903	314
859.991	-1146
860.079	718
860.166	201
860.254	437
860.342	-68
860.429	440
860.517	-95
860.604	691
860.692	-519
860.779	302
860.867	-447
860.954	111
861.042	-199
861.129	282
861.216	48
861.304	-80
861.391	-587
861.478	353
861.565	170
861.653	330
861.740	-221
861.827	12
861.914	-347
862.001	-109
862.089	199
862.176	-18
862.263	222
862.350	374
862.437	-624
862.524	-386
862.611	-201
862.698	982
862.785	426
862.871	1313
862.958	659
863.045	-242
863.132	343
863.219	778
863.306	-749
863.392	944
863.479	-176
863.566	242
863.652	-98
863.739	117
863.826	-19
863.912	-457
863.999	-219
864.086	460
864.172	-577
864.259	58
864.345	140
864.432	1005
864.518	-5
864.604	369
864.691	-320
864.777	985
864.863	-15
864.950	-97
865.036	-458
865.122	800
865.209	1341
865.295	1944
865.381	1356
865.467	1428
865.553	1436
865.639	2086
865.726	2199
865.812	6268
865.898	12386
865.984	22128
866.070	31346
866.156	58860
866.242	42426
866.328	8503
866.414	2041
866.499	1584
866.585	1793
866.671	1777
866.757	724
866.843	1360
866.928	805
867.014	1138
867.100	1542
867.186	279
867.271	1028
867.357	1830
867.442	1362
867.528	2667
867.614	121
867.699	1325
867.785	2138
867.870	1046
867.956	1718
868.041	2003
868.127	1744
868.212	1368
868.297	2645
868.383	1959
868.468	1148
868.553	2947
868.639	1940
868.724	3386
868.809	7370
868.894	3973
868.979	990
869.065	555
869.150	48
869.235	619
869.320	303
869.405	1364
869.490	-69
869.575	678
869.660	205
869.745	880
869.830	377
869.915	508
870.000	192
870.085	1029
870.169	462
870.254	1054
870.339	176
870.424	235
870.509	685
870.593	1159
870.678	645
870.763	742
870.847	964
870.932	260
871.016	433
871.101	1466
871.186	-266
871.270	793
871.355	308
871.439	478
871.523	601
871.608	588
871.692	163
871.777	924
871.861	1096
871.945	547
872.030	-104
872.114	833
872.198	-251
872.282	276
872.367	279
872.451	-226
872.535	258
872.619	804
872.703	303
872.787	90
872.871	-771
872.955	103
873.039	-156
873.123	539
873.207	24
873.291	735
873.375	660
873.459	-23
873.543	-297
873.627	550
873.711	-304
873.794	783
873.878	374
873.962	-16
874.045	-752
874.129	175
874.137	125
874.213	-375
874.245	-112
874.296	303
874.352	-192
874.380	-428
874.460	702
874.464	747
874.547	-527
874.568	-417
874.631	-128
874.676	262
874.714	601
874.784	336
874.798	284
874.881	223
874.892	151
874.965	-363
874.999	-398
875.048	-421
875.107	175
875.131	405
875.215	129
875.215	129
875.298	202
875.323	133
875.381	-2
875.430	190
875.465	326
875.538	-130
875.548	-194
875.631	367
875.646	210
875.714	-589
875.753	-84
875.798	545
875.861	88
875.881	-75
875.964	881
875.968	835
876.047	185
876.076	493
876.130	907
876.183	458
876.213	253
876.291	320
876.296	321
876.379	28
876.398	112
876.462	458
876.506	307
876.545	169
876.613	282
876.628	309
876.711	-275
876.721	-220
876.794	136
876.828	-49
876.877	-351
876.935	200
876.960	452
877.043	-191
877.043	-186
877.125	885
877.150	816
877.208	612
877.258	657
877.291	699
877.365	216
877.374	144
877.456	902
877.472	717
877.539	36
877.579	498
877.622	940
877.687	678
877.704	605
877.787	498
877.794	438
877.869	-88
877.901	152
877.952	504
878.008	436
878.034	344
878.115	-42
878.117	-42
878.199	50
878.222	268
878.282	760
878.329	620
878.364	474
878.437	843
878.447	900
878.529	-39
878.544	135
878.611	937
878.651	706
878.694	459
878.758	87
878.776	-25
878.858	268
878.865	291
878.941	540
878.972	512
879.023	361
879.078	54
879.105	28
879.185	57
879.187	62
879.269	847
879.292	806
879.351	379
879.399	502
879.433	535
879.506	739
879.516	808
879.598	119
879.613	208
879.680	556
879.720	514
879.762	468
879.827	345
879.844	255
879.926	131
879.933	138
880.007	639
880.040	552
880.089	192
880.147	352
880.171	461
880.253	1222
880.254	1227
880.335	2036
880.360	2346
880.417	3664
880.467	4149
880.499	4493
880.574	8723
880.580	8986
880.662	6873
880.680	6078
880.744	2618
880.787	1112
880.825	238
880.893	-87
880.907	-148
880.989	432
881.000	366
881.070	441
881.106	678
881.152	855
881.213	575
881.233	435
881.315	327
881.319	342
881.396	737
881.426	481
881.478	-54
881.532	340
881.559	561
881.639	173
881.641	169
881.722	290
881.745	231
881.803	-31
881.852	77
881.885	159
881.958	290
881.966	318
882.047	575
882.064	596
882.129	704
882.171	753
882.210	765
882.277	956
882.291	1056
882.372	1523
882.383	1490
882.454	715
882.489	705
882.535	625
882.596	-53
882.616	-71
882.697	735
882.702	739
882.778	349
882.808	335
882.859	378
882.914	255
882.940	260
883.020	503
883.021	504
883.102	55
883.127	81
883.183	378
883.233	64
883.264	-149
883.339	244
883.345	276
883.426	-122
883.445	-30
883.507	536
883.551	620
883.587	396
883.657	158
883.668	223
883.749	492
883.763	594
883.830	829
883.869	784
883.910	208
883.975	-590
883.991	-415
884.072	474
884.081	557
884.152	543
884.187	527
884.233	396
884.292	521
884.314	592
884.394	433
884.398	434
884.475	364
884.504	248
884.555	59
884.610	-132
884.636	-30
884.716	218
884.716	222
884.797	513
884.821	448
884.877	269
884.927	79
884.958	-52
885.033	-80
885.038	-45
885.118	271
885.139	363
885.199	366
885.244	363
885.279	207
885.350	48
885.359	101
885.439	327
885.456	369
885.520	507
885.561	701
885.600	617
885.667	275
885.680	306
885.760	630
885.773	660
885.840	634
885.878	641
885.920	465
885.984	181
886.000	213
886.080	303
886.089	323
886.160	568
886.195	698
886.240	627
886.300	379
886.320	432
886.400	903
886.406	907
886.480	572
886.511	572
886.560	765
886.616	754
886.640	645
886.720	499
886.722	486
886.800	345
886.827	427
886.879	424
886.932	277
886.959	363
887.038	716
887.039	718
887.119	456
887.143	477
887.198	616
887.248	583
887.278	598
887.354	741
887.358	727
887.437	129
887.459	38
887.517	752
887.564	1390
887.596	1267
887.669	715
887.676	683
887.755	449
887.774	352
887.835	407
887.880	461
887.914	188
887.985	-317
887.994	-265
888.073	87
888.090	190
888.153	506
888.195	634
888.232	685
888.300	908
888.311	839
888.391	159
888.405	52
888.470	435
888.510	639
888.549	577
888.615	484
888.628	620
888.708	1414
888.720	1539
888.787	648
888.825	111
888.866	177
888.930	292
888.945	332
889.024	498
889.035	523
889.103	746
889.140	874
889.182	715
889.245	457
889.261	459
889.340	429
889.349	429
889.419	801
889.454	978
889.498	980
889.559	974
889.577	1040
889.656	1324
889.664	1352
889.735	1165
889.768	1071
889.814	1108
889.873	1156
889.978	109
890.083	962
890.187	1106
890.292	1113
890.397	496
890.501	741
890.606	710
890.710	149
890.815	813
890.919	-2
891.024	577
891.128	586
891.233	431
891.337	877
891.442	1178
891.546	143
891.650	664
891.755	685
891.859	1714
891.963	1168
892.068	1294
892.172	1107
892.276	824
892.380	-70
892.484	1028
892.589	1078
892.693	906
892.797	203
892.901	439
893.005	387
893.109	816
893.213	1188
893.317	822
893.421	685
893.525	449
893.629	436
893.733	1054
893.837	352
893.941	943
894.045	905
894.148	1033
894.252	228
894.356	1013
894.460	767
894.564	1002
894.667	-518
894.771	145
894.875	176
894.978	396
895.082	647
895.186	437
895.289	525
895.393	135
895.496	75
895.600	185
895.703	685
895.807	455
895.910	-274
896.014	627
896.117	699
896.221	721
896.324	1265
896.427	33
896.531	21
896.634	254
896.737	526
896.840	146
896.944	869
897.047	162
897.150	576
897.253	160
897.356	422
897.460	205
897.563	-385
897.666	696
897.769	14
897.872	836
897.975	120
898.078	550
898.181	315
898.284	228
898.387	-210
898.490	165
898.593	208
898.695	22
898.798	200
898.901	997
899.004	85
899.107	83
899.209	1235
899.312	528
899.415	1162
899.518	519
899.620	-32
899.723	-79
899.826	893
899.928	784
900.031	417
900.133	351
900.236	688
900.338	100
900.441	447
900.543	330
900.646	504
900.748	-452
900.851	540
900.953	514
901.055	1797
901.158	321
901.260	193
901.362	5
901.465	-662
901.567	-189
901.669	339
901.771	198
901.873	726
901.976	377
902.078	216
902.180	200
902.282	276
902.384	242
902.486	158
902.588	701
902.690	396
902.792	976
902.894	1050
902.996	813
903.098	504
903.200	610
903.302	267
903.404	169
903.505	837
903.607	784
903.709	1191
903.811	392
903.913	652
904.014	52
904.116	697
904.218	264
904.319	-186
904.421	1390
904.523	1533
904.624	910
904.726	494
904.827	-37
904.929	888
905.030	290
905.132	1575
905.233	1063
905.335	134
905.436	866
905.537	-214
905.639	983
905.740	81
905.841	749
905.943	572
906.044	337
906.145	964
906.247	357
906.348	471
906.449	238
906.550	742
906.651	463
906.752	703
906.854	284
906.955	654
907.056	914
907.157	138
907.258	546
907.359	-116
907.460	573
907.561	-56
907.662	557
907.762	-423
907.863	417
907.964	779
908.065	81
908.166	387
908.267	-198
908.367	-293
908.468	647
908.569	794
908.670	434
908.770	439
908.871	238
908.971	1055
909.072	326
909.173	-263
909.273	661
909.374	-344
909.474	254
909.575	-90
909.675	-213
909.776	406
909.876	413
909.977	-72
910.077	417
910.177	426
910.278	182
910.378	-342
910.478	-379
910.579	-442
910.679	658
910.779	840
910.879	281
910.980	328
911.080	-372
911.180	111
911.280	173
911.380	-329
911.480	-68
911.580	330
911.680	419
911.780	453
911.880	315
911.980	-426
912.080	-313
912.180	-625
912.280	-9
912.380	-63
912.480	330
912.580	249
912.679	79
912.779	390
912.879	-224
912.979	219
913.078	237
913.178	-890
913.278	1008
913.377	394
913.477	677
913.577	215
913.676	489
913.776	145
913.875	162
913.975	607
914.074	437
914.174	83
914.273	-10
914.373	348
914.472	-225
914.572	-86
914.671	-181
914.770	-50
914.870	180
914.969	344
915.068	-199
915.167	-262
915.267	39
915.366	-418
915.465	-617
915.564	-273
915.663	-461
915.763	587
915.862	-287
915.961	74
916.060	-81
916.159	130
916.258	508
916.357	47
916.456	293
916.555	335
916.654	-202
916.752	-632
916.851	47
916.950	99
917.049	-538
917.148	185
917.247	-39
917.345	194
917.444	121
917.543	-217
917.642	119
917.740	34
917.839	-335
917.937	220
918.036	382
918.135	17
918.233	124
918.332	639
918.430	230
918.529	808
918.627	345
918.726	397
918.824	19
918.923	63
919.021	-380
919.119	25
919.218	-328
919.316	116
919.414	572
919.512	-290
919.611	8
919.709	16
919.807	65
919.905	-293
920.003	530
920.102	-57
920.200	232
920.298	-186
920.396	60
920.494	-259
920.592	131
920.690	536
920.788	-176
920.886	-59
920.984	195
921.082	-390
921.180	451
921.277	850
921.375	-187
921.473	-220
921.571	781
921.669	368
921.766	94
921.864	330
921.962	127
922.060	481
922.157	292
922.255	156
922.352	-361
922.450	758
922.548	605
922.645	137
922.743	-215
922.840	534
922.938	963
923.035	1364
923.133	867
923.230	1682
923.327	1416
923.425	1547
923.522	1229
923.619	1401
923.717	825
923.814	1203
923.911	1328
924.008	1609
924.106	541
924.203	1375
924.300	780
924.397	1477
924.494	1302
924.591	1830
924.688	767
924.786	1096
924.883	1163
924.979	111
925.077	904
925.173	1185
925.270	1007
925.367	573
925.464	1774
925.561	1482
925.658	879
925.755	1489
925.852	1040
925.948	1684
926.045	2305
926.142	1018
926.239	1496
926.335	1241
926.432	1521
926.529	1556
926.625	1817
926.722	1738
926.818	1584
926.915	1336
927.011	1297
927.108	860
927.204	888
927.301	1542
927.397	700
927.494	1395
927.590	781
927.687	623
927.783	840
927.879	833
927.976	846
928.072	511
928.168	1446
928.264	658
928.361	1022
928.457	1516
928.553	387
928.649	300
928.745	1380
928.841	1409
928.937	608
929.033	227
929.129	219
929.225	1022
929.321	734
929.417	343
929.513	722
929.609	831
929.705	1251
929.801	401
929.897	267
929.993	458
930.089	867
930.184	1265
930.280	743
930.376	636
930.471	789
930.567	254
930.663	829
930.758	902
930.854	458
930.950	694
931.045	678
931.141	331
931.236	402
931.332	1866
931.427	195
931.523	-48
931.618	552
931.714	397
931.809	-152
931.905	991
932.000	902
932.095	109
932.191	888
932.286	-246
932.381	1275
932.476	453
932.572	1232
932.667	1189
932.762	615
932.857	763
932.952	896
933.047	1159
933.142	-310
933.237	93
933.332	1086
933.427	908
933.522	878
933.617	634
933.712	162
933.807	168
933.902	664
933.997	213
934.092	937
934.187	-39
934.282	513
934.376	-454
934.471	872
934.566	767
934.661	244
934.755	596
934.850	422
934.945	185
935.039	-3
935.134	12
935.228	85
935.323	269
935.417	691
935.512	470
935.606	209
935.701	-230
935.795	332
935.890	558
935.984	914
936.079	137
936.173	163
936.267	-543
936.362	226
936.456	-59
936.550	561
936.644	262
936.738	136
936.833	0
936.927	587
937.021	-305
937.115	-333
937.209	-486
937.303	534
937.397	-554
937.491	275
937.585	23
937.679	546
937.773	59
937.867	280
937.961	665
938.055	328
938.149	1273
938.243	625
938.337	171
938.430	229
938.524	90
938.618	2070
938.712	2020
938.805	57
938.899	725
938.993	1391
939.086	667
939.180	2131
939.274	1733
939.367	1569
939.461	791
939.554	-203
939.648	-399
939.741	302
939.835	496
939.928	455
940.022	-63
940.115	-229
940.208	49
940.302	308
940.395	269
940.488	22
940.582	641
940.675	471
940.768	263
940.861	-473
940.954	829
941.048	-27
941.141	118
941.234	844
941.327	582
941.420	1380
941.513	792
941.606	564
941.699	174
941.792	487
941.885	-297
941.978	1046
942.071	125
942.164	-197
942.257	-394
942.349	903
942.442	-242
942.535	159
942.628	819
942.721	-406
942.813	-421
942.906	70
942.999	374
943.091	406
943.184	-37
943.277	-61
943.369	417
943.462	-608
943.554	70
943.647	486
943.739	346
943.832	541
943.924	519
944.017	-168
944.109	-336
944.201	750
944.294	68
944.386	266
944.478	-433
944.571	-349
944.663	-318
944.755	64
944.847	378
944.940	155
945.032	-140
945.124	-303
945.216	135
945.308	153
945.400	369
945.492	319
945.584	-33
945.676	437
945.768	-456
945.860	519
945.952	423
946.044	-60
946.136	351
946.228	-267
946.320	-176
946.412	-1018
946.503	-83
946.595	-275
946.687	-32
946.779	-125
946.870	283
946.962	-687
947.054	-66
947.145	-441
947.237	60
947.329	-353
947.420	-150
947.512	-204
947.603	196
947.695	-186
947.786	-1063
947.878	38
947.969	150
948.061	630
948.152	40
948.243	-396
948.335	-658
948.426	-55
948.517	-312
948.609	397
948.700	-474
948.791	-116
948.882	-656
948.973	-303
949.065	-1331
949.156	336
949.247	267
949.338	-123
949.429	-269
949.520	-530
949.611	-119
949.702	-882
949.793	61
949.884	-620
949.975	-630
950.066	-303
950.157	-486
950.247	-294
950.338	-446
950.429	-775
950.520	-346
950.611	99
950.701	-207
950.792	-918
950.883	-39
950.973	-169
951.064	-73
951.155	418
951.245	400
951.336	-186
951.427	-325
951.517	-45
951.608	-432
951.698	-415
951.788	-43
951.879	183
951.969	-408
952.060	-232
952.150	-462
952.240	410
952.331	-621
952.421	499
952.511	-870
952.602	205
952.692	192
952.782	-600
952.872	-290
952.962	568
953.052	-223
953.143	-829
953.233	-457
953.323	91
953.413	-315
953.503	279
953.593	-310
953.683	210
953.773	-1006
953.863	-837
953.953	-805
954.042	-121
954.132	-133
954.222	-274
954.312	-523
954.402	97
954.492	-280
954.581	278
954.671	563
954.761	-886
954.850	267
954.940	-362
955.030	-1061
955.119	-643
955.209	-591
955.298	-622
955.388	236
955.477	-272
955.567	-465
955.656	-79
955.746	-979
955.835	-439
955.925	-945
956.014	-457
956.103	-310
956.193	-449
956.282	-948
956.371	-62
956.461	-356
956.550	-585
956.639	-854
956.728	-874
956.817	-325
956.906	-1403
956.995	49
957.085	-252
957.174	-787
957.263	-175
957.352	-673
957.441	-165
957.530	519
957.619	-741
957.708	-425
957.796	-306
957.885	-728
957.974	502
958.063	-171
958.152	-810
958.241	337
958.329	-344
958.418	-1051
958.507	-773
958.596	-626
958.684	-768
958.773	-722
958.861	-155
958.950	-955
959.039	417
959.127	-398
959.216	-1118
959.304	-541
959.393	-720
959.481	-736
959.570	-1144
959.658	-934
959.746	-707
959.835	-649
959.923	635
960.011	337
960.100	-474
960.188	-423
960.276	-887
960.365	-1773
960.453	-82
960.541	-376
960.629	-1089
960.717	-69
960.805	-749
960.893	-971
960.981	-951
961.069	-145
961.158	151
961.245	-942
961.333	190
961.421	-312
961.509	-591
961.597	-848
961.685	-385
961.773	-1127
961.861	-1059
961.949	-732
962.036	-861
962.124	-692
962.212	-1248
962.299	-1209
962.387	-869
962.475	-741
962.562	-378
962.650	-739
962.738	-667
962.825	-1048
962.913	-1210
963.000	-1444
963.088	-1108
963.175	-817
963.263	-1179
963.350	-105
963.438	-463
963.525	-398
963.612	-1367
963.700	812
963.787	3751
963.874	6353
963.962	932
964.049	-617
964.136	-1586
964.223	-528
964.310	-359
964.398	-865
964.485	-283
964.572	-1604
964.659	368
964.746	-62
964.833	-115
964.920	-1197
965.007	-168
965.094	-479
965.181	-1261
965.268	-669
965.355	-822
965.441	-615
965.528	-1090
965.615	-625
965.702	-1235
965.789	-396
965.875	-346
965.962	-1368
966.049	-1215
966.136	-1126
966.222	-1136
966.309	-651
966.395	-809
966.482	-385
966.569	-553
966.655	-1123
966.742	-653
966.828	-1365
966.915	-610
967.001	-520
967.087	-1504
967.174	-2011
967.260	-271
967.347	-710
967.433	557
967.519	2775
967.605	3056
967.692	-334
967.778	-137
967.864	-753
967.950	-1103
968.036	-1280
968.123	-538
968.209	-808
968.295	-1671
968.381	-577
968.467	-1210
968.553	-1162
968.639	-244
968.725	-1128
968.811	-559
968.897	85
968.983	-803
969.069	-1173
969.154	-737
969.240	-470
969.326	-990
969.412	-864
969.497	-1250
969.583	-2241
969.669	-628
969.755	-857
969.840	-1471
969.926	-281
970.012	-355
970.097	-649
970.183	-173
970.268	-297
970.354	-1312
970.439	-803
970.525	1475
970.610	1438
970.696	-3
970.781	-1169
970.866	-1247
970.952	-1622
971.037	-444
971.122	-1603
971.208	-765
971.293	-483
971.378	-1242
971.463	-1209
971.549	-806
971.634	-1383
971.719	-740
971.804	-1087
971.889	110
971.974	-1196
972.059	-786
972.144	-894
972.229	-961
972.314	-1388
972.399	-788
972.484	-496
972.569	-854
972.654	-1744
972.739	-423
972.824	331
972.908	277
972.993	-978
973.078	-1057
973.163	-1441
973.247	-263
973.332	-1458
973.417	-23
973.501	-1373
973.586	-1375
973.671	-777
973.755	-1291
973.840	-594
973.924	-1021
974.009	-1110
974.093	-1431
974.178	-798
974.262	-208
974.346	333
974.431	-232
974.515	-550
974.600	-1195
974.684	-601
974.768	-1387
974.852	-467
974.937	-1616
975.021	-830
975.105	-447
975.189	-1227
975.273	-1058
975.358	-544
975.442	-1117
975.526	-982
975.610	-918
975.694	-1139
975.778	-656
975.862	-1309
975.946	-1137
976.030	337
976.114	-976
976.198	-1104
976.281	-736
976.365	-1314
976.449	-1346
976.533	-1267
976.617	-789
976.700	-1692
976.784	-1521
976.868	-1065
976.951	-1136
977.035	-637
977.119	-1306
977.202	-1139
977.286	-1062
977.369	-1122
977.453	-480
977.536	-1504
977.620	-1150
977.703	-1563
977.787	-1554
977.870	-519
977.953	-557
978.037	-1239
978.120	-635
978.203	-516
978.287	-468
978.370	725
978.453	-783
978.536	-804
978.620	114
978.703	-1262
978.786	-1194
978.869	-1060
978.952	-1633
979.035	-1083
979.118	-997
979.201	-1692
979.284	-845
979.367	-1660
979.450	-134
979.533	-1111
979.616	-1270
979.699	-1095
979.782	-716
979.865	-1585
979.948	-1008
980.030	-1151
980.113	-1021
980.196	-1586
980.279	-1223
980.361	-956
980.444	-1065
980.526	-829
980.609	-804
980.692	-1674
980.774	-27
980.857	-795
980.939	-789
981.022	-1229
981.104	-884
981.187	-1225
981.269	-94
981.352	-1194
981.434	-950
981.516	-1687
981.599	-1067
981.681	-313
981.763	-1185
981.846	-1745
981.928	-1412
982.010	-1318
982.092	-910
982.174	-971
982.256	-1821
982.339	-360
982.421	-1048
982.503	-25
982.585	-1400
982.667	-1131
982.749	-1163
982.831	-1334
982.913	-1563
982.995	-1594
983.077	-1117
983.158	-614
983.240	-725
983.322	-1029
983.404	-1371
983.486	-1067
983.568	-558
983.649	-1298
983.731	-1015
983.813	-1287
983.894	-711
983.976	-1725
984.058	-803
984.139	-1378
984.221	-1419
984.302	-802
984.384	-1204
984.465	-1541
984.547	-386
984.628	-1746
984.710	-548
984.791	-991
984.872	-799
984.954	-1791
985.035	-269
985.116	-1168
985.198	-1433
985.279	-942
985.360	-1135
985.441	-1187
985.522	-1182
985.604	-1401
985.685	-1605
985.766	-666
985.847	-392
985.928	-1459
986.009	-1014
986.090	-1611
986.171	-762
986.252	-1622
986.333	-1072
986.414	-1548
986.495	-1313
986.576	-815
986.656	-417
986.737	-889
986.818	-818
986.899	-715
986.980	-450
987.060	-1247
987.141	-1263
987.222	-1124
987.302	-824
987.383	-556
987.464	-1050
987.544	-1200
987.625	-1023
987.705	-1112
987.786	-1382
987.866	-1387
987.947	-469
988.027	-960
988.108	-195
988.188	-872
988.268	-515
988.349	-1207
988.429	-711
988.509	-1258
988.589	-1247
988.670	-2044
988.750	-311
988.830	-2113
988.910	-532
988.990	-1188
989.070	-1233
989.151	-1483
989.231	-1468
989.311	-756
989.391	-913
989.471	-1056
989.551	-610
989.631	-658
989.711	-1155
989.791	-1162
989.870	-720
989.950	-701
990.030	-1127
990.110	-1306
990.190	-913
990.269	-1617
990.349	-1724
990.429	-1155
990.509	-863
990.588	-1670
990.668	-1216
990.747	-1293
990.827	-1062
990.907	-813
990.986	-728
991.066	-819
991.145	-830
991.225	-1266
991.304	-1314
991.383	-1587
991.463	-1379
991.542	-1314
991.622	-1346
991.701	-1240
991.780	-931
991.859	-1648
991.939	-866
992.018	-1326
992.097	-528
992.176	-1616
992.256	-846
992.335	-1036
992.414	-299
992.493	-1282
992.572	-604
992.651	-339
992.730	-591
992.809	-1085
992.888	-1611
992.967	-834
993.046	-1211
993.125	-1721
993.203	-1477
993.282	-922
993.361	-579
993.440	-1103
993.519	-1693
993.597	-1104
993.676	-478
993.755	-1289
993.834	-414
993.912	-2100
993.991	-502
994.069	-1502
994.148	-971
994.226	-1478
994.305	-880
994.384	-1190
994.462	-929
994.540	-2131
994.619	-744
994.697	-1291
994.776	-808
994.854	-608
994.932	-1101
995.011	-935
995.089	-922
995.167	-48
995.245	-949
995.324	-1195
995.402	-1617
995.480	-1740
995.558	-1210
995.636	-856
995.714	-1301
995.792	-986
995.870	-1381
995.948	-1000
996.026	-1286
996.104	-1491
996.182	-891
996.260	-1727
996.338	-330
996.416	-1848
996.494	-1347
996.572	-572
996.649	-866
996.727	-1843
996.805	-1368
996.883	-855
996.960	-1232
997.038	-1363
997.116	-1119
997.193	-1443
997.271	-1043
997.348	-1567
997.426	-1421
997.504	-1570
997.581	-861
997.658	-653
997.736	-1220
997.813	-1644
997.891	-1661
997.968	-2327
998.046	-955
998.123	-1593
998.200	-158
998.277	-1466
998.355	-920
998.432	-1756
998.509	-990
998.586	-1457
998.663	-1049
998.741	-1283
998.818	-1398
998.895	-1431
998.972	-1078
999.049	-1362
999.126	-1702
999.203	-355
999.280	-60
999.357	-1174
999.434	-1214
999.511	-1275
999.587	-200
999.664	-1577
999.741	-989
999.818	-1118
999.895	-903
999.971	-997
1000.048	-1789
1000.125	-1220
1000.202	-1390
1000.278	-1461
1000.355	-1075
1000.431	-813
1000.508	-1375
1000.584	-1978
1000.661	-1717
1000.738	-2336
1000.814	-1407
1000.890	-1143
1000.967	-1054
1001.043	-1442
1001.120	-1463
1001.196	-721
1001.272	-596
1001.349	-759
1001.425	-940
1001.501	-1584
1001.577	-1320
1001.654	-988
1001.730	-813
1001.806	-1215
1001.882	-2153
1001.958	-1698
1002.034	-1193
1002.110	-1829
1002.186	-1550
1002.262	-1553
1002.338	-1366
1002.414	-851
1002.490	-1165
1002.566	-1730
1002.642	-1290
1002.718	-697
1002.794	-1544
1002.870	-1277
1002.945	-1700
1003.021	-1584
1003.097	-895
1003.173	-670
1003.248	-1691
1003.324	-2112
1003.400	-713
1003.475	-409
1003.551	-1273
1003.626	-1653
1003.702	-1116
1003.777	-1330
1003.853	-1840
1003.928	-1030
1004.004	-1243
1004.079	-943
1004.155	-930
1004.230	-1622
1004.305	-725
1004.381	-2238
1004.456	-1330
1004.531	-1573
1004.607	-751
1004.682	-1448
1004.757	-1254
1004.832	-1214
1004.907	-1401
1004.982	-1241
1005.057	-1029
1005.133	-1808
1005.208	-1399
1005.283	-1574
1005.358	-1171
1005.433	-1843
1005.508	-1457
1005.583	-1612
1005.657	-1373
1005.732	-1437
1005.807	-1918
1005.882	-1843
1005.957	-1596
1006.032	-2032
1006.106	-746
1006.181	-1332
1006.256	-1413
1006.331	-1642
1006.405	-1289
1006.480	-605
1006.554	-1283
1006.629	-1003
1006.704	-1911
1006.778	-1135
1006.853	-1322
1006.927	-1679
1007.002	-1319
1007.076	-1842
1007.150	-1569
1007.225	-1735
1007.299	-1702
1007.373	-1722
1007.448	-1366
1007.522	-1572
1007.596	-1079
1007.671	-1102
1007.745	-1861
1007.819	-1918
1007.893	-1367
1007.967	-2106
1008.041	-1885
1008.115	-1014
1008.190	-1159
1008.264	-998
1008.338	-2256
1008.412	-1472
1008.486	-1413
1008.560	-1214
1008.633	-1600
1008.707	-1188
1008.781	-976
1008.855	-1482
1008.929	-692
1009.003	-2079
1009.076	-1623
1009.150	-1246
1009.224	-1425
1009.298	-964
1009.371	-1791
1009.445	-941
1009.519	-611
1009.592	-2385
1009.666	-993
1009.739	-2085
1009.813	-2667
1009.886	-1259
1009.960	-1334
1010.033	-1875
1010.107	-809
1010.180	-2244
1010.253	-1036
1010.327	-1257
1010.400	-1426
1010.473	-2012
1010.547	-336
1010.620	-1541
1010.693	-1081
1010.766	-1502
1010.840	-1444
1010.913	-1677
1010.986	-1745
1011.059	-1492
1011.132	-1645
1011.205	-1186
1011.278	-532
1011.351	-1400
1011.424	-1316
1011.497	-1564
1011.570	-1495
1011.643	-750
1011.716	-1918
1011.789	-2368
1011.862	-1461
1011.934	-1868
1012.007	-1636
1012.080	-1126
1012.153	-2067
1012.225	-1269
1012.298	-1955
1012.371	-998
1012.443	-1121
1012.516	-2234
1012.588	-2211
1012.661	-1352
1012.733	-1704
1012.806	-2091
1012.879	-1546
1012.951	-1377
1013.023	-2378
1013.096	-2588
1013.168	-1865
1013.241	-552
1013.313	-1628
1013.385	-841
1013.458	-2103
1013.530	-2060
1013.602	-2054
1013.674	-1119
1013.746	-1863
1013.819	-1553
1013.891	-1951
1013.963	-2051
1014.035	-1046
1014.107	-1575
1014.179	-2297
1014.251	-2413
1014.323	-724
1014.395	-1278
1014.467	-1666
1014.539	-2043
1014.611	-1221
1014.683	-1200
1014.754	-1436
1014.826	-2060
1014.898	-714
1014.970	-1870
1015.042	-1477
1015.113	-2010
1015.185	-1463
1015.257	-2118
1015.328	-1277
1015.400	-1281
1015.471	-862
1015.543	-1512
1015.615	-1045
1015.686	-1390
1015.757	-1442
1015.829	-1967
1015.901	-1989
1015.972	-1261
1016.043	-1729
1016.115	-1547
1016.186	-1865
1016.257	-1582
1016.328	-1431
1016.400	-1303
1016.471	-2560
1016.542	-2486
1016.613	-1129
1016.685	-2252
1016.756	-1481
1016.827	-2135
1016.898	-2687
1016.969	-1110
1017.040	-1770
1017.111	-1481
1017.182	-1768
1017.253	-930
1017.324	-1330
1017.395	-2082
1017.466	-1961
1017.537	-1753
1017.608	-1576
1017.678	-1358
1017.749	-2124
1017.820	-1517
1017.891	-2296
1017.961	-1332
1018.032	-1676
1018.103	-1261
1018.173	-1208
1018.244	-1980
1018.315	-1719
1018.385	-1904
1018.456	-1839
1018.526	-2621
1018.597	-1435
1018.667	-1450
1018.738	-1118
1018.808	-1660
1018.878	-1951
1018.949	-1958
1019.019	-2477
1019.089	-2195
1019.160	-1636
1019.230	-2035
1019.300	-1233
1019.371	-2707
1019.441	-2030
1019.511	-1542
1019.581	-2003
1019.651	-2043
1019.721	-1560
1019.791	-2192
1019.861	-1904
1019.931	-1756
1020.001	-2195
1020.071	-2108
1020.141	-1191
1020.211	-1461
1020.281	-2185
1020.351	-2335
1020.421	-1781
1020.491	-2122
1020.560	-1971
1020.630	-1662
1020.700	-2148
1020.770	-2294
1020.839	-1620
1020.909	-1697
1020.979	-1761
1021.048	-2111
1021.118	-2210
1021.187	-2265
1021.257	-1842
1021.326	-789
1021.396	-1627
1021.465	-1714
1021.535	-2235
1021.604	-2856
1021.674	-1343
1021.743	-2350
1021.812	-1755
1021.882	-1966
1021.951	-1940
1022.020	-2645
1022.089	-1798
1022.159	-1911
1022.228	-1718
1022.297	-2077
1022.366	-2432
1022.435	-2057
1022.504	-1629
1022.573	-1963
1022.642	-1917
1022.711	-2188
1022.781	-1757
1022.849	-1743
1022.918	-1570
1022.987	-2122
1023.056	-1980
1023.125	-2379
1023.194	-2177
1023.263	-1921
1023.331	-1811
1023.400	-2481
1023.469	-2206
1023.538	-1754
1023.606	-2474
1023.675	-2521
1023.744	-1555
1023.812	-3063
1023.881	-1893
1023.949	-1925
1024.018	-1628
1024.086	-2401
1024.155	-1934
1024.223	-2153
1024.292	-1572
1024.360	-2254
1024.429	-1954
1024.497	-2245
1024.565	-1941
1024.634	-1629
1024.702	-2529
1024.770	-2307
1024.838	-1890
1024.907	-1562
1024.975	-2181
1025.043	-2033
1025.111	-2441
1025.179	-2619
1025.247	-2063
1025.315	-1969
1025.383	-2296
1025.451	-1690
1025.519	-2551
1025.587	-2020
1025.655	-1927
1025.723	-2265
1025.791	-1857
1025.859	-1316
1025.927	-2161
1025.995	-3201
1026.062	-2477
1026.130	-2577
1026.198	-2164
1026.266	-1944
1026.333	-1791
1026.401	-1983
1026.469	-2824
1026.536	-2501
1026.604	-2129
1026.671	-2096
1026.739	-1966
1026.806	-2082
1026.874	-1713
1026.941	-2285
1027.009	-1718
1027.076	-2084
1027.144	-2173
1027.211	-2844
1027.278	-1467
1027.345	-2887
1027.413	-1638
1027.480	-1672
1027.547	-1519
1027.614	-2266
1027.682	-1629
1027.749	-2949
1027.816	-2546
1027.883	-2305
1027.950	-1710
1028.017	-2340
1028.084	-2158
1028.151	-2228
1028.218	-1907
1028.285	-2107
1028.352	-2567
1028.419	-2587
1028.486	-3076
1028.553	-1935
1028.619	-2158
1028.686	-2148
1028.753	-2257
1028.820	-2594
1028.886	-3290
1028.953	-2391
1029.020	-1348
1029.086	-2350
1029.153	-2601
1029.220	-2376
1029.286	-3202
1029.353	-1790
1029.419	-2327
1029.486	-2772
1029.552	-2291
1029.619	-2012
1029.685	-2471
1029.751	-2035
1029.818	-1703
1029.884	-2500
1029.951	-1253
1030.017	-2510
1030.083	-1495
1030.149	-2446
1030.216	-2182
1030.282	-2810
1030.348	-2312
1030.414	-2462
1030.480	-2782
1030.546	-2712
1030.612	-1960
1030.678	-2314
1030.744	-1718
1030.810	-2189
1030.876	-2583
1030.942	-2492
1031.008	-1827
1031.074	-1875
1031.140	-1875
1031.206	-1722
1031.272	-2947
1031.337	-2387
1031.403	-2006
1031.469	-3047
1031.534	-2203
1031.600	-1731
1031.666	-2498
1031.731	-3065
1031.797	-1504
1031.863	-2508
1031.928	-1922
1031.994	-2858
1032.059	-1606
1032.125	-2818
1032.190	-2304
1032.256	-2509
1032.321	-2359
1032.386	-1720
1032.452	-2004
1032.517	-1788
1032.582	-1525
1032.647	-2387
1032.713	-1122
1032.778	-1644
1032.843	-2238
1032.908	-2536
1032.974	-1780
1033.039	-1855
1033.104	-1937
1033.169	-2992
1033.234	-2177
1033.299	-2448
1033.364	-1833
1033.429	-2004
1033.494	-1928
1033.559	-1980
1033.624	-2270
1033.688	-2277
1033.753	-2629
1033.818	-1776
1033.883	-2373
1033.948	-2487
1034.013	-1569
1034.077	-1819
1034.142	-1936
1034.207	-2201
1034.271	-1237
1034.336	-1050
1034.400	-1328
1034.465	-1107
1034.530	-2165
1034.594	-1592
1034.658	-2338
1034.723	-2507
1034.787	-1935
1034.852	-1667
1034.916	-2006
1034.981	-2751
1035.045	-2142
1035.109	-1967
1035.173	-1311
1035.238	-2910
1035.302	-2536
1035.366	-1834
1035.430	-2157
1035.495	-2650
1035.559	-2475
1035.623	-2954
1035.687	-1982
1035.751	-2534
1035.815	-1717
1035.879	-2638
1035.943	-1975
1036.007	-2292
1036.071	-1635
1036.135	-2538
1036.198	-2495
1036.262	-1933
1036.326	-2843
1036.390	-2058
1036.454	-2121
1036.517	-2455
1036.581	-1796
1036.645	-2226
1036.709	-1159
1036.772	-1769
1036.836	-2309
1036.900	-2782
1036.963	-2389
1037.026	-2369
1037.090	-2574
1037.154	-1671
1037.217	-2351
1037.280	-2110
1037.344	-2489
1037.407	-3329
1037.471	-1399
1037.534	-2023
1037.597	-2259
1037.661	-2752
1037.724	-2173
1037.787	-2533
1037.850	-2518
1037.913	-2146
1037.977	-1486
1038.040	-2549
1038.103	-2074
1038.166	-3221
1038.229	-2607
1038.292	-2397
1038.355	-2064
1038.418	-2830
1038.481	-1712
1038.544	-1818
1038.607	-1898
1038.670	-1578
1038.732	-2844
1038.795	-2034
1038.858	-2023
1038.921	-1960
1038.984	-1824
1039.046	-1879
1039.109	-2054
1039.172	-2094
1039.234	-2520
1039.297	-2735
1039.360	-2423
1039.422	-2389
1039.485	-1102
1039.547	-2293
1039.610	-2382
1039.672	-2599
1039.734	-2267
1039.797	-2677
1039.859	-2689
1039.922	-2898
1039.984	-2228
1040.046	-3166
1040.109	-2076
1040.171	-2026
1040.233	-1391
1040.295	-2716
1040.358	-1818
1040.420	-2332
1040.482	-2246
1040.544	-1830
1040.606	-2427
1040.668	-2123
1040.730	-2605
1040.792	-2713
1040.854	-2409
1040.916	-2356
1040.978	-2573
1041.040	-1999
1041.102	-1784
1041.164	-2627
1041.225	-2154
1041.287	-2067
1041.349	-3021
1041.411	-1905
1041.472	-2532
1041.534	-2578
1041.596	-1549
1041.657	-1644
1041.719	-2266
1041.781	-2595
1041.842	-2000
1041.904	-2024
1041.965	-2639
1042.027	-2749
1042.088	-1919
1042.150	-2102
1042.211	-2094
1042.272	-1269
1042.334	-2736
1042.395	-2554
1042.456	-2044
1042.518	-2638
1042.579	-1639
1042.640	-2503
1042.701	-1496
1042.763	-1685
1042.824	-1839
1042.885	-2633
1042.946	-1908
1043.007	-1778
1043.068	-2146
1043.129	-2122
1043.190	-2178
1043.251	-2274
1043.312	-2676
1043.373	-1799
1043.434	-2295
1043.495	-1995
1043.556	-1783
1043.616	-1468
1043.677	-2246
1043.738	-1994
1043.799	-1453
1043.859	-2454
1043.920	-2255
1043.981	-2445
1044.041	-2416
1044.102	-2212
1044.162	-2562
1044.223	-2053
1044.284	-2195
1044.344	-2225
1044.405	-1579
1044.465	-2448
1044.525	-1804
1044.586	-2080
1044.646	-1896
1044.707	-2213
1044.767	-1707
1044.827	-1963
1044.887	-1676
1044.948	-2545
1045.008	-1877
1045.068	-2447
1045.128	-1549
1045.188	-2176
1045.249	-1843
1045.309	-1914
1045.369	-1976
1045.429	-2127
1045.489	-2073
1045.549	-1241
1045.609	-1881
1045.669	-2067
1045.729	-1532
1045.789	-1999
1045.848	-1519
1045.908	-1559
1045.968	-1086
1046.028	-1525
1046.088	-2147
1046.147	-1035
1046.207	-1955
1046.267	-1922
1046.326	-1602
1046.386	-2109
1046.446	-1726
1046.505	-1553
1046.565	-514
1046.624	-1119
1046.684	-1136
1046.743	-1108
1046.803	-341
1046.862	-1265
1046.922	0
