'Start Wavelength	183.907
'End Wavelength	1046.922
'Gate Delay	5.000
'Gate Width (ms)	1.050
'Laser Output Level	0.000
'X Position	0.000
'Y Position	0.000
'Z Position	0.000
'Grid Point Number	1.000
'Shot Number	100.000
183.907	-119.000
183.977	25.000
184.047	855
184.116	140
184.186	540
184.256	-129
184.325	155
184.395	-299
184.465	-304
184.534	-386
184.604	9
184.674	398
184.743	-363
184.813	-39
184.883	78
184.952	504
185.022	361
185.092	-39
185.161	642
185.231	342
185.301	60
185.370	508
185.440	-293
185.509	-469
185.579	-11
185.649	-63
185.718	209
185.788	256
185.857	101
185.927	411
185.996	363
186.066	-481
186.136	646
186.205	-406
186.275	-51
186.344	484
186.414	-34
186.483	-7
186.553	642
186.622	1175
186.692	398
186.761	189
186.831	53
186.900	310
186.970	125
187.039	217
187.109	955
187.178	248
187.248	532
187.317	561
187.387	-352
187.456	878
187.526	293
187.595	316
187.664	169
187.734	393
187.803	62
187.873	1164
187.942	754
188.012	770
188.081	232
188.150	1165
188.220	1247
188.289	579
188.358	194
188.428	224
188.497	-256
188.567	810
188.636	-163
188.705	-277
188.775	1227
188.844	522
188.913	608
188.983	286
189.052	248
189.121	508
189.191	247
189.260	640
189.329	788
189.399	1025
189.468	253
189.537	166
189.606	418
189.676	243
189.745	783
189.814	749
189.883	159
189.953	335
190.022	1359
190.091	3340
190.161	2029
190.230	623
190.299	335
190.368	811
190.437	-39
190.507	901
190.576	916
190.645	602
190.714	95
190.783	226
190.853	48
190.922	788
190.991	811
191.060	608
191.129	455
191.198	642
191.268	467
191.337	557
191.406	804
191.475	318
191.544	62
191.613	949
191.682	520
191.752	640
191.821	271
191.890	842
191.959	554
192.028	10
192.097	913
192.166	785
192.235	-284
192.304	480
192.373	530
192.442	331
192.511	-53
192.580	290
192.650	1039
192.719	385
192.788	915
192.857	832
192.926	862
192.995	845
193.064	1715
193.133	1709
193.202	1680
193.271	1784
193.340	1550
193.409	1900
193.478	1706
193.547	2979
193.615	3375
193.684	2579
193.753	1864
193.822	321
193.891	1103
193.960	971
194.029	1285
194.098	982
194.167	1212
194.236	422
194.305	479
194.374	19
194.443	9
194.512	658
194.580	993
194.649	1395
194.718	1083
194.787	677
194.856	877
194.925	1536
194.994	528
195.062	1165
195.131	931
195.200	709
195.269	1753
195.338	370
195.407	370
195.475	1123
195.544	1142
195.613	1653
195.682	921
195.751	1937
195.819	1171
195.888	1359
195.957	2023
196.026	1303
196.094	1158
196.163	1294
196.232	1287
196.301	1188
196.369	1270
196.438	639
196.507	851
196.576	1330
196.644	379
196.713	843
196.782	944
196.850	811
196.919	21
196.988	896
197.056	854
197.125	1707
197.194	940
197.262	919
197.331	826
197.400	256
197.468	1086
197.537	1070
197.606	1459
197.674	2315
197.743	3242
197.812	1908
197.880	3410
197.949	1580
198.017	3719
198.086	1596
198.155	810
198.223	1766
198.292	3956
198.360	978
198.429	1592
198.497	1658
198.566	3837
198.635	1728
198.703	1064
198.772	2333
198.840	4979
198.909	2164
198.977	949
199.046	792
199.114	511
199.183	933
199.251	1288
199.320	347
199.388	839
199.457	800
199.525	875
199.594	1196
199.662	790
199.731	671
199.799	590
199.867	1154
199.936	1148
200.004	1042
200.073	1339
200.141	926
200.210	826
200.278	760
200.346	1337
200.415	1564
200.483	1500
200.552	1065
200.620	1247
200.688	776
200.757	1080
200.825	1484
200.893	1360
200.962	662
201.030	1180
201.098	1487
201.167	1132
201.235	1552
201.303	1064
201.372	1444
201.440	1507
201.508	2252
201.577	1913
201.645	702
201.713	1110
201.781	1407
201.850	1517
201.918	978
201.986	850
202.055	2058
202.123	1299
202.191	1596
202.259	1005
202.327	789
202.396	1276
202.464	2088
202.532	2654
202.600	5237
202.669	2234
202.737	1388
202.805	1079
202.873	2108
202.941	657
203.009	1616
203.078	1471
203.146	719
203.214	750
203.282	894
203.350	1149
203.418	966
203.487	499
203.555	1433
203.623	1581
203.691	896
203.759	957
203.827	1524
203.895	1286
203.963	1709
204.031	829
204.099	1221
204.168	420
204.236	1506
204.304	2132
204.372	1428
204.440	1073
204.508	1471
204.576	1059
204.644	1150
204.712	400
204.780	1291
204.848	1172
204.916	1260
204.984	1255
205.052	1144
205.120	1629
205.188	1329
205.256	1276
205.324	1845
205.392	1328
205.460	1516
205.528	1725
205.596	1779
205.664	769
205.732	2085
205.799	8137
205.867	4980
205.935	1615
206.003	1925
206.071	1609
206.139	1727
206.207	1159
206.275	1564
206.343	1506
206.411	1160
206.478	838
206.546	2018
206.614	1699
206.682	1528
206.750	1466
206.818	2084
206.885	1687
206.953	846
207.021	1650
207.089	1653
207.157	1877
207.225	1344
207.292	1534
207.360	1551
207.428	1358
207.496	1208
207.563	1231
207.631	806
207.699	1370
207.767	1455
207.834	1873
207.902	1439
207.970	2316
208.038	1656
208.105	1289
208.173	1732
208.241	2352
208.309	1891
208.376	2613
208.444	3634
208.512	1994
208.579	1588
208.647	2129
208.715	2522
208.782	1579
208.850	2078
208.918	1602
208.985	1190
209.053	1468
209.120	1260
209.188	1476
209.256	1744
209.323	2087
209.391	2829
209.459	1539
209.526	1621
209.594	1978
209.661	1614
209.729	1518
209.796	1240
209.864	1687
209.932	1772
209.999	1703
210.067	1751
210.134	2445
210.202	2936
210.269	2669
210.337	2571
210.404	1628
210.472	1987
210.539	1922
210.607	2334
210.674	2622
210.742	1966
210.809	1727
210.877	3385
210.944	2321
211.012	1650
211.079	1917
211.146	2041
211.214	2141
211.281	2800
211.349	2053
211.416	1970
211.484	2623
211.551	1746
211.618	2401
211.686	1687
211.753	1870
211.821	2042
211.888	1458
211.955	2536
212.023	1661
212.090	1454
212.157	2367
212.225	2626
212.292	5001
212.359	13523
212.427	18213
212.494	5377
212.561	3258
212.629	2494
212.696	1971
212.763	1683
212.831	2010
212.898	2947
212.965	1437
213.032	1975
213.100	2727
213.167	2492
213.234	3806
213.301	2621
213.369	2397
213.436	2140
213.503	2057
213.570	3076
213.638	2975
213.705	2159
213.772	1505
213.839	3652
213.906	2715
213.973	2846
214.041	2563
214.108	2813
214.175	1618
214.242	1955
214.309	2484
214.376	2696
214.444	2442
214.511	3645
214.578	2866
214.645	2619
214.712	2177
214.779	2902
214.846	2921
214.913	3938
214.980	3138
215.048	4079
215.115	4249
215.182	4082
215.249	2393
215.316	2957
215.383	2184
215.450	2517
215.517	2243
215.584	1814
215.651	1958
215.718	2274
215.785	4375
215.852	3228
215.919	2979
215.986	2639
216.053	1254
216.120	2207
216.187	3232
216.254	1972
216.321	2256
216.388	3263
216.455	2788
216.522	3234
216.589	4343
216.656	6694
216.722	3974
216.789	4988
216.856	4440
216.923	3450
216.990	3670
217.057	3900
217.124	3945
217.191	4205
217.258	5653
217.324	7222
217.391	6359
217.458	4590
217.525	3226
217.592	3342
217.659	3393
217.725	3154
217.792	4917
217.859	3527
217.926	1676
217.993	1774
218.059	2476
218.126	1616
218.193	1654
218.260	1675
218.327	1340
218.393	1668
218.460	1214
218.527	1338
218.594	2781
218.660	5247
218.727	3899
218.794	1731
218.860	1298
218.927	1149
218.994	1102
219.061	2179
219.127	2879
219.194	3666
219.261	799
219.327	1328
219.394	1846
219.461	1417
219.527	1799
219.594	2982
219.661	1796
219.727	1749
219.794	1316
219.860	1950
219.927	2719
219.994	4548
220.060	5479
220.127	2613
220.193	2203
220.260	3004
220.326	5161
220.393	9780
220.460	10641
220.526	5083
220.593	3848
220.659	4160
220.726	6360
220.792	11865
220.859	9668
220.925	15670
220.992	17403
221.058	17696
221.125	13253
221.191	8624
221.258	3856
221.324	3462
221.391	2652
221.457	1828
221.524	2369
221.590	5440
221.657	13935
221.723	5219
221.789	10118
221.856	5061
221.922	3023
221.989	2558
222.055	1636
222.121	1631
222.188	2765
222.254	2459
222.321	2260
222.387	1354
222.453	1406
222.520	1024
222.586	1027
222.652	1853
222.719	850
222.785	1765
222.851	298
222.918	1218
222.984	2051
223.050	1358
223.116	1645
223.183	826
223.249	1038
223.315	1232
223.382	930
223.448	1002
223.514	293
223.580	660
223.647	1083
223.713	1267
223.779	1223
223.845	983
223.911	1537
223.978	894
224.044	1111
224.110	1447
224.176	732
224.242	1138
224.309	1071
224.375	494
224.441	960
224.507	690
224.573	1001
224.639	1107
224.705	1234
224.772	835
224.838	1134
224.904	2390
224.970	1457
225.036	1762
225.102	2029
225.168	982
225.234	1009
225.300	1986
225.366	1592
225.432	1359
225.499	1238
225.565	2042
225.631	2024
225.697	2033
225.763	2060
225.829	2448
225.895	3776
225.961	4767
226.027	4337
226.093	3773
226.159	4078
226.225	7682
226.291	22449
226.357	22904
226.423	9740
226.489	6052
226.554	4061
226.620	4429
226.686	6317
226.752	10311
226.818	19548
226.884	37528
226.950	20504
227.016	7976
227.082	5111
227.148	5151
227.214	4166
227.279	3818
227.345	2515
227.411	2949
227.477	3845
227.543	6823
227.609	5597
227.674	3139
227.740	2744
227.806	2338
227.872	1602
227.938	3835
228.003	3973
228.069	1761
228.135	1567
228.201	1576
228.267	2407
228.332	3093
228.398	3309
228.464	2126
228.530	1589
228.595	1305
228.661	2430
228.727	4045
228.792	1844
228.858	1381
228.924	1789
228.990	2700
229.055	2860
229.121	2852
229.187	1797
229.252	2209
229.318	1935
229.384	2861
229.449	1935
229.515	833
229.581	22
229.646	2245
229.712	2650
229.777	8048
229.843	5215
229.909	4765
229.974	4726
230.040	3008
230.105	2286
230.171	3008
230.236	5151
230.302	6335
230.368	4040
230.433	2886
230.499	2625
230.564	2763
230.630	2423
230.695	1511
230.761	1715
230.826	1724
230.892	4160
230.957	1710
231.023	1281
231.088	1604
231.154	1899
231.219	2022
231.284	4686
231.350	2781
231.415	2326
231.481	2071
231.546	1577
231.612	1442
231.677	907
231.742	1127
231.808	1202
231.873	1407
231.939	1478
232.004	5121
232.069	2503
232.135	2472
232.200	1308
232.265	1177
232.331	1289
232.396	1275
232.461	977
232.527	1286
232.592	1287
232.657	2559
232.723	6764
232.788	3248
232.853	1630
232.918	1257
232.984	1392
233.049	2094
233.114	6506
233.179	3520
233.245	11830
233.310	5436
233.375	1697
233.440	2175
233.506	2340
233.571	1238
233.636	1751
233.701	2296
233.766	9253
233.832	4813
233.897	3002
233.962	3207
234.027	2966
234.092	2218
234.157	2238
234.222	2875
234.288	10343
234.353	21055
234.418	14524
234.483	6684
234.548	4267
234.613	3138
234.678	3568
234.743	9480
234.808	22671
234.873	7563
234.938	3360
235.004	3307
235.069	2932
235.134	2306
235.199	2153
235.264	2092
235.329	2020
235.394	2580
235.459	5081
235.524	3282
235.589	2515
235.654	2397
235.719	1287
235.784	2061
235.849	5765
235.913	9813
235.978	15940
236.043	9324
236.108	3930
236.173	4893
236.238	2707
236.303	2973
236.368	2994
236.433	10098
236.498	10209
236.563	5850
236.627	20800
236.692	45776
236.757	21006
236.822	12953
236.887	9615
236.952	6364
237.017	6875
237.081	6452
237.146	11141
237.211	20204
237.276	57236
237.341	59148
237.405	22053
237.470	12279
237.535	9335
237.600	4843
237.664	4189
237.729	3911
237.794	8437
237.859	10603
237.923	8514
237.988	5022
238.053	11500
238.118	11133
238.182	29458
238.247	14081
238.312	11411
238.376	6270
238.441	5634
238.506	4407
238.570	2309
238.635	2385
238.700	2740
238.764	3641
238.829	16609
238.893	9745
238.958	5641
239.023	3954
239.087	3022
239.152	3624
239.216	1756
239.281	2856
239.346	2073
239.410	2385
239.475	7673
239.539	30335
239.604	10018
239.668	4987
239.733	3546
239.797	5962
239.862	15029
239.926	16616
239.991	4901
240.055	3111
240.120	3253
240.184	2928
240.249	2784
240.313	2307
240.378	4416
240.442	23673
240.507	16379
240.571	5791
240.635	17152
240.700	9400
240.764	3695
240.829	2485
240.893	2171
240.957	3522
241.022	22303
241.086	23218
241.151	7759
241.215	3942
241.279	10566
241.344	10348
241.408	3051
241.472	2884
241.537	3513
241.601	3071
241.665	2091
241.730	2506
241.794	2132
241.858	2517
241.922	2472
241.987	2485
242.051	1755
242.115	2599
242.179	2112
242.244	2183
242.308	2831
242.372	4189
242.436	4266
242.501	2657
242.565	2521
242.629	2463
242.693	2020
242.757	2421
242.822	2441
242.886	3448
242.950	3149
243.014	3862
243.078	3979
243.142	3159
243.206	3319
243.271	3946
243.335	3780
243.399	6917
243.463	46406
243.527	47195
243.591	12131
243.655	6170
243.719	3914
243.783	4683
243.847	8961
243.911	10858
243.975	14756
244.040	6279
244.104	3569
244.168	3670
244.232	9108
244.296	8442
244.360	8308
244.424	5605
244.488	4163
244.552	3894
244.615	2663
244.679	2269
244.743	5803
244.807	3646
244.871	2532
244.935	2387
244.999	2110
245.063	3226
245.127	4543
245.191	7394
245.255	4847
245.319	6332
245.383	3593
245.446	3680
245.510	2905
245.574	3552
245.638	3429
245.702	7335
245.766	9966
245.829	5599
245.893	3759
245.957	4074
246.021	4430
246.085	5150
246.149	7293
246.212	18549
246.276	15175
246.340	8116
246.404	5324
246.467	9752
246.531	8906
246.595	5706
246.659	6491
246.722	6183
246.786	6851
246.850	9595
246.913	7241
246.977	4021
247.041	5911
247.104	4218
247.168	5552
247.232	19750
247.295	24154
247.359	8158
247.423	9197
247.486	10579
247.550	6037
247.614	6405
247.677	6827
247.741	4137
247.804	4089
247.868	5357
247.932	19270
247.995	19592
248.059	5857
248.122	4321
248.186	6947
248.249	17558
248.313	48512
248.376	34448
248.440	19066
248.503	7489
248.567	8865
248.630	14283
248.694	15612
248.757	28480
248.821	37789
248.884	19159
248.948	28737
249.011	36436
249.075	53844
249.138	28806
249.202	13002
249.265	13318
249.328	15341
249.392	9093
249.455	6840
249.519	6319
249.582	9559
249.645	14645
249.709	7965
249.772	6819
249.835	6748
249.899	7095
249.962	5457
250.025	6655
250.089	22077
250.152	16845
250.215	9982
250.279	7417
250.342	8685
250.405	6239
250.468	6641
250.532	9071
250.595	18942
250.658	86918
250.721	59623
250.785	23781
250.848	12798
250.911	8646
250.974	7608
251.038	18821
251.101	20042
251.164	13290
251.227	13347
251.290	10834
251.354	29042
251.417	95441
251.480	46748
251.543	73402
251.606	149655
251.669	60990
251.732	31680
251.795	36773
251.859	50778
251.922	84472
251.985	29079
252.048	15449
252.111	11634
252.174	13453
252.237	35040
252.300	46111
252.363	85355
252.426	93387
252.489	35392
252.552	22588
252.615	16282
252.678	20908
252.741	39074
252.804	79946
252.867	100598
252.930	52972
252.993	29326
253.056	20070
253.119	15128
253.182	14250
253.245	19750
253.308	14578
253.371	17990
253.434	15341
253.497	16938
253.559	25562
253.622	17587
253.685	29525
253.748	17206
253.811	11999
253.874	19383
253.937	12465
254.000	9889
254.062	25796
254.125	21644
254.188	30614
254.251	14090
254.314	12802
254.376	24926
254.439	19770
254.502	16240
254.565	26558
254.628	27408
254.690	17356
254.753	10644
254.816	10329
254.878	11920
254.941	25108
255.004	13644
255.067	10235
255.129	7756
255.192	4332
255.255	5634
255.317	6119
255.380	3274
255.443	3103
255.505	4443
255.568	4417
255.631	3940
255.693	4554
255.756	3284
255.819	3942
255.881	3658
255.944	2356
256.006	3018
256.069	3632
256.132	3450
256.194	11661
256.257	22730
256.319	18376
256.382	9903
256.444	5271
256.507	4414
256.569	3478
256.632	5265
256.694	11339
256.757	41146
256.819	48889
256.882	15250
256.944	8491
257.007	8295
257.069	8669
257.132	5399
257.194	3674
257.257	4882
257.319	4004
257.381	6134
257.444	28486
257.506	91454
257.569	61897
257.631	36140
257.693	15508
257.756	11626
257.818	8683
257.880	4600
257.943	4829
258.005	3694
258.067	4085
258.130	3932
258.192	9826
258.254	15625
258.317	5653
258.379	7748
258.441	20705
258.503	10788
258.566	41953
258.628	19681
258.690	6741
258.753	8478
258.815	11390
258.877	5302
258.939	4035
259.001	3120
259.064	4086
259.126	10007
259.188	7807
259.250	5896
259.312	12747
259.375	26767
259.437	8849
259.499	4829
259.561	4522
259.623	5496
259.685	3587
259.747	6662
259.809	42238
259.872	41113
259.934	80925
259.996	31628
260.058	10571
260.120	5337
260.182	3959
260.244	3201
260.306	3287
260.368	4088
260.430	4610
260.492	14532
260.554	25009
260.616	14722
260.678	53168
260.740	28736
260.802	8681
260.864	7514
260.926	5733
260.988	5215
261.050	6034
261.112	23782
261.174	57326
261.236	20092
261.298	9375
261.359	35472
261.421	18770
261.483	6906
261.545	5809
261.607	3832
261.669	4696
261.731	25221
261.793	26665
261.854	8681
261.916	5741
261.978	7188
262.040	7056
262.102	6419
262.164	15755
262.225	5750
262.287	7385
262.349	16554
262.411	6178
262.472	4935
262.534	29233
262.596	23048
262.658	6469
262.719	4930
262.781	18258
262.843	28575
262.904	8229
262.966	6620
263.028	12190
263.090	100864
263.151	87287
263.213	26805
263.275	13648
263.336	6563
263.398	4933
263.459	3402
263.521	5995
263.583	13828
263.644	5700
263.706	2949
263.767	2604
263.829	2946
263.891	2345
263.952	1418
264.014	1890
264.075	11353
264.137	11210
264.198	5126
264.260	2401
264.321	2864
264.383	18985
264.444	16953
264.506	5237
264.567	4415
264.629	15768
264.690	13338
264.752	5448
264.813	3576
264.875	2848
264.936	2411
264.998	2282
265.059	2198
265.120	3350
265.182	11574
265.243	43296
265.305	15774
265.366	6070
265.427	4260
265.489	2852
265.550	2676
265.611	4010
265.673	2930
265.734	2113
265.795	1832
265.857	1529
265.918	2534
265.979	18431
266.040	64011
266.102	20445
266.163	10654
266.224	8214
266.286	4369
266.347	2338
266.408	3892
266.469	3901
266.530	2780
266.592	3088
266.653	12930
266.714	9444
266.775	3600
266.836	2246
266.898	2698
266.959	5798
267.020	2494
267.081	2301
267.142	2350
267.203	2219
267.264	2279
267.326	2683
267.387	2332
267.448	1905
267.509	2645
267.570	2115
267.631	1746
267.692	2568
267.753	1864
267.814	2178
267.875	13710
267.936	12206
267.997	6591
268.058	4944
268.119	2970
268.180	3144
268.241	1936
268.302	1990
268.363	1514
268.424	3725
268.485	3044
268.546	1455
268.607	1626
268.668	571
268.729	1557
268.790	2150
268.851	4512
268.912	14003
268.972	8907
269.033	4165
269.094	1977
269.155	2166
269.216	2258
269.277	2362
269.338	1975
269.398	2792
269.459	2824
269.520	5109
269.581	8292
269.642	6600
269.702	3708
269.763	3235
269.824	3150
269.885	6753
269.945	5133
270.006	2369
270.067	1678
270.128	1942
270.188	1277
270.249	1482
270.310	1685
270.370	3167
270.431	1766
270.492	1765
270.553	3741
270.613	12197
270.674	13275
270.734	3434
270.795	3652
270.856	6454
270.916	2676
270.977	2804
271.038	4419
271.098	3353
271.159	9816
271.219	4595
271.280	2828
271.340	2317
271.401	10111
271.462	15741
271.522	5232
271.583	3504
271.643	4011
271.704	2858
271.764	4516
271.825	17678
271.885	51558
271.946	30755
272.006	12180
272.066	34287
272.127	23381
272.187	7821
272.248	4826
272.308	13038
272.369	25479
272.429	8955
272.489	14964
272.550	8830
272.610	13015
272.671	7043
272.731	18354
272.791	15885
272.852	7501
272.912	5493
272.972	2744
273.033	6768
273.093	8618
273.153	5879
273.214	4102
273.274	6873
273.334	38886
273.394	30831
273.455	13314
273.515	29041
273.575	28503
273.635	12977
273.696	35688
273.756	30567
273.816	10388
273.876	9881
273.936	52720
273.997	31337
274.057	8728
274.117	7964
274.177	20134
274.237	58097
274.297	40495
274.358	34831
274.418	34085
274.478	16841
274.538	8182
274.598	18507
274.658	60439
274.718	42637
274.778	12745
274.838	9133
274.898	54360
274.958	67583
275.018	43291
275.078	17964
275.138	9101
275.198	5505
275.258	4377
275.318	9495
275.378	13701
275.438	9238
275.498	9939
275.558	58703
275.618	52281
275.678	21169
275.738	19112
275.798	11334
275.858	5681
275.918	3624
275.978	6456
276.038	3549
276.098	2980
276.157	19652
276.217	23651
276.277	10414
276.337	6916
276.397	4622
276.457	6016
276.517	3480
276.576	2199
276.636	4234
276.696	9182
276.756	21251
276.815	7788
276.875	6396
276.935	8243
276.995	3374
277.055	3063
277.114	3267
277.174	13664
277.234	18778
277.293	6924
277.353	4286
277.413	3690
277.472	5000
277.532	3954
277.592	6254
277.651	41842
277.711	25115
277.771	21192
277.830	59840
277.890	22305
277.950	55304
278.009	62706
278.069	17858
278.128	45804
278.188	26282
278.248	23420
278.307	49882
278.367	15041
278.426	7922
278.486	5208
278.545	4219
278.605	3473
278.664	3686
278.724	5112
278.783	32216
278.843	29100
278.902	7806
278.962	8076
279.021	8573
279.081	17258
279.140	9880
279.199	8078
279.259	7906
279.318	7976
279.378	12537
279.437	31380
279.496	129316
279.556	304976
279.615	114910
279.675	40317
279.734	30274
279.793	59324
279.853	41540
279.912	15219
279.971	11214
280.031	10279
280.090	30981
280.149	25438
280.208	63598
280.268	241940
280.327	98247
280.386	31884
280.445	31950
280.505	16567
280.564	10278
280.623	7960
280.682	20729
280.742	13340
280.801	6000
280.860	4585
280.919	4818
280.978	3519
281.037	4206
281.097	3188
281.156	3383
281.215	3603
281.274	11024
281.333	33781
281.392	9964
281.451	4204
281.510	3597
281.569	3617
281.628	2779
281.688	2414
281.747	4632
281.806	3416
281.865	2146
281.924	4538
281.983	3028
282.042	2456
282.101	2502
282.160	2512
282.219	1760
282.278	6021
282.337	16197
282.396	4110
282.454	3292
282.513	10283
282.572	22512
282.631	6324
282.690	3231
282.749	3436
282.808	4718
282.867	4655
282.926	3349
282.985	1725
283.043	1775
283.102	3031
283.161	4502
283.220	22926
283.279	18912
283.338	5392
283.396	4288
283.455	3368
283.514	5082
283.573	7039
283.631	4691
283.690	2666
283.749	4333
283.808	12624
283.866	6174
283.925	3326
283.984	4162
284.043	6528
284.101	4132
284.160	4932
284.219	6849
284.277	4215
284.336	14592
284.395	36228
284.453	13553
284.512	8565
284.570	12669
284.629	8300
284.688	9200
284.746	9664
284.805	10690
284.863	16077
284.922	16423
284.981	19208
285.039	28544
285.098	60951
285.156	163964
285.215	218767
285.273	175162
285.332	87766
285.390	50286
285.449	31372
285.507	21105
285.566	15205
285.624	11144
285.683	8781
285.741	7664
285.799	7593
285.858	6199
285.916	5501
285.975	4269
286.033	4495
286.091	3846
286.150	3411
286.208	5069
286.267	4466
286.325	6593
286.383	8164
286.442	4484
286.500	2715
286.558	2317
286.616	2590
286.675	5209
286.733	3458
286.791	3133
286.850	4609
286.908	9964
286.966	8242
287.024	3767
287.083	3235
287.141	2742
287.199	3729
287.257	5176
287.315	3792
287.374	6433
287.432	11620
287.490	5692
287.548	4170
287.606	2672
287.664	3359
287.723	7788
287.781	5828
287.839	4379
287.897	4160
287.955	4972
288.013	7345
288.071	29203
288.129	199044
288.187	224188
288.245	61703
288.303	26950
288.361	18117
288.419	14446
288.477	7910
288.535	4635
288.593	4532
288.651	2798
288.709	3004
288.767	2596
288.825	2285
288.883	3098
288.941	2377
288.999	2528
289.057	2146
289.115	2656
289.173	3034
289.231	3292
289.289	2266
289.346	3247
289.404	4182
289.462	7247
289.520	5070
289.578	2120
289.636	885
289.694	1177
289.751	1122
289.809	1880
289.867	1310
289.925	3844
289.983	2105
290.040	1912
290.098	1877
290.156	2404
290.214	2751
290.271	1389
290.329	1234
290.387	535
290.444	424
290.502	1010
290.560	722
290.617	1155
290.675	1348
290.733	2707
290.790	1877
290.848	1872
290.906	2574
290.963	2185
291.021	2036
291.078	1567
291.136	3077
291.194	21528
291.251	16945
291.309	3462
291.366	2171
291.424	2157
291.481	2461
291.539	2512
291.596	1432
291.654	694
291.711	1063
291.769	4314
291.826	7047
291.884	2819
291.941	1492
291.999	1697
292.056	2914
292.114	1986
292.171	1259
292.228	1858
292.286	3828
292.343	9057
292.401	8740
292.458	4266
292.515	3552
292.573	3919
292.630	4673
292.687	4632
292.745	2639
292.802	7495
292.859	20645
292.917	24823
292.974	8509
293.031	3630
293.089	2691
293.146	2022
293.203	1676
293.260	2738
293.318	6285
293.375	4570
293.432	2226
293.489	2070
293.546	1972
293.604	6246
293.661	31308
293.718	33542
293.775	13413
293.832	8765
293.889	7927
293.947	8906
294.004	3720
294.061	5342
294.118	17057
294.175	29810
294.232	21468
294.289	7805
294.346	5020
294.403	5063
294.460	4632
294.517	3087
294.574	2943
294.631	1904
294.688	3692
294.745	24311
294.802	57562
294.859	33070
294.916	17120
294.973	10268
295.030	8737
295.087	5033
295.144	3497
295.201	3053
295.258	2653
295.315	6699
295.372	31781
295.429	23768
295.486	8722
295.542	8924
295.599	32884
295.656	25839
295.713	29981
295.770	22551
295.827	7560
295.883	5448
295.940	6737
295.997	10810
296.054	5402
296.111	3080
296.167	2467
296.224	2446
296.281	2447
296.338	2127
296.394	1865
296.451	5064
296.508	23312
296.564	20786
296.621	16782
296.678	49489
296.734	31563
296.791	10633
296.848	7560
296.904	12961
296.961	27955
297.018	38187
297.074	16337
297.131	6713
297.187	5062
297.244	13758
297.301	60222
297.357	42637
297.414	12863
297.470	7092
297.527	4203
297.583	4786
297.640	4755
297.696	2935
297.753	2961
297.809	2183
297.866	1350
297.922	1841
297.979	2069
298.035	3051
298.092	10469
298.148	24212
298.204	11158
298.261	7139
298.317	29794
298.374	38124
298.430	15329
298.486	12429
298.543	8617
298.599	5753
298.656	6161
298.712	22530
298.768	35412
298.824	13335
298.881	6039
298.937	4016
298.993	4967
299.050	4952
299.106	3429
299.162	3380
299.218	3228
299.275	2861
299.331	3850
299.387	17519
299.443	45983
299.500	23600
299.556	10134
299.612	6890
299.668	4982
299.724	8375
299.780	4539
299.837	3406
299.893	15612
299.949	41667
300.005	26521
300.061	44140
300.117	42613
300.173	15290
300.229	11344
300.285	16327
300.341	11157
300.397	5661
300.453	4050
300.510	3344
300.566	3134
300.622	6625
300.678	23836
300.734	30026
300.790	36215
300.845	29235
300.901	25412
300.957	35911
301.013	16485
301.069	7962
301.125	7615
301.181	6640
301.237	4581
301.293	3150
301.349	2078
301.405	2925
301.461	3194
301.516	2736
301.572	5667
301.628	8717
301.684	8127
301.740	19397
301.796	16155
301.851	15605
301.907	22508
301.963	19236
302.019	67522
302.074	112447
302.130	70002
302.186	26976
302.242	13552
302.297	10332
302.353	15226
302.409	22485
302.464	12855
302.520	23033
302.576	50236
302.631	35764
302.687	16098
302.743	8494
302.798	5428
302.854	5023
302.910	5525
302.965	9552
303.021	12092
303.076	11744
303.132	18287
303.187	13921
303.243	5961
303.299	4183
303.354	3770
303.410	2934
303.465	2703
303.521	2664
303.576	2634
303.632	3905
303.687	20279
303.743	36977
303.798	17877
303.853	9059
303.909	5067
303.964	5226
304.020	10824
304.075	10919
304.130	14975
304.186	23674
304.241	21231
304.297	14273
304.352	6653
304.358	6488
304.407	5117
304.449	5890
304.463	6153
304.518	5041
304.539	4605
304.573	3865
304.629	4402
304.630	4605
304.684	13873
304.720	29440
304.739	37602
304.794	31118
304.811	26924
304.850	14812
304.902	8167
304.905	7836
304.960	6786
304.992	6156
305.015	5832
305.071	4863
305.083	4975
305.126	5024
305.173	3323
305.181	3073
305.236	3287
305.264	4012
305.292	4934
305.347	5116
305.354	5292
305.402	6245
305.445	7389
305.457	7775
305.512	9225
305.535	9004
305.567	8358
305.622	9492
305.626	10318
305.678	27372
305.716	46614
305.733	54428
305.788	43372
305.807	42750
305.843	37671
305.897	45982
305.898	46146
305.953	34063
305.988	26236
306.008	20569
306.063	12970
306.078	11165
306.118	8682
306.168	5916
306.173	5740
306.228	5712
306.259	5272
306.283	5114
306.338	5569
306.349	5733
306.393	7141
306.440	7625
306.448	7515
306.503	7489
306.530	9803
306.558	15943
306.613	36544
306.620	38272
306.668	49673
306.711	59160
306.723	58794
306.778	39620
306.801	33077
306.833	23351
306.888	11175
306.892	10438
306.943	8425
306.982	7207
306.997	7102
307.052	7028
307.072	7427
307.107	9120
307.162	14272
307.163	14326
307.217	24067
307.253	31613
307.272	34130
307.327	31367
307.343	30242
307.381	22990
307.434	18233
307.436	18915
307.491	46534
307.524	60021
307.546	65243
307.600	59147
307.614	57517
307.655	35378
307.704	15311
307.710	15387
307.765	19955
307.795	28100
307.819	40423
307.874	60388
307.885	61428
307.929	42766
307.975	28140
307.984	28549
308.038	35019
308.065	41441
308.093	68535
308.148	151864
308.156	165948
308.202	294702
308.246	360746
308.257	336421
308.312	197012
308.336	142438
308.366	116770
308.421	70593
308.426	66149
308.475	43161
308.517	25624
308.530	24249
308.585	20497
308.607	19265
308.639	20150
308.694	23454
308.697	24123
308.748	51734
308.787	70464
308.803	72180
308.857	60593
308.877	58035
308.912	48270
308.967	36383
308.967	36125
309.021	48385
309.058	58414
309.076	73812
309.130	126402
309.148	147532
309.185	242986
309.238	406412
309.239	409836
309.293	490717
309.328	513802
309.348	441013
309.402	243437
309.418	189375
309.457	136998
309.508	72620
309.511	72153
309.566	64160
309.598	61665
309.620	74254
309.674	110190
309.688	117529
309.729	122129
309.778	122321
309.783	119141
309.837	78897
309.868	57362
309.892	61010
309.946	75182
309.959	78744
310.001	121894
310.049	163369
310.055	157453
310.109	96963
310.139	64988
310.163	52667
310.218	27510
310.229	22523
310.272	19225
310.319	16077
310.326	15954
310.381	14765
310.409	14248
310.435	14164
310.489	13754
310.499	13719
310.543	14105
310.589	14636
310.598	15114
310.652	17333
310.679	18207
310.706	16234
310.760	12494
310.769	11869
310.814	10684
310.859	9552
310.868	9618
310.923	9761
310.948	9942
310.977	11574
311.031	14634
311.038	14997
311.085	15334
311.128	15279
311.139	15055
311.193	13937
311.218	13293
311.247	12501
311.301	11068
311.308	10844
311.356	11661
311.398	12444
311.410	12482
311.464	12225
311.488	12111
311.518	11897
311.572	11467
311.578	11385
311.626	16218
311.668	20355
311.680	20542
311.734	20989
311.758	21103
311.788	21739
311.842	22681
311.847	22706
311.896	25241
311.937	27329
311.950	28845
312.004	34953
312.027	37464
312.058	30346
312.112	17423
312.117	16068
312.165	14126
312.207	12371
312.297	22064
312.386	23402
312.476	15510
312.566	32618
312.656	23716
312.745	11234
312.835	13755
312.925	17145
313.015	15031
313.104	17785
313.194	11887
313.284	12895
313.374	16033
313.463	19674
313.553	12548
313.643	11717
313.732	11014
313.822	10814
313.912	13226
314.001	15692
314.091	18545
314.180	30225
314.270	23040
314.360	23435
314.449	23595
314.539	14019
314.628	12464
314.718	14949
314.808	21205
314.897	15392
314.987	11433
315.076	15317
315.166	23122
315.255	22617
315.345	21062
315.434	22090
315.524	18243
315.613	22319
315.703	25900
315.792	31667
315.881	62427
315.971	46021
316.060	35377
316.150	59242
316.239	67532
316.328	35979
316.418	13062
316.507	13752
316.597	18937
316.686	21039
316.775	23630
316.865	67763
316.954	24770
317.043	11051
317.133	13720
317.222	12151
317.311	12395
317.400	13077
317.490	14770
317.579	24296
317.668	15070
317.757	19475
317.847	40106
317.936	114264
318.025	88720
318.114	41306
318.203	31935
318.293	32111
318.382	74982
318.471	65637
318.560	82680
318.649	144940
318.738	62658
318.828	19599
318.917	26069
319.006	22308
319.095	70241
319.184	162468
319.273	143280
319.362	70004
319.451	20829
319.540	17074
319.629	35047
319.718	79232
319.807	31680
319.896	50587
319.985	198737
320.074	135237
320.163	27517
320.252	39580
320.341	37988
320.430	41691
320.519	37323
320.608	31871
320.697	20603
320.786	21528
320.875	23689
320.964	30485
321.053	45452
321.142	64702
321.230	87744
321.319	52252
321.408	125981
321.497	84421
321.586	47925
321.675	61518
321.764	75884
321.852	42397
321.941	67113
322.030	64980
322.119	44856
322.207	128304
322.296	119487
322.385	58505
322.474	49139
322.562	135814
322.651	125808
322.740	49222
322.829	89594
322.917	92785
323.006	64726
323.095	44634
323.183	33887
323.272	42055
323.361	67891
323.449	206406
323.538	114277
323.626	133410
323.715	152835
323.804	36397
323.892	129889
323.981	132509
324.069	28249
324.158	63316
324.246	111593
324.335	30054
324.424	51211
324.512	24588
324.601	22589
324.689	43288
324.778	116202
324.866	77988
324.954	27852
325.043	16175
325.131	32786
325.220	69388
325.308	86937
325.397	57248
325.485	53480
325.574	13344
325.662	14337
325.750	16241
325.839	14821
325.927	10863
326.015	17754
326.104	22994
326.192	48164
326.280	15524
326.369	14259
326.457	18346
326.545	38117
326.634	26502
326.722	10134
326.810	11500
326.898	12284
326.987	12232
327.075	29966
327.163	44257
327.251	24022
327.340	29847
327.428	72660
327.516	17444
327.604	11829
327.692	14066
327.781	15019
327.869	30651
327.957	25293
328.045	20752
328.133	11011
328.221	14681
328.309	16173
328.397	10753
328.485	15999
328.574	19192
328.662	68020
328.750	66722
328.838	24218
328.926	13227
329.014	10782
329.102	16802
329.190	47722
329.278	52640
329.366	12249
329.454	9909
329.542	12206
329.630	10481
329.718	11297
329.806	15403
329.893	15573
329.981	18948
330.069	14112
330.157	39705
330.245	174447
330.333	143975
330.421	27116
330.509	19094
330.597	80015
330.684	94886
330.772	28634
330.860	36498
330.948	54308
331.036	32555
331.123	10577
331.211	9931
331.299	16519
331.387	27440
331.475	92316
331.562	32903
331.650	11732
331.738	13778
331.825	24626
331.913	13652
332.001	9781
332.089	13281
332.176	34615
332.264	66920
332.352	95953
332.439	26658
332.527	17734
332.614	11991
332.702	20596
332.790	12808
332.877	27116
332.965	91652
333.052	38495
333.140	18772
333.228	61734
333.315	28612
333.403	14645
333.490	39319
333.578	59592
333.665	62269
333.753	51805
333.840	15753
333.928	16001
334.015	40632
334.103	64809
334.190	203358
334.278	111884
334.365	26960
334.452	24740
334.540	16195
334.627	17330
334.715	28815
334.802	34841
334.889	190083
334.977	350141
335.064	56305
335.151	21874
335.239	19064
335.326	23937
335.413	67164
335.501	195370
335.588	35989
335.675	18492
335.762	19738
335.850	47848
335.937	27690
336.024	46796
336.111	246192
336.199	205178
336.286	38566
336.373	18432
336.460	12832
336.547	13456
336.635	17198
336.722	18448
336.809	14250
336.896	17312
336.983	49979
337.070	163719
337.157	237600
337.245	166984
337.332	186297
337.419	24796
337.506	14993
337.593	15278
337.680	34663
337.767	191129
337.854	80515
337.941	65728
338.028	74603
338.115	41072
338.202	23643
338.289	42094
338.376	163841
338.463	101690
338.550	71623
338.637	158980
338.724	34753
338.811	73920
338.898	22510
338.984	11277
339.071	18509
339.158	17701
339.245	45553
339.332	45392
339.419	31202
339.506	59691
339.593	11986
339.679	10056
339.766	10948
339.853	13497
339.940	37263
340.027	20635
340.113	10988
340.200	19887
340.287	16556
340.374	15237
340.460	35584
340.547	19791
340.634	16468
340.720	69455
340.807	86641
340.894	11990
340.980	11078
341.067	12645
341.154	12709
341.240	16101
341.327	48976
341.414	21552
341.500	16291
341.587	14258
341.674	9986
341.760	23065
341.847	44112
341.933	20221
342.020	7334
342.106	6568
342.193	9002
342.279	26739
342.366	16950
342.452	33779
342.539	20692
342.625	27151
342.712	97255
342.798	60286
342.885	25112
342.971	8354
343.058	6982
343.144	8677
343.230	8972
343.317	8639
343.403	9995
343.490	6940
343.576	6591
343.662	8566
343.749	11691
343.835	15783
343.921	18876
344.008	75676
344.094	316948
344.180	126897
344.267	27927
344.353	64059
344.439	140406
344.525	59033
344.612	25325
344.698	16758
344.784	17566
344.870	9139
344.957	8799
345.043	18525
345.129	13713
345.215	30305
345.301	22751
345.387	14650
345.474	8171
345.560	8299
345.646	12580
345.732	13370
345.818	11859
345.904	13295
345.990	13562
346.076	13091
346.162	30148
346.249	18111
346.335	9644
346.421	9184
346.507	20313
346.593	119822
346.679	63954
346.765	15792
346.851	10894
346.937	14473
347.023	9489
347.108	11396
347.194	12691
347.280	10707
347.366	11789
347.452	23828
347.538	122213
347.624	132611
347.710	129963
347.796	34585
347.882	12127
347.967	11454
348.053	17460
348.139	16487
348.225	10702
348.311	10536
348.397	9437
348.482	10744
348.568	18863
348.654	10173
348.740	10251
348.825	16867
348.911	14402
348.997	42154
349.083	152601
349.168	51318
349.254	11090
349.340	13923
349.425	9017
349.511	12716
349.597	20442
349.682	24052
349.768	83857
349.854	80535
349.939	15950
350.025	9346
350.110	10387
350.196	8246
350.282	8017
350.367	6428
350.453	13436
350.538	26674
350.624	14676
350.709	19834
350.795	10690
350.880	11503
350.966	10869
351.051	16374
351.137	18691
351.222	10328
351.308	19062
351.393	92994
351.479	45748
351.564	12297
351.649	9148
351.735	10055
351.820	7713
351.906	9603
351.991	13427
352.076	35208
352.162	111396
352.247	31131
352.332	13609
352.418	22439
352.503	28747
352.588	90582
352.673	165297
352.759	36125
352.844	18090
352.929	12252
353.014	23827
353.100	15537
353.185	21695
353.270	36823
353.355	49075
353.441	15221
353.526	12161
353.611	23313
353.696	49723
353.781	24223
353.866	15221
353.952	9719
354.037	21498
354.122	69852
354.207	73692
354.292	41741
354.377	12463
354.462	10797
354.547	14395
354.632	16260
354.717	20473
354.802	35531
354.887	20101
354.972	8657
355.057	8330
355.142	7720
355.227	10105
355.312	18144
355.397	37891
355.482	101534
355.567	93241
355.652	33384
355.737	45567
355.822	75896
355.907	140844
355.991	23715
356.076	11300
356.161	11067
356.246	8854
356.331	9239
356.416	15823
356.501	95391
356.585	232973
356.670	48834
356.755	18864
356.840	20010
356.924	67822
357.009	354549
357.094	286409
357.179	46324
357.263	36020
357.348	23985
357.433	32930
357.517	24313
357.602	24574
357.687	16547
357.771	17541
357.856	24234
357.941	19463
358.025	43867
358.110	293300
358.195	301367
358.279	48085
358.364	22349
358.448	50935
358.533	194923
358.617	209854
358.702	158249
358.787	100977
358.871	33819
358.956	40842
359.040	15988
359.125	8762
359.209	8918
359.294	10577
359.378	14849
359.462	25164
359.547	23451
359.631	15549
359.716	11262
359.800	10379
359.885	20650
359.969	18039
360.053	11984
360.138	13619
360.222	17295
360.306	32439
360.391	34030
360.475	21866
360.559	64530
360.644	73975
360.728	91461
360.812	50954
360.896	230141
360.981	155980
361.065	104460
361.149	27278
361.233	20301
361.318	17159
361.402	19928
361.486	17373
361.570	13062
361.654	15151
361.739	29051
361.823	101408
361.907	279929
361.991	91386
362.075	24358
362.159	64372
362.243	64631
362.327	43940
362.411	61351
362.495	39694
362.580	23569
362.664	13335
362.748	13356
362.832	15522
362.916	21938
363.000	55154
363.084	167615
363.168	330488
363.252	138256
363.336	35569
363.420	34049
363.503	91626
363.587	230186
363.671	58625
363.755	24968
363.839	37428
363.923	24628
364.007	26728
364.091	51845
364.175	39249
364.258	177125
364.342	222890
364.426	169497
364.510	142635
364.594	58856
364.677	45034
364.761	141847
364.845	226779
364.929	60981
365.013	65087
365.096	37786
365.180	59691
365.264	38601
365.347	185623
365.431	175409
365.515	46603
365.598	20292
365.682	13343
365.766	21361
365.849	53229
365.933	22411
366.017	23852
366.100	30879
366.184	12012
366.267	11472
366.351	11493
366.435	12066
366.518	9918
366.602	7790
366.685	9378
366.769	13405
366.852	18785
366.936	50609
367.019	36501
367.103	18206
367.186	48538
367.270	25026
367.353	8653
367.436	10337
367.520	10571
367.603	12938
367.687	19454
367.770	41462
367.853	30216
367.937	36500
368.020	125192
368.104	52418
368.187	24641
368.270	45224
368.353	44003
368.437	44359
368.520	110629
368.603	110153
368.687	59076
368.770	169669
368.853	75787
368.936	34779
369.020	58052
369.103	26389
369.186	11892
369.269	15959
369.352	19236
369.436	46165
369.519	33428
369.602	19325
369.685	12221
369.768	18806
369.851	15009
369.934	11180
370.018	12090
370.101	32024
370.184	35534
370.267	23100
370.350	28514
370.433	51556
370.516	82562
370.599	169702
370.682	68585
370.765	72971
370.848	106054
370.931	167814
371.014	132238
371.097	28837
371.180	16394
371.263	10885
371.346	9152
371.429	10909
371.511	11291
371.594	20302
371.677	36861
371.760	51115
371.843	36105
371.926	67799
372.009	298163
372.091	181874
372.174	57755
372.257	140232
372.340	112203
372.423	47886
372.505	92128
372.588	48783
372.671	34387
372.754	149743
372.836	155602
372.919	48613
373.002	160745
373.085	88957
373.167	29732
373.250	59505
373.332	144481
373.415	166392
373.498	388125
373.580	272052
373.663	124586
373.746	313820
373.828	119457
373.911	41927
373.993	31589
374.076	91699
374.159	192524
374.241	60919
374.324	119457
374.406	160478
374.489	69434
374.571	283567
374.654	243548
374.736	59878
374.819	150105
374.901	253927
374.983	363544
375.066	121310
375.148	26721
375.231	56840
375.313	224499
375.395	147493
375.478	35619
375.560	16257
375.643	18286
375.725	37173
375.807	182116
375.890	284900
375.972	159040
376.054	68910
376.136	97581
376.219	76190
376.301	38654
376.383	193998
376.465	158747
376.548	58058
376.630	66861
376.712	153071
376.794	163829
376.877	24705
376.959	10303
377.041	14348
377.123	23380
377.205	57620
377.287	19018
377.369	9518
377.452	11166
377.534	12888
377.616	10144
377.698	12678
377.780	10136
377.862	11882
377.944	11476
378.026	9812
378.108	8535
378.190	9931
378.272	8884
378.354	6954
378.436	6900
378.518	11250
378.600	59220
378.682	76878
378.764	78533
378.846	132587
378.928	36186
379.010	40599
379.091	33789
379.173	12430
379.255	11411
379.337	14276
379.419	29425
379.501	131746
379.583	120061
379.664	22714
379.746	31069
379.828	83776
379.910	150492
379.991	167917
380.073	51375
380.155	18053
380.237	17380
380.318	10616
380.400	12239
380.482	17366
380.564	47144
380.645	41535
380.727	49921
380.809	30814
380.890	19693
380.972	17554
381.053	14103
381.135	15487
381.217	22358
381.298	100633
381.380	101926
381.461	39295
381.543	109594
381.624	297221
381.706	101997
381.787	31176
381.869	33446
381.951	43573
382.032	227206
382.113	305345
382.195	88017
382.276	40020
382.358	48755
382.439	146520
382.521	183754
382.602	283886
382.684	196351
382.765	194119
382.846	334520
382.928	453706
383.009	442921
383.090	170590
383.172	396786
383.253	1059923
383.334	561350
383.416	284647
383.497	249325
383.578	96602
383.659	131196
383.741	332396
383.822	1121199
383.903	1096613
383.984	306853
384.066	321240
384.147	341209
384.228	99003
384.309	45879
384.390	45781
384.471	29576
384.553	29555
384.634	34729
384.715	48007
384.796	27475
384.877	24396
384.958	60035
385.039	153722
385.120	79225
385.201	28349
385.282	30151
385.363	37506
385.444	34946
385.525	33245
385.606	93390
385.687	163783
385.768	51494
385.849	38563
385.930	82291
386.011	254154
386.092	141418
386.173	29942
386.254	19380
386.335	22056
386.416	21233
386.496	41721
386.577	125287
386.658	79281
386.739	36241
386.820	32231
386.901	30996
386.981	26592
387.062	17976
387.143	18941
387.224	70290
387.304	141064
387.385	57137
387.466	32875
387.547	39394
387.627	32013
387.708	26121
387.789	109808
387.869	254398
387.950	120593
388.031	21083
388.111	15964
388.192	33852
388.273	74281
388.353	62302
388.434	25934
388.514	24041
388.595	88812
388.676	220152
388.756	157797
388.837	93558
388.917	110247
388.998	28713
389.078	17872
389.159	15887
389.239	16203
389.320	18403
389.400	25822
389.480	26033
389.561	95256
389.641	100446
389.722	23790
389.802	35148
389.883	41146
389.963	94906
390.043	127552
390.124	52259
390.204	29486
390.284	97139
390.365	130422
390.445	70021
390.525	191842
390.605	250291
390.686	110559
390.766	37193
390.846	18578
390.927	11253
391.007	14480
391.087	15984
391.167	20101
391.247	17897
391.328	20649
391.408	38587
391.488	44097
391.568	16777
391.648	16618
391.728	27271
391.808	25684
391.888	29468
391.969	36718
392.049	108430
392.129	74859
392.209	43066
392.289	99477
392.369	108536
392.449	69108
392.529	72088
392.609	37341
392.689	35309
392.769	79525
392.849	146099
392.929	67788
393.009	147572
393.089	193873
393.169	105903
393.248	191466
393.328	729721
393.408	1425977
393.488	686469
393.568	175545
393.648	81053
393.728	50905
393.807	38229
393.887	31547
393.967	28547
394.047	31035
394.127	38070
394.206	48188
394.286	96842
394.366	426253
394.446	937548
394.525	423825
394.605	94097
394.685	48521
394.764	74822
394.844	151492
394.924	178056
395.003	62838
395.083	30397
395.163	28682
395.242	23386
395.322	26786
395.402	22053
395.481	22562
395.561	36687
395.640	149142
395.720	182839
395.799	151318
395.879	217974
395.958	95721
396.038	146188
396.117	587113
396.197	1183815
396.276	628943
396.356	201429
396.435	114455
396.515	84722
396.594	63589
396.673	90774
396.753	185112
396.832	745676
396.912	1113650
396.991	431869
397.070	102903
397.150	50006
397.229	34822
397.308	29524
397.388	57709
397.467	51044
397.546	20723
397.625	15453
397.705	19016
397.784	24631
397.863	21061
397.942	12491
398.022	12755
398.101	23055
398.180	131676
398.259	152510
398.338	44628
398.417	19872
398.497	17158
398.576	14512
398.655	13310
398.734	9864
398.813	10619
398.892	18593
398.971	122623
399.050	159138
399.129	28649
399.208	8141
399.287	8901
399.366	8787
399.445	9112
399.524	8907
399.603	9354
399.682	13364
399.761	34526
399.840	109255
399.919	205507
399.998	51492
400.077	10353
400.156	7795
400.235	10526
400.313	10653
400.392	12476
400.471	28487
400.550	105563
400.629	62608
400.708	16019
400.786	13770
400.865	28590
400.944	62551
401.023	36841
401.102	8893
401.180	5977
401.259	7047
401.338	10221
401.416	14947
401.495	16471
401.574	13426
401.652	11465
401.731	13555
401.810	17636
401.888	12101
401.967	6248
402.046	7221
402.124	10771
402.203	20664
402.281	17972
402.360	10827
402.438	36512
402.517	65150
402.596	22340
402.674	15769
402.753	12817
402.831	8100
402.910	7902
402.988	16631
403.066	98406
403.145	139071
403.223	36676
403.302	81154
403.380	113774
403.459	83467
403.537	66358
403.615	22031
403.694	10283
403.772	5504
403.850	5428
403.929	5231
404.007	6197
404.085	12211
404.164	24590
404.242	14745
404.320	8077
404.398	17044
404.477	35851
404.555	124821
404.633	293127
404.711	87673
404.789	19226
404.868	11328
404.946	12031
405.024	5589
405.102	5409
405.180	5024
405.258	5916
405.336	6382
405.415	6230
405.493	14745
405.571	25343
405.649	11749
405.727	5657
405.805	11434
405.883	13389
405.961	12557
406.039	19150
406.117	15713
406.195	11182
406.273	22949
406.351	138849
406.429	222567
406.507	54637
406.585	19130
406.663	9632
406.740	13410
406.818	16271
406.896	11340
406.974	7993
407.052	10238
407.130	52700
407.208	206026
407.285	97063
407.363	12642
407.441	8986
407.519	9338
407.596	8074
407.674	16271
407.752	59100
407.830	126963
407.907	67261
407.985	20628
408.063	10154
408.141	6578
408.218	10180
408.296	20066
408.373	15047
408.451	10574
408.529	12079
408.606	7763
408.684	5541
408.762	3818
408.839	3428
408.917	3184
408.994	4801
409.072	5689
409.149	6020
409.227	6322
409.304	13694
409.382	11304
409.459	10334
409.537	13692
409.614	18538
409.692	12807
409.769	10597
409.846	14306
409.924	21234
410.001	22517
410.079	16533
410.156	10155
410.233	8951
410.311	10075
410.388	6963
410.465	7038
410.543	11237
410.620	8516
410.697	5961
410.775	10838
410.852	8986
410.929	6000
411.006	15203
411.083	10175
411.161	13594
411.238	28151
411.315	21494
411.392	8960
411.469	7973
411.547	14329
411.624	9887
411.701	7747
411.778	6577
411.855	14972
411.932	20688
412.009	7541
412.086	7100
412.163	6500
412.240	11976
412.317	12098
412.394	17183
412.471	8430
412.548	3652
412.625	5834
412.702	6917
412.779	16324
412.856	21132
412.933	8749
413.010	5321
413.087	6763
413.164	24192
413.241	93474
413.318	51571
413.395	12251
413.471	18034
413.548	17668
413.625	5553
413.702	8483
413.779	12642
413.855	4609
413.932	3665
414.009	4037
414.086	4139
414.162	4139
414.239	6380
414.316	22664
414.393	103795
414.469	101247
414.546	14690
414.623	4385
414.699	4843
414.776	6346
414.853	8143
414.929	4950
415.006	6186
415.082	8174
415.159	10390
415.236	6088
415.312	5234
415.389	8204
415.465	19438
415.542	17587
415.618	5716
415.695	10256
415.771	12078
415.848	9143
415.924	8761
416.000	8618
416.077	6708
416.153	3140
416.230	2710
416.306	2085
416.383	4580
416.459	4125
416.535	2834
416.612	3058
416.688	4770
416.764	3988
416.841	5400
416.917	5051
416.993	5788
417.069	5003
417.146	9896
417.222	12602
417.298	11834
417.374	6607
417.451	6767
417.527	6908
417.603	11951
417.679	9305
417.755	7071
417.831	5048
417.908	3110
417.984	2370
418.060	3562
418.136	7726
418.212	26059
418.288	16309
418.364	6381
418.440	3875
418.516	10022
418.592	12158
418.668	24842
418.744	38382
418.820	43737
418.896	18241
418.972	5541
419.048	4396
419.124	9201
419.200	22105
419.276	9338
419.352	3105
419.428	3165
419.504	4218
419.579	9193
419.655	8854
419.731	5468
419.807	12389
419.883	39717
419.959	51332
420.034	19139
420.110	9797
420.186	39465
420.262	94660
420.337	28055
420.413	11287
420.489	8373
420.565	4916
420.640	4985
420.716	5564
420.792	5256
420.867	4981
420.943	5814
421.019	8719
421.094	15610
421.170	8015
421.245	5328
421.321	5982
421.397	7482
421.472	8865
421.548	31731
421.623	59003
421.699	20756
421.774	10873
421.850	11701
421.925	13548
422.001	20936
422.076	13973
422.152	12727
422.227	19994
422.302	28864
422.378	29228
422.453	50184
422.529	93313
422.604	244838
422.679	565808
422.755	613031
422.830	337452
422.905	116277
422.981	56149
423.056	34461
423.131	23970
423.207	18147
423.282	16488
423.357	23729
423.432	30575
423.508	17274
423.583	27419
423.658	50617
423.733	19875
423.808	13635
423.883	15939
423.959	17439
424.034	13284
424.109	11262
424.184	7596
424.259	6558
424.334	5327
424.409	5352
424.484	3777
424.559	7387
424.634	7103
424.709	7713
424.784	12094
424.859	10614
424.934	7378
425.009	25739
425.084	82169
425.159	76940
425.234	14869
425.309	4434
425.384	3398
425.459	4670
425.534	5299
425.609	5840
425.683	7574
425.758	4883
425.833	4848
425.908	7690
425.983	11608
426.058	65322
426.132	91630
426.207	20206
426.282	11178
426.357	21508
426.431	11408
426.506	4493
426.581	5698
426.655	7823
426.730	5948
426.805	5702
426.879	5317
426.954	6795
427.029	8413
427.103	29835
427.178	138846
427.253	175266
427.327	35229
427.402	10994
427.476	19309
427.551	21138
427.625	7758
427.700	11328
427.774	6939
427.849	8952
427.923	8419
427.998	5946
428.072	5587
428.147	11557
428.221	25287
428.296	113227
428.370	173342
428.444	39516
428.519	15781
428.593	31341
428.667	51700
428.742	36664
428.816	49518
428.890	51445
428.965	178811
429.039	121406
429.113	51444
429.188	45537
429.262	11523
429.336	7913
429.410	27126
429.485	50796
429.559	26682
429.633	46903
429.707	18306
429.781	12692
429.855	55134
429.930	210402
430.004	168746
430.078	142429
430.152	207187
430.226	139307
430.300	262499
430.374	117477
430.448	20014
430.522	20821
430.596	107238
430.670	172764
430.744	84198
430.818	285272
430.892	186144
430.966	25311
431.040	10776
431.114	6187
431.188	5368
431.262	6611
431.336	6267
431.410	8326
431.484	33682
431.557	64136
431.631	18435
431.705	5907
431.779	9322
431.853	64279
431.927	165315
432.000	49744
432.074	7454
432.148	7476
432.222	12160
432.295	7310
432.369	4706
432.443	6284
432.516	21851
432.590	131441
432.664	164885
432.737	31347
432.811	5596
432.885	2833
432.958	3329
433.032	3500
433.106	2874
433.179	1921
433.253	1910
433.326	2923
433.400	1825
433.473	1496
433.547	2335
433.620	2418
433.694	4836
433.767	14215
433.841	8363
433.914	3630
433.988	1447
434.061	2500
434.134	3800
434.208	3331
434.281	1112
434.355	2088
434.428	3108
434.501	2464
434.575	1879
434.648	3958
434.721	3078
434.795	2626
434.868	2589
434.941	2419
435.014	1325
435.088	2568
435.161	3337
435.234	6175
435.307	14483
435.381	12338
435.454	5952
435.527	7312
435.600	8685
435.673	8481
435.746	5535
435.819	4220
435.892	4421
435.966	3458
436.039	2526
436.112	5048
436.185	2538
436.258	2326
436.331	1419
436.404	1983
436.477	1464
436.550	1253
436.623	1738
436.696	1583
436.769	3449
436.842	4284
436.915	3102
436.987	6911
437.060	7296
437.133	3053
437.206	1696
437.279	3779
437.352	2466
437.425	2649
437.498	2475
437.570	6227
437.643	14977
437.716	8067
437.789	2253
437.861	3836
437.934	17784
438.007	29697
438.080	7041
438.152	3916
438.225	6238
438.298	21421
438.370	156361
438.443	220102
438.516	57054
438.588	18438
438.661	3651
438.734	3307
438.806	3648
438.879	7467
438.951	5898
439.024	12579
439.096	14053
439.169	4439
439.241	2473
439.314	1726
439.386	5171
439.459	10887
439.531	17114
439.604	18072
439.676	4538
439.749	2528
439.821	1466
439.893	1908
439.966	2560
440.038	4654
440.110	7884
440.183	5955
440.255	3020
440.327	4433
440.400	9791
440.472	78630
440.544	188260
440.617	55347
440.689	11181
440.761	11519
440.833	19635
440.905	25949
440.978	9713
441.050	2950
441.122	3065
441.194	2725
441.266	3024
441.338	3728
441.411	4061
441.483	17026
441.555	85047
441.627	60542
441.699	11591
441.771	15519
441.843	12163
441.915	3607
441.987	2885
442.059	3836
442.131	3424
442.203	9604
442.275	11640
442.347	15493
442.419	9917
442.491	21096
442.563	111751
442.635	161085
442.706	52531
442.778	64614
442.850	24985
442.922	6291
442.994	4793
443.066	10694
443.137	13192
443.209	9217
443.281	8262
443.353	15646
443.425	35684
443.496	149304
443.568	356207
443.640	227829
443.711	61786
443.783	14205
443.855	9679
443.926	6925
443.998	5260
444.070	8770
444.141	10077
444.213	9914
444.285	15198
444.356	14331
444.428	14873
444.499	10194
444.571	4414
444.642	3747
444.714	3638
444.785	7638
444.857	12621
444.928	24412
445.000	40878
445.071	18344
445.143	35222
445.214	27529
445.285	16285
445.357	43530
445.428	103713
445.500	311627
445.571	444524
445.642	246501
445.714	104967
445.785	72552
445.856	52177
445.928	17656
445.999	16708
446.070	13476
446.141	9644
446.213	13914
446.284	12951
446.355	9584
446.426	8927
446.497	6614
446.569	7455
446.640	17963
446.711	20677
446.782	10369
446.853	5592
446.924	10426
446.995	8591
447.066	6520
447.138	8675
447.209	16440
447.280	4465
447.351	2896
447.422	1123
447.493	3979
447.564	8137
447.635	10153
447.706	10177
447.777	3734
447.847	1592
447.918	2302
447.989	4626
448.060	8441
448.131	14488
448.202	32268
448.273	19256
448.344	12720
448.414	4086
448.485	4549
448.556	3283
448.627	2896
448.698	2098
448.768	1803
448.839	2188
448.910	6955
448.981	16118
449.051	9270
449.122	3748
449.193	2396
449.263	1975
449.334	3327
449.405	1928
449.475	8877
449.546	17495
449.616	11069
449.687	18617
449.758	9158
449.828	2792
449.899	3118
449.969	2601
450.040	3237
450.110	3344
450.181	6944
450.251	5870
450.322	3704
450.392	2505
450.463	4635
450.533	2940
450.604	3094
450.674	2954
450.744	4366
450.815	2590
450.885	3987
450.955	3017
451.026	2636
451.096	2607
451.166	5245
451.237	6205
451.307	28741
451.377	39322
451.447	9489
451.518	3834
451.588	3775
451.658	3131
451.728	4205
451.799	14680
451.869	60206
451.939	35582
452.009	7025
452.079	3325
452.149	3639
452.219	4978
452.289	21242
452.360	61509
452.430	23847
452.500	5582
452.570	7628
452.640	8671
452.710	15684
452.780	50544
452.850	48576
452.920	35080
452.990	25204
453.060	8208
453.129	7651
453.199	11623
453.269	16567
453.339	128010
453.409	239499
453.479	129824
453.549	206663
453.619	267530
453.688	243325
453.758	58552
453.828	10721
453.898	6415
453.968	6351
454.037	5463
454.087	5132
454.107	4998
454.168	3850
454.177	3682
454.247	3515
454.249	3518
454.316	3492
454.330	3627
454.386	4071
454.411	5715
454.456	8096
454.492	22982
454.525	36252
454.574	31835
454.595	30116
454.655	10334
454.665	7125
454.734	4463
454.736	4576
454.804	7318
454.817	9572
454.873	17850
454.898	31876
454.943	57305
454.979	48056
455.013	40049
455.060	22345
455.082	14497
455.141	7790
455.152	6539
455.221	12700
455.222	13173
455.291	44924
455.303	47071
455.360	56930
455.384	55598
455.430	49946
455.465	62026
455.499	74737
455.546	47655
455.569	34339
455.627	41894
455.638	43745
455.707	16375
455.708	16302
455.777	4060
455.789	4127
455.846	4439
455.869	4196
455.916	3811
455.950	3207
455.985	2515
456.031	4063
456.054	4778
456.112	3788
456.124	3631
456.193	3615
456.193	3611
456.262	2907
456.274	3370
456.332	5266
456.355	5746
456.401	6064
456.436	6721
456.470	7502
456.516	4623
456.540	3291
456.597	2690
456.609	2555
456.678	1724
456.678	1715
456.747	1881
456.759	1807
456.817	1614
456.840	1783
456.886	2005
456.920	2214
456.955	2547
457.001	2646
457.024	2891
457.082	3326
457.093	3404
457.162	6491
457.163	6524
457.232	7799
457.243	8062
457.301	8957
457.324	6917
457.370	3901
457.405	3263
457.439	2575
457.485	2601
457.508	2658
457.566	3143
457.577	3255
457.646	3250
457.647	3270
457.715	5532
457.727	6047
457.784	8506
457.808	9796
457.853	11481
457.889	17482
457.922	21555
457.969	20412
457.991	21533
458.050	15974
458.060	15109
458.129	19665
458.130	20043
458.198	28973
458.211	29217
458.267	31302
458.292	23667
458.336	12758
458.372	9802
458.405	8548
458.453	10457
458.474	12064
458.533	19136
458.543	19727
458.611	32095
458.614	33095
458.680	46978
458.694	41699
458.749	28718
458.775	20913
458.818	9048
458.855	6291
458.887	4344
458.936	4147
458.955	3961
459.016	3732
459.024	3690
459.093	4474
459.097	4442
459.162	3807
459.177	3885
459.230	4714
459.257	4971
459.299	4907
459.338	5376
459.368	5760
459.418	5582
459.437	5270
459.499	6054
459.505	6214
459.574	3977
459.579	3986
459.643	4120
459.659	3824
459.711	3079
459.740	3352
459.780	3912
459.820	4290
459.849	4472
459.900	5483
459.917	5552
459.981	5350
459.986	5379
460.054	5195
460.061	5148
460.123	5521
460.141	5739
460.191	6447
460.222	6826
460.260	7109
460.302	8357
460.328	8234
460.382	8902
460.397	9377
460.462	7240
460.465	7253
460.534	8190
460.543	8546
460.602	17586
460.623	20679
460.671	29580
460.703	37717
460.739	34264
460.783	42899
460.808	46291
460.864	24192
460.876	21865
460.944	5808
460.945	5633
461.013	4412
461.024	4415
461.081	4444
461.104	4570
461.150	4394
461.184	4360
461.218	4392
461.264	4238
461.286	4181
461.345	3477
461.355	3376
461.423	4061
461.425	4047
461.491	4337
461.505	4546
461.559	8558
461.585	10361
461.628	16364
461.665	22452
461.696	25153
461.745	34249
461.764	31302
461.825	24817
461.832	25957
461.901	10741
461.905	10315
461.969	4437
461.985	4252
462.037	4430
462.065	4521
462.105	5435
462.145	6113
462.173	8300
462.225	13113
462.241	14411
462.305	19804
462.310	19198
462.378	16536
462.385	15311
462.446	12593
462.465	10062
462.514	5175
462.545	4658
462.582	4306
462.625	4434
462.650	4477
462.705	4505
462.718	4556
462.785	5015
462.786	5062
462.854	7443
462.865	7972
462.922	10570
462.945	12095
462.990	9731
463.025	7531
463.058	8022
463.104	5620
463.126	4533
463.184	3772
463.194	3815
463.262	4534
463.264	4571
463.330	4911
463.344	4915
463.398	5380
463.424	5637
463.466	5496
463.504	5477
463.533	5352
463.583	5029
463.601	5325
463.663	6018
463.669	6197
463.737	8637
463.743	8877
463.805	14457
463.823	16241
463.873	24797
463.903	29584
463.940	30730
463.982	34890
464.008	29659
464.062	18627
464.076	18931
464.142	9359
464.144	9149
464.211	4870
464.221	4737
464.279	4938
464.301	5075
464.347	5564
464.381	6176
464.414	6922
464.461	7818
464.482	8203
464.540	9450
464.550	9065
464.617	6634
464.620	6505
464.685	6973
464.699	7088
464.753	7456
464.779	7989
464.820	8610
464.859	9101
464.888	9179
464.938	9188
464.956	9377
465.018	9928
465.023	9709
465.091	7489
465.098	7137
465.158	6501
465.177	6367
465.226	6334
465.257	6365
465.293	6737
465.336	7307
465.361	8108
465.416	9929
465.428	10984
465.495	16653
465.496	16740
465.563	27279
465.575	29046
465.631	36101
465.654	39837
465.698	25739
465.734	13889
465.765	13317
465.813	8601
465.833	7527
465.893	6499
465.900	6341
465.968	6025
465.972	6002
466.035	6144
466.052	6147
466.102	6749
466.131	7132
466.170	7077
466.210	6969
466.237	7004
466.290	7116
466.304	7171
466.369	7279
466.372	7302
466.439	7858
466.449	7931
466.506	8815
466.528	9135
466.573	14592
466.607	18664
466.641	27902
466.687	40755
466.708	45493
466.766	58502
466.775	53849
466.842	19811
466.845	18149
466.909	11957
466.925	10399
466.977	8989
467.004	8697
467.044	8502
467.083	8424
467.111	9281
467.163	10860
467.178	11219
467.242	12708
467.245	12690
467.312	12054
467.321	11960
467.379	11288
467.400	11019
467.446	12515
467.480	13577
467.559	11727
467.638	9629
467.717	10102
467.796	11122
467.875	13213
467.955	11938
468.034	19745
468.113	47590
468.192	72873
468.271	17484
468.350	9775
468.429	11659
468.508	12164
468.588	11440
468.667	10710
468.746	11279
468.825	12011
468.904	8019
468.983	11274
469.062	18915
469.141	23465
469.220	9013
469.299	8874
469.378	9346
469.456	9800
469.535	9543
469.614	10021
469.693	10162
469.772	14376
469.851	20547
469.930	14526
470.009	9307
470.088	9622
470.166	12722
470.245	17941
470.324	22133
470.403	13052
470.482	10065
470.560	8028
470.639	9365
470.718	11552
470.797	9848
470.875	11885
470.954	17859
471.033	19380
471.111	7205
471.190	7554
471.269	6633
471.347	7382
471.426	7746
471.505	9294
471.583	9472
471.662	8657
471.740	7975
471.819	8134
471.898	7630
471.976	7495
472.055	7875
472.133	8873
472.212	12860
472.290	14050
472.369	8901
472.447	7076
472.526	6238
472.604	7097
472.683	8237
472.761	9803
472.839	8646
472.918	7246
472.996	7957
473.075	10288
473.153	9290
473.231	7684
473.310	9420
473.388	9302
473.466	8859
473.545	9585
473.623	13039
473.701	12633
473.780	7921
473.858	8614
473.936	9967
474.014	8294
474.093	9812
474.171	15293
474.249	22522
474.327	14991
474.405	7397
474.484	6252
474.562	7919
474.640	7238
474.718	8218
474.796	8347
474.874	6908
474.952	6506
475.030	6782
475.108	7525
475.187	8105
475.265	8600
475.343	12785
475.421	14535
475.499	6936
475.577	8020
475.655	11578
475.733	26188
475.811	49488
475.889	43615
475.966	30316
476.044	8688
476.122	10226
476.200	14409
476.278	11452
476.356	7958
476.434	8646
476.512	9649
476.590	13982
476.667	12457
476.745	6631
476.823	7774
476.901	7217
476.979	8661
477.056	7362
477.134	8195
477.212	9458
477.290	7886
477.367	7023
477.445	6697
477.523	7078
477.601	7322
477.678	7450
477.756	9663
477.834	11437
477.911	7746
477.989	8026
478.066	7363
478.144	9129
478.222	9800
478.299	15000
478.377	15140
478.454	7128
478.532	6077
478.609	7108
478.687	7959
478.764	6690
478.842	7631
478.919	7837
478.997	7937
479.074	6968
479.152	8838
479.229	12526
479.307	8672
479.384	5345
479.461	6046
479.539	7087
479.616	8449
479.694	7149
479.771	7667
479.848	8693
479.926	13645
480.003	15075
480.080	7014
480.157	5794
480.235	6420
480.312	6554
480.389	8434
480.467	15671
480.544	20766
480.621	9502
480.698	8198
480.775	10107
480.853	10260
480.930	6755
481.007	7627
481.084	9951
481.161	10101
481.238	10313
481.315	6643
481.392	5665
481.470	7677
481.547	8476
481.624	6725
481.701	6640
481.778	6808
481.855	8975
481.932	14950
482.009	26388
482.086	19359
482.163	7769
482.240	10887
482.317	20300
482.393	17528
482.470	7659
482.547	7957
482.624	7075
482.701	7953
482.778	7211
482.855	6063
482.932	5236
483.009	6399
483.085	6628
483.162	9413
483.239	8543
483.316	6925
483.393	7051
483.469	6695
483.546	8304
483.623	9435
483.699	6428
483.776	7091
483.853	8275
483.930	14550
484.006	38469
484.083	73046
484.160	29444
484.236	30810
484.313	25093
484.389	18885
484.466	15702
484.543	15623
484.619	16333
484.696	18409
484.772	19845
484.849	20724
484.925	15788
485.002	14356
485.078	16346
485.155	17501
485.231	14461
485.308	14141
485.384	15687
485.461	21830
485.537	38144
485.614	51081
485.690	17560
485.766	15282
485.843	15984
485.919	23106
485.995	25637
486.072	13014
486.148	12860
486.224	13387
486.301	14474
486.377	17148
486.453	16806
486.530	16316
486.606	18827
486.682	22938
486.758	30100
486.835	42026
486.911	29109
486.987	51646
487.063	55064
487.139	62760
487.215	43783
487.292	19061
487.368	15118
487.444	17893
487.520	21299
487.596	21029
487.672	30343
487.748	74099
487.824	119550
487.900	42637
487.976	18682
488.052	17739
488.128	22791
488.204	19295
488.280	15935
488.356	20171
488.432	45280
488.508	77714
488.584	25485
488.660	13819
488.736	14286
488.812	14692
488.888	18831
488.964	26296
489.039	59274
489.115	96259
489.191	58238
489.267	16010
489.343	14522
489.418	11623
489.494	10795
489.570	10953
489.646	11855
489.722	11126
489.797	12580
489.873	23172
489.949	54796
490.024	52529
490.100	12471
490.176	11316
490.251	15452
490.327	21054
490.403	12162
490.478	10966
490.554	9220
490.629	9697
490.705	10098
490.781	10967
490.856	11592
490.932	13421
491.007	12833
491.083	13092
491.158	11731
491.234	17166
491.309	39592
491.385	48324
491.460	13125
491.536	11900
491.611	10712
491.686	11732
491.762	16877
491.837	38191
491.913	69759
491.988	91020
492.063	123978
492.139	34025
492.214	20420
492.289	9140
492.365	9344
492.440	12158
492.515	12221
492.590	13278
492.666	9888
492.741	14213
492.816	24296
492.891	13890
492.967	9280
493.042	8500
493.117	9493
493.192	11593
493.267	23668
493.342	75446
493.418	129529
493.493	22846
493.568	7445
493.643	7724
493.718	11059
493.793	19765
493.868	23530
493.943	12721
494.018	8383
494.093	8579
494.168	8581
494.243	6969
494.318	6876
494.393	7395
494.468	6888
494.543	6955
494.618	9617
494.693	8671
494.768	7701
494.842	8274
494.917	6030
494.992	7694
495.067	5716
495.142	6491
495.217	7101
495.292	6962
495.366	8549
495.441	10599
495.516	14214
495.591	23907
495.665	79582
495.740	207398
495.815	92652
495.890	13603
495.964	10809
496.039	10505
496.114	9839
496.188	11612
496.263	12254
496.338	9162
496.412	11502
496.487	13934
496.561	14683
496.636	14770
496.710	12194
496.785	14130
496.860	15479
496.934	11929
497.009	11612
497.083	10683
497.158	12160
497.232	14745
497.307	18955
497.381	14409
497.455	16501
497.530	25660
497.604	15373
497.679	14454
497.753	25968
497.827	36664
497.902	29127
497.976	37598
498.050	96846
498.125	363165
498.199	453869
498.273	58857
498.348	34852
498.422	26960
498.496	24713
498.570	22364
498.645	15500
498.719	16149
498.793	19919
498.867	33640
498.941	55984
499.016	145034
499.090	428006
499.164	189860
499.238	14968
499.312	12266
499.386	15220
499.460	14924
499.534	13077
499.609	16059
499.683	26182
499.757	30137
499.831	66377
499.905	259046
499.979	308883
500.053	42312
500.127	37380
500.201	24727
500.275	13616
500.349	13127
500.422	14917
500.496	24195
500.570	56839
500.644	142834
500.718	303392
500.792	81707
500.866	13722
500.940	17993
501.013	15322
501.087	13189
501.161	24007
501.235	39952
501.309	86126
501.382	240927
501.456	260746
501.530	46737
501.603	79490
501.677	37694
501.751	11000
501.825	14837
501.898	30598
501.972	94796
502.046	75196
502.119	16554
502.193	38696
502.266	105314
502.340	64251
502.413	42507
502.487	97040
502.561	60458
502.634	17879
502.708	11750
502.781	10578
502.855	8127
502.928	7093
503.002	7035
503.075	6702
503.149	7878
503.222	7423
503.295	9407
503.369	11433
503.442	19828
503.516	65930
503.589	191227
503.662	142593
503.736	37075
503.809	80460
503.882	81541
503.956	90481
504.029	106140
504.102	51320
504.175	68548
504.249	26872
504.322	14129
504.395	13622
504.468	9625
504.542	9777
504.615	7246
504.688	6613
504.761	6548
504.834	9570
504.907	10994
504.980	18375
505.053	9298
505.127	11681
505.200	14699
505.273	15411
505.346	10498
505.419	7467
505.492	6211
505.565	4572
505.638	4731
505.711	4613
505.784	5484
505.857	5184
505.930	5660
506.003	5548
506.076	6336
506.149	8544
506.221	14807
506.294	12856
506.367	36434
506.440	127774
506.513	90940
506.586	14851
506.659	9439
506.731	6225
506.804	8857
506.877	13627
506.950	10130
507.022	6136
507.095	9135
507.168	13492
507.241	6641
507.313	4790
507.386	6425
507.459	11971
507.531	6424
507.604	5426
507.677	5459
507.749	4930
507.822	7368
507.894	15044
507.967	17187
508.040	9389
508.112	7245
508.185	7193
508.257	6900
508.330	10549
508.402	8379
508.475	7766
508.547	8744
508.620	8405
508.692	15881
508.765	10670
508.837	5972
508.909	5769
508.982	5794
509.054	7782
509.127	6205
509.199	4953
509.271	5629
509.344	4744
509.416	5145
509.488	5083
509.560	5760
509.633	6427
509.705	8372
509.777	8080
509.849	11192
509.922	8400
509.994	5895
510.066	5396
510.138	6558
510.210	11502
510.283	11984
510.355	9624
510.427	8492
510.499	8312
510.571	8421
510.643	7610
510.715	12407
510.787	13747
510.859	8516
510.931	10831
511.003	14545
511.076	12332
511.148	7555
511.219	7400
511.291	13372
511.363	20318
511.435	7128
511.507	5900
511.579	6758
511.651	5958
511.723	6429
511.795	6011
511.867	6513
511.939	8736
512.010	22031
512.082	20106
512.154	8458
512.226	6538
512.298	9898
512.369	16568
512.441	12801
512.513	12898
512.585	10493
512.656	9454
512.728	11161
512.800	8129
512.871	6739
512.943	7711
513.015	6757
513.086	7796
513.158	8605
513.230	9104
513.301	13862
513.373	19445
513.444	9406
513.516	7001
513.588	6941
513.659	8001
513.731	11939
513.802	10501
513.874	20711
513.945	41244
514.016	15348
514.088	7206
514.159	8906
514.231	12101
514.302	15644
514.374	10340
514.445	11112
514.516	24426
514.588	22993
514.659	11225
514.730	23007
514.802	19587
514.873	10449
514.944	10086
515.016	9753
515.087	11475
515.158	15621
515.229	25777
515.301	12387
515.372	13274
515.443	9871
515.514	7909
515.585	7252
515.656	6933
515.728	6989
515.799	7665
515.870	8269
515.941	8104
516.012	8430
516.083	10252
516.154	12376
516.225	18067
516.296	14568
516.367	12234
516.438	13569
516.509	20037
516.580	35241
516.651	99684
516.722	354900
516.793	209274
516.864	26921
516.935	24495
517.006	27895
517.077	45536
517.148	118495
517.219	377620
517.289	729601
517.360	213195
517.431	75523
517.502	15105
517.573	13442
517.643	13347
517.714	13529
517.785	13983
517.856	14387
517.926	15604
517.997	18583
518.068	25417
518.138	39166
518.209	79669
518.280	266356
518.350	958617
518.421	492100
518.492	41625
518.562	21638
518.633	21043
518.703	20123
518.774	31305
518.845	72566
518.915	86706
518.986	28830
519.056	20874
519.127	38092
519.197	63248
519.268	138549
519.338	118559
519.408	21517
519.479	21773
519.549	19315
519.620	10794
519.690	9025
519.760	8786
519.831	9322
519.901	10593
519.971	7410
520.042	9107
520.112	11490
520.182	12525
520.253	14539
520.323	8321
520.393	9108
520.463	9509
520.534	9286
520.604	13124
520.674	10571
520.744	12006
520.814	16446
520.885	22831
520.955	44900
521.025	164944
521.095	94841
521.165	10507
521.235	9927
521.305	8859
521.375	7545
521.445	7880
521.515	12801
521.585	13673
521.655	14290
521.725	10829
521.795	11291
521.865	7599
521.935	11500
522.005	14048
522.075	7692
522.145	7562
522.215	9791
522.285	15556
522.355	22165
522.424	43682
522.494	43523
522.564	20074
522.634	32007
522.704	89937
522.774	47742
522.843	9524
522.913	8313
522.983	11091
523.053	8357
523.122	9708
523.192	15201
523.262	46470
523.331	59679
523.401	10689
523.471	6002
523.540	6941
523.610	5724
523.680	5498
523.749	6050
523.819	9154
523.888	10114
523.958	6197
524.027	7070
524.097	7033
524.166	6322
524.236	8120
524.305	8201
524.375	5933
524.444	5571
524.514	6707
524.583	7430
524.653	10069
524.722	12011
524.791	7609
524.861	6668
524.930	6520
524.999	7737
525.069	11206
525.138	9654
525.207	11056
525.277	9074
525.346	6802
525.415	6863
525.484	6615
525.554	9775
525.623	9917
525.692	8162
525.761	8648
525.830	7353
525.900	9563
525.969	15022
526.038	26074
526.107	46898
526.176	135814
526.245	140225
526.314	45347
526.383	68504
526.452	117879
526.522	150359
526.591	215354
526.660	63047
526.729	28187
526.797	31207
526.867	71544
526.935	260902
527.004	433019
527.073	301108
527.142	25324
527.211	10774
527.280	10201
527.349	11367
527.418	6705
527.487	5899
527.555	5587
527.624	4896
527.693	5288
527.762	5410
527.831	4945
527.899	4605
527.968	6040
528.037	6095
528.106	7570
528.174	14967
528.243	14340
528.312	17772
528.380	28849
528.449	10064
528.518	5472
528.586	4059
528.655	4124
528.723	4248
528.792	3627
528.861	5778
528.929	4785
528.998	3797
529.066	3748
529.135	3152
529.203	4205
529.272	3990
529.340	4885
529.409	4294
529.477	4830
529.545	6943
529.614	9161
529.682	8058
529.751	13251
529.819	9543
529.887	8196
529.956	4947
530.024	4464
530.092	4093
530.161	6548
530.229	10647
530.297	7350
530.365	3301
530.434	4079
530.502	3993
530.570	2866
530.638	3566
530.707	5816
530.775	5709
530.843	3841
530.911	4702
530.979	4012
531.047	4659
531.115	4811
531.183	4021
531.252	4038
531.320	4051
531.388	4658
531.456	4197
531.524	3595
531.592	4806
531.660	5283
531.728	4312
531.796	4407
531.864	3740
531.932	4582
532.000	4640
532.067	4695
532.135	5144
532.203	5343
532.271	7624
532.339	12987
532.407	38005
532.475	28087
532.542	8875
532.610	11293
532.678	19574
532.746	59059
532.814	180109
532.881	59209
532.949	8432
533.017	5698
533.084	5427
533.152	4446
533.220	3990
533.287	5905
533.355	4338
533.423	4822
533.490	4244
533.558	4527
533.625	5265
533.693	6333
533.761	6014
533.828	5905
533.896	6305
533.963	12357
534.031	18117
534.098	22268
534.166	13700
534.233	5474
534.300	5223
534.368	5631
534.435	5606
534.503	5833
534.570	5465
534.637	5386
534.705	7383
534.772	9130
534.840	16535
534.907	53930
534.974	104360
535.041	18737
535.109	9690
535.176	6211
535.243	6096
535.310	5164
535.378	5437
535.445	4639
535.512	4049
535.579	4827
535.646	5082
535.714	5285
535.781	6726
535.848	6943
535.915	5463
535.982	6048
536.049	5763
536.116	6286
536.183	5655
536.250	5595
536.317	6830
536.384	7033
536.451	11673
536.518	14090
536.585	9035
536.652	11079
536.719	16200
536.786	15166
536.853	9001
536.920	14383
536.987	28702
537.053	29660
537.120	74724
537.187	94414
537.254	10704
537.321	5429
537.388	6055
537.454	5518
537.521	6055
537.588	5023
537.654	6310
537.721	7344
537.788	7623
537.855	5958
537.921	6319
537.988	6530
538.055	6979
538.121	6718
538.188	8473
538.254	11955
538.321	25991
538.388	20133
538.454	6791
538.521	6469
538.587	5592
538.654	5392
538.720	5305
538.787	5217
538.853	6334
538.920	8962
538.986	10493
539.053	8508
539.119	7497
539.185	7413
539.252	8847
539.318	14312
539.385	10828
539.451	8859
539.517	9064
539.583	12735
539.650	22364
539.716	66364
539.782	27676
539.849	7636
539.915	7003
539.981	7930
540.047	10006
540.114	8489
540.180	7891
540.246	8621
540.312	11415
540.378	24225
540.444	32747
540.510	25574
540.576	70440
540.643	34638
540.709	7192
540.775	7421
540.841	7334
540.907	9926
540.973	15641
541.039	13421
541.105	17164
541.171	9260
541.237	6862
541.303	7484
541.369	8684
541.435	12448
541.500	22571
541.566	18056
541.632	7440
541.698	6053
541.764	6375
541.830	6326
541.896	6223
541.961	7199
542.027	6546
542.093	6537
542.159	7239
542.224	8621
542.290	12163
542.356	21712
542.421	31705
542.487	13045
542.553	7589
542.618	8141
542.684	7882
542.750	8120
542.815	11221
542.881	19388
542.947	57774
543.012	60922
543.078	8279
543.143	6192
543.209	7260
543.274	8666
543.340	10795
543.405	20706
543.471	42679
543.536	12384
543.602	7147
543.667	6787
543.732	6759
543.798	6043
543.863	7663
543.928	6076
543.994	4754
544.059	6182
544.124	6560
544.190	5709
544.255	5957
544.320	6902
544.386	7329
544.451	11867
544.516	15518
544.581	15928
544.646	33539
544.712	71829
544.777	18976
544.842	9678
544.907	11976
544.972	9081
545.037	8526
545.102	9790
545.168	9742
545.233	10618
545.298	10985
545.363	13383
545.428	15988
545.493	22767
545.558	53693
545.623	32049
545.688	10706
545.753	9446
545.818	9201
545.883	10268
545.947	9651
546.012	9903
546.077	12841
546.142	10669
546.207	10755
546.272	14137
546.337	16896
546.401	12509
546.466	10921
546.531	10926
546.596	12240
546.661	12610
546.725	12100
546.790	10563
546.855	11651
546.919	11422
546.984	12993
547.049	13627
547.113	17302
547.178	17455
547.243	17849
547.307	20870
547.372	22710
547.436	26822
547.501	21856
547.565	22342
547.630	23677
547.695	24824
547.759	25456
547.823	24982
547.888	19717
547.952	19938
548.017	20808
548.081	25723
548.146	30805
548.210	27203
548.274	22840
548.339	21790
548.403	20817
548.468	18046
548.532	17893
548.596	19726
548.660	20095
548.725	22380
548.789	26526
548.853	27763
548.917	22889
548.982	26576
549.046	31022
549.110	19586
549.174	17953
549.238	18953
549.303	20598
549.367	22480
549.431	20959
549.495	20182
549.559	19436
549.623	23241
549.687	25840
549.751	30699
549.815	30539
549.879	28154
549.943	26454
550.007	28493
550.071	29678
550.135	31133
550.199	28559
550.263	25512
550.327	25576
550.391	31168
550.455	29658
550.519	27061
550.582	29804
550.646	33889
550.710	39359
550.774	31965
550.838	31471
550.901	31322
550.965	35397
551.029	36038
551.093	41113
551.156	51009
551.220	74779
551.284	105382
551.347	65844
551.411	69048
551.475	95839
551.538	42651
551.602	32387
551.666	29874
551.729	27832
551.793	27575
551.856	28533
551.920	27505
551.983	26617
552.047	26959
552.110	26445
552.174	26513
552.237	28067
552.301	26013
552.364	23307
552.428	23563
552.491	24710
552.554	26402
552.618	25738
552.681	28289
552.745	30620
552.808	39215
552.871	54918
552.934	36865
552.998	27832
553.061	27679
553.124	24528
553.187	25132
553.251	26388
553.314	27877
553.377	28975
553.440	35966
553.503	56705
553.567	111724
553.630	45893
553.693	26506
553.756	25859
553.819	23850
553.882	24348
553.945	23531
554.008	23888
554.071	23339
554.134	24075
554.197	22187
554.260	21688
554.323	24085
554.386	23402
554.449	24235
554.512	24084
554.575	23732
554.638	23840
554.701	23855
554.764	22422
554.827	22030
554.889	21965
554.952	19627
555.015	19268
555.078	19747
555.141	21180
555.203	19701
555.266	19811
555.329	20148
555.391	20177
555.454	19685
555.517	20889
555.580	18763
555.642	17048
555.705	18420
555.768	17996
555.830	18615
555.893	17102
555.955	16884
556.018	16712
556.080	16741
556.143	17255
556.206	16802
556.268	18067
556.330	18695
556.393	18287
556.455	18130
556.518	23116
556.580	27071
556.643	16751
556.705	14468
556.767	15111
556.830	16668
556.892	17082
556.955	23540
557.017	21386
557.079	16565
557.142	15670
557.204	18227
557.266	27413
557.328	30234
557.391	14784
557.453	13391
557.515	13252
557.577	16098
557.639	17593
557.701	13890
557.764	12440
557.826	14151
557.888	15966
557.950	16564
558.012	19142
558.074	27148
558.136	43079
558.198	117055
558.260	68801
558.322	16661
558.384	16111
558.446	18913
558.508	22307
558.570	31073
558.632	48621
558.694	86786
558.756	106014
558.818	194908
558.880	581087
558.942	298582
559.003	117359
559.065	86994
559.127	23955
559.189	25162
559.251	35811
559.312	58120
559.374	105216
559.436	322356
559.498	278758
559.559	34807
559.621	27040
559.683	39424
559.744	62279
559.806	137072
559.868	298803
559.929	87394
559.991	34125
560.052	45683
560.114	108648
560.176	114593
560.237	59632
560.299	127420
560.360	46030
560.422	15031
560.483	13238
560.545	11781
560.606	11486
560.667	12809
560.729	12285
560.790	11231
560.852	10995
560.913	11545
560.974	11499
561.036	9724
561.097	12231
561.158	11028
561.220	11132
561.281	12351
561.342	12382
561.403	16126
561.465	19457
561.526	34578
561.587	58474
561.648	20322
561.709	11312
561.771	11637
561.832	11521
561.893	10883
561.954	11442
562.015	10671
562.076	10919
562.137	10691
562.198	10729
562.259	11886
562.320	11339
562.381	13007
562.442	16337
562.503	16485
562.564	10769
562.625	10562
562.686	10925
562.747	12390
562.808	12453
562.869	11094
562.930	13887
562.991	13375
563.051	12299
563.112	12613
563.173	11058
563.234	10075
563.294	11274
563.355	10758
563.416	11583
563.477	10843
563.537	10863
563.598	12473
563.659	12217
563.720	12218
563.780	12514
563.841	11932
563.901	11909
563.962	11213
564.023	11503
564.083	11801
564.144	12132
564.204	13053
564.265	13184
564.325	15750
564.386	25896
564.446	33606
564.507	12692
564.567	10886
564.628	10980
564.688	11478
564.749	11531
564.809	13495
564.869	17028
564.930	13128
564.990	11743
565.050	10669
565.111	12246
565.171	10963
565.231	10886
565.292	10655
565.352	10552
565.412	10944
565.472	12844
565.532	12720
565.593	11154
565.653	11114
565.713	12330
565.773	13820
565.833	14375
565.893	19358
565.953	14691
566.013	12446
566.074	14456
566.134	18957
566.194	26659
566.254	31995
566.314	20523
566.374	13817
566.434	13345
566.494	13282
566.554	13948
566.614	13215
566.673	14410
566.733	14354
566.793	16038
566.853	16952
566.913	16577
566.973	15940
567.033	17061
567.092	17766
567.152	16720
567.212	17610
567.272	17432
567.331	19563
567.391	18841
567.451	20726
567.511	23614
567.570	26541
567.630	17981
567.690	16286
567.749	17307
567.809	17637
567.868	19214
567.928	21912
567.988	25951
568.047	29042
568.107	34050
568.166	43256
568.226	60194
568.285	84544
568.345	80900
568.404	63491
568.464	54439
568.523	49491
568.582	52359
568.642	59459
568.701	72446
568.761	96266
568.820	141246
568.879	154528
568.939	121470
568.998	91146
569.057	66503
569.116	53466
569.176	43499
569.235	37293
569.294	32739
569.353	29214
569.413	26391
569.472	24127
569.531	21781
569.590	21418
569.649	19559
569.708	18415
569.767	18488
569.827	19885
569.886	20499
569.945	15682
570.004	16314
570.063	16537
570.122	16952
570.181	18520
570.240	18455
570.299	20040
570.358	18538
570.417	15430
570.475	14012
570.534	14122
570.593	15326
570.652	15231
570.711	16465
570.770	14264
570.829	16132
570.887	14815
570.946	16389
571.005	13492
571.064	13343
571.122	14442
571.181	16501
571.240	15654
571.299	13022
571.357	13358
571.416	15315
571.475	15698
571.533	18763
571.592	13686
571.650	15263
571.709	13081
571.768	13041
571.826	13902
571.885	12027
571.943	12477
572.002	11590
572.060	14376
572.119	11004
572.177	11758
572.236	10532
572.294	11082
572.352	11429
572.411	11357
572.469	11066
572.528	12131
572.586	12197
572.644	12679
572.703	16170
572.761	15484
572.819	12008
572.877	11267
572.936	10996
572.994	11038
573.052	11514
573.110	11811
573.169	11805
573.227	11202
573.285	11691
573.343	10949
573.401	12160
573.459	11438
573.517	10797
573.576	11772
573.634	11018
573.692	11387
573.750	12181
573.808	12344
573.866	11561
573.924	14933
573.982	17072
574.040	13485
574.098	11520
574.155	10633
574.213	10605
574.271	11332
574.329	12418
574.387	11319
574.445	10806
574.503	10110
574.560	9545
574.618	9696
574.676	9743
574.734	9833
574.792	10753
574.849	10468
574.907	9557
574.965	9534
575.022	10226
575.080	9338
575.138	9649
575.195	11372
575.253	10725
575.311	11874
575.368	10700
575.426	10027
575.483	9181
575.541	10132
575.598	10352
575.656	10954
575.713	11523
575.771	11160
575.828	10541
575.886	10244
575.943	11464
576.001	12174
576.058	12054
576.115	13347
576.173	14391
576.230	16911
576.287	17061
576.345	15729
576.402	12450
576.459	12292
576.517	12450
576.574	14461
576.631	14527
576.688	13338
576.746	12714
576.803	11510
576.860	12384
576.917	11949
576.974	11160
577.031	11786
577.089	11904
577.146	11623
577.203	12327
577.260	12951
577.317	12717
577.374	15067
577.431	15068
577.488	13755
577.545	12133
577.602	12278
577.659	11756
577.716	11737
577.773	14006
577.830	12147
577.886	11138
577.943	11414
578.000	11534
578.057	12253
578.114	13447
578.171	12173
578.227	12425
578.284	12310
578.341	13404
578.398	12519
578.454	14152
578.511	14421
578.568	16581
578.625	15250
578.681	13108
578.738	11274
578.794	12089
578.851	11190
578.908	11592
578.964	12104
579.021	12151
579.077	12631
579.134	11564
579.190	11202
579.247	11524
579.303	11603
579.360	11306
579.416	11431
579.473	11335
579.529	11319
579.586	11726
579.642	12124
579.698	11975
579.755	12477
579.811	12381
579.867	11822
579.924	11500
579.980	11877
580.036	12754
580.093	12864
580.149	13763
580.205	14949
580.261	14536
580.317	14593
580.374	14221
580.430	16459
580.486	15942
580.542	13549
580.598	13359
580.619	13494
580.654	13721
580.692	13309
580.710	13087
580.765	12812
580.767	12791
580.823	13727
580.838	13689
580.879	13549
580.911	13456
580.935	13364
580.984	13784
580.991	13825
581.047	13045
581.057	13253
581.103	14178
581.130	14186
581.159	14123
581.203	14958
581.215	15164
581.270	15959
581.276	15871
581.326	14879
581.349	15176
581.382	15544
581.422	15095
581.438	14932
581.494	15928
581.494	15950
581.550	16250
581.567	16381
581.606	16676
581.640	16826
581.661	16829
581.713	16728
581.717	16706
581.773	16547
581.786	16522
581.829	16447
581.859	16617
581.885	16737
581.932	16929
581.940	16942
581.996	17154
582.004	17161
582.052	16981
582.077	16981
582.107	16985
582.150	17666
582.163	17869
582.219	18122
582.223	18170
582.274	18536
582.296	18586
582.330	18776
582.368	19499
582.386	19660
582.441	19570
582.441	19555
582.497	19476
582.514	19366
582.552	19233
582.587	20276
582.608	20889
582.659	20919
582.663	20885
582.719	20443
582.732	20429
582.774	20304
582.805	20331
582.830	20504
582.877	21410
582.885	21522
582.941	21009
582.950	21115
582.996	21644
583.023	22157
583.052	22967
583.095	23561
583.107	23667
583.162	23948
583.168	24138
583.218	25966
583.240	25748
583.273	25017
583.313	24572
583.328	24389
583.384	25087
583.385	25051
583.439	24311
583.458	24808
583.494	25617
583.531	25125
583.549	24920
583.603	26472
583.605	26530
583.660	25702
583.676	25997
583.715	26891
583.748	27226
583.770	27396
583.820	28183
583.825	28323
583.881	28500
583.893	28823
583.936	29290
583.965	28941
583.991	28829
584.038	29283
584.046	29347
584.101	29724
584.110	29692
584.156	30006
584.183	30413
584.211	30956
584.255	31211
584.266	31176
584.321	30993
584.328	30964
584.376	31140
584.400	31397
584.431	32380
584.472	33223
584.486	33270
584.541	33740
584.545	33701
584.596	34108
584.617	34377
584.651	35412
584.689	36541
584.706	36924
584.761	37582
584.762	37543
584.816	38240
584.834	38412
584.871	39245
584.906	40036
584.926	40527
584.978	41575
584.980	41675
585.035	42765
585.051	43313
585.090	45718
585.123	47056
585.145	47704
585.195	49110
585.200	49441
585.254	52872
585.267	53739
585.309	57671
585.340	62087
585.364	66535
585.412	72143
585.419	72455
585.473	77489
585.484	79021
585.528	89725
585.556	98671
585.583	113443
585.628	138592
585.637	154041
585.692	266693
585.700	291976
585.747	531631
585.772	605353
585.801	521716
585.845	358440
585.856	307889
585.910	123246
585.917	102465
585.965	84949
585.989	76005
586.019	73165
586.061	70116
586.074	70008
586.128	69211
586.133	69056
586.183	71541
586.205	72098
586.237	73534
586.277	75150
586.292	75387
586.346	75888
586.349	75772
586.401	77663
586.421	78227
586.455	80191
586.493	82199
586.509	85216
586.564	95420
586.565	95570
586.618	130640
586.637	141821
586.672	155734
586.709	156520
586.727	139602
586.781	99649
586.781	99891
586.835	98116
586.853	97339
586.889	95879
586.925	94489
586.944	95096
586.996	96200
586.998	96555
587.052	100413
587.068	101203
587.106	104151
587.140	106580
587.161	108182
587.212	111183
587.215	111713
587.269	116749
587.284	117622
587.323	120973
587.356	123640
587.377	126169
587.427	130557
587.431	131316
587.485	137308
587.499	138587
587.539	144354
587.571	148269
587.593	152547
587.643	160901
587.648	162289
587.702	173142
587.715	175175
587.755	184495
587.786	190853
587.810	197054
587.858	208895
587.864	211124
587.917	226987
587.930	230205
587.971	248386
588.001	260689
588.025	273897
588.073	297935
588.079	301742
588.133	328173
588.145	333472
588.187	365563
588.217	386752
588.241	410844
588.288	456429
588.295	465416
588.348	531845
588.360	544782
588.402	615165
588.431	663119
588.456	715160
588.503	814308
588.510	836069
588.564	1001170
588.575	1034153
588.617	1224288
588.646	1353138
588.671	1524474
588.718	1847802
588.725	1929318
588.778	2535414
588.789	2654995
588.832	3264622
588.861	3669878
588.886	3856698
588.932	4126676
588.939	4066110
588.993	3359654
589.004	3233227
589.047	3495670
589.075	3655334
589.100	3859270
589.147	4107148
589.154	4035412
589.207	3366183
589.218	3222745
589.261	2795250
589.290	2498456
589.314	2451800
589.361	2354787
589.368	2401420
589.421	2741492
589.433	2809266
589.475	3358406
589.504	3728922
589.528	3855847
589.576	3983613
589.582	3957822
589.635	3615922
589.647	3530422
589.689	3768576
589.718	3874234
589.742	3440935
589.790	2544483
589.795	2474801
589.849	1747420
589.861	1574444
589.902	1330461
589.932	1142960
589.955	1056362
590.004	861469
590.009	850594
590.062	700250
590.075	661216
590.115	599572
590.146	547925
590.168	525542
590.218	469925
590.222	468496
590.275	427003
590.289	414678
590.328	393895
590.360	374070
590.381	364360
590.431	337044
590.435	336963
590.488	313543
590.503	305876
590.541	296767
590.574	286739
590.594	282454
590.645	267731
590.647	268260
590.700	253924
590.716	248688
590.753	242166
590.787	234415
590.806	232558
590.859	223657
590.859	224413
590.912	215696
590.930	211773
590.965	209287
591.001	205463
591.018	204335
591.071	198302
591.072	197432
591.124	194703
591.143	192636
591.177	190331
591.214	186320
591.230	186690
591.283	185258
591.285	184431
591.336	184888
591.356	184225
591.389	183704
591.427	181038
591.442	180033
591.495	173456
591.498	172259
591.547	169227
591.569	166831
591.600	166786
591.640	165006
591.653	165302
591.706	163761
591.711	162889
591.759	163589
591.782	163004
591.811	167904
591.853	173386
591.864	173879
591.917	172248
591.924	171286
591.969	162302
591.995	156084
592.022	156559
592.066	155471
592.075	156721
592.127	160421
592.137	160427
592.180	173899
592.208	181510
592.233	182143
592.279	180736
592.285	179003
592.338	157752
592.350	152234
592.390	150018
592.421	147190
592.443	147778
592.491	147035
592.495	147681
592.548	147689
592.562	147041
592.600	147419
592.633	146540
592.653	146597
592.704	144233
592.705	145056
592.775	144292
592.846	143009
592.916	145819
592.987	146680
593.058	146394
593.128	142651
593.199	137945
593.270	135758
593.341	134538
593.411	134454
593.482	137838
593.553	136905
593.623	133593
593.694	132411
593.764	137998
593.835	143088
593.906	133240
593.976	132356
594.047	134008
594.117	143640
594.188	162048
594.258	147197
594.329	128635
594.399	129207
594.470	129896
594.540	128594
594.611	130269
594.681	130874
594.751	129769
594.822	133106
594.892	136153
594.963	141661
595.033	141876
595.103	141447
595.174	145743
595.244	163343
595.314	217855
595.384	204627
595.455	144005
595.525	145490
595.595	148202
595.665	150612
595.736	148756
595.806	145773
595.876	146933
595.946	145629
596.016	146437
596.087	147425
596.157	150154
596.227	148716
596.297	150587
596.367	159457
596.437	166503
596.507	180556
596.577	222322
596.647	219108
596.717	168178
596.787	167565
596.857	167510
596.927	168124
596.997	169510
597.067	170197
597.137	171799
597.207	181109
597.277	175352
597.347	173695
597.417	168039
597.487	165859
597.557	170142
597.626	171840
597.696	174413
597.766	184557
597.836	213750
597.906	224345
597.975	163587
598.045	159437
598.115	158085
598.185	163513
598.254	172266
598.324	184737
598.394	193204
598.464	193218
598.533	189207
598.603	181839
598.672	172517
598.742	175089
598.812	175559
598.881	175686
598.951	175534
599.020	173849
599.090	173089
599.159	178819
599.229	177770
599.299	173239
599.368	171496
599.437	175972
599.507	170132
599.576	165987
599.646	167920
599.715	167650
599.785	163181
599.854	162744
599.924	167911
599.993	173744
600.062	162582
600.132	161653
600.201	161549
600.270	177290
600.340	192650
600.409	187919
600.478	185733
600.547	182810
600.617	187245
600.686	172203
600.755	155131
600.824	151692
600.894	150341
600.963	142930
601.032	139955
601.101	141175
601.170	136696
601.239	135520
601.308	137832
601.378	142168
601.447	135065
601.516	133571
601.585	135604
601.654	141442
601.723	147611
601.792	138784
601.861	142577
601.930	148672
601.999	158121
602.068	153608
602.137	149546
602.206	164394
602.275	152547
602.343	154901
602.412	166072
602.481	156299
602.550	150175
602.619	149980
602.688	152488
602.756	154183
602.825	153313
602.894	150712
602.963	154739
603.032	156495
603.100	157872
603.169	156065
603.238	156276
603.307	158402
603.375	155781
603.444	154313
603.513	160795
603.581	159579
603.650	162998
603.719	162747
603.787	156105
603.856	162287
603.924	162926
603.993	172764
604.061	171334
604.130	175670
604.198	179659
604.267	182028
604.335	180707
604.404	181630
604.472	183998
604.541	185908
604.609	187642
604.678	188876
604.746	190527
604.815	193152
604.883	198022
604.951	197933
605.020	195261
605.088	198792
605.156	201133
605.225	202794
605.293	202204
605.361	202413
605.429	207499
605.498	204445
605.566	211503
605.634	216906
605.702	220917
605.771	225548
605.839	229955
605.907	227577
605.975	223566
606.043	216071
606.111	214284
606.180	214124
606.248	219727
606.316	223346
606.384	221322
606.452	224378
606.520	234297
606.588	243652
606.656	218082
606.724	213075
606.792	207130
606.860	196024
606.928	178091
606.996	166827
607.064	162092
607.132	162749
607.200	166636
607.267	176653
607.335	176103
607.403	183466
607.471	182520
607.539	177402
607.607	176563
607.674	169652
607.742	160308
607.810	163752
607.878	165184
607.946	159959
608.013	165017
608.081	170870
608.149	177278
608.216	171116
608.284	177860
608.352	177888
608.419	182056
608.487	190345
608.555	209742
608.622	178740
608.690	175181
608.757	187035
608.825	201728
608.893	204828
608.960	204743
609.028	216219
609.095	218641
609.163	220750
609.230	186102
609.298	169081
609.365	158366
609.432	167115
609.500	175779
609.567	192432
609.635	214621
609.702	242707
609.769	246374
609.837	237198
609.904	203088
609.971	192565
610.039	211484
610.106	265904
610.173	426322
610.241	950673
610.308	2003138
610.375	1577319
610.442	681200
610.509	280743
610.577	214829
610.644	194807
610.711	191549
610.778	192390
610.845	190370
610.912	197225
610.980	206944
611.047	218004
611.114	234202
611.181	209926
611.248	195024
611.315	194551
611.382	202587
611.449	207529
611.516	210230
611.583	212960
611.650	212519
611.717	215269
611.784	219260
611.851	229503
611.918	249293
611.984	286909
612.051	362056
612.118	601845
612.185	1397972
612.252	3009905
612.319	1119633
612.386	360044
612.452	290756
612.519	263146
612.586	264201
612.653	284166
612.719	248524
612.786	248927
612.853	231997
612.919	214787
612.986	214579
613.053	213405
613.120	200784
613.186	192527
613.253	192890
613.319	189222
613.386	190866
613.453	193313
613.519	200187
613.586	210966
613.652	235371
613.719	251259
613.785	237318
613.852	213404
613.918	198687
613.985	197421
614.051	207311
614.118	235338
614.184	306010
614.250	240924
614.317	198877
614.383	195523
614.449	192544
614.516	194514
614.582	195655
614.648	200762
614.715	189973
614.781	190878
614.847	188005
614.914	196715
614.980	194637
615.046	191958
615.112	185650
615.179	193772
615.245	199074
615.311	210951
615.377	246530
615.443	340479
615.509	317519
615.575	237003
615.642	221123
615.708	217445
615.774	229619
615.840	248343
615.906	285420
615.972	351785
616.038	538302
616.104	1014676
616.170	1832745
616.236	3768625
616.302	2008245
616.368	558416
616.434	414131
616.500	303001
616.565	284869
616.631	325099
616.697	381512
616.763	307375
616.829	343580
616.895	566953
616.961	953178
617.026	750051
617.092	321332
617.158	236878
617.224	216074
617.289	208650
617.355	197615
617.421	191058
617.487	192635
617.552	185204
617.618	174982
617.684	175451
617.749	175675
617.815	172613
617.880	165954
617.946	164190
618.012	164689
618.077	169832
618.143	169689
618.208	163844
618.274	166855
618.339	179919
618.405	173219
618.470	152971
618.536	155537
618.601	161000
618.667	167429
618.732	153786
618.798	146989
618.863	143316
618.928	142621
618.994	143887
619.059	149860
619.124	166086
619.190	192565
619.255	152397
619.320	142883
619.386	144979
619.451	139474
619.516	140332
619.581	137263
619.647	141133
619.712	142011
619.777	140604
619.842	136633
619.907	142806
619.972	143862
620.038	146225
620.103	140914
620.168	136509
620.233	137073
620.298	138303
620.363	137885
620.428	139642
620.493	142728
620.558	144127
620.623	141758
620.688	144145
620.753	142393
620.818	144148
620.883	144999
620.948	145527
621.013	144800
621.078	144445
621.143	147187
621.207	151095
621.272	150550
621.337	154447
621.402	156560
621.467	162932
621.532	188790
621.596	179959
621.661	165688
621.726	148745
621.791	148786
621.855	150013
621.920	155463
621.985	159836
622.049	166802
622.114	173773
622.179	168568
622.243	160004
622.308	170612
622.373	167590
622.437	170444
622.502	165656
622.566	156520
622.631	158667
622.695	160947
622.760	159740
622.824	160157
622.889	159068
622.953	164933
623.018	176613
623.082	232334
623.147	193133
623.211	165189
623.276	162441
623.340	163036
623.404	150712
623.469	147023
623.533	150002
623.597	150722
623.662	145810
623.726	148829
623.790	139700
623.854	133266
623.919	137572
623.983	135484
624.047	139893
624.111	139021
624.176	139244
624.240	144192
624.304	159705
624.368	155257
624.432	140716
624.496	140302
624.560	146442
624.625	156298
624.689	160209
624.753	143423
624.817	147383
624.881	142384
624.945	139378
625.009	129012
625.073	131019
625.137	133383
625.201	150572
625.265	168930
625.329	151767
625.393	135878
625.456	143825
625.520	139177
625.584	146490
625.648	161247
625.712	184552
625.776	271607
625.839	492144
625.903	454807
625.967	174923
626.031	154454
626.095	238801
626.158	285223
626.222	137797
626.286	111771
626.349	106763
626.413	105611
626.477	104695
626.540	108573
626.604	103406
626.668	103935
626.731	99552
626.795	100310
626.858	107895
626.922	105452
626.986	101684
627.049	99028
627.113	100603
627.176	98445
627.240	96529
627.303	97165
627.366	97364
627.430	99498
627.493	100680
627.557	100148
627.620	102109
627.684	98724
627.747	102124
627.810	101254
627.874	95810
627.937	91476
628.000	90085
628.064	95784
628.127	90789
628.190	84582
628.253	85452
628.317	85036
628.380	83208
628.443	81105
628.506	83303
628.569	83281
628.632	76663
628.696	74430
628.759	76085
628.822	74319
628.885	74357
628.948	73000
629.011	72963
629.074	73458
629.137	72918
629.200	70193
629.263	74630
629.326	77416
629.389	69997
629.452	70558
629.515	71557
629.578	72813
629.641	72448
629.704	74239
629.767	73688
629.830	71801
629.892	66777
629.955	67961
630.018	67906
630.081	71143
630.144	79412
630.207	83222
630.269	75299
630.332	72653
630.395	80166
630.458	68633
630.520	63548
630.583	65606
630.646	62430
630.708	61956
630.771	62516
630.834	64106
630.896	63259
630.959	63064
631.021	61880
631.084	63032
631.146	65979
631.209	70811
631.272	74238
631.334	63931
631.397	61671
631.459	62710
631.522	62905
631.584	65218
631.646	68330
631.709	69167
631.771	75654
631.834	88850
631.896	70653
631.958	64602
632.021	60843
632.083	61360
632.145	62422
632.208	62412
632.270	61769
632.332	61266
632.395	58958
632.457	57573
632.519	60119
632.581	59501
632.643	55984
632.706	59230
632.768	58186
632.830	57294
632.892	57286
632.954	56071
633.016	59960
633.078	57000
633.141	56536
633.203	55436
633.265	56778
633.327	56570
633.389	55423
633.451	57707
633.513	65014
633.575	74013
633.637	70497
633.698	69776
633.760	64358
633.822	59226
633.884	58347
633.946	60065
634.008	60387
634.070	62201
634.132	63593
634.193	72572
634.255	70906
634.317	70811
634.379	71192
634.441	70048
634.502	66989
634.564	62838
634.626	58472
634.687	56412
634.749	55143
634.811	53887
634.873	52090
634.934	51646
634.996	51994
635.057	53016
635.119	52977
635.181	53635
635.242	54311
635.304	53547
635.365	53199
635.427	53166
635.488	55670
635.550	54045
635.611	53647
635.673	52478
635.734	56714
635.796	59484
635.857	61910
635.918	64268
635.980	64670
636.041	68713
636.102	71241
636.164	72957
636.225	71512
636.286	68543
636.348	65641
636.409	59520
636.470	56011
636.531	54103
636.593	54491
636.654	61530
636.715	53430
636.776	47277
636.838	45807
636.899	46230
636.960	48251
637.021	46920
637.082	45687
637.143	45637
637.204	45742
637.265	44354
637.326	43978
637.387	44369
637.448	43325
637.509	42611
637.570	43899
637.631	44052
637.692	42118
637.753	42322
637.814	40822
637.875	42386
637.936	41977
637.997	42637
638.058	43233
638.119	44574
638.179	43585
638.240	41916
638.301	41870
638.362	41855
638.423	41719
638.483	42116
638.544	41232
638.605	39045
638.666	39795
638.726	41255
638.787	39865
638.848	40149
638.908	39602
638.969	38791
639.030	38491
639.090	40515
639.151	38244
639.211	41832
639.272	44613
639.332	54367
639.393	77501
639.453	45175
639.514	43038
639.574	41257
639.635	37926
639.695	37220
639.756	38169
639.816	38604
639.877	39803
639.937	46856
639.997	69825
640.058	73741
640.118	41124
640.178	36614
640.239	35229
640.299	34712
640.359	35984
640.420	35957
640.480	37183
640.540	39409
640.600	43488
640.661	41855
640.721	40849
640.781	44710
640.841	51489
640.901	44520
640.961	37753
641.021	36972
641.082	40368
641.142	47508
641.202	55801
641.262	38807
641.322	34917
641.382	34418
641.442	33088
641.502	34229
641.562	35046
641.622	35086
641.682	35202
641.742	36356
641.802	39609
641.861	38063
641.921	38297
641.981	37068
642.041	38494
642.101	41718
642.161	49260
642.221	36307
642.280	33361
642.340	32381
642.400	32244
642.460	33153
642.519	33219
642.579	34473
642.639	33207
642.698	34721
642.758	33955
642.818	33724
642.877	34030
642.937	35364
642.997	36937
643.056	43520
643.116	54553
643.175	37577
643.235	34715
643.294	35037
643.354	36633
643.414	37691
643.473	40638
643.532	49111
643.592	57707
643.651	78763
643.711	121983
643.770	211324
643.830	414690
643.889	1029255
643.948	1741142
644.008	322542
644.067	84474
644.126	58939
644.186	48169
644.245	42329
644.304	37711
644.363	35378
644.423	35287
644.482	34258
644.541	34959
644.600	35132
644.659	38452
644.719	43018
644.778	54877
644.837	78208
644.896	127262
644.955	256687
645.014	512484
645.073	134117
645.132	49197
645.191	41520
645.250	38674
645.309	35668
645.368	36345
645.427	40797
645.486	48131
645.545	76335
645.604	105832
645.663	40295
645.722	34256
645.781	36377
645.840	36645
645.898	41347
645.957	50828
646.016	71625
646.075	112093
646.134	198306
646.192	376364
646.251	1041296
646.310	1171098
646.369	158149
646.427	62828
646.486	52734
646.545	43143
646.603	35931
646.662	32855
646.721	31319
646.779	31635
646.838	31150
646.896	34945
646.955	39814
647.014	51827
647.072	76167
647.131	138240
647.189	347913
647.248	127669
647.306	36452
647.365	29570
647.423	27694
647.481	28097
647.540	26379
647.598	26504
647.657	27135
647.715	25582
647.773	25826
647.832	26188
647.890	25473
647.948	27019
648.007	26172
648.065	25790
648.123	24573
648.181	26714
648.240	28663
648.298	31141
648.356	27832
648.414	26562
648.472	25824
648.531	26484
648.589	25482
648.647	24621
648.705	24251
648.763	25729
648.821	25495
648.879	26894
648.937	27008
648.995	31461
649.053	34612
649.111	42893
649.169	60019
649.227	95479
649.285	165212
649.343	333961
649.401	897780
649.459	336268
649.516	118231
649.574	70012
649.632	52762
649.690	76335
649.748	78343
649.806	55630
649.863	76518
649.921	116587
649.979	253977
650.037	132601
650.094	32602
650.152	27445
650.210	25985
650.268	24180
650.325	24868
650.383	25705
650.440	27326
650.498	23713
650.556	22587
650.613	21670
650.671	21135
650.728	21196
650.786	22588
650.843	26122
650.901	26132
650.958	24310
651.016	21427
651.073	20506
651.131	20785
651.188	19800
651.246	21735
651.303	21527
651.360	21821
651.418	20356
651.475	20752
651.532	21278
651.590	20407
651.647	19512
651.704	19412
651.762	21045
651.819	20526
651.876	20976
651.933	20706
651.990	20333
652.048	20016
652.105	19601
652.162	20574
652.219	19536
652.276	19341
652.333	18762
652.390	17925
652.448	19461
652.505	18971
652.562	19932
652.619	20335
652.676	21641
652.733	30311
652.790	26799
652.847	18427
652.904	18284
652.961	17958
653.017	19372
653.074	18806
653.131	18582
653.188	20145
653.245	17617
653.302	18598
653.359	18793
653.415	18639
653.472	17960
653.529	18628
653.586	17322
653.642	18097
653.699	17520
653.756	17751
653.813	17281
653.869	17194
653.926	17972
653.983	17419
654.039	18086
654.096	16682
654.152	18213
654.209	17521
654.266	18171
654.322	19012
654.379	19908
654.435	20709
654.492	21843
654.548	23932
654.605	31534
654.661	47498
654.717	23540
654.774	19749
654.830	20224
654.887	20749
654.943	19994
655.000	20855
655.056	21674
655.112	20004
655.168	20561
655.225	20636
655.281	20958
655.337	22302
655.394	29104
655.450	43805
655.506	31343
655.562	29001
655.618	46593
655.675	33018
655.731	18777
655.787	18530
655.843	18135
655.899	17703
655.955	17602
656.011	17787
656.067	17307
656.123	17933
656.179	18687
656.235	18704
656.291	17701
656.347	17278
656.403	19058
656.459	19420
656.515	20032
656.571	21405
656.627	21142
656.683	19133
656.739	19583
656.795	18549
656.850	17462
656.906	19711
656.962	22524
657.018	19065
657.074	18167
657.129	18926
657.185	22032
657.241	24632
657.297	40162
657.352	28073
657.408	18282
657.464	19295
657.519	20072
657.575	19709
657.630	17162
657.686	18259
657.742	17172
657.797	17423
657.853	17654
657.908	19297
657.964	18444
658.019	16661
658.075	16937
658.130	17820
658.186	17065
658.241	16901
658.297	16280
658.352	17026
658.407	17497
658.463	15953
658.518	16576
658.573	16979
658.629	16922
658.684	16559
658.739	16053
658.795	16375
658.850	16505
658.905	16549
658.960	17061
659.016	16037
659.071	16143
659.126	17521
659.181	18191
659.236	20725
659.291	28418
659.346	28082
659.401	22208
659.457	22550
659.512	20076
659.567	25269
659.622	18370
659.677	17733
659.732	16654
659.787	17224
659.842	18103
659.897	20977
659.952	24324
660.007	16971
660.061	16630
660.116	17072
660.171	16990
660.226	16378
660.281	16066
660.336	16082
660.391	15768
660.445	15942
660.500	16357
660.555	15491
660.610	16941
660.664	17396
660.719	16316
660.774	17113
660.828	16226
660.883	17047
660.938	17549
660.992	16240
661.047	17462
661.101	16151
661.156	15846
661.211	16018
661.265	15375
661.320	16550
661.374	16141
661.429	15732
661.483	15950
661.538	16742
661.592	15932
661.647	16926
661.701	17099
661.755	18175
661.810	17175
661.864	15831
661.919	15813
661.973	16648
662.027	16448
662.081	15371
662.136	15792
662.190	17086
662.244	18335
662.299	17506
662.353	17732
662.407	16946
662.461	16150
662.515	18314
662.569	17599
662.624	18111
662.678	16862
662.732	16967
662.786	16702
662.840	17788
662.894	17399
662.948	16861
663.002	15793
663.056	15630
663.110	15938
663.164	16125
663.218	16809
663.272	15608
663.326	16572
663.380	17620
663.434	18334
663.488	17476
663.542	17732
663.595	18795
663.649	16630
663.703	17888
663.757	16997
663.811	16879
663.864	16200
663.918	17118
663.972	15953
664.026	16544
664.079	16690
664.133	16505
664.187	16211
664.240	15767
664.294	15257
664.348	16626
664.401	16947
664.455	15956
664.508	15169
664.562	16255
664.615	16234
664.669	15832
664.722	15682
664.776	14907
664.829	16130
664.883	15574
664.936	15510
664.990	17083
665.043	17868
665.097	17791
665.150	20364
665.203	20022
665.257	19098
665.310	17984
665.363	19125
665.417	18341
665.470	18776
665.523	18417
665.576	18404
665.630	18043
665.683	16901
665.736	18204
665.789	18986
665.842	17997
665.895	17731
665.949	18951
666.002	18036
666.055	17054
666.108	18881
666.161	18297
666.214	18114
666.267	19179
666.320	18339
666.373	21206
666.426	19089
666.479	18642
666.532	19363
666.585	19749
666.638	21834
666.691	23268
666.744	22551
666.796	22413
666.849	22210
666.902	21778
666.955	18651
667.008	17910
667.060	16861
667.113	16605
667.166	17237
667.219	16459
667.271	17082
667.324	16975
667.377	16830
667.430	18610
667.482	17342
667.535	20500
667.587	19806
667.640	19137
667.693	20171
667.745	22866
667.798	31730
667.850	32225
667.903	20556
667.955	17317
668.008	18498
668.060	19279
668.113	21130
668.165	21228
668.218	20653
668.270	20416
668.322	19689
668.375	19590
668.427	19349
668.479	19270
668.532	18747
668.584	19086
668.636	19795
668.689	18412
668.741	18590
668.793	19437
668.845	19745
668.898	19322
668.950	18727
669.002	18946
669.054	19736
669.106	19443
669.158	20327
669.211	20507
669.263	20115
669.315	21214
669.367	21770
669.419	23552
669.471	22749
669.523	22975
669.575	24093
669.627	26571
669.679	24925
669.731	22553
669.783	22367
669.835	22339
669.886	23734
669.938	24714
669.990	23733
670.042	22882
670.094	24180
670.146	25567
670.197	28638
670.249	30492
670.301	36113
670.353	44837
670.404	56476
670.456	73619
670.508	106033
670.560	159735
670.611	251775
670.663	408007
670.715	681679
670.766	1300360
670.818	1670760
670.869	921938
670.921	253154
670.972	122384
671.024	81711
671.075	60205
671.127	48684
671.178	40714
671.230	36026
671.281	33862
671.333	30762
671.384	29752
671.436	30136
671.487	31593
671.538	33826
671.590	36128
671.641	44026
671.692	57669
671.744	83130
671.795	141582
671.846	113886
671.897	51983
671.949	34655
672.000	28963
672.051	24852
672.102	23410
672.153	22483
672.204	22251
672.256	21382
672.307	20317
672.358	20903
672.409	21540
672.460	20244
672.511	19572
672.562	18496
672.613	19589
672.664	19392
672.715	18750
672.766	18213
672.817	18769
672.868	18730
672.919	17534
672.970	18269
673.021	18485
673.071	17789
673.122	17339
673.173	17491
673.224	16791
673.275	16902
673.326	17039
673.376	16310
673.427	16622
673.478	17142
673.528	17220
673.579	17213
673.630	16535
673.680	16618
673.731	16577
673.782	15996
673.832	15706
673.883	17598
673.934	17453
673.984	16746
674.035	15597
674.085	16816
674.136	17313
674.186	17203
674.237	19020
674.287	20670
674.338	30096
674.388	20695
674.438	17952
674.489	16439
674.539	17170
674.589	18671
674.640	18140
674.690	17853
674.740	17207
674.791	18898
674.841	19092
674.891	18419
674.942	17244
674.992	15727
675.042	16361
675.092	15532
675.142	14949
675.193	15455
675.243	15975
675.293	15616
675.343	16414
675.393	17815
675.443	17019
675.493	15549
675.543	14946
675.593	14829
675.643	16199
675.693	16803
675.743	15771
675.793	16125
675.843	15034
675.893	15270
675.943	15617
675.993	14298
676.043	14358
676.093	15273
676.142	15440
676.192	14366
676.242	14754
676.292	14568
676.341	13945
676.391	15551
676.441	16539
676.491	14716
676.540	14129
676.590	13805
676.640	14091
676.689	14852
676.739	14366
676.789	13635
676.838	13034
676.888	13450
676.937	13601
676.987	14133
677.037	13292
677.086	13152
677.136	12914
677.185	13610
677.235	13822
677.284	12202
677.333	12811
677.383	13744
677.432	12705
677.482	12331
677.531	12683
677.580	13199
677.630	13558
677.679	12366
677.728	12431
677.778	13469
677.827	12795
677.876	12086
677.925	12398
677.975	12612
678.024	13286
678.073	13553
678.122	12938
678.171	13985
678.220	14503
678.269	14032
678.319	16176
678.368	15678
678.417	15941
678.466	15250
678.515	15139
678.564	15046
678.613	15027
678.662	14018
678.711	14263
678.760	14175
678.809	14114
678.857	13745
678.906	14835
678.955	13837
679.004	14077
679.053	13837
679.102	13774
679.151	14907
679.199	13730
679.248	13323
679.297	13148
679.346	13340
679.394	14259
679.443	13337
679.492	13287
679.540	12970
679.589	12703
679.638	14769
679.686	13691
679.735	12151
679.784	12959
679.832	13634
679.881	14356
679.929	13536
679.978	11770
680.026	11585
680.075	12040
680.123	13148
680.172	12005
680.220	12064
680.268	11301
680.317	12235
680.365	11453
680.414	12246
680.462	12160
680.510	12025
680.559	12545
680.607	10789
680.655	11662
680.703	11544
680.752	12129
680.800	12348
680.848	10122
680.896	11495
680.945	11591
680.993	10891
681.041	12408
681.089	11567
681.137	10544
681.185	10408
681.233	10972
681.258	10991
681.281	10932
681.329	11334
681.377	11666
681.380	11725
681.425	11286
681.473	12102
681.502	13157
681.521	13759
681.569	13742
681.617	12912
681.624	13032
681.665	13184
681.713	13822
681.745	13638
681.761	13420
681.809	13059
681.857	13941
681.867	13799
681.904	12969
681.952	13544
681.989	13998
682.000	14040
682.048	13108
682.096	14778
682.111	14652
682.143	14158
682.191	14778
682.233	14435
682.239	14290
682.286	14748
682.334	15630
682.354	14918
682.382	13812
682.430	14581
682.476	15812
682.477	15767
682.525	15826
682.572	14463
682.598	14646
682.620	14680
682.667	14457
682.715	15063
682.720	15190
682.763	15673
682.810	16555
682.841	16236
682.857	16019
682.905	15820
682.952	17174
682.963	17128
683.000	16484
683.047	17709
683.085	17223
683.095	17042
683.142	16571
683.190	17032
683.206	17078
683.237	16925
683.284	17410
683.328	17805
683.332	17778
683.379	17063
683.426	17640
683.449	17543
683.473	17309
683.521	17194
683.568	17252
683.571	17365
683.615	18147
683.662	18774
683.693	18132
683.709	17681
683.757	17817
683.804	18459
683.814	18629
683.851	19018
683.898	19538
683.936	19044
683.945	18866
683.992	19543
684.039	19142
684.057	19491
684.086	19936
684.133	20690
684.179	20353
684.180	20293
684.227	20063
684.274	21718
684.300	21207
684.321	20569
684.368	20320
684.415	20770
684.422	20878
684.462	21400
684.509	20642
684.543	21062
684.556	21110
684.603	21130
684.649	20810
684.665	20825
684.696	20809
684.743	21289
684.786	21441
684.790	21426
684.837	21406
684.883	22039
684.908	22684
684.930	23289
684.977	24187
685.023	25288
685.029	25226
685.070	24535
685.117	24420
685.150	24441
685.164	24174
685.210	25066
685.257	26317
685.272	26036
685.303	25942
685.350	25889
685.393	26023
685.396	25953
685.443	26046
685.490	25640
685.514	26074
685.536	26716
685.583	27677
685.629	28032
685.636	28032
685.675	27129
685.722	27192
685.757	26755
685.768	26582
685.815	26780
685.861	27128
685.878	26963
685.908	26963
685.954	26636
686.000	27461
686.000	27452
686.047	28774
686.093	29026
686.121	29937
686.139	31011
686.185	32112
686.232	32547
686.242	32787
686.278	31683
686.324	31355
686.363	30315
686.370	30103
686.416	28944
686.463	28195
686.484	27968
686.509	28228
686.555	28204
686.601	28082
686.606	28151
686.647	28592
686.693	28033
686.727	27856
686.739	27797
686.785	28230
686.831	27922
686.848	28108
686.877	28447
686.923	28218
686.969	28100
686.969	28094
687.015	28307
687.061	28012
687.090	28732
687.107	29283
687.153	28786
687.199	29217
687.211	29272
687.245	29169
687.291	28180
687.332	29004
687.336	29122
687.382	29850
687.428	30431
687.453	30361
687.474	30361
687.520	30400
687.565	30874
687.574	30957
687.611	30314
687.657	29462
687.695	28938
687.702	29034
687.748	29389
687.794	31119
687.816	31598
687.839	32404
687.885	32619
687.931	32493
687.937	32635
687.976	31888
688.022	31615
688.058	30846
688.067	30888
688.113	31295
688.158	31529
688.179	31448
688.204	31276
688.249	30945
688.295	31179
688.300	31224
688.340	31768
688.386	32096
688.421	32199
688.431	32362
688.477	32151
688.522	32781
688.542	33273
688.567	33536
688.613	33457
688.658	33103
688.663	33091
688.703	33194
688.749	32886
688.784	33183
688.794	33300
688.839	33079
688.884	32992
688.905	32947
688.930	32933
688.975	32573
689.020	32099
689.026	32217
689.065	33324
689.110	33045
689.146	33186
689.155	33284
689.201	33483
689.246	33253
689.267	33233
689.291	33167
689.336	33384
689.381	33655
689.388	33633
689.426	33662
689.471	33644
689.509	33493
689.516	33538
689.561	33666
689.606	33714
689.630	33742
689.651	33487
689.696	33073
689.741	32401
689.750	32401
689.785	33247
689.830	33171
689.871	33613
689.875	33691
689.920	33700
689.965	33613
689.992	33944
690.010	33905
690.054	33051
690.099	32731
690.112	32729
690.144	33481
690.189	33263
690.233	33619
690.233	33658
690.278	34017
690.323	34063
690.354	33691
690.367	33577
690.412	33906
690.457	33800
690.474	33830
690.501	34188
690.546	34070
690.590	34573
690.595	34532
690.635	34321
690.680	34463
690.716	34535
690.724	34663
690.769	34968
690.813	35853
690.836	35862
690.857	36221
690.902	37067
690.946	38289
690.957	38560
690.991	40551
691.035	42553
691.077	45195
691.080	45688
691.124	54388
691.168	61502
691.198	65843
691.213	66471
691.257	68865
691.301	71168
691.318	72002
691.346	67787
691.390	60442
691.434	53519
691.439	52652
691.478	49224
691.522	45834
691.559	42538
691.567	42471
691.611	41393
691.655	40854
691.680	40137
691.699	39965
691.743	39753
691.787	39756
691.800	39612
691.831	39536
691.875	39405
691.919	39743
691.921	39665
691.964	39649
692.008	39986
692.041	40261
692.052	40428
692.096	40356
692.139	41153
692.162	41134
692.183	40899
692.227	40505
692.271	40194
692.282	40066
692.315	40501
692.359	40768
692.402	41063
692.403	41130
692.447	40778
692.490	40436
692.523	39959
692.534	39981
692.578	40529
692.622	40578
692.643	40399
692.666	40712
692.709	41474
692.753	42176
692.763	42297
692.797	41692
692.840	40657
692.884	39406
692.884	39478
692.928	40181
692.971	40198
693.004	40343
693.015	40557
693.059	41058
693.102	41369
693.124	41515
693.146	41635
693.189	41720
693.233	41600
693.245	41663
693.276	42270
693.320	42520
693.363	43147
693.365	43062
693.407	43456
693.450	44580
693.485	45204
693.493	45464
693.537	46151
693.580	47222
693.605	47618
693.624	48507
693.667	50730
693.710	52624
693.725	53206
693.753	56452
693.797	61812
693.840	67667
693.845	68345
693.883	84658
693.926	101301
693.966	115276
693.970	115644
694.013	117658
694.056	120595
694.086	122114
694.099	116660
694.142	98799
694.185	80971
694.206	72440
694.229	69705
694.272	63820
694.315	57674
694.326	56100
694.358	54617
694.401	52157
694.444	49717
694.446	49504
694.487	49613
694.530	49623
694.566	49114
694.573	49072
694.616	48631
694.659	48029
694.686	47426
694.702	46783
694.745	44851
694.787	43070
694.806	42173
694.830	41853
694.873	40836
694.916	40368
694.926	40069
694.959	40908
695.002	42004
695.044	43185
695.046	43142
695.087	42631
695.130	41925
695.166	41200
695.172	41401
695.215	42102
695.258	42926
695.286	43318
695.301	43352
695.343	43277
695.386	43129
695.406	42935
695.428	43039
695.471	43113
695.514	43162
695.526	43079
695.556	42856
695.599	42616
695.641	42184
695.646	42047
695.684	42766
695.726	43480
695.766	43831
695.769	43895
695.811	43739
695.854	43439
695.886	43201
695.896	43348
695.938	43302
695.981	43380
696.005	43342
696.023	43248
696.065	42745
696.108	42251
696.125	42029
696.150	42268
696.192	42315
696.235	42438
696.245	42369
696.277	43341
696.319	44372
696.361	45410
696.365	45403
696.404	44893
696.446	44141
696.485	43458
696.488	43595
696.530	43879
696.572	44328
696.604	44498
696.614	44514
696.656	44259
696.698	43806
696.724	43466
696.740	43445
696.783	43065
696.825	42900
696.844	42639
696.867	42492
696.909	42092
696.951	41688
696.964	41471
696.992	42096
697.034	42780
697.076	43449
697.083	43481
697.118	43332
697.160	42943
697.202	42558
697.203	42445
697.244	42815
697.286	43083
697.323	43247
697.327	43370
697.369	43616
697.411	43703
697.442	43684
697.453	43743
697.494	43581
697.536	43467
697.562	43298
697.578	43714
697.620	44477
697.661	45168
697.682	45436
697.703	45518
697.744	45445
697.786	45411
697.801	45278
697.828	45796
697.869	46486
697.911	47109
697.921	47137
697.952	47734
697.994	48383
698.035	49083
698.040	49041
698.077	47950
698.118	46619
698.160	45175
698.160	45053
698.201	44722
698.243	44194
698.279	43658
698.284	43803
698.325	44142
698.367	44452
698.399	44579
698.408	44751
698.449	45030
698.491	45294
698.518	45380
698.532	45218
698.573	44374
698.614	43497
698.638	42887
698.656	43247
698.697	43843
698.738	44437
698.757	44612
698.779	44889
698.820	45177
698.862	45485
698.877	45482
698.903	46256
698.944	47303
698.985	48363
698.996	48534
699.026	48755
699.067	48893
699.116	48934
699.235	46528
699.354	46130
699.474	44740
699.593	46093
699.713	49790
699.832	48872
699.951	44251
700.070	47019
700.190	43464
700.309	44178
700.428	43922
700.547	47284
700.667	44079
700.786	44667
700.905	46737
701.024	43021
701.143	44741
701.262	44643
701.381	39951
701.500	40408
701.619	42627
701.738	44952
701.857	41289
701.976	40268
702.095	39359
702.214	38614
702.333	42445
702.452	42919
702.571	41433
702.690	39060
702.809	38453
702.928	39398
703.047	38466
703.165	38677
703.284	36952
703.403	38244
703.522	37592
703.640	41609
703.759	41585
703.878	45489
703.997	59435
704.115	41294
704.234	37585
704.353	36762
704.471	36504
704.590	35586
704.708	35820
704.827	34826
704.946	34302
705.064	36533
705.183	40274
705.301	37470
705.420	42743
705.538	60240
705.656	56017
705.775	48021
705.893	47655
706.012	68751
706.130	84748
706.249	50502
706.367	47738
706.485	48696
706.604	51043
706.722	48454
706.840	48889
706.958	55420
707.077	57821
707.195	49702
707.313	45015
707.431	43427
707.549	43545
707.668	44032
707.786	43901
707.904	44241
708.022	43879
708.140	41839
708.258	41374
708.376	41865
708.494	41452
708.612	42261
708.730	46084
708.848	63622
708.966	61682
709.084	56111
709.202	52430
709.320	50881
709.438	52892
709.556	53892
709.674	54036
709.791	53444
709.909	53320
710.027	50591
710.145	49468
710.263	50574
710.380	51967
710.498	50983
710.616	49448
710.733	49835
710.851	50134
710.969	51169
711.086	51330
711.204	50160
711.322	49196
711.439	49043
711.557	49212
711.674	49876
711.792	47975
711.909	48564
712.027	48260
712.144	50893
712.262	46142
712.379	46705
712.497	50987
712.614	69516
712.732	73661
712.849	61127
712.966	57569
713.084	58418
713.201	69297
713.318	63687
713.436	60824
713.553	58816
713.670	60264
713.787	59445
713.905	63490
714.022	68028
714.139	58047
714.256	57729
714.373	64141
714.490	71287
714.608	96649
714.725	182715
714.842	722441
714.959	931476
715.076	110397
715.193	65177
715.310	57935
715.427	56795
715.544	51794
715.661	49944
715.778	50431
715.895	49963
716.011	56157
716.128	54658
716.245	50540
716.362	50886
716.479	52687
716.596	56481
716.713	48861
716.829	48996
716.946	48472
717.063	47815
717.180	44565
717.296	45471
717.413	45373
717.530	45596
717.646	44757
717.763	45633
717.880	44708
717.996	42767
718.113	42898
718.229	44214
718.346	43879
718.462	42634
718.579	42036
718.695	47302
718.812	65632
718.928	61908
719.045	57560
719.161	48156
719.277	40858
719.394	40832
719.510	39100
719.626	41665
719.743	41360
719.859	52020
719.975	55371
720.092	76898
720.208	214803
720.324	550541
720.440	108355
720.557	47407
720.673	49088
720.789	58771
720.905	80491
721.021	162821
721.137	78203
721.253	40854
721.369	40993
721.486	41361
721.602	44315
721.718	61729
721.834	40719
721.950	35209
722.066	36513
722.181	35310
722.297	35817
722.413	37437
722.529	35365
722.645	34411
722.761	33622
722.877	34409
722.993	34058
723.108	33567
723.224	36810
723.340	34785
723.456	34945
723.571	32032
723.687	33465
723.803	32476
723.918	32471
724.034	32191
724.150	32864
724.265	33593
724.381	35061
724.497	61739
724.612	90573
724.728	33616
724.843	30467
724.959	31777
725.074	34904
725.190	59631
725.305	81288
725.421	34763
725.536	32770
725.651	27682
725.767	27712
725.882	28944
725.997	27457
726.113	28727
726.228	28291
726.343	27272
726.459	28132
726.574	26065
726.689	29435
726.804	27967
726.920	26735
727.035	28730
727.150	27211
727.265	28536
727.380	26645
727.495	28037
727.610	26899
727.725	24507
727.841	27210
727.956	28710
728.071	41370
728.186	42199
728.301	27694
728.416	24183
728.531	26206
728.645	25568
728.760	23616
728.875	24974
728.990	25660
729.105	23377
729.220	25712
729.335	24898
729.449	26707
729.564	24246
729.679	23563
729.794	22626
729.908	23430
730.023	25967
730.138	25454
730.253	21673
730.367	22726
730.482	23392
730.596	21830
730.711	22556
730.826	24353
730.940	23778
731.055	24548
731.169	24257
731.284	23020
731.398	22113
731.513	23415
731.627	26148
731.742	26645
731.856	27619
731.970	32203
732.085	25445
732.199	28702
732.313	33212
732.428	47405
732.542	95437
732.656	264437
732.771	189120
732.885	45180
732.999	30563
733.113	27288
733.227	28127
733.342	26218
733.456	23017
733.570	24197
733.684	22673
733.798	21831
733.912	23428
734.026	22387
734.140	22045
734.254	21419
734.368	24185
734.482	36256
734.596	51613
734.710	23576
734.824	21374
734.938	20491
735.052	19960
735.166	20892
735.280	23904
735.393	21834
735.507	20489
735.621	20253
735.735	26152
735.849	45448
735.962	27332
736.076	19865
736.190	21068
736.303	22851
736.417	27822
736.531	37781
736.644	21189
736.758	21150
736.872	19365
736.985	19120
737.099	18577
737.212	17902
737.326	17827
737.439	18189
737.553	18057
737.666	18683
737.780	17938
737.893	17719
738.007	18240
738.120	18162
738.233	18563
738.347	17798
738.460	17354
738.573	16644
738.687	18073
738.800	19616
738.913	18036
739.026	20740
739.140	19447
739.253	18823
739.366	17881
739.479	16822
739.592	17408
739.705	17062
739.818	15578
739.932	17019
740.045	16534
740.158	16301
740.271	16694
740.384	17003
740.497	16254
740.610	15889
740.723	16321
740.836	16733
740.949	16657
741.062	16590
741.174	21028
741.287	20205
741.400	17067
741.513	16360
741.626	15928
741.739	17086
741.851	17676
741.964	16512
742.077	15316
742.189	15594
742.302	16239
742.415	16566
742.527	16399
742.640	16050
742.753	16238
742.865	14144
742.978	14008
743.090	14548
743.203	14637
743.316	15360
743.428	14707
743.541	15232
743.653	14256
743.766	14705
743.878	14742
743.990	15131
744.103	19714
744.215	19724
744.327	15347
744.440	15973
744.552	16847
744.664	22209
744.777	18200
744.889	14487
745.001	14056
745.113	13674
745.226	13735
745.338	13684
745.450	14129
745.562	14563
745.674	13836
745.786	13361
745.898	13060
746.010	13948
746.122	13357
746.234	14983
746.347	14045
746.459	13574
746.570	14212
746.682	12429
746.794	12941
746.906	13528
747.018	13406
747.130	13491
747.242	13224
747.354	12497
747.466	13610
747.577	14053
747.689	14019
747.801	12969
747.913	12712
748.024	12571
748.136	12547
748.248	13661
748.359	13334
748.471	12785
748.583	13223
748.694	12998
748.806	14026
748.918	16560
749.029	17350
749.141	15293
749.252	13752
749.364	14499
749.475	14446
749.587	24607
749.698	22125
749.809	13208
749.921	12350
750.032	12464
750.144	12603
750.255	12410
750.366	12098
750.478	12469
750.589	12449
750.700	13166
750.811	12842
750.923	13375
751.034	14361
751.145	24081
751.256	29644
751.367	14516
751.479	12221
751.590	12886
751.701	11997
751.812	11632
751.923	11750
752.034	11214
752.145	12393
752.256	12247
752.367	12210
752.478	10976
752.589	11882
752.700	11681
752.811	10965
752.922	11581
753.032	12292
753.143	13263
753.254	14624
753.365	11575
753.476	11422
753.586	11770
753.697	11452
753.808	12004
753.919	10971
754.029	11185
754.140	11060
754.251	10488
754.361	11357
754.472	10858
754.582	11866
754.693	11778
754.804	12257
754.914	10652
755.025	10156
755.135	11184
755.246	10304
755.356	10916
755.466	10626
755.577	10347
755.687	10556
755.798	11294
755.908	11022
756.018	10791
756.129	11312
756.239	10993
756.349	11020
756.460	10510
756.570	11611
756.680	11344
756.790	11199
756.900	12137
757.011	12721
757.121	10678
757.231	10192
757.341	10829
757.451	10451
757.561	11294
757.671	10655
757.781	10625
757.891	11157
758.001	10868
758.111	12473
758.221	11383
758.331	11144
758.441	12700
758.551	13345
758.661	14738
758.771	15928
758.880	11991
758.990	13145
759.100	13501
759.210	12630
759.320	12669
759.429	13194
759.539	12302
759.649	12768
759.758	12983
759.868	13718
759.978	13365
760.087	13687
760.197	13855
760.307	13594
760.416	13872
760.526	13755
760.635	13871
760.745	13109
760.854	14548
760.964	14647
761.073	15535
761.182	15483
761.292	14687
761.401	14146
761.511	15210
761.620	14150
761.729	13877
761.839	14430
761.948	15209
762.057	13746
762.166	14708
762.276	14171
762.385	14990
762.494	13335
762.603	13502
762.712	14104
762.822	15306
762.931	15617
763.040	14802
763.149	15486
763.258	14808
763.367	15505
763.476	15459
763.585	15954
763.694	17495
763.803	17576
763.912	18040
764.021	18520
764.130	18334
764.238	18649
764.347	19698
764.456	19764
764.565	22405
764.674	21799
764.783	22855
764.891	24180
765.000	25640
765.109	27405
765.217	29190
765.326	34132
765.435	39571
765.543	48051
765.652	52202
765.761	62694
765.869	78610
765.978	107497
766.086	157125
766.195	252032
766.303	451047
766.412	904428
766.520	1568197
766.629	1386306
766.737	958665
766.846	447909
766.954	249125
767.062	162430
767.171	115564
767.279	94544
767.387	70524
767.496	54795
767.604	47895
767.712	42109
767.820	37429
767.928	35320
768.037	32643
768.145	29976
768.253	29782
768.361	29280
768.469	27132
768.577	27525
768.685	27849
768.793	28608
768.901	29720
769.009	32374
769.117	36656
769.225	40581
769.333	49976
769.441	67792
769.549	102458
769.657	175622
769.765	355051
769.873	846998
769.981	1325650
770.088	922590
770.196	362489
770.304	169444
770.412	104367
770.519	75482
770.627	59875
770.735	46562
770.842	38895
770.950	34194
771.058	29872
771.165	28951
771.273	25488
771.380	25066
771.488	22783
771.595	22070
771.703	22531
771.810	21505
771.918	20122
772.025	18671
772.133	18098
772.240	19967
772.348	18357
772.455	18240
772.562	17034
772.670	17201
772.777	17180
772.884	16894
772.991	15526
773.099	16020
773.206	14682
773.313	15820
773.420	14603
773.528	14033
773.635	14639
773.742	15525
773.849	14643
773.956	13993
774.063	13738
774.170	13725
774.277	14431
774.384	15057
774.491	14628
774.598	14052
774.705	14451
774.812	14481
774.919	16984
775.026	15069
775.133	15151
775.239	14199
775.346	13318
775.453	14161
775.560	13961
775.667	13171
775.773	13268
775.880	13222
775.987	13034
776.093	13357
776.200	12363
776.307	12787
776.413	12598
776.520	12505
776.627	13007
776.733	12512
776.840	12462
776.946	12384
777.053	12223
777.159	12126
777.266	12133
777.372	12535
777.478	11273
777.585	12296
777.691	12620
777.798	11263
777.904	12101
778.010	12760
778.117	16666
778.223	16366
778.329	12240
778.435	12760
778.542	12202
778.648	11942
778.754	11722
778.860	10985
778.966	12597
779.072	11345
779.178	11434
779.284	11452
779.391	10860
779.497	10617
779.603	12272
779.708	11575
779.815	13698
779.920	18122
780.026	40566
780.132	99887
780.238	29776
780.344	12597
780.450	10734
780.556	10844
780.661	10703
780.767	10747
780.873	11177
780.979	10359
781.085	10369
781.190	10878
781.296	10398
781.402	9498
781.507	10486
781.613	10630
781.719	9422
781.824	9932
781.930	10281
782.035	8928
782.141	10056
782.246	10807
782.352	9886
782.457	9276
782.563	10131
782.668	9408
782.773	10858
782.879	10619
782.984	11371
783.090	9956
783.195	11226
783.300	13855
783.405	13667
783.511	10756
783.616	10864
783.721	10202
783.826	11077
783.932	10337
784.037	9565
784.142	9925
784.247	9868
784.352	10679
784.457	9533
784.562	9153
784.667	9261
784.772	9509
784.877	9381
784.982	8723
785.087	9491
785.192	9339
785.297	8502
785.402	9321
785.507	8706
785.611	9703
785.716	8960
785.821	8877
785.926	9534
786.031	8064
786.135	8870
786.240	9876
786.345	8676
786.450	8653
786.554	8222
786.659	8849
786.763	8103
786.868	9348
786.973	8907
787.077	8549
787.182	7759
787.286	7705
787.391	8661
787.495	8177
787.600	8640
787.704	8521
787.809	7822
787.913	8692
788.017	7776
788.122	8046
788.226	8686
788.330	7517
788.435	7730
788.539	7615
788.643	9061
788.747	7802
788.852	7239
788.956	8154
789.060	7117
789.164	7839
789.268	7747
789.372	7067
789.476	8016
789.580	7643
789.684	7857
789.788	6167
789.892	7596
789.996	7497
790.100	7674
790.204	7753
790.308	8064
790.412	7935
790.516	8961
790.620	8200
790.724	9019
790.828	7318
790.931	8231
791.035	8265
791.139	7947
791.242	8806
791.346	8536
791.450	7641
791.554	7132
791.657	7045
791.761	7070
791.864	7857
791.968	8397
792.072	7422
792.175	7068
792.279	7211
792.382	7612
792.486	6846
792.589	8584
792.693	7684
792.796	8185
792.899	7813
793.003	7313
793.106	7118
793.209	7334
793.313	7971
793.416	7692
793.519	6846
793.623	7772
793.726	9375
793.829	13605
793.932	9154
794.035	7370
794.138	7328
794.242	7865
794.345	7793
794.448	8894
794.551	10539
794.654	15635
794.757	23647
794.860	47554
794.963	20311
795.066	10318
795.169	7968
795.272	7252
795.375	6808
795.477	6618
795.580	6829
795.683	6193
795.786	6129
795.889	5262
795.991	6668
796.094	7098
796.197	7201
796.300	8460
796.402	6894
796.505	6250
796.608	6236
796.710	5677
796.813	6293
796.915	6629
797.018	6072
797.120	6412
797.223	5549
797.326	6416
797.428	5837
797.530	6382
797.633	6173
797.735	7047
797.838	7800
797.940	12436
798.042	12852
798.145	6406
798.247	6172
798.349	5648
798.452	5392
798.554	5375
798.656	6061
798.758	5848
798.860	5821
798.962	6092
799.065	6310
799.167	5786
799.269	6584
799.371	6288
799.473	6275
799.575	7547
799.677	9648
799.779	9432
799.881	8438
799.983	10161
800.085	8869
800.187	6218
800.289	5854
800.390	6003
800.492	6223
800.594	5587
800.696	6209
800.798	4984
800.899	5238
801.001	5363
801.103	5647
801.205	5664
801.306	5289
801.408	4924
801.509	5455
801.611	5173
801.713	4826
801.814	5576
801.916	4887
802.017	4846
802.119	4956
802.220	4358
802.322	4804
802.423	6515
802.525	7348
802.626	8709
802.727	5508
802.829	6214
802.930	5381
803.031	5026
803.133	4986
803.234	4419
803.335	4974
803.436	5241
803.538	4863
803.639	5472
803.740	4752
803.841	4427
803.942	5807
804.043	5686
804.144	4713
804.245	4777
804.346	4435
804.447	4548
804.548	5185
804.649	7168
804.750	8931
804.851	5650
804.952	4832
805.053	4971
805.154	4213
805.255	4249
805.355	3671
805.456	5437
805.557	4503
805.658	3994
805.758	4757
805.859	4421
805.960	4172
806.061	4839
806.161	4794
806.262	4693
806.362	4179
806.463	4341
806.564	4850
806.664	5198
806.765	5679
806.865	6946
806.966	7858
807.066	4888
807.166	5849
807.267	4499
807.367	4672
807.468	4634
807.568	4273
807.668	4895
807.769	4507
807.869	4854
807.969	4227
808.069	4591
808.170	5349
808.270	4063
808.370	5054
808.470	5516
808.570	6037
808.670	6826
808.770	4790
808.870	3620
808.970	4527
809.070	4887
809.170	3941
809.271	5384
809.370	4998
809.470	4998
809.570	4175
809.670	3836
809.770	3877
809.870	4892
809.970	4880
810.070	4410
810.169	4203
810.269	4037
810.369	4870
810.469	4859
810.568	4318
810.668	4700
810.768	3883
810.867	4453
810.967	4319
811.066	4182
811.166	3926
811.265	4484
811.365	3522
811.464	4782
811.564	4028
811.663	3900
811.763	5334
811.862	4573
811.962	4458
812.061	4458
812.160	4363
812.260	4916
812.359	5756
812.458	7508
812.557	12943
812.657	28303
812.756	55246
812.855	28501
812.954	9153
813.053	6460
813.153	5824
813.252	5330
813.351	5114
813.450	5572
813.549	5097
813.648	5143
813.747	4289
813.846	5553
813.945	4661
814.044	5104
814.143	5321
814.242	4909
814.341	5331
814.439	4427
814.538	5103
814.637	5730
814.736	5610
814.835	4966
814.933	6213
815.032	5939
815.131	6413
815.229	5825
815.328	7408
815.427	7882
815.525	6725
815.624	7797
815.722	7306
815.821	7608
815.919	7864
816.018	7685
816.116	9059
816.215	8994
816.313	9131
816.412	8953
816.510	9378
816.609	10399
816.707	10385
816.805	11248
816.904	11170
817.002	12260
817.100	13280
817.198	13624
817.296	14920
817.395	16735
817.493	19448
817.591	22078
817.689	25507
817.787	32658
817.885	43703
817.983	65396
818.081	102782
818.179	194616
818.277	398022
818.375	824885
818.473	916713
818.571	466795
818.669	206301
818.767	123375
818.865	96013
818.963	89411
819.061	99208
819.158	129928
819.256	198275
819.354	352097
819.452	661687
819.549	1146728
819.647	1019229
819.745	569053
819.842	281987
819.940	164105
820.038	108636
820.135	77376
820.233	60617
820.330	46642
820.428	37775
820.525	32110
820.623	27642
820.720	24814
820.818	21875
820.915	20703
821.012	17963
821.110	16923
821.207	14866
821.304	14000
821.402	13249
821.499	12796
821.596	12270
821.693	11460
821.791	11573
821.888	11461
821.985	11992
822.082	14365
822.179	16896
822.276	10444
822.373	8907
822.470	8015
822.567	7768
822.664	8106
822.761	7605
822.858	7252
822.955	7198
823.052	7046
823.149	6638
823.246	6975
823.343	7626
823.440	6896
823.536	5467
823.633	5603
823.730	6149
823.827	5782
823.923	6004
824.020	6908
824.117	5383
824.213	5529
824.310	6746
824.407	4995
824.503	4197
824.600	4900
824.696	5693
824.793	5224
824.889	5485
824.986	4803
825.082	4727
825.179	4306
825.275	4561
825.371	4962
825.468	5381
825.564	3989
825.660	4719
825.757	4160
825.853	4864
825.949	4116
826.045	4454
826.142	3628
826.238	4104
826.334	3872
826.430	3305
826.526	5193
826.622	3655
826.718	4969
826.814	4191
826.910	4168
827.006	3890
827.102	3665
827.198	3996
827.294	4446
827.390	4153
827.486	4882
827.582	3546
827.678	2997
827.774	3020
827.869	3730
827.965	4304
828.061	3654
828.157	2905
828.252	3709
828.348	4279
828.444	3807
828.539	3794
828.635	4214
828.731	3812
828.826	3697
828.922	4259
829.017	3276
829.113	3982
829.208	4331
829.304	4143
829.399	3833
829.495	4405
829.590	3979
829.685	3421
829.781	3751
829.876	3953
829.971	3725
830.066	2952
830.162	3333
830.257	3832
830.352	4596
830.447	3770
830.543	3487
830.638	3020
830.733	4052
830.828	4786
830.923	3446
831.018	3948
831.113	3365
831.208	4124
831.303	3737
831.398	4092
831.493	3282
831.588	2931
831.683	3787
831.778	3421
831.873	3131
831.967	2893
832.062	3215
832.157	3284
832.252	3769
832.346	3614
832.441	3607
832.536	4562
832.631	6110
832.725	11055
832.820	13201
832.914	4558
833.009	3031
833.104	3829
833.198	3552
833.293	4509
833.387	4282
833.482	3358
833.576	3933
833.670	3477
833.765	3666
833.859	3616
833.954	4207
834.048	4405
834.142	3429
834.237	3478
834.331	3207
834.425	3230
834.519	2622
834.613	3398
834.708	2677
834.802	2993
834.896	2598
834.990	3379
835.084	2893
835.178	2317
835.272	2729
835.366	3213
835.460	3638
835.554	3545
835.648	3369
835.742	2588
835.836	3235
835.930	2106
836.024	3075
836.117	3846
836.211	3888
836.305	4098
836.399	5959
836.493	8576
836.586	4677
836.680	2968
836.774	3262
836.867	3086
836.961	3009
837.055	2845
837.148	2359
837.242	3108
837.335	3811
837.429	2907
837.522	2976
837.616	3499
837.709	5255
837.803	6993
837.896	8631
837.989	3878
838.083	4420
838.176	5236
838.269	10295
838.363	13986
838.456	4730
838.549	3265
838.642	5180
838.735	7816
838.829	14337
838.922	9964
839.015	3108
839.108	2630
839.201	2584
839.294	2312
839.387	3281
839.480	2549
839.573	4047
839.666	4911
839.759	7819
839.852	4484
839.945	2975
840.038	2822
840.131	3276
840.223	2610
840.316	2414
840.409	3273
840.502	2805
840.594	2913
840.687	3023
840.780	3049
840.873	1723
840.965	2803
841.058	2999
841.150	5560
841.243	8151
841.336	10143
841.428	3252
841.521	2808
841.613	2532
841.706	3425
841.798	3725
841.890	3392
841.983	2393
842.075	2638
842.167	3411
842.260	3712
842.352	3921
842.444	5286
842.537	6620
842.629	10590
842.721	17627
842.813	7971
842.905	2739
842.997	2943
843.090	3779
843.182	4940
843.274	5453
843.366	11623
843.458	21735
843.550	45396
843.642	39622
843.734	10064
843.826	3734
843.918	4953
844.009	4805
844.101	3066
844.193	2842
844.285	3388
844.377	3412
844.469	3060
844.560	2909
844.652	2322
844.744	2790
844.835	2588
844.927	3134
845.019	2745
845.110	4453
845.202	3260
845.293	2557
845.385	2523
845.476	1986
845.568	2746
845.659	2822
845.751	2350
845.842	2955
845.934	2644
846.025	1804
846.116	3327
846.208	864
846.299	2548
846.390	2607
846.482	2551
846.573	2446
846.664	4075
846.755	4967
846.846	7158
846.937	7191
847.029	3516
847.120	2330
847.211	2445
847.302	2741
847.393	2151
847.484	2215
847.575	2250
847.666	1198
847.757	2731
847.847	1872
847.938	2823
848.029	2243
848.120	2063
848.211	2693
848.302	1633
848.392	2641
848.483	1902
848.574	2133
848.664	2425
848.755	2813
848.846	2173
848.936	2001
849.027	2592
849.118	2527
849.208	2105
849.299	2934
849.389	3290
849.480	4581
849.570	6948
849.661	11816
849.751	17421
849.841	33675
849.932	18986
850.022	4441
850.112	3044
850.203	2881
850.293	2657
850.383	2735
850.474	2780
850.564	1713
850.654	2541
850.744	2262
850.834	2175
850.924	2617
851.014	2504
851.104	2427
851.194	2551
851.284	2877
851.374	3700
851.464	5007
851.554	3881
851.644	2261
851.734	3571
851.824	4542
851.914	4915
852.004	3151
852.094	2276
852.183	2404
852.273	2215
852.363	1728
852.452	2454
852.542	2107
852.632	2281
852.721	1659
852.811	2013
852.901	2807
852.990	2959
853.080	1683
853.169	2195
853.259	2888
853.348	2620
853.438	2681
853.527	3301
853.617	4200
853.706	5881
853.795	9390
853.885	15467
853.974	33743
854.063	63143
854.152	101848
854.242	190621
854.331	111151
854.420	21201
854.509	7225
854.598	5176
854.687	5376
854.777	5409
854.866	5379
854.955	4243
855.044	3187
855.133	3181
855.222	2724
855.311	2336
855.400	2725
855.488	2518
855.577	1905
855.666	2587
855.755	2958
855.844	2850
855.933	2537
856.021	4228
856.110	2616
856.199	2157
856.288	1699
856.376	2162
856.465	1919
856.554	2020
856.642	1520
856.731	2277
856.819	2202
856.908	2186
856.996	1627
857.085	2211
857.173	2214
857.262	1428
857.350	1913
857.438	1793
857.527	1948
857.615	2155
857.703	1321
857.792	2258
857.880	1797
857.968	2553
858.056	1875
858.145	2049
858.233	2548
858.321	1959
858.409	2493
858.497	1566
858.585	1323
858.673	2905
858.761	1279
858.849	1425
858.937	1757
859.025	1992
859.113	2065
859.201	2226
859.289	1959
859.377	2072
859.465	1841
859.552	2001
859.640	1361
859.728	2007
859.816	2477
859.903	1987
859.991	1368
860.079	1163
860.166	2242
860.254	1485
860.342	1909
860.429	1683
860.517	2387
860.604	1713
860.692	2228
860.779	1087
860.867	2459
860.954	2244
861.042	2627
861.129	2988
861.216	2282
861.304	2478
861.391	2106
861.478	1733
861.565	1500
861.653	2131
861.740	2029
861.827	2119
861.914	1974
862.001	1675
862.089	2196
862.176	2056
862.263	2575
862.350	1710
862.437	2053
862.524	1897
862.611	1126
862.698	1897
862.785	1525
862.871	1887
862.958	1661
863.045	1910
863.132	1713
863.219	1892
863.306	1139
863.392	1844
863.479	2057
863.566	1314
863.652	1755
863.739	1688
863.826	2130
863.912	931
863.999	1818
864.086	2029
864.172	2313
864.259	1663
864.345	1790
864.432	2095
864.518	1855
864.604	1507
864.691	2573
864.777	2590
864.863	3089
864.950	1760
865.036	2097
865.122	3104
865.209	3362
865.295	3792
865.381	3522
865.467	3754
865.553	4050
865.639	4334
865.726	6123
865.812	8723
865.898	16435
865.984	31760
866.070	47511
866.156	75222
866.242	112478
866.328	44841
866.414	10067
866.499	5258
866.585	4833
866.671	4378
866.757	3545
866.843	3742
866.928	3384
867.014	2702
867.100	2693
867.186	3670
867.271	3583
867.357	4017
867.442	5183
867.528	6643
867.614	5562
867.699	2778
867.785	2798
867.870	2054
867.956	2727
868.041	2510
868.127	3219
868.212	3309
868.297	4068
868.383	3939
868.468	3897
868.553	4238
868.639	6832
868.724	9188
868.809	13403
868.894	18422
868.979	6034
869.065	2973
869.150	2252
869.235	3169
869.320	2210
869.405	2247
869.490	1986
869.575	2232
869.660	2166
869.745	2217
869.830	1912
869.915	2491
870.000	2490
870.085	1817
870.169	1483
870.254	2229
870.339	2727
870.424	1359
870.509	2026
870.593	1620
870.678	2368
870.763	2877
870.847	1941
870.932	1469
871.016	2293
871.101	2420
871.186	2084
871.270	1302
871.355	1794
871.439	2545
871.523	2320
871.608	1822
871.692	1721
871.777	1638
871.861	2250
871.945	1558
872.030	2825
872.114	2164
872.198	1919
872.282	1683
872.367	1450
872.451	1212
872.535	1750
872.619	868
872.703	2166
872.787	1132
872.871	2031
872.955	2392
873.039	1602
873.123	1482
873.207	1929
873.291	1438
873.375	1743
873.459	2063
873.543	2081
873.627	1829
873.711	1699
873.794	1874
873.878	1818
873.962	1491
874.045	1002
874.129	1839
874.137	1822
874.213	1653
874.245	1700
874.296	1779
874.352	1646
874.380	1582
874.460	1356
874.464	1348
874.547	989
874.568	1148
874.631	1616
874.676	1638
874.714	1668
874.784	1466
874.798	1424
874.881	2388
874.892	2208
874.965	928
874.999	1453
875.048	2185
875.107	1427
875.131	1122
875.215	1722
875.215	1721
875.298	862
875.323	794
875.381	668
875.430	1484
875.465	2063
875.538	2068
875.548	2066
875.631	2173
875.646	2143
875.714	1912
875.753	1171
875.798	374
875.861	1025
875.881	1236
875.964	1083
875.968	1092
876.047	1290
876.076	1310
876.130	1231
876.183	1441
876.213	1587
876.291	1447
876.296	1439
876.379	2300
876.398	2319
876.462	2322
876.506	1915
876.545	1657
876.613	1685
876.628	1630
876.711	1299
876.721	1335
876.794	1761
876.828	1477
876.877	1154
876.935	1744
876.960	1919
877.043	1552
877.043	1551
877.125	1340
877.150	1414
877.208	1658
877.258	1813
877.291	1833
877.365	1959
877.374	1988
877.456	1839
877.472	1792
877.539	1482
877.579	1685
877.622	1926
877.687	1759
877.704	1697
877.787	2084
877.794	2036
877.869	1643
877.901	1656
877.952	1667
878.008	1943
878.034	2009
878.115	1575
878.117	1571
878.199	1515
878.222	1480
878.282	1289
878.329	1386
878.364	1399
878.437	1776
878.447	1813
878.529	540
878.544	564
878.611	932
878.651	834
878.694	810
878.758	1064
878.776	1059
878.858	824
878.865	849
878.941	1093
878.972	1069
879.023	1182
879.078	1183
879.105	1206
879.185	1310
879.187	1305
879.269	1618
879.292	1511
879.351	1477
879.399	1396
879.433	1210
879.506	1178
879.516	1182
879.598	751
879.613	906
879.680	1511
879.720	1245
879.762	923
879.827	547
879.844	496
879.926	643
879.933	664
880.007	1046
880.040	1188
880.089	1128
880.147	1281
880.171	1432
880.253	1896
880.254	1908
880.335	3522
880.360	4192
880.417	5690
880.467	6604
880.499	7542
880.574	11031
880.580	11196
880.662	15634
880.680	14060
880.744	8335
880.787	5007
880.825	2233
880.893	1353
880.907	1218
880.989	1005
881.000	983
881.070	695
881.106	558
881.152	507
881.213	593
881.233	581
881.315	148
881.319	174
881.396	1043
881.426	1149
881.478	1185
881.532	889
881.559	608
881.639	383
881.641	382
881.722	690
881.745	563
881.803	298
881.852	421
881.885	507
881.958	740
881.966	776
882.047	1093
882.064	1237
882.129	1654
882.171	1605
882.210	1607
882.277	2049
882.291	2174
882.372	3866
882.383	3733
882.454	2345
882.489	1694
882.535	892
882.596	564
882.616	451
882.697	502
882.702	487
882.778	848
882.808	1027
882.859	1009
882.914	909
882.940	771
883.020	406
883.021	406
883.102	346
883.127	454
883.183	545
883.233	498
883.264	364
883.339	308
883.345	354
883.426	487
883.445	576
883.507	538
883.551	640
883.587	598
883.657	431
883.668	442
883.749	447
883.763	487
883.830	520
883.869	403
883.910	574
883.975	681
883.991	514
884.072	124
884.081	19
884.152	9
884.187	277
884.233	367
884.292	376
884.314	494
884.394	707
884.398	732
884.475	522
884.504	417
884.555	475
884.610	373
884.636	178
884.716	-63
884.716	-61
884.797	299
884.821	482
884.877	298
884.927	102
884.958	152
885.033	202
885.038	205
885.118	224
885.139	276
885.199	349
885.244	418
885.279	375
885.350	197
885.359	200
885.439	250
885.456	268
885.520	330
885.561	327
885.600	271
885.667	156
885.680	130
885.760	48
885.773	44
885.840	23
885.878	131
885.920	409
885.984	434
886.000	402
886.080	514
886.089	532
886.160	702
886.195	625
886.240	392
886.300	606
886.320	656
886.400	381
886.406	355
886.480	447
886.511	690
886.560	638
886.616	417
886.640	563
886.720	1106
886.722	1115
886.800	283
886.827	103
886.879	-28
886.932	-258
886.959	-77
887.038	674
887.039	675
887.119	730
887.143	798
887.198	487
887.248	37
887.278	18
887.354	242
887.358	234
887.437	-38
887.459	-57
887.517	255
887.564	404
887.596	261
887.669	2
887.676	24
887.755	372
887.774	441
887.835	255
887.880	118
887.914	195
887.985	373
887.994	351
888.073	237
888.090	200
888.153	459
888.195	632
888.232	286
888.300	-378
888.311	-329
888.391	57
888.405	136
888.470	247
888.510	321
888.549	201
888.615	-6
888.628	45
888.708	358
888.720	412
888.787	492
888.825	525
888.866	156
888.930	-420
888.945	-378
889.024	-110
889.035	-70
889.103	-161
889.140	-191
889.182	-262
889.245	-384
889.261	-275
889.340	277
889.349	348
889.419	401
889.454	422
889.498	160
889.559	-193
889.577	-58
889.656	564
889.664	630
889.735	251
889.768	72
889.814	341
889.873	703
889.978	0
890.083	-155
890.187	65
890.292	-12
890.397	387
890.501	47
890.606	-302
890.710	-14
890.815	-43
890.919	481
891.024	216
891.128	378
891.233	553
891.337	278
891.442	34
891.546	-107
891.650	-593
891.755	235
891.859	205
891.963	-20
892.068	398
892.172	-215
892.276	-226
892.380	426
892.484	-789
892.589	847
892.693	167
892.797	27
892.901	65
893.005	-204
893.109	39
893.213	-400
893.317	299
893.421	538
893.525	305
893.629	837
893.733	-671
893.837	281
893.941	-230
894.045	-182
894.148	-213
894.252	176
894.356	206
894.460	465
894.564	299
894.667	-639
894.771	-639
894.875	-360
894.978	-170
895.082	197
895.186	-757
895.289	212
895.393	715
895.496	-176
895.600	-630
895.703	1296
895.807	-78
895.910	-389
896.014	244
896.117	-37
896.221	384
896.324	160
896.427	-391
896.531	-857
896.634	-489
896.737	433
896.840	-598
896.944	-362
897.047	-221
897.150	-292
897.253	-224
897.356	181
897.460	-306
897.563	-75
897.666	-753
897.769	-110
897.872	443
897.975	-352
898.078	-567
898.181	-190
898.284	221
898.387	304
898.490	-710
898.593	-67
898.695	-293
898.798	2
898.901	-260
899.004	475
899.107	258
899.209	-120
899.312	-15
899.415	-395
899.518	87
899.620	225
899.723	-61
899.826	712
899.928	291
900.031	-389
900.133	-321
900.236	-82
900.338	-1116
900.441	-252
900.543	-706
900.646	234
900.748	-729
900.851	5
900.953	802
901.055	-785
901.158	-680
901.260	-25
901.362	-181
901.465	-339
901.567	-49
901.669	370
901.771	-578
901.873	669
901.976	-363
902.078	1034
902.180	49
902.282	-291
902.384	-168
902.486	162
902.588	112
902.690	-386
902.792	107
902.894	15
902.996	76
903.098	450
903.200	-441
903.302	309
903.404	-546
903.505	-392
903.607	-265
903.709	-356
903.811	339
903.913	-162
904.014	474
904.116	-257
904.218	-720
904.319	-369
904.421	-671
904.523	93
904.624	-179
904.726	-328
904.827	-552
904.929	-453
905.030	-216
905.132	304
905.233	-171
905.335	-22
905.436	257
905.537	-524
905.639	-1045
905.740	-112
905.841	-633
905.943	-679
906.044	288
906.145	-12
906.247	271
906.348	-137
906.449	-211
906.550	6
906.651	263
906.752	300
906.854	-303
906.955	96
907.056	-248
907.157	57
907.258	-289
907.359	-447
907.460	-767
907.561	-247
907.662	-654
907.762	-386
907.863	212
907.964	116
908.065	-474
908.166	-463
908.267	-429
908.367	-198
908.468	-1451
908.569	-1164
908.670	-490
908.770	316
908.871	-361
908.971	98
909.072	-220
909.173	-728
909.273	-945
909.374	-991
909.474	-772
909.575	-738
909.675	-329
909.776	3
909.876	-552
909.977	-1444
910.077	-326
910.177	325
910.278	-457
910.378	132
910.478	148
910.579	-591
910.679	-1143
910.779	272
910.879	13
910.980	-660
911.080	-482
911.180	77
911.280	-275
911.380	66
911.480	-850
911.580	-406
911.680	-793
911.780	-386
911.880	495
911.980	522
912.080	-31
912.180	-246
912.280	-688
912.380	-834
912.480	-646
912.580	-529
912.679	-1256
912.779	-411
912.879	-66
912.979	-669
913.078	-83
913.178	-740
913.278	-645
913.377	-361
913.477	-2
913.577	-311
913.676	-950
913.776	-656
913.875	-162
913.975	-529
914.074	-788
914.174	74
914.273	-172
914.373	186
914.472	-327
914.572	-904
914.671	-467
914.770	-596
914.870	-545
914.969	-152
915.068	96
915.167	-36
915.267	55
915.366	-479
915.465	-219
915.564	-609
915.663	-151
915.763	-197
915.862	-52
915.961	-301
916.060	-708
916.159	-434
916.258	-51
916.357	-557
916.456	-26
916.555	-1029
916.654	-680
916.752	37
916.851	-742
916.950	-432
917.049	-216
917.148	-768
917.247	-505
917.345	-1124
917.444	-648
917.543	-886
917.642	-358
917.740	-369
917.839	-69
917.937	183
918.036	-1210
918.135	-549
918.233	-540
918.332	-9
918.430	-223
918.529	-756
918.627	-181
918.726	97
918.824	-322
918.923	-272
919.021	36
919.119	-509
919.218	-514
919.316	-681
919.414	-744
919.512	-1093
919.611	-637
919.709	-942
919.807	-707
919.905	-164
920.003	-590
920.102	-362
920.200	-548
920.298	-493
920.396	-1014
920.494	-88
920.592	-645
920.690	-655
920.788	-1009
920.886	27
920.984	-485
921.082	-840
921.180	-228
921.277	-632
921.375	-787
921.473	-730
921.571	-774
921.669	146
921.766	-655
921.864	-737
921.962	-339
922.060	-242
922.157	269
922.255	450
922.352	-563
922.450	192
922.548	-273
922.645	-593
922.743	105
922.840	284
922.938	164
923.035	529
923.133	77
923.230	222
923.327	-854
923.425	748
923.522	-720
923.619	513
923.717	-45
923.814	-338
923.911	-438
924.008	340
924.106	-596
924.203	66
924.300	-307
924.397	486
924.494	-738
924.591	466
924.688	22
924.786	419
924.883	62
924.979	-624
925.077	436
925.173	-275
925.270	-300
925.367	-571
925.464	-232
925.561	372
925.658	-193
925.755	-134
925.852	-398
925.948	427
926.045	-126
926.142	-730
926.239	485
926.335	557
926.432	-118
926.529	309
926.625	227
926.722	856
926.818	-135
926.915	346
927.011	159
927.108	-327
927.204	-380
927.301	-320
927.397	-635
927.494	-16
927.590	220
927.687	49
927.783	-209
927.879	-349
927.976	-767
928.072	75
928.168	-637
928.264	-381
928.361	-301
928.457	-346
928.553	47
928.649	-347
928.745	-277
928.841	-851
928.937	-657
929.033	-132
929.129	-276
929.225	-299
929.321	-711
929.417	-372
929.513	-539
929.609	569
929.705	-461
929.801	-279
929.897	-100
929.993	-18
930.089	-525
930.184	-219
930.280	-255
930.376	35
930.471	-165
930.567	268
930.663	-621
930.758	-439
930.854	-858
930.950	-555
931.045	-407
931.141	-88
931.236	-450
931.332	149
931.427	-742
931.523	97
931.618	-811
931.714	-973
931.809	-124
931.905	203
932.000	-330
932.095	-544
932.191	-515
932.286	66
932.381	-628
932.476	-1133
932.572	-919
932.667	-290
932.762	-923
932.857	255
932.952	-305
933.047	-983
933.142	-391
933.237	-495
933.332	-338
933.427	-341
933.522	-637
933.617	86
933.712	-291
933.807	218
933.902	-512
933.997	-519
934.092	-52
934.187	-777
934.282	-759
934.376	-251
934.471	-1003
934.566	-549
934.661	-764
934.755	-147
934.850	301
934.945	-511
935.039	150
935.134	-467
935.228	-329
935.323	-479
935.417	-186
935.512	-243
935.606	-73
935.701	1
935.795	-1123
935.890	-208
935.984	-663
936.079	-429
936.173	-801
936.267	-822
936.362	-835
936.456	-194
936.550	-501
936.644	109
936.738	-790
936.833	-57
936.927	-769
937.021	-764
937.115	-1204
937.209	-1089
937.303	-607
937.397	-702
937.491	-364
937.585	-111
937.679	-653
937.773	-392
937.867	-195
937.961	-20
938.055	-501
938.149	-901
938.243	-726
938.337	-52
938.430	-985
938.524	-72
938.618	-86
938.712	-559
938.805	239
938.899	-709
938.993	-411
939.086	-867
939.180	-914
939.274	341
939.367	152
939.461	-243
939.554	-554
939.648	-1293
939.741	-192
939.835	-519
939.928	-661
940.022	-278
940.115	-820
940.208	-261
940.302	-211
940.395	-786
940.488	-1025
940.582	-887
940.675	-1397
940.768	-911
940.861	-860
940.954	-180
941.048	-841
941.141	-703
941.234	-1064
941.327	-343
941.420	-432
941.513	-430
941.606	222
941.699	-560
941.792	-562
941.885	-298
941.978	-1175
942.071	-311
942.164	-766
942.257	-953
942.349	-268
942.442	-495
942.535	-1281
942.628	-1007
942.721	-918
942.813	-1245
942.906	-528
942.999	-1366
943.091	-1323
943.184	-982
943.277	-737
943.369	-1253
943.462	-660
943.554	-359
943.647	-990
943.739	-383
943.832	-581
943.924	-281
944.017	-1426
944.109	-2050
944.201	-811
944.294	-1105
944.386	-942
944.478	-1314
944.571	-541
944.663	-1048
944.755	-1226
944.847	-881
944.940	-1636
945.032	-273
945.124	-213
945.216	43
945.308	-790
945.400	-455
945.492	-753
945.584	-381
945.676	-424
945.768	-452
945.860	-501
945.952	-92
946.044	-660
946.136	-1094
946.228	-717
946.320	-1182
946.412	-1319
946.503	-1188
946.595	-293
946.687	-1363
946.779	-1249
946.870	-1389
946.962	-1347
947.054	-434
947.145	-1063
947.237	-784
947.329	-898
947.420	-1277
947.512	-1001
947.603	-1258
947.695	-1420
947.786	-678
947.878	-301
947.969	-823
948.061	-349
948.152	-1066
948.243	-880
948.335	-1477
948.426	-698
948.517	-1250
948.609	-868
948.700	-715
948.791	-808
948.882	-1535
948.973	-961
949.065	-674
949.156	-345
949.247	-858
949.338	-1423
949.429	-477
949.520	-764
949.611	-1813
949.702	-850
949.793	-852
949.884	-1076
949.975	-1102
950.066	-632
950.157	-1092
950.247	-1166
950.338	-1173
950.429	-1387
950.520	-767
950.611	-2008
950.701	-1140
950.792	-729
950.883	-1246
950.973	-1091
951.064	-1167
951.155	-857
951.245	-906
951.336	-980
951.427	-81
951.517	-783
951.608	-825
951.698	-784
951.788	-1063
951.879	-1552
951.969	-1177
952.060	-1209
952.150	-1275
952.240	-1049
952.331	-1854
952.421	-814
952.511	-1228
952.602	-1330
952.692	-964
952.782	-1287
952.872	-1383
952.962	-1358
953.052	-1011
953.143	-1270
953.233	-814
953.323	-774
953.413	-1767
953.503	-962
953.593	-420
953.683	-806
953.773	-1109
953.863	-1546
953.953	-696
954.042	-1135
954.132	-1150
954.222	-1185
954.312	-1618
954.402	-980
954.492	-1110
954.581	-1289
954.671	-1365
954.761	-1318
954.850	-840
954.940	-471
955.030	-243
955.119	-1338
955.209	-859
955.298	-1320
955.388	-600
955.477	-779
955.567	-1247
955.656	-1442
955.746	-1730
955.835	-1383
955.925	-1539
956.014	-693
956.103	-647
956.193	-594
956.282	-1528
956.371	-1005
956.461	-876
956.550	-1242
956.639	-1486
956.728	-927
956.817	-738
956.906	-1251
956.995	-864
957.085	-1973
957.174	-1425
957.263	-1498
957.352	-1953
957.441	-1167
957.530	-816
957.619	-1283
957.708	-720
957.796	-1301
957.885	-1260
957.974	-1156
958.063	-549
958.152	-2152
958.241	-1008
958.329	-1721
958.418	-1111
958.507	-1183
958.596	-982
958.684	-1540
958.773	-813
958.861	-1110
958.950	-1616
959.039	-1338
959.127	-1025
959.216	-1751
959.304	-977
959.393	-1325
959.481	-1023
959.570	-1363
959.658	-864
959.746	-2068
959.835	-1458
959.923	-1379
960.011	-735
960.100	-1585
960.188	-783
960.276	-1417
960.365	-794
960.453	-1526
960.541	-1152
960.629	-1720
960.717	-1143
960.805	-1441
960.893	-1231
960.981	-1218
961.069	-654
961.158	-590
961.245	-1542
961.333	-951
961.421	-1443
961.509	-1351
961.597	-1302
961.685	-1590
961.773	-1566
961.861	-1518
961.949	-1338
962.036	-1430
962.124	-981
962.212	-1291
962.299	-792
962.387	-828
962.475	-1792
962.562	-1291
962.650	-476
962.738	-1416
962.825	-1746
962.913	-1724
963.000	-1562
963.088	-414
963.175	-877
963.263	-1208
963.350	-1036
963.438	-1894
963.525	-622
963.612	-976
963.700	-588
963.787	615
963.874	1501
963.962	87
964.049	-1276
964.136	-1754
964.223	-1319
964.310	-1590
964.398	-1556
964.485	-1398
964.572	-1857
964.659	-629
964.746	-1354
964.833	-1681
964.920	-881
965.007	-991
965.094	-932
965.181	-1353
965.268	-1281
965.355	-630
965.441	-981
965.528	-1837
965.615	-949
965.702	-1366
965.789	-1288
965.875	-1026
965.962	-1480
966.049	-1560
966.136	-2023
966.222	-1153
966.309	-993
966.395	-892
966.482	-1370
966.569	-1186
966.655	-1481
966.742	-1733
966.828	-1241
966.915	-1218
967.001	-852
967.087	-1505
967.174	-2053
967.260	-2439
967.347	-885
967.433	-945
967.519	-584
967.605	398
967.692	-1012
967.778	-1316
967.864	-1491
967.950	-957
968.036	-1560
968.123	-1368
968.209	-1258
968.295	-1714
968.381	-1884
968.467	-1310
968.553	-1430
968.639	-2090
968.725	-1168
968.811	-1648
968.897	-896
968.983	-1209
969.069	-456
969.154	-1300
969.240	-233
969.326	-1045
969.412	-1178
969.497	-1798
969.583	-1450
969.669	-1133
969.755	-758
969.840	-934
969.926	-585
970.012	-1418
970.097	-928
970.183	-1339
970.268	-1127
970.354	-1805
970.439	-1205
970.525	115
970.610	-307
970.696	-647
970.781	-1235
970.866	-2274
970.952	-1177
971.037	-1505
971.122	-895
971.208	-1430
971.293	-1581
971.378	-758
971.463	-628
971.549	-870
971.634	-1659
971.719	-859
971.804	-1431
971.889	-727
971.974	-1019
972.059	-1403
972.144	-2068
972.229	-1884
972.314	-19
972.399	-1175
972.484	-471
972.569	-1703
972.654	-1189
972.739	-1494
972.824	-1375
972.908	-1165
972.993	-1674
973.078	-1508
973.163	-1603
973.247	-1320
973.332	-955
973.417	-1330
973.501	-1668
973.586	-1790
973.671	-1482
973.755	-1075
973.840	-1125
973.924	-867
974.009	-1628
974.093	-1332
974.178	-1007
974.262	-1258
974.346	-858
974.431	-1001
974.515	-1281
974.600	-1752
974.684	-727
974.768	-2291
974.852	-973
974.937	-202
975.021	-1307
975.105	-1383
975.189	-1640
975.273	-1328
975.358	-1577
975.442	-1576
975.526	-1019
975.610	-884
975.694	-902
975.778	-1484
975.862	-1816
975.946	-1674
976.030	-1041
976.114	-1873
976.198	-1303
976.281	-1407
976.365	-530
976.449	-1293
976.533	-563
976.617	-1257
976.700	-914
976.784	-1576
976.868	-1365
976.951	-1831
977.035	-1773
977.119	-824
977.202	-1075
977.286	-1509
977.369	-1314
977.453	-970
977.536	-289
977.620	-1334
977.703	-563
977.787	-1817
977.870	-1100
977.953	-1454
978.037	-1216
978.120	-1635
978.203	-1220
978.287	-1279
978.370	-1139
978.453	-1460
978.536	-976
978.620	-1318
978.703	-975
978.786	-1246
978.869	-968
978.952	-1742
979.035	-1049
979.118	-1937
979.201	-1699
979.284	-1092
979.367	-1107
979.450	-773
979.533	-2034
979.616	-2153
979.699	-327
979.782	-544
979.865	-1252
979.948	-1046
980.030	-1683
980.113	-1730
980.196	-1661
980.279	-1831
980.361	-1282
980.444	-1312
980.526	-1966
980.609	-1695
980.692	-1495
980.774	-1264
980.857	-2052
980.939	-1086
981.022	-1678
981.104	-1062
981.187	-1545
981.269	-1581
981.352	-525
981.434	-2211
981.516	-957
981.599	-1555
981.681	-1264
981.763	-1194
981.846	-1308
981.928	-671
982.010	-1894
982.092	-1297
982.174	-1651
982.256	-1922
982.339	-1550
982.421	-1668
982.503	-1310
982.585	-1963
982.667	-1484
982.749	-1286
982.831	-2125
982.913	-1527
982.995	-1552
983.077	-1752
983.158	-1062
983.240	-2123
983.322	-867
983.404	-2175
983.486	-1718
983.568	-2270
983.649	-1092
983.731	-986
983.813	-1581
983.894	-1312
983.976	-1331
984.058	-1785
984.139	-1854
984.221	-1534
984.302	-1127
984.384	-1556
984.465	-1183
984.547	-2101
984.628	-945
984.710	-2040
984.791	-1795
984.872	-1876
984.954	-1886
985.035	-1526
985.116	-2000
985.198	-1068
985.279	-910
985.360	-1124
985.441	-1364
985.522	-1579
985.604	-752
985.685	-2431
985.766	-1116
985.847	-1689
985.928	-2783
986.009	-1766
986.090	-1357
986.171	-2333
986.252	-1336
986.333	-1571
986.414	-1680
986.495	-1760
986.576	-1861
986.656	-2202
986.737	-657
986.818	-2534
986.899	-955
986.980	-2017
987.060	-1209
987.141	-1767
987.222	-1223
987.302	-1306
987.383	-1549
987.464	-860
987.544	-1458
987.625	-1428
987.705	-1377
987.786	-1139
987.866	-1101
987.947	-2071
988.027	-1365
988.108	-1421
988.188	-1438
988.268	-1433
988.349	-1835
988.429	-2109
988.509	-2086
988.589	-1912
988.670	-1830
988.750	-1127
988.830	-1790
988.910	-1303
988.990	-1837
989.070	-1944
989.151	-1631
989.231	-2562
989.311	-1801
989.391	-1726
989.471	-1166
989.551	-1222
989.631	-1352
989.711	-1051
989.791	-2111
989.870	-2323
989.950	-1432
990.030	-1825
990.110	-1227
990.190	-1300
990.269	-1800
990.349	-2014
990.429	-1510
990.509	-1594
990.588	-1417
990.668	-1374
990.747	-2503
990.827	-1793
990.907	-1445
990.986	-1222
991.066	-1620
991.145	-1552
991.225	-1649
991.304	-2240
991.383	-1859
991.463	-1996
991.542	-1132
991.622	-2032
991.701	-1266
991.780	-2589
991.859	-2041
991.939	-1749
992.018	-1228
992.097	-2162
992.176	-1889
992.256	-2001
992.335	-930
992.414	-1511
992.493	-1494
992.572	-1615
992.651	-1472
992.730	-1582
992.809	-1890
992.888	-1538
992.967	-1780
993.046	-2213
993.125	-2634
993.203	-1958
993.282	-1709
993.361	-2560
993.440	-1723
993.519	-1322
993.597	-2442
993.676	-1638
993.755	-1300
993.834	-1474
993.912	-1833
993.991	-2164
994.069	-1321
994.148	-1521
994.226	-1864
994.305	-2104
994.384	-2122
994.462	-1923
994.540	-922
994.619	-2011
994.697	-1525
994.776	-1490
994.854	-2075
994.932	-2171
995.011	-1827
995.089	-1567
995.167	-1480
995.245	-1810
995.324	-1897
995.402	-1964
995.480	-2265
995.558	-1391
995.636	-2242
995.714	-1877
995.792	-1630
995.870	-2277
995.948	-1815
996.026	-1962
996.104	-1962
996.182	-1584
996.260	-1817
996.338	-1922
996.416	-1639
996.494	-2387
996.572	-1871
996.649	-1689
996.727	-1670
996.805	-1655
996.883	-1662
996.960	-2020
997.038	-1983
997.116	-1647
997.193	-2336
997.271	-1761
997.348	-2507
997.426	-1963
997.504	-1436
997.581	-1796
997.658	-2137
997.736	-1827
997.813	-2460
997.891	-1350
997.968	-1216
998.046	-2107
998.123	-2424
998.200	-1605
998.277	-2234
998.355	-2481
998.432	-1738
998.509	-1851
998.586	-2042
998.663	-1483
998.741	-1717
998.818	-1800
998.895	-2165
998.972	-1075
999.049	-1795
999.126	-2088
999.203	-1884
999.280	-2330
999.357	-2009
999.434	-1810
999.511	-811
999.587	-1850
999.664	-1992
999.741	-1872
999.818	-1515
999.895	-2122
999.971	-1882
1000.048	-1860
1000.125	-2266
1000.202	-2882
1000.278	-1910
1000.355	-1736
1000.431	-1273
1000.508	-1979
1000.584	-1191
1000.661	-1761
1000.738	-1638
1000.814	-2038
1000.890	-1780
1000.967	-2296
1001.043	-1872
1001.120	-2109
1001.196	-1858
1001.272	-2398
1001.349	-1525
1001.425	-1784
1001.501	-2194
1001.577	-3051
1001.654	-755
1001.730	-1400
1001.806	-2385
1001.882	-2339
1001.958	-1955
1002.034	-953
1002.110	-1570
1002.186	-2376
1002.262	-1748
1002.338	-2079
1002.414	-1620
1002.490	-1788
1002.566	-1810
1002.642	-2001
1002.718	-1199
1002.794	-1786
1002.870	-2489
1002.945	-1927
1003.021	-941
1003.097	-2045
1003.173	-1701
1003.248	-1743
1003.324	-1376
1003.400	-2061
1003.475	-1675
1003.551	-2035
1003.626	-1570
1003.702	-2503
1003.777	-2708
1003.853	-1690
1003.928	-1818
1004.004	-2108
1004.079	-1791
1004.155	-1769
1004.230	-2604
1004.305	-1598
1004.381	-1820
1004.456	-1749
1004.531	-1431
1004.607	-1691
1004.682	-2328
1004.757	-1825
1004.832	-2103
1004.907	-2785
1004.982	-2772
1005.057	-1981
1005.133	-1505
1005.208	-1944
1005.283	-1674
1005.358	-2233
1005.433	-1318
1005.508	-2357
1005.583	-2560
1005.657	-2229
1005.732	-2054
1005.807	-1598
1005.882	-1827
1005.957	-1764
1006.032	-2224
1006.106	-1710
1006.181	-928
1006.256	-1864
1006.331	-2012
1006.405	-2509
1006.480	-1945
1006.554	-2510
1006.629	-1862
1006.704	-1927
1006.778	-1757
1006.853	-1965
1006.927	-1838
1007.002	-2627
1007.076	-1969
1007.150	-2900
1007.225	-2050
1007.299	-1980
1007.373	-1936
1007.448	-2017
1007.522	-1365
1007.596	-2341
1007.671	-1769
1007.745	-2202
1007.819	-2075
1007.893	-2293
1007.967	-1549
1008.041	-2770
1008.115	-1768
1008.190	-2325
1008.264	-2606
1008.338	-2025
1008.412	-1860
1008.486	-1752
1008.560	-1618
1008.633	-2329
1008.707	-2179
1008.781	-1263
1008.855	-1762
1008.929	-2114
1009.003	-2203
1009.076	-2668
1009.150	-1576
1009.224	-2676
1009.298	-1421
1009.371	-1614
1009.445	-2123
1009.519	-2631
1009.592	-2258
1009.666	-1686
1009.739	-2234
1009.813	-2893
1009.886	-2229
1009.960	-2358
1010.033	-1644
1010.107	-1857
1010.180	-2430
1010.253	-1910
1010.327	-3022
1010.400	-1966
1010.473	-1602
1010.547	-1502
1010.620	-1435
1010.693	-2017
1010.766	-1643
1010.840	-2010
1010.913	-1696
1010.986	-2701
1011.059	-1170
1011.132	-2445
1011.205	-2319
1011.278	-1972
1011.351	-2382
1011.424	-2308
1011.497	-2212
1011.570	-2297
1011.643	-1564
1011.716	-2233
1011.789	-1645
1011.862	-1831
1011.934	-1760
1012.007	-2081
1012.080	-1779
1012.153	-2289
1012.225	-1564
1012.298	-2070
1012.371	-2380
1012.443	-1408
1012.516	-2060
1012.588	-2409
1012.661	-1705
1012.733	-2748
1012.806	-1451
1012.879	-2131
1012.951	-2834
1013.023	-1980
1013.096	-1863
1013.168	-2294
1013.241	-1925
1013.313	-2396
1013.385	-1737
1013.458	-2576
1013.530	-2216
1013.602	-2427
1013.674	-2525
1013.746	-3308
1013.819	-1860
1013.891	-1866
1013.963	-2050
1014.035	-2325
1014.107	-2603
1014.179	-1996
1014.251	-2226
1014.323	-2539
1014.395	-1879
1014.467	-1729
1014.539	-2451
1014.611	-2152
1014.683	-2261
1014.754	-1965
1014.826	-1916
1014.898	-2470
1014.970	-2280
1015.042	-2326
1015.113	-1789
1015.185	-2939
1015.257	-1360
1015.328	-1193
1015.400	-2632
1015.471	-2808
1015.543	-3021
1015.615	-2068
1015.686	-2502
1015.757	-2903
1015.829	-1874
1015.901	-2655
1015.972	-2402
1016.043	-2148
1016.115	-2791
1016.186	-2662
1016.257	-2865
1016.328	-1415
1016.400	-1753
1016.471	-2820
1016.542	-2552
1016.613	-2047
1016.685	-1660
1016.756	-2370
1016.827	-2717
1016.898	-2723
1016.969	-1986
1017.040	-2195
1017.111	-2465
1017.182	-2825
1017.253	-2553
1017.324	-2085
1017.395	-2337
1017.466	-2776
1017.537	-2974
1017.608	-2087
1017.678	-2501
1017.749	-2621
1017.820	-2480
1017.891	-1955
1017.961	-2610
1018.032	-2740
1018.103	-1840
1018.173	-3119
1018.244	-2877
1018.315	-3049
1018.385	-2353
1018.456	-2538
1018.526	-2117
1018.597	-2581
1018.667	-2413
1018.738	-2830
1018.808	-2913
1018.878	-2257
1018.949	-2245
1019.019	-2206
1019.089	-1860
1019.160	-2615
1019.230	-2802
1019.300	-2608
1019.371	-3106
1019.441	-2325
1019.511	-2802
1019.581	-2563
1019.651	-2874
1019.721	-3002
1019.791	-2200
1019.861	-2734
1019.931	-2139
1020.001	-3042
1020.071	-2309
1020.141	-3131
1020.211	-2362
1020.281	-2056
1020.351	-2497
1020.421	-2949
1020.491	-1830
1020.560	-2798
1020.630	-2052
1020.700	-2915
1020.770	-2167
1020.839	-3029
1020.909	-2230
1020.979	-2532
1021.048	-2701
1021.118	-3050
1021.187	-2248
1021.257	-2637
1021.326	-1984
1021.396	-3121
1021.465	-2438
1021.535	-3429
1021.604	-2492
1021.674	-2685
1021.743	-2911
1021.812	-3000
1021.882	-3203
1021.951	-2888
1022.020	-2599
1022.089	-2648
1022.159	-2086
1022.228	-2520
1022.297	-2826
1022.366	-2150
1022.435	-2034
1022.504	-2664
1022.573	-2753
1022.642	-3265
1022.711	-2505
1022.781	-2651
1022.849	-2515
1022.918	-2510
1022.987	-2554
1023.056	-2776
1023.125	-2046
1023.194	-3200
1023.263	-2731
1023.331	-2935
1023.400	-2537
1023.469	-3440
1023.538	-1916
1023.606	-3010
1023.675	-3607
1023.744	-2560
1023.812	-2543
1023.881	-2787
1023.949	-2153
1024.018	-2795
1024.086	-2298
1024.155	-2972
1024.223	-2332
1024.292	-2141
1024.360	-2737
1024.429	-2334
1024.497	-2704
1024.565	-2668
1024.634	-2285
1024.702	-1963
1024.770	-1958
1024.838	-3482
1024.907	-2732
1024.975	-3738
1025.043	-2260
1025.111	-2202
1025.179	-2294
1025.247	-2725
1025.315	-2148
1025.383	-2925
1025.451	-2664
1025.519	-3723
1025.587	-2954
1025.655	-2498
1025.723	-2958
1025.791	-2250
1025.859	-2144
1025.927	-2891
1025.995	-2432
1026.062	-3022
1026.130	-1916
1026.198	-2886
1026.266	-2917
1026.333	-2410
1026.401	-2830
1026.469	-2067
1026.536	-1841
1026.604	-2567
1026.671	-3329
1026.739	-2686
1026.806	-2477
1026.874	-2960
1026.941	-1940
1027.009	-2208
1027.076	-2586
1027.144	-1917
1027.211	-2716
1027.278	-2357
1027.345	-3095
1027.413	-2152
1027.480	-3091
1027.547	-2429
1027.614	-2390
1027.682	-2573
1027.749	-2644
1027.816	-2791
1027.883	-2089
1027.950	-2643
1028.017	-3020
1028.084	-3178
1028.151	-3015
1028.218	-3030
1028.285	-2583
1028.352	-3070
1028.419	-3057
1028.486	-2598
1028.553	-2341
1028.619	-2420
1028.686	-2981
1028.753	-2334
1028.820	-2705
1028.886	-2995
1028.953	-2689
1029.020	-3215
1029.086	-1963
1029.153	-2559
1029.220	-2314
1029.286	-2554
1029.353	-2643
1029.419	-3014
1029.486	-2468
1029.552	-1604
1029.619	-2515
1029.685	-2495
1029.751	-2930
1029.818	-1484
1029.884	-2496
1029.951	-2238
1030.017	-2942
1030.083	-2864
1030.149	-2280
1030.216	-2582
1030.282	-2944
1030.348	-2515
1030.414	-2896
1030.480	-3211
1030.546	-2667
1030.612	-2473
1030.678	-2110
1030.744	-3068
1030.810	-2519
1030.876	-2143
1030.942	-2919
1031.008	-2414
1031.074	-2302
1031.140	-2366
1031.206	-2663
1031.272	-2714
1031.337	-1848
1031.403	-2129
1031.469	-2353
1031.534	-2933
1031.600	-2707
1031.666	-2825
1031.731	-2967
1031.797	-2688
1031.863	-2227
1031.928	-2686
1031.994	-2009
1032.059	-2942
1032.125	-2322
1032.190	-1980
1032.256	-2199
1032.321	-2660
1032.386	-1962
1032.452	-3026
1032.517	-2456
1032.582	-3330
1032.647	-2198
1032.713	-2735
1032.778	-2019
1032.843	-2541
1032.908	-2380
1032.974	-2740
1033.039	-2523
1033.104	-2229
1033.169	-2293
1033.234	-3796
1033.299	-1709
1033.364	-3340
1033.429	-2756
1033.494	-2434
1033.559	-1907
1033.624	-2426
1033.688	-2600
1033.753	-2985
1033.818	-2459
1033.883	-2288
1033.948	-2709
1034.013	-2719
1034.077	-2467
1034.142	-2814
1034.207	-2302
1034.271	-2224
1034.336	-2518
1034.400	-2844
1034.465	-2289
1034.530	-2450
1034.594	-1346
1034.658	-2000
1034.723	-2351
1034.787	-3154
1034.852	-2481
1034.916	-3206
1034.981	-2398
1035.045	-2863
1035.109	-2971
1035.173	-2247
1035.238	-3528
1035.302	-2515
1035.366	-2207
1035.430	-2477
1035.495	-3168
1035.559	-2612
1035.623	-1726
1035.687	-2692
1035.751	-2763
1035.815	-2957
1035.879	-2222
1035.943	-2181
1036.007	-2085
1036.071	-3474
1036.135	-3138
1036.198	-2659
1036.262	-2554
1036.326	-3012
1036.390	-2801
1036.454	-1795
1036.517	-2372
1036.581	-2560
1036.645	-2000
1036.709	-2475
1036.772	-2399
1036.836	-2102
1036.900	-1918
1036.963	-2178
1037.026	-2644
1037.090	-2589
1037.154	-3086
1037.217	-2670
1037.280	-2299
1037.344	-2529
1037.407	-3049
1037.471	-2295
1037.534	-2414
1037.597	-2629
1037.661	-2621
1037.724	-2351
1037.787	-2865
1037.850	-2880
1037.913	-2491
1037.977	-1862
1038.040	-3092
1038.103	-2600
1038.166	-2368
1038.229	-1999
1038.292	-2424
1038.355	-2556
1038.418	-2163
1038.481	-2478
1038.544	-3095
1038.607	-2389
1038.670	-2597
1038.732	-2620
1038.795	-2224
1038.858	-2291
1038.921	-2586
1038.984	-2623
1039.046	-2535
1039.109	-2274
1039.172	-2581
1039.234	-2556
1039.297	-2489
1039.360	-2228
1039.422	-2679
1039.485	-3000
1039.547	-2375
1039.610	-2006
1039.672	-1963
1039.734	-3021
1039.797	-2653
1039.859	-2519
1039.922	-2554
1039.984	-2895
1040.046	-2666
1040.109	-2250
1040.171	-2658
1040.233	-2849
1040.295	-2373
1040.358	-2634
1040.420	-2663
1040.482	-2219
1040.544	-2447
1040.606	-2466
1040.668	-2294
1040.730	-1438
1040.792	-2432
1040.854	-2548
1040.916	-2144
1040.978	-2194
1041.040	-2620
1041.102	-2645
1041.164	-2232
1041.225	-2843
1041.287	-2472
1041.349	-2967
1041.411	-2166
1041.472	-2387
1041.534	-2032
1041.596	-2710
1041.657	-2434
1041.719	-2037
1041.781	-1953
1041.842	-2303
1041.904	-3142
1041.965	-2624
1042.027	-2218
1042.088	-2454
1042.150	-2203
1042.211	-2411
1042.272	-2345
1042.334	-2259
1042.395	-1651
1042.456	-2230
1042.518	-2899
1042.579	-2346
1042.640	-2204
1042.701	-2742
1042.763	-2812
1042.824	-2318
1042.885	-2698
1042.946	-2241
1043.007	-2596
1043.068	-2568
1043.129	-2818
1043.190	-2632
1043.251	-2486
1043.312	-2924
1043.373	-2202
1043.434	-2755
1043.495	-3204
1043.556	-2666
1043.616	-2386
1043.677	-2891
1043.738	-2283
1043.799	-2920
1043.859	-2781
1043.920	-1844
1043.981	-2521
1044.041	-1864
1044.102	-1995
1044.162	-2471
1044.223	-2351
1044.284	-1546
1044.344	-1827
1044.405	-2893
1044.465	-2136
1044.525	-1651
1044.586	-1569
1044.646	-2637
1044.707	-2227
1044.767	-2098
1044.827	-2255
1044.887	-2695
1044.948	-1956
1045.008	-2818
1045.068	-1906
1045.128	-2521
1045.188	-1957
1045.249	-1812
1045.309	-2338
1045.369	-2044
1045.429	-1360
1045.489	-2671
1045.549	-1792
1045.609	-2488
1045.669	-1917
1045.729	-2727
1045.789	-2061
1045.848	-1771
1045.908	-2087
1045.968	-2266
1046.028	-1495
1046.088	-2994
1046.147	-1693
1046.207	-2775
1046.267	-1829
1046.326	-1250
1046.386	-1888
1046.446	-1280
1046.505	-1416
1046.565	-1865
1046.624	-1602
1046.684	-1778
1046.743	-1697
1046.803	-1046
1046.862	-685
1046.922	0
