'Start Wavelength	183.907
'End Wavelength	1046.922
'Gate Delay	5.000
'Gate Width (ms)	1.050
'Laser Output Level	0.000
'X Position	0.000
'Y Position	0.000
'Z Position	0.000
'Grid Point Number	1.000
'Shot Number	100.000
183.907	148.000
183.977	114.000
184.047	-151
184.116	-202
184.186	272
184.256	-182
184.325	-232
184.395	98
184.465	3
184.534	251
184.604	-402
184.674	357
184.743	-386
184.813	785
184.883	54
184.952	-119
185.022	125
185.092	566
185.161	-351
185.231	335
185.301	-203
185.370	1078
185.440	52
185.509	503
185.579	-288
185.649	340
185.718	400
185.788	627
185.857	-500
185.927	330
185.996	-71
186.066	439
186.136	-254
186.205	160
186.275	179
186.344	547
186.414	295
186.483	355
186.553	386
186.622	1148
186.692	-274
186.761	460
186.831	229
186.900	297
186.970	651
187.039	850
187.109	528
187.178	892
187.248	589
187.317	787
187.387	160
187.456	1328
187.526	350
187.595	207
187.664	-344
187.734	423
187.803	412
187.873	895
187.942	453
188.012	624
188.081	479
188.150	91
188.220	1389
188.289	542
188.358	211
188.428	607
188.497	45
188.567	583
188.636	435
188.705	487
188.775	451
188.844	477
188.913	900
188.983	273
189.052	-639
189.121	-103
189.191	-120
189.260	947
189.329	653
189.399	901
189.468	136
189.537	844
189.606	212
189.676	242
189.745	431
189.814	1309
189.883	-206
189.953	852
190.022	707
190.091	1726
190.161	698
190.230	168
190.299	940
190.368	1048
190.437	1139
190.507	408
190.576	764
190.645	-3
190.714	-395
190.783	44
190.853	666
190.922	861
190.991	-537
191.060	489
191.129	-241
191.198	366
191.268	-59
191.337	381
191.406	620
191.475	-311
191.544	20
191.613	930
191.682	-160
191.752	1113
191.821	740
191.890	1258
191.959	463
192.028	1190
192.097	-198
192.166	858
192.235	395
192.304	866
192.373	235
192.442	194
192.511	563
192.580	193
192.650	426
192.719	417
192.788	146
192.857	544
192.926	464
192.995	1008
193.064	1025
193.133	1360
193.202	1117
193.271	1175
193.340	946
193.409	1120
193.478	1586
193.547	1680
193.615	1998
193.684	1957
193.753	1281
193.822	910
193.891	595
193.960	1095
194.029	707
194.098	1022
194.167	-78
194.236	498
194.305	407
194.374	590
194.443	15
194.512	382
194.580	1013
194.649	1396
194.718	697
194.787	734
194.856	454
194.925	891
194.994	167
195.062	844
195.131	794
195.200	823
195.269	905
195.338	644
195.407	158
195.475	1256
195.544	701
195.613	1057
195.682	1305
195.751	1659
195.819	553
195.888	1276
195.957	1199
196.026	1219
196.094	1429
196.163	1223
196.232	797
196.301	889
196.369	1832
196.438	916
196.507	841
196.576	856
196.644	787
196.713	776
196.782	621
196.850	1148
196.919	167
196.988	1071
197.056	1021
197.125	869
197.194	619
197.262	930
197.331	-90
197.400	995
197.468	704
197.537	1020
197.606	543
197.674	2004
197.743	1422
197.812	1274
197.880	1095
197.949	1043
198.017	1188
198.086	1056
198.155	1123
198.223	1409
198.292	1595
198.360	1485
198.429	577
198.497	1318
198.566	1701
198.635	1056
198.703	1802
198.772	1803
198.840	2621
198.909	1484
198.977	890
199.046	974
199.114	884
199.183	1290
199.251	736
199.320	581
199.388	851
199.457	643
199.525	650
199.594	711
199.662	924
199.731	763
199.799	349
199.867	1006
199.936	1346
200.004	809
200.073	888
200.141	1397
200.210	1276
200.278	1604
200.346	1131
200.415	1802
200.483	1375
200.552	647
200.620	716
200.688	1056
200.757	1510
200.825	1645
200.893	749
200.962	1577
201.030	891
201.098	984
201.167	859
201.235	801
201.303	1224
201.372	1382
201.440	1039
201.508	1308
201.577	1388
201.645	2065
201.713	841
201.781	2388
201.850	1406
201.918	1874
201.986	1807
202.055	1150
202.123	1098
202.191	1967
202.259	707
202.327	871
202.396	893
202.464	1977
202.532	1896
202.600	3671
202.669	1758
202.737	1204
202.805	1272
202.873	1341
202.941	1202
203.009	518
203.078	926
203.146	1132
203.214	585
203.282	1144
203.350	631
203.418	1353
203.487	597
203.555	1416
203.623	980
203.691	486
203.759	1019
203.827	1147
203.895	808
203.963	792
204.031	989
204.099	1274
204.168	1079
204.236	588
204.304	1435
204.372	1181
204.440	986
204.508	1130
204.576	1227
204.644	1182
204.712	687
204.780	1734
204.848	1547
204.916	1100
204.984	545
205.052	1461
205.120	1475
205.188	1759
205.256	1259
205.324	1321
205.392	1486
205.460	1399
205.528	994
205.596	1402
205.664	819
205.732	1445
205.799	2955
205.867	2776
205.935	1126
206.003	1803
206.071	1312
206.139	1480
206.207	1121
206.275	1401
206.343	933
206.411	1229
206.478	1579
206.546	1238
206.614	85
206.682	1332
206.750	1858
206.818	1966
206.885	765
206.953	542
207.021	1587
207.089	2196
207.157	912
207.225	1751
207.292	859
207.360	1899
207.428	1743
207.496	1320
207.563	1932
207.631	1174
207.699	1360
207.767	1097
207.834	1187
207.902	1936
207.970	890
208.038	1791
208.105	1226
208.173	2291
208.241	1652
208.309	2779
208.376	2397
208.444	2874
208.512	1157
208.579	1821
208.647	2104
208.715	2476
208.782	1941
208.850	1691
208.918	1722
208.985	1387
209.053	1855
209.120	1971
209.188	1160
209.256	891
209.323	1783
209.391	2006
209.459	1951
209.526	1696
209.594	1596
209.661	1937
209.729	1549
209.796	1599
209.864	1730
209.932	2422
209.999	1304
210.067	1544
210.134	2284
210.202	1975
210.269	2298
210.337	2455
210.404	1838
210.472	2286
210.539	1326
210.607	2047
210.674	1847
210.742	1326
210.809	2274
210.877	1872
210.944	2078
211.012	2737
211.079	1740
211.146	1818
211.214	1975
211.281	2247
211.349	2007
211.416	2615
211.484	2575
211.551	1542
211.618	1290
211.686	1923
211.753	2172
211.821	1389
211.888	2001
211.955	2332
212.023	2103
212.090	2537
212.157	1745
212.225	2868
212.292	3501
212.359	5795
212.427	7646
212.494	3997
212.561	2996
212.629	2516
212.696	2224
212.763	2565
212.831	2301
212.898	2126
212.965	1336
213.032	2297
213.100	2847
213.167	2174
213.234	2466
213.301	2463
213.369	2174
213.436	2072
213.503	2198
213.570	2592
213.638	2139
213.705	2249
213.772	1702
213.839	2258
213.906	2230
213.973	2438
214.041	1929
214.108	2618
214.175	2411
214.242	2215
214.309	1871
214.376	2210
214.444	2705
214.511	3006
214.578	2515
214.645	2512
214.712	2531
214.779	2668
214.846	2892
214.913	3050
214.980	2735
215.048	3508
215.115	3457
215.182	3733
215.249	2524
215.316	2335
215.383	2483
215.450	2380
215.517	1997
215.584	2700
215.651	2891
215.718	2554
215.785	2067
215.852	2897
215.919	2954
215.986	3367
216.053	1629
216.120	2969
216.187	2381
216.254	2663
216.321	1746
216.388	3235
216.455	2267
216.522	2954
216.589	4021
216.656	5078
216.722	3724
216.789	4448
216.856	4184
216.923	3718
216.990	3260
217.057	3977
217.124	4317
217.191	3521
217.258	5045
217.324	5968
217.391	5174
217.458	4506
217.525	3222
217.592	3765
217.659	2714
217.725	3080
217.792	3489
217.859	3598
217.926	1942
217.993	2768
218.059	3456
218.126	2669
218.193	1812
218.260	1971
218.327	1932
218.393	2094
218.460	1428
218.527	1919
218.594	1649
218.660	3193
218.727	2586
218.794	2589
218.860	1483
218.927	2195
218.994	1680
219.061	1771
219.127	2150
219.194	2588
219.261	962
219.327	2280
219.394	1488
219.461	1473
219.527	1136
219.594	1401
219.661	1894
219.727	1075
219.794	1127
219.860	1916
219.927	1899
219.994	4003
220.060	3603
220.127	3025
220.193	3369
220.260	3316
220.326	5932
220.393	8051
220.460	8449
220.526	5820
220.593	4437
220.659	5064
220.726	4575
220.792	7592
220.859	8532
220.925	11593
220.992	12564
221.058	10699
221.125	9029
221.191	6047
221.258	3492
221.324	3412
221.391	2922
221.457	2598
221.524	2159
221.590	3514
221.657	6752
221.723	4445
221.789	5507
221.856	3690
221.922	2169
221.989	2376
222.055	2726
222.121	2231
222.188	3071
222.254	3073
222.321	2294
222.387	2302
222.453	1378
222.520	2161
222.586	1412
222.652	2589
222.719	1227
222.785	2011
222.851	1577
222.918	1710
222.984	1499
223.050	1734
223.116	1712
223.183	1492
223.249	1869
223.315	1328
223.382	1186
223.448	2203
223.514	1356
223.580	1320
223.647	1631
223.713	1349
223.779	1197
223.845	1855
223.911	1979
223.978	1103
224.044	1640
224.110	1803
224.176	1426
224.242	1923
224.309	1052
224.375	1171
224.441	1132
224.507	1563
224.573	1132
224.639	1417
224.705	1101
224.772	1364
224.838	1158
224.904	2324
224.970	1196
225.036	1472
225.102	1602
225.168	1831
225.234	1387
225.300	1374
225.366	1028
225.432	1374
225.499	1545
225.565	2182
225.631	2605
225.697	2113
225.763	1853
225.829	3767
225.895	2915
225.961	4143
226.027	2713
226.093	3743
226.159	4246
226.225	8298
226.291	15191
226.357	16389
226.423	9450
226.489	7298
226.554	5188
226.620	4707
226.686	6323
226.752	9576
226.818	14467
226.884	20557
226.950	15877
227.016	8554
227.082	5371
227.148	4080
227.214	3933
227.279	3936
227.345	3006
227.411	3092
227.477	4376
227.543	7382
227.609	4625
227.674	3645
227.740	2986
227.806	2481
227.872	1590
227.938	2881
228.003	2407
228.069	2237
228.135	1853
228.201	2290
228.267	2020
228.332	3540
228.398	3227
228.464	2297
228.530	1446
228.595	1749
228.661	1319
228.727	3307
228.792	1554
228.858	1985
228.924	2244
228.990	3086
229.055	2855
229.121	1951
229.187	1422
229.252	1868
229.318	1283
229.384	2015
229.449	2138
229.515	1033
229.581	712
229.646	2697
229.712	1983
229.777	5061
229.843	3517
229.909	4415
229.974	4248
230.040	3424
230.105	2350
230.171	2911
230.236	3947
230.302	5358
230.368	3611
230.433	2990
230.499	2426
230.564	3707
230.630	2394
230.695	2549
230.761	2288
230.826	2417
230.892	2920
230.957	1902
231.023	1965
231.088	2221
231.154	1264
231.219	2823
231.284	3342
231.350	2964
231.415	1883
231.481	2331
231.546	1491
231.612	1643
231.677	1225
231.742	2224
231.808	1574
231.873	1779
231.939	1638
232.004	4116
232.069	2090
232.135	2675
232.200	2031
232.265	1263
232.331	1553
232.396	1598
232.461	618
232.527	1577
232.592	1460
232.657	2328
232.723	2345
232.788	1814
232.853	1710
232.918	1885
232.984	2683
233.049	1176
233.114	2334
233.179	2847
233.245	3903
233.310	3962
233.375	1726
233.440	1770
233.506	969
233.571	1609
233.636	1159
233.701	2073
233.766	2874
233.832	2175
233.897	1801
233.962	2606
234.027	2320
234.092	2238
234.157	1798
234.222	1784
234.288	4000
234.353	7434
234.418	5603
234.483	4482
234.548	3953
234.613	3278
234.678	4079
234.743	4350
234.808	7249
234.873	4315
234.938	3379
235.004	3715
235.069	2939
235.134	3540
235.199	2655
235.264	2716
235.329	2534
235.394	2388
235.459	2613
235.524	2927
235.589	2232
235.654	1870
235.719	1876
235.784	2354
235.849	2895
235.913	4370
235.978	5097
236.043	3907
236.108	3067
236.173	3071
236.238	2531
236.303	2618
236.368	2123
236.433	4774
236.498	4710
236.563	6073
236.627	14982
236.692	28541
236.757	18150
236.822	10195
236.887	7295
236.952	6235
237.017	5756
237.081	6921
237.146	10045
237.211	18496
237.276	31353
237.341	32280
237.405	16967
237.470	9814
237.535	6495
237.600	5344
237.664	4582
237.729	4057
237.794	7388
237.859	10479
237.923	5332
237.988	4222
238.053	4350
238.118	5219
238.182	11099
238.247	6099
238.312	4370
238.376	4401
238.441	2983
238.506	3504
238.570	2376
238.635	3250
238.700	2140
238.764	2547
238.829	5029
238.893	4791
238.958	4079
239.023	3241
239.087	2770
239.152	2996
239.216	2738
239.281	2057
239.346	1645
239.410	2522
239.475	3629
239.539	9873
239.604	4129
239.668	2939
239.733	2695
239.797	5194
239.862	10052
239.926	6962
239.991	3453
240.055	2235
240.120	2422
240.184	2493
240.249	2089
240.313	2805
240.378	2034
240.442	7372
240.507	5979
240.571	3561
240.635	4699
240.700	4661
240.764	2245
240.829	1996
240.893	1976
240.957	1658
241.022	6331
241.086	7302
241.151	3876
241.215	2489
241.279	4109
241.344	4375
241.408	3499
241.472	3549
241.537	4238
241.601	3278
241.665	2964
241.730	2975
241.794	3493
241.858	3345
241.922	3136
241.987	3757
242.051	2341
242.115	3224
242.179	2362
242.244	2763
242.308	3327
242.372	3461
242.436	3259
242.501	2590
242.565	2212
242.629	2818
242.693	2925
242.757	2529
242.822	2408
242.886	3144
242.950	3207
243.014	3343
243.078	3383
243.142	2935
243.206	3633
243.271	3795
243.335	4017
243.399	5030
243.463	19036
243.527	23610
243.591	8127
243.655	4514
243.719	3633
243.783	4245
243.847	6944
243.911	6997
243.975	9607
244.040	5365
244.104	3609
244.168	3079
244.232	5744
244.296	6881
244.360	6830
244.424	3967
244.488	2895
244.552	2674
244.615	2226
244.679	2642
244.743	4102
244.807	2879
244.871	2041
244.935	2645
244.999	2057
245.063	3280
245.127	2833
245.191	5634
245.255	4030
245.319	6122
245.383	3418
245.446	2903
245.510	2666
245.574	3210
245.638	2861
245.702	4668
245.766	6621
245.829	4545
245.893	3490
245.957	2806
246.021	3517
246.085	3739
246.149	5126
246.212	11759
246.276	10945
246.340	6667
246.404	4318
246.467	6571
246.531	5448
246.595	4467
246.659	3944
246.722	5523
246.786	5618
246.850	6567
246.913	5370
246.977	3616
247.041	3344
247.104	3728
247.168	4913
247.232	12036
247.295	15946
247.359	7233
247.423	5572
247.486	8189
247.550	4996
247.614	5008
247.677	5558
247.741	3725
247.804	3627
247.868	3660
247.932	12295
247.995	12939
248.059	6259
248.122	3655
248.186	6051
248.249	12855
248.313	28803
248.376	23870
248.440	15309
248.503	6874
248.567	7569
248.630	10724
248.694	13778
248.757	20378
248.821	26788
248.884	16791
248.948	20127
249.011	24696
249.075	32543
249.138	22169
249.202	11333
249.265	8994
249.328	9046
249.392	7852
249.455	6281
249.519	5598
249.582	7344
249.645	10894
249.709	6308
249.772	6321
249.835	6076
249.899	5313
249.962	4805
250.025	4715
250.089	15168
250.152	13765
250.215	7286
250.279	6889
250.342	5831
250.405	6426
250.468	5956
250.532	8222
250.595	12267
250.658	40359
250.721	34835
250.785	15577
250.848	9975
250.911	6820
250.974	5896
251.038	13429
251.101	15508
251.164	9883
251.227	11118
251.290	9603
251.354	16784
251.417	46005
251.480	30829
251.543	38010
251.606	67183
251.669	39565
251.732	21472
251.795	24880
251.859	27417
251.922	44647
251.985	19153
252.048	12139
252.111	9761
252.174	10534
252.237	22830
252.300	31121
252.363	42657
252.426	47162
252.489	21516
252.552	12453
252.615	9337
252.678	14665
252.741	25807
252.804	38919
252.867	53004
252.930	31812
252.993	17868
253.056	14302
253.119	9140
253.182	8589
253.245	12356
253.308	10243
253.371	10905
253.434	8378
253.497	10180
253.559	16323
253.622	11359
253.685	20110
253.748	13867
253.811	8098
253.874	9215
253.937	8352
254.000	7899
254.062	16507
254.125	14746
254.188	17422
254.251	9827
254.314	7085
254.376	14831
254.439	13886
254.502	11914
254.565	17119
254.628	19032
254.690	12439
254.753	7138
254.816	7124
254.878	7335
254.941	15212
255.004	9897
255.067	7346
255.129	5962
255.192	4119
255.255	4409
255.317	4251
255.380	2807
255.443	2876
255.505	2514
255.568	2993
255.631	3338
255.693	4197
255.756	2281
255.819	3819
255.881	2501
255.944	2356
256.006	2604
256.069	2949
256.132	2325
256.194	5546
256.257	8240
256.319	6588
256.382	4827
256.444	5299
256.507	3624
256.569	4028
256.632	4353
256.694	7821
256.757	28178
256.819	39167
256.882	14439
256.944	8592
257.007	7168
257.069	6625
257.132	4228
257.194	4265
257.257	4178
257.319	4301
257.381	5223
257.444	20688
257.506	60949
257.569	46132
257.631	23115
257.693	12707
257.756	7177
257.818	6167
257.880	4062
257.943	4705
258.005	4056
258.067	3389
258.130	2020
258.192	6584
258.254	8412
258.317	3916
258.379	5207
258.441	11802
258.503	6170
258.566	12601
258.628	8097
258.690	3591
258.753	6502
258.815	10368
258.877	4774
258.939	3561
259.001	2933
259.064	3606
259.126	4793
259.188	4338
259.250	4451
259.312	7322
259.375	12681
259.437	6057
259.499	3773
259.561	4076
259.623	4229
259.685	3282
259.747	4273
259.809	12892
259.872	13582
259.934	28274
259.996	14045
260.058	5503
260.120	3025
260.182	3049
260.244	3001
260.306	2889
260.368	2627
260.430	3510
260.492	6186
260.554	11423
260.616	6683
260.678	19415
260.740	11715
260.802	4846
260.864	4991
260.926	4181
260.988	3704
261.050	4133
261.112	9253
261.174	18549
261.236	8620
261.298	4995
261.359	10185
261.421	8209
261.483	2929
261.545	4068
261.607	2012
261.669	2768
261.731	7968
261.793	12957
261.854	5285
261.916	5124
261.978	3557
262.040	3133
262.102	3090
262.164	5409
262.225	3102
262.287	5016
262.349	10424
262.411	4654
262.472	3536
262.534	7877
262.596	6955
262.658	3584
262.719	2204
262.781	5517
262.843	8392
262.904	4617
262.966	3897
263.028	4953
263.090	31184
263.151	34653
263.213	13701
263.275	8574
263.336	4088
263.398	3256
263.459	2092
263.521	3306
263.583	8839
263.644	4934
263.706	2237
263.767	2450
263.829	2226
263.891	1747
263.952	1541
264.014	1240
264.075	4291
264.137	6604
264.198	3104
264.260	1413
264.321	2490
264.383	9119
264.444	9429
264.506	4068
264.567	2668
264.629	6982
264.690	6229
264.752	4341
264.813	2908
264.875	2008
264.936	2835
264.998	2072
265.059	1931
265.120	2377
265.182	8066
265.243	36562
265.305	17049
265.366	6084
265.427	3366
265.489	2817
265.550	1410
265.611	3592
265.673	2520
265.734	2187
265.795	2394
265.857	3130
265.918	2727
265.979	12983
266.040	49059
266.102	21719
266.163	9360
266.224	7557
266.286	3978
266.347	3118
266.408	3417
266.469	3796
266.530	1340
266.592	2855
266.653	8900
266.714	8244
266.775	3922
266.836	2506
266.898	2268
266.959	4430
267.020	3123
267.081	3487
267.142	2538
267.203	2564
267.264	1508
267.326	3625
267.387	2043
267.448	2188
267.509	3103
267.570	2768
267.631	2369
267.692	1438
267.753	2172
267.814	2464
267.875	8398
267.936	9268
267.997	4990
268.058	5432
268.119	2419
268.180	3636
268.241	2304
268.302	1954
268.363	2165
268.424	2937
268.485	1668
268.546	1733
268.607	2239
268.668	2263
268.729	1285
268.790	2726
268.851	3196
268.912	10119
268.972	8115
269.033	3755
269.094	2008
269.155	1811
269.216	1708
269.277	2248
269.338	2102
269.398	2890
269.459	3267
269.520	5136
269.581	7340
269.642	7151
269.702	4425
269.763	3759
269.824	2760
269.885	6004
269.945	5778
270.006	2847
270.067	1472
270.128	1707
270.188	1071
270.249	2090
270.310	979
270.370	2599
270.431	2379
270.492	1104
270.553	2443
270.613	8996
270.674	10019
270.734	4230
270.795	2437
270.856	5820
270.916	2024
270.977	3222
271.038	5053
271.098	3741
271.159	7919
271.219	4317
271.280	2895
271.340	2881
271.401	3402
271.462	6741
271.522	3634
271.583	2730
271.643	2588
271.704	2780
271.764	3633
271.825	13947
271.885	36292
271.946	27427
272.006	11937
272.066	24579
272.127	20837
272.187	7799
272.248	4204
272.308	8007
272.369	18035
272.429	7577
272.489	11057
272.550	6972
272.610	10764
272.671	5988
272.731	6973
272.791	8216
272.852	5379
272.912	5168
272.972	3059
273.033	3940
273.093	5289
273.153	4897
273.214	3666
273.274	5512
273.334	20662
273.394	22709
273.455	11204
273.515	16622
273.575	20419
273.635	9980
273.696	19614
273.756	22989
273.816	9598
273.876	7903
273.936	15205
273.997	13455
274.057	4661
274.117	5918
274.177	12669
274.237	38153
274.297	19607
274.358	17827
274.418	21745
274.478	13150
274.538	4894
274.598	5675
274.658	17829
274.718	14947
274.778	6078
274.838	3946
274.898	13900
274.958	22638
275.018	26264
275.078	13200
275.138	5606
275.198	3565
275.258	3336
275.318	5679
275.378	10978
275.438	9079
275.498	5644
275.558	17380
275.618	23811
275.678	13200
275.738	13812
275.798	6773
275.858	3017
275.918	3296
275.978	4365
276.038	3247
276.098	2923
276.157	13041
276.217	19155
276.277	9196
276.337	5758
276.397	4610
276.457	5068
276.517	2839
276.576	2132
276.636	2355
276.696	7157
276.756	14679
276.815	6185
276.875	5196
276.935	6152
276.995	3352
277.055	2928
277.114	3664
277.174	8919
277.234	16136
277.293	6096
277.353	4582
277.413	2995
277.472	4492
277.532	3336
277.592	5047
277.651	26615
277.711	20135
277.771	12688
277.830	41061
277.890	18608
277.950	31683
278.009	43404
278.069	14677
278.128	31236
278.188	25429
278.248	17211
278.307	36999
278.367	12860
278.426	6720
278.486	4533
278.545	3684
278.605	3032
278.664	2479
278.724	4267
278.783	17154
278.843	19578
278.902	6656
278.962	7367
279.021	6399
279.081	9775
279.140	8050
279.199	7231
279.259	7999
279.318	7353
279.378	11027
279.437	22829
279.496	69803
279.556	137578
279.615	69643
279.675	27045
279.734	20405
279.793	34342
279.853	31336
279.912	11518
279.971	8850
280.031	8571
280.090	21570
280.149	20231
280.208	31367
280.268	106887
280.327	59641
280.386	19737
280.445	21555
280.505	12806
280.564	7780
280.623	5443
280.682	14382
280.742	10706
280.801	5286
280.860	4365
280.919	3718
280.978	4316
281.037	3613
281.097	2953
281.156	3683
281.215	3417
281.274	5898
281.333	19843
281.392	7880
281.451	3065
281.510	4172
281.569	3089
281.628	2108
281.688	3066
281.747	3814
281.806	3545
281.865	2759
281.924	2964
281.983	3566
282.042	1566
282.101	2693
282.160	3075
282.219	2070
282.278	4784
282.337	13402
282.396	4299
282.454	4191
282.513	7558
282.572	19475
282.631	7056
282.690	3465
282.749	3273
282.808	4159
282.867	4689
282.926	4115
282.985	3454
283.043	2623
283.102	3251
283.161	3707
283.220	12986
283.279	13555
283.338	5027
283.396	4663
283.455	4529
283.514	5582
283.573	8065
283.631	4975
283.690	3907
283.749	5345
283.808	12226
283.866	8020
283.925	4229
283.984	4957
284.043	8450
284.101	7209
284.160	5302
284.219	7136
284.277	6791
284.336	14140
284.395	30282
284.453	16383
284.512	11935
284.570	17726
284.629	14746
284.688	16865
284.746	18872
284.805	23557
284.863	30600
284.922	37328
284.981	46481
285.039	67928
285.098	108669
285.156	129367
285.215	80586
285.273	121999
285.332	129574
285.390	92974
285.449	64481
285.507	47108
285.566	34476
285.624	26668
285.683	19968
285.741	16734
285.799	14635
285.858	12758
285.916	11703
285.975	9354
286.033	7836
286.091	8459
286.150	6307
286.208	6680
286.267	6518
286.325	8312
286.383	10847
286.442	7058
286.500	4482
286.558	4626
286.616	4727
286.675	6652
286.733	5372
286.791	4594
286.850	5168
286.908	8905
286.966	9124
287.024	4966
287.083	3339
287.141	3070
287.199	4651
287.257	6157
287.315	4106
287.374	6340
287.432	12815
287.490	5902
287.548	5137
287.606	2681
287.664	3425
287.723	6450
287.781	4774
287.839	3947
287.897	4105
287.955	4848
288.013	7156
288.071	19463
288.129	98992
288.187	135513
288.245	49152
288.303	20550
288.361	12778
288.419	8618
288.477	5529
288.535	3820
288.593	3514
288.651	2679
288.709	1940
288.767	3562
288.825	2247
288.883	2104
288.941	1363
288.999	1937
289.057	2055
289.115	2062
289.173	1415
289.231	2882
289.289	1039
289.346	1552
289.404	3332
289.462	7119
289.520	5311
289.578	2800
289.636	835
289.694	1296
289.751	1687
289.809	1966
289.867	1522
289.925	3538
289.983	3120
290.040	2600
290.098	1852
290.156	3660
290.214	2813
290.271	1756
290.329	2009
290.387	791
290.444	370
290.502	477
290.560	1195
290.617	1915
290.675	820
290.733	2098
290.790	2013
290.848	1808
290.906	1968
290.963	1673
291.021	951
291.078	1811
291.136	1514
291.194	13185
291.251	11620
291.309	3294
291.366	1770
291.424	2186
291.481	2349
291.539	2608
291.596	2337
291.654	1138
291.711	942
291.769	3748
291.826	6142
291.884	2851
291.941	1359
291.999	2267
292.056	3452
292.114	2324
292.171	924
292.228	1770
292.286	2657
292.343	7367
292.401	6341
292.458	2584
292.515	2187
292.573	3932
292.630	3143
292.687	3444
292.745	1639
292.802	3890
292.859	12055
292.917	20057
292.974	6698
293.031	3905
293.089	2112
293.146	1961
293.203	959
293.260	1193
293.318	3151
293.375	3207
293.432	1447
293.489	1320
293.546	1357
293.604	3947
293.661	21205
293.718	27079
293.775	11220
293.832	8171
293.889	6983
293.947	5651
294.004	3155
294.061	4429
294.118	13455
294.175	18754
294.232	13890
294.289	6216
294.346	5133
294.403	4999
294.460	2832
294.517	2943
294.574	2284
294.631	1364
294.688	2358
294.745	14813
294.802	35678
294.859	21940
294.916	10139
294.973	7234
295.030	7211
295.087	4672
295.144	3044
295.201	1903
295.258	1554
295.315	5224
295.372	19042
295.429	18335
295.486	6931
295.542	4381
295.599	14835
295.656	13671
295.713	17868
295.770	16994
295.827	6419
295.883	4998
295.940	4577
295.997	9585
296.054	5712
296.111	3160
296.167	1688
296.224	1554
296.281	2017
296.338	1659
296.394	1904
296.451	3756
296.508	15562
296.564	15110
296.621	13977
296.678	37957
296.734	27211
296.791	9729
296.848	6312
296.904	11666
296.961	22201
297.018	26977
297.074	11796
297.131	5696
297.187	4119
297.244	8932
297.301	37494
297.357	32083
297.414	10739
297.470	5958
297.527	2765
297.583	4175
297.640	2898
297.696	2125
297.753	1507
297.809	1740
297.866	1019
297.922	1617
297.979	1405
298.035	1796
298.092	7181
298.148	17635
298.204	10300
298.261	6129
298.317	18312
298.374	30779
298.430	13050
298.486	7342
298.543	5428
298.599	4384
298.656	5025
298.712	16878
298.768	29148
298.824	12532
298.881	4850
298.937	3424
298.993	3974
299.050	4510
299.106	3782
299.162	4080
299.218	3637
299.275	2245
299.331	2568
299.387	13024
299.443	36912
299.500	23518
299.556	8891
299.612	6189
299.668	5323
299.724	8854
299.780	5425
299.837	3856
299.893	10643
299.949	33464
300.005	23076
300.061	32465
300.117	34962
300.173	13482
300.229	9498
300.285	15284
300.341	11592
300.397	5644
300.453	3435
300.510	3237
300.566	3244
300.622	6025
300.678	23433
300.734	27846
300.790	26929
300.845	23721
300.901	22033
300.957	30241
301.013	14824
301.069	6965
301.125	6923
301.181	6213
301.237	4046
301.293	3028
301.349	1314
301.405	2154
301.461	1541
301.516	2286
301.572	5654
301.628	9578
301.684	6397
301.740	14525
301.796	13278
301.851	13634
301.907	21322
301.963	17152
302.019	45020
302.074	86188
302.130	60171
302.186	24866
302.242	11989
302.297	9398
302.353	11398
302.409	18203
302.464	10253
302.520	15797
302.576	36351
302.631	31412
302.687	16323
302.743	7446
302.798	5046
302.854	4655
302.910	4367
302.965	7017
303.021	10784
303.076	10421
303.132	17789
303.187	14528
303.243	6432
303.299	4206
303.354	4003
303.410	3526
303.465	2875
303.521	3085
303.576	2630
303.632	3530
303.687	13845
303.743	27521
303.798	16160
303.853	7245
303.909	4142
303.964	5175
304.020	11236
304.075	10530
304.130	14081
304.186	23077
304.241	20975
304.297	14460
304.352	6864
304.358	6684
304.407	5221
304.449	4600
304.463	4397
304.518	5527
304.539	4737
304.573	3448
304.629	3531
304.630	3647
304.684	8968
304.720	21193
304.739	27468
304.794	24204
304.811	20190
304.850	10360
304.902	5896
304.905	5624
304.960	5132
304.992	5409
305.015	5625
305.071	6154
305.083	5566
305.126	3393
305.173	1949
305.181	1715
305.236	1803
305.264	2714
305.292	3658
305.347	3639
305.354	3688
305.402	4039
305.445	5508
305.457	5945
305.512	7576
305.535	6780
305.567	5521
305.622	5131
305.626	5622
305.678	14371
305.716	27504
305.733	32870
305.788	23920
305.807	22634
305.843	19803
305.897	28376
305.898	28498
305.953	20037
305.988	13989
306.008	10277
306.063	6141
306.078	5525
306.118	4458
306.168	3235
306.173	3132
306.228	2730
306.259	2338
306.283	2100
306.338	2590
306.349	2706
306.393	3202
306.440	3565
306.448	3615
306.503	3736
306.530	4032
306.558	4596
306.613	9100
306.620	10059
306.668	17429
306.711	24888
306.723	26257
306.778	17589
306.801	14412
306.833	9844
306.888	5211
306.892	5005
306.943	3730
306.982	3069
306.997	2904
307.052	2868
307.072	2876
307.107	2784
307.162	3306
307.163	3309
307.217	3994
307.253	5187
307.272	5668
307.327	5309
307.343	5358
307.381	5450
307.434	5164
307.436	5229
307.491	10798
307.524	16456
307.546	20070
307.600	20028
307.614	18733
307.655	11119
307.704	5786
307.710	5585
307.765	6413
307.795	7754
307.819	8975
307.874	11122
307.885	10905
307.929	9394
307.975	9282
307.984	9644
308.038	13922
308.065	18693
308.093	28458
308.148	69243
308.156	76624
308.202	125743
308.246	136920
308.257	130217
308.312	76716
308.336	58833
308.366	47138
308.421	29326
308.426	27865
308.475	17912
308.517	12625
308.530	11860
308.585	10101
308.607	9649
308.639	9024
308.694	8366
308.697	8474
308.748	11456
308.787	13549
308.803	13956
308.857	12118
308.877	11833
308.912	11892
308.967	13031
308.967	13090
309.021	19939
309.058	26499
309.076	32107
309.130	54671
309.148	64145
309.185	95685
309.238	152858
309.239	153586
309.293	176844
309.328	173958
309.348	153439
309.402	89422
309.418	73821
309.457	53197
309.508	32477
309.511	32027
309.566	30296
309.598	32301
309.620	38490
309.674	60094
309.688	64073
309.729	64752
309.778	56690
309.783	54901
309.837	35296
309.868	26226
309.892	25514
309.946	29848
309.959	31574
310.001	42639
310.049	48892
310.055	47135
310.109	28678
310.139	19459
310.163	15412
310.218	9038
310.229	7856
310.272	6521
310.319	5780
310.326	5602
310.381	4533
310.409	3999
310.435	3992
310.489	3867
310.499	3929
310.543	3849
310.589	3727
310.598	3669
310.652	3213
310.679	2949
310.706	2742
310.760	2352
310.769	2317
310.814	2529
310.859	2711
310.868	2730
310.923	2657
310.948	2768
310.977	2983
311.031	3220
311.038	3268
311.085	3087
311.128	2818
311.139	2918
311.193	3555
311.218	3661
311.247	3239
311.301	2867
311.308	2788
311.356	2730
311.398	2793
311.410	2822
311.464	2829
311.488	2875
311.518	2852
311.572	2761
311.578	2770
311.626	4410
311.668	5721
311.680	5373
311.734	3678
311.758	2939
311.788	2856
311.842	2765
311.847	2762
311.896	3821
311.937	4724
311.950	4693
312.004	4519
312.027	4452
312.058	4024
312.112	3254
312.117	3177
312.165	3396
312.207	3583
312.297	3578
312.386	3301
312.476	3516
312.566	7116
312.656	4794
312.745	2874
312.835	2580
312.925	2893
313.015	2618
313.104	2978
313.194	2549
313.284	3692
313.374	4993
313.463	6114
313.553	3766
313.643	3187
313.732	2837
313.822	2459
313.912	3702
314.001	3301
314.091	3519
314.180	3779
314.270	4720
314.360	5111
314.449	5246
314.539	3347
314.628	2622
314.718	2805
314.808	3389
314.897	3254
314.987	4399
315.076	3659
315.166	5321
315.255	4453
315.345	4400
315.434	3182
315.524	3641
315.613	3669
315.703	5950
315.792	6290
315.881	10228
315.971	6837
316.060	6991
316.150	6986
316.239	6360
316.328	3751
316.418	2558
316.507	2690
316.597	4014
316.686	3506
316.775	3645
316.865	5557
316.954	3423
317.043	2319
317.133	3246
317.222	2283
317.311	2586
317.400	2522
317.490	4377
317.579	4994
317.668	3465
317.757	3746
317.847	8296
317.936	17552
318.025	15178
318.114	7955
318.203	5398
318.293	5511
318.382	8929
318.471	10167
318.560	10968
318.649	14637
318.738	6670
318.828	3752
318.917	5138
319.006	3095
319.095	7384
319.184	21839
319.273	19970
319.362	15599
319.451	4561
319.540	4341
319.629	7844
319.718	17210
319.807	5749
319.896	8356
319.985	26691
320.074	17888
320.163	4021
320.252	4788
320.341	3957
320.430	4108
320.519	6924
320.608	5345
320.697	3552
320.786	3359
320.875	4522
320.964	6936
321.053	10539
321.142	14804
321.230	18704
321.319	9760
321.408	24561
321.497	13630
321.586	10080
321.675	8412
321.764	8949
321.852	6401
321.941	13992
322.030	12646
322.119	7980
322.207	24846
322.296	13972
322.385	5486
322.474	9187
322.562	29975
322.651	21431
322.740	10120
322.829	15344
322.917	9331
323.006	8589
323.095	9397
323.183	4819
323.272	7988
323.361	10752
323.449	19091
323.538	10409
323.626	13926
323.715	11340
323.804	3446
323.892	12023
323.981	13808
324.069	4290
324.158	5571
324.246	6877
324.335	5513
324.424	11032
324.512	5370
324.601	5860
324.689	7364
324.778	17022
324.866	8207
324.954	3774
325.043	2816
325.131	4707
325.220	5942
325.308	6452
325.397	5697
325.485	5106
325.574	2727
325.662	2516
325.750	3350
325.839	3288
325.927	2469
326.015	3243
326.104	3045
326.192	4064
326.280	2898
326.369	2818
326.457	4750
326.545	9180
326.634	5561
326.722	2309
326.810	2138
326.898	2505
326.987	2739
327.075	6199
327.163	7065
327.251	2601
327.340	4473
327.428	9495
327.516	3314
327.604	2378
327.692	1663
327.781	1564
327.869	2666
327.957	2666
328.045	4650
328.133	2174
328.221	2102
328.309	2142
328.397	2303
328.485	3793
328.574	4902
328.662	16294
328.750	11291
328.838	2871
328.926	2361
329.014	1800
329.102	3429
329.190	6769
329.278	7189
329.366	2855
329.454	1656
329.542	2286
329.630	2425
329.718	2675
329.806	3901
329.893	3830
329.981	3219
330.069	4605
330.157	21369
330.245	84665
330.333	65318
330.421	10542
330.509	5749
330.597	20172
330.684	18471
330.772	4858
330.860	3368
330.948	4612
331.036	3469
331.123	1891
331.211	1874
331.299	1671
331.387	3502
331.475	7600
331.562	3513
331.650	1958
331.738	2282
331.825	2804
331.913	1713
332.001	2313
332.089	2642
332.176	3117
332.264	4468
332.352	6322
332.439	3925
332.527	2553
332.614	1488
332.702	2380
332.790	2323
332.877	3912
332.965	8400
333.052	7576
333.140	5493
333.228	18177
333.315	7740
333.403	3045
333.490	4493
333.578	7097
333.665	22545
333.753	15830
333.840	3844
333.928	3320
334.015	4073
334.103	5701
334.190	20608
334.278	10667
334.365	4561
334.452	4552
334.540	3097
334.627	2232
334.715	3165
334.802	5249
334.889	15577
334.977	24274
335.064	6982
335.151	3756
335.239	2935
335.326	2689
335.413	9151
335.501	21826
335.588	4629
335.675	3328
335.762	3176
335.850	4826
335.937	3718
336.024	7112
336.111	20203
336.199	16899
336.286	5711
336.373	3269
336.460	1993
336.547	2320
336.635	3326
336.722	3857
336.809	2122
336.896	2952
336.983	7982
337.070	17268
337.157	27062
337.245	15080
337.332	10678
337.419	3084
337.506	2113
337.593	2190
337.680	3773
337.767	15390
337.854	6651
337.941	6051
338.028	7232
338.115	4146
338.202	2732
338.289	4721
338.376	12291
338.463	7348
338.550	6778
338.637	12943
338.724	3917
338.811	5099
338.898	2990
338.984	1315
339.071	2271
339.158	3129
339.245	9455
339.332	8875
339.419	3804
339.506	4875
339.593	2204
339.679	2970
339.766	2282
339.853	2929
339.940	8817
340.027	3894
340.113	2946
340.200	4736
340.287	3172
340.374	4051
340.460	9516
340.547	5741
340.634	4364
340.720	17006
340.807	18020
340.894	2811
340.980	3075
341.067	2636
341.154	3593
341.240	4981
341.327	12396
341.414	6399
341.500	7334
341.587	3499
341.674	2738
341.760	6180
341.847	10524
341.933	4701
342.020	1700
342.106	1280
342.193	2425
342.279	6064
342.366	4335
342.452	9056
342.539	4384
342.625	6983
342.712	23250
342.798	13608
342.885	5602
342.971	1777
343.058	1645
343.144	2349
343.230	2667
343.317	3099
343.403	3272
343.490	2014
343.576	1304
343.662	2377
343.749	3170
343.835	3218
343.921	4383
344.008	24249
344.094	82699
344.180	29667
344.267	7346
344.353	17060
344.439	27867
344.525	12687
344.612	6387
344.698	4959
344.784	3598
344.870	2364
344.957	3294
345.043	5034
345.129	3565
345.215	7979
345.301	6678
345.387	5180
345.474	1762
345.560	1930
345.646	2291
345.732	2161
345.818	3589
345.904	3812
345.990	3320
346.076	2691
346.162	4380
346.249	4044
346.335	2239
346.421	2696
346.507	6224
346.593	30851
346.679	13228
346.765	2502
346.851	2646
346.937	3865
347.023	2408
347.108	2694
347.194	3507
347.280	3152
347.366	3342
347.452	7537
347.538	32516
347.624	31702
347.710	27274
347.796	5872
347.882	2558
347.967	2913
348.053	2401
348.139	2491
348.225	2487
348.311	2721
348.397	2311
348.482	2641
348.568	4011
348.654	1767
348.740	2766
348.825	3624
348.911	4141
348.997	12159
349.083	36483
349.168	9609
349.254	4021
349.340	4389
349.425	2375
349.511	3363
349.597	3788
349.682	6287
349.768	22699
349.854	18524
349.939	3106
350.025	2328
350.110	2811
350.196	2243
350.282	3253
350.367	1753
350.453	2699
350.538	2483
350.624	3594
350.709	4340
350.795	2577
350.880	3004
350.966	3536
351.051	4341
351.137	2531
351.222	3225
351.308	6569
351.393	24823
351.479	11544
351.564	4689
351.649	2603
351.735	2701
351.820	2192
351.906	3072
351.991	2856
352.076	9736
352.162	27468
352.247	7559
352.332	3763
352.418	6807
352.503	10244
352.588	25670
352.673	39593
352.759	8945
352.844	4717
352.929	4427
353.014	6176
353.100	3824
353.185	6199
353.270	9339
353.355	9708
353.441	3933
353.526	3087
353.611	6676
353.696	10890
353.781	6470
353.866	4098
353.952	3639
354.037	6545
354.122	16770
354.207	17110
354.292	8992
354.377	3498
354.462	2928
354.547	4221
354.632	4136
354.717	3848
354.802	7191
354.887	4288
354.972	1962
355.057	3231
355.142	2188
355.227	3177
355.312	5065
355.397	10079
355.482	24997
355.567	19740
355.652	8534
355.737	11273
355.822	21142
355.907	32232
355.991	6413
356.076	2974
356.161	3168
356.246	3283
356.331	3341
356.416	5018
356.501	28003
356.585	55437
356.670	11247
356.755	6061
356.840	6731
356.924	20855
357.009	90083
357.094	63152
357.179	10909
357.263	8380
357.348	5775
357.433	8648
357.517	7030
357.602	6431
357.687	4065
357.771	4847
357.856	6241
357.941	6341
358.025	14537
358.110	81655
358.195	70290
358.279	12197
358.364	6709
358.448	14661
358.533	50254
358.617	49337
358.702	39119
358.787	22505
358.871	8901
358.956	9864
359.040	4025
359.125	2930
359.209	2866
359.294	3234
359.378	4459
359.462	6851
359.547	5714
359.631	3102
359.716	3481
359.800	3165
359.885	3961
359.969	4183
360.053	3408
360.138	2533
360.222	4077
360.306	8306
360.391	7716
360.475	5829
360.559	15679
360.644	17972
360.728	19895
360.812	14538
360.896	59613
360.981	33802
361.065	18325
361.149	6026
361.233	5174
361.318	4116
361.402	4229
361.486	4222
361.570	3921
361.654	4216
361.739	8320
361.823	28327
361.907	70276
361.991	21811
362.075	7413
362.159	16551
362.243	14642
362.327	9275
362.411	14638
362.495	9021
362.580	5595
362.664	3232
362.748	3766
362.832	4042
362.916	5558
363.000	13972
363.084	41875
363.168	80208
363.252	30614
363.336	8107
363.420	6932
363.503	15000
363.587	26167
363.671	8281
363.755	5233
363.839	7986
363.923	5969
364.007	6706
364.091	11472
364.175	6985
364.258	26020
364.342	29844
364.426	34613
364.510	28131
364.594	12538
364.677	9828
364.761	40229
364.845	52865
364.929	15964
365.013	16057
365.096	10211
365.180	13835
365.264	8073
365.347	25185
365.431	20387
365.515	6132
365.598	5072
365.682	4550
365.766	3663
365.849	5632
365.933	3905
366.017	5313
366.100	3271
366.184	2315
366.267	3067
366.351	2762
366.435	3769
366.518	2628
366.602	2325
366.685	3642
366.769	4757
366.852	4333
366.936	7621
367.019	7388
367.103	4129
367.186	4711
367.270	3905
367.353	2966
367.436	2868
367.520	3222
367.603	3026
367.687	5883
367.770	10398
367.853	6859
367.937	11674
368.020	32439
368.104	12113
368.187	6462
368.270	11337
368.353	12006
368.437	9740
368.520	8610
368.603	11400
368.687	14723
368.770	41224
368.853	15988
368.936	8369
369.020	8795
369.103	4482
369.186	3480
369.269	3258
369.352	5214
369.436	9979
369.519	7454
369.602	4137
369.685	3204
369.768	5846
369.851	4080
369.934	3389
370.018	3685
370.101	8363
370.184	8750
370.267	5059
370.350	6452
370.433	10361
370.516	20804
370.599	41493
370.682	14311
370.765	20841
370.848	28740
370.931	43613
371.014	28244
371.097	6848
371.180	6389
371.263	5644
371.346	4421
371.429	5500
371.511	5080
371.594	7815
371.677	10954
371.760	9932
371.843	10744
371.926	27214
372.009	89138
372.091	53137
372.174	21834
372.257	41328
372.340	30492
372.423	14888
372.505	16145
372.588	9544
372.671	12628
372.754	41125
372.836	35990
372.919	11447
373.002	19713
373.085	14585
373.167	10512
373.250	18988
373.332	41317
373.415	46977
373.498	106311
373.580	65713
373.663	37776
373.746	82431
373.828	29365
373.911	10738
373.993	8201
374.076	14363
374.159	19698
374.241	10665
374.324	32148
374.406	37289
374.489	22047
374.571	82961
374.654	59523
374.736	17572
374.819	43985
374.901	69408
374.983	94660
375.066	28770
375.148	6731
375.231	9764
375.313	26062
375.395	16995
375.478	5748
375.560	4759
375.643	5231
375.725	11193
375.807	51591
375.890	61001
375.972	15187
376.054	10985
376.136	8956
376.219	7078
376.301	11597
376.383	52212
376.465	36385
376.548	14352
376.630	15979
376.712	42504
376.794	38333
376.877	5500
376.959	3134
377.041	3755
377.123	3375
377.205	5467
377.287	3455
377.369	2742
377.452	3741
377.534	3666
377.616	3125
377.698	3283
377.780	2673
377.862	4151
377.944	3866
378.026	2718
378.108	2767
378.190	2921
378.272	2382
378.354	2626
378.436	2230
378.518	3110
378.600	8996
378.682	11062
378.764	20995
378.846	31243
378.928	7874
379.010	10154
379.091	8695
379.173	4398
379.255	2941
379.337	4488
379.419	8870
379.501	35307
379.583	25664
379.664	5027
379.746	8212
379.828	23236
379.910	39763
379.991	41622
380.073	12569
380.155	4686
380.237	4568
380.318	3035
380.400	3261
380.482	5755
380.564	10896
380.645	11056
380.727	12521
380.809	9016
380.890	6135
380.972	4705
381.053	4514
381.135	5662
381.217	7793
381.298	28145
381.380	22917
381.461	11156
381.543	33094
381.624	74623
381.706	23627
381.787	8911
381.869	8846
381.951	15180
382.032	68821
382.113	77251
382.195	21386
382.276	10782
382.358	15664
382.439	42928
382.521	52991
382.602	80923
382.684	53444
382.765	58427
382.846	93675
382.928	164490
383.009	146689
383.090	64978
383.172	153586
383.253	325810
383.334	162104
383.416	86673
383.497	68216
383.578	34976
383.659	50586
383.741	127852
383.822	354013
383.903	295934
383.984	95611
384.066	92112
384.147	82714
384.228	26577
384.309	15034
384.390	14014
384.471	10653
384.553	10481
384.634	10753
384.715	13309
384.796	8321
384.877	8982
384.958	20093
385.039	40428
385.120	22037
385.201	8700
385.282	7985
385.363	8327
385.444	9184
385.525	10057
385.606	27608
385.687	42735
385.768	12770
385.849	9102
385.930	27637
386.011	75125
386.092	37031
386.173	8213
386.254	4555
386.335	4630
386.416	4686
386.496	11789
386.577	32153
386.658	14622
386.739	7043
386.820	5008
386.901	3162
386.981	4298
387.062	3930
387.143	5061
387.224	19735
387.304	34459
387.385	12584
387.466	5338
387.547	5746
387.627	5257
387.708	6895
387.789	33350
387.869	65244
387.950	27335
388.031	4489
388.111	1908
388.192	4792
388.273	6571
388.353	5180
388.434	4707
388.514	6349
388.595	28224
388.676	60699
388.756	39728
388.837	25255
388.917	25570
388.998	5744
389.078	3484
389.159	3378
389.239	3294
389.320	4608
389.400	5968
389.480	6498
389.561	23885
389.641	24418
389.722	5505
389.802	9384
389.883	10195
389.963	26198
390.043	28233
390.124	6731
390.204	6020
390.284	25811
390.365	27873
390.445	11383
390.525	30030
390.605	47774
390.686	26624
390.766	8727
390.846	4536
390.927	2411
391.007	2255
391.087	3663
391.167	3989
391.247	1991
391.328	3708
391.408	5081
391.488	4710
391.568	2898
391.648	3690
391.728	7098
391.808	6700
391.888	6627
391.969	10869
392.049	29263
392.129	16503
392.209	8142
392.289	27918
392.369	25984
392.449	8650
392.529	7540
392.609	7391
392.689	8086
392.769	22225
392.849	35814
392.929	14973
393.009	30045
393.089	39678
393.169	20367
393.248	39752
393.328	167391
393.408	297194
393.488	111671
393.568	27017
393.648	13754
393.728	9210
393.807	7132
393.887	7049
393.967	6750
394.047	8200
394.127	9482
394.206	13567
394.286	32023
394.366	144122
394.446	258443
394.525	102154
394.605	23022
394.685	12728
394.764	12009
394.844	18549
394.924	19879
395.003	10190
395.083	7142
395.163	6328
395.242	5220
395.322	6407
395.402	4137
395.481	5652
395.561	7634
395.640	20468
395.720	26535
395.799	22517
395.879	25590
395.958	20482
396.038	47122
396.117	192021
396.197	327285
396.276	148716
396.356	41947
396.435	20576
396.515	14600
396.594	13120
396.673	20266
396.753	43464
396.832	175884
396.912	223966
396.991	76645
397.070	18198
397.150	9044
397.229	6911
397.308	6522
397.388	12636
397.467	9904
397.546	4286
397.625	2999
397.705	4930
397.784	6014
397.863	3984
397.942	2820
398.022	2863
398.101	3467
398.180	14096
398.259	12093
398.338	3994
398.417	3585
398.497	3165
398.576	2025
398.655	2315
398.734	2356
398.813	1437
398.892	3717
398.971	14071
399.050	14527
399.129	2705
399.208	1668
399.287	1723
399.366	1814
399.445	1443
399.524	1863
399.603	1736
399.682	3019
399.761	7372
399.840	16156
399.919	21393
399.998	4621
400.077	996
400.156	1164
400.235	2573
400.313	1246
400.392	2065
400.471	8218
400.550	26661
400.629	12465
400.708	3236
400.786	1855
400.865	3103
400.944	5004
401.023	4587
401.102	706
401.180	1058
401.259	527
401.338	1037
401.416	2559
401.495	3098
401.574	1427
401.652	1307
401.731	2202
401.810	2669
401.888	1910
401.967	765
402.046	1093
402.124	1286
402.203	3144
402.281	2254
402.360	1673
402.438	3769
402.517	3817
402.596	1853
402.674	1453
402.753	1525
402.831	1716
402.910	1301
402.988	4447
403.066	28482
403.145	33700
403.223	9252
403.302	25819
403.380	30831
403.459	24545
403.537	15925
403.615	3770
403.694	1114
403.772	1337
403.850	587
403.929	910
404.007	1378
404.085	2924
404.164	5360
404.242	3188
404.320	3159
404.398	8475
404.477	16229
404.555	40624
404.633	72955
404.711	21267
404.789	7733
404.868	2106
404.946	2400
405.024	638
405.102	1090
405.180	1142
405.258	919
405.336	1364
405.415	948
405.493	2419
405.571	3510
405.649	2005
405.727	208
405.805	1830
405.883	2101
405.961	2247
406.039	2316
406.117	1270
406.195	3128
406.273	7266
406.351	40979
406.429	49481
406.507	8652
406.585	1284
406.663	1860
406.740	2958
406.818	3623
406.896	1441
406.974	1490
407.052	1835
407.130	17367
407.208	51327
407.285	20473
407.363	2086
407.441	1846
407.519	1131
407.596	1555
407.674	3368
407.752	10003
407.830	15542
407.907	5798
407.985	2871
408.063	1620
408.141	356
408.218	1395
408.296	2092
408.373	2144
408.451	2813
408.529	2908
408.606	998
408.684	1183
408.762	523
408.839	-277
408.917	-410
408.994	937
409.072	864
409.149	740
409.227	811
409.304	2170
409.382	1891
409.459	2069
409.537	3428
409.614	3187
409.692	1611
409.769	1561
409.846	2591
409.924	3595
410.001	2649
410.079	2893
410.156	2297
410.233	641
410.311	1257
410.388	975
410.465	1336
410.543	872
410.620	852
410.697	1157
410.775	2518
410.852	1153
410.929	1139
411.006	2229
411.083	1008
411.161	1063
411.238	3083
411.315	2025
411.392	817
411.469	944
411.547	893
411.624	513
411.701	1309
411.778	1231
411.855	3173
411.932	4007
412.009	991
412.086	1617
412.163	1376
412.240	1482
412.317	1202
412.394	892
412.471	939
412.548	522
412.625	467
412.702	678
412.779	1668
412.856	2339
412.933	541
413.010	1350
413.087	1299
413.164	6516
413.241	23595
413.318	10625
413.395	3142
413.471	2959
413.548	3275
413.625	1093
413.702	687
413.779	1111
413.855	784
413.932	-110
414.009	-426
414.086	817
414.162	424
414.239	1253
414.316	6078
414.393	27594
414.469	22199
414.546	2523
414.623	858
414.699	723
414.776	1299
414.853	922
414.929	540
415.006	1187
415.082	653
415.159	653
415.236	-97
415.312	1640
415.389	2277
415.465	4227
415.542	3050
415.618	-400
415.695	3228
415.771	2394
415.848	1065
415.924	1336
416.000	852
416.077	371
416.153	397
416.230	-392
416.306	5
416.383	251
416.459	165
416.535	113
416.612	-646
416.688	397
416.764	300
416.841	750
416.917	1249
416.993	730
417.069	467
417.146	2435
417.222	3617
417.298	4064
417.374	1160
417.451	469
417.527	1712
417.603	2133
417.679	2041
417.755	625
417.831	112
417.908	-271
417.984	-727
418.060	283
418.136	1636
418.212	5535
418.288	2516
418.364	1341
418.440	578
418.516	2563
418.592	1823
418.668	3119
418.744	8592
418.820	10205
418.896	3030
418.972	554
419.048	110
419.124	2591
419.200	4455
419.276	1608
419.352	35
419.428	654
419.504	340
419.579	2061
419.655	1751
419.731	454
419.807	3478
419.883	9239
419.959	10922
420.034	3416
420.110	2268
420.186	12832
420.262	24325
420.337	5170
420.413	1432
420.489	1369
420.565	1124
420.640	549
420.716	1216
420.792	464
420.867	410
420.943	635
421.019	2179
421.094	2996
421.170	1879
421.245	157
421.321	2100
421.397	1139
421.472	2504
421.548	5939
421.623	9597
421.699	3953
421.774	2700
421.850	2663
421.925	2994
422.001	4817
422.076	3485
422.152	3295
422.227	5855
422.302	7362
422.378	8844
422.453	16015
422.529	31502
422.604	91588
422.679	210200
422.755	207191
422.830	93037
422.905	32045
422.981	15331
423.056	9401
423.131	7066
423.207	4532
423.282	4285
423.357	6614
423.432	7134
423.508	4345
423.583	8698
423.658	12884
423.733	4265
423.808	2390
423.883	3335
423.959	3556
424.034	2896
424.109	1905
424.184	679
424.259	1687
424.334	1086
424.409	38
424.484	938
424.559	1330
424.634	975
424.709	863
424.784	2440
424.859	1830
424.934	2107
425.009	8407
425.084	23369
425.159	18309
425.234	3233
425.309	467
425.384	37
425.459	-205
425.534	276
425.609	-328
425.683	443
425.758	-379
425.833	1254
425.908	872
425.983	2740
426.058	18616
426.132	21108
426.207	2579
426.282	1648
426.357	426
426.431	579
426.506	410
426.581	413
426.655	1086
426.730	172
426.805	895
426.879	367
426.954	295
427.029	1845
427.103	9169
427.178	42638
427.253	42028
427.327	6369
427.402	1016
427.476	1723
427.551	410
427.625	362
427.700	897
427.774	-147
427.849	360
427.923	265
427.998	-213
428.072	17
428.147	1727
428.221	6064
428.296	31484
428.370	37791
428.444	6447
428.519	1292
428.593	2346
428.667	3051
428.742	2405
428.816	3564
428.890	9636
428.965	36809
429.039	22449
429.113	4092
429.188	2588
429.262	985
429.336	1011
429.410	7856
429.485	12351
429.559	2739
429.633	2753
429.707	1100
429.781	2379
429.855	10894
429.930	39514
430.004	27267
430.078	11808
430.152	15985
430.226	31308
430.300	72259
430.374	25978
430.448	3843
430.522	3054
430.596	10843
430.670	14406
430.744	22877
430.818	79860
430.892	42573
430.966	4722
431.040	1899
431.114	1141
431.188	531
431.262	82
431.336	-82
431.410	1953
431.484	3032
431.557	7045
431.631	2105
431.705	693
431.779	2550
431.853	21132
431.927	38904
432.000	9954
432.074	734
432.148	392
432.222	288
432.295	582
432.369	436
432.443	808
432.516	6610
432.590	39320
432.664	40270
432.737	5683
432.811	582
432.885	100
432.958	436
433.032	33
433.106	273
433.179	40
433.253	-255
433.326	-12
433.400	-382
433.473	90
433.547	-506
433.620	-257
433.694	879
433.767	3299
433.841	565
433.914	393
433.988	-371
434.061	115
434.134	-793
434.208	33
434.281	-505
434.355	56
434.428	-295
434.501	-51
434.575	-60
434.648	-16
434.721	-582
434.795	23
434.868	-1161
434.941	-1368
435.014	-333
435.088	326
435.161	995
435.234	1210
435.307	4264
435.381	2724
435.454	1493
435.527	1499
435.600	2139
435.673	1173
435.746	673
435.819	873
435.892	-75
435.966	542
436.039	-77
436.112	-37
436.185	-619
436.258	446
436.331	-938
436.404	150
436.477	-504
436.550	-337
436.623	-769
436.696	-622
436.769	-316
436.842	632
436.915	-167
436.987	-54
437.060	776
437.133	266
437.206	-326
437.279	-441
437.352	209
437.425	171
437.498	199
437.570	2874
437.643	5647
437.716	3089
437.789	416
437.861	-372
437.934	2194
438.007	2986
438.080	65
438.152	544
438.225	1756
438.298	9219
438.370	54726
438.443	62632
438.516	12388
438.588	3177
438.661	-247
438.734	882
438.806	515
438.879	1356
438.951	1066
439.024	2134
439.096	1355
439.169	442
439.241	-183
439.314	49
439.386	355
439.459	860
439.531	1110
439.604	919
439.676	1038
439.749	-381
439.821	243
439.893	509
439.966	539
440.038	-13
440.110	580
440.183	940
440.255	10
440.327	1401
440.400	2893
440.472	25092
440.544	54185
440.617	14982
440.689	2716
440.761	1831
440.833	3242
440.905	3313
440.978	716
441.050	56
441.122	354
441.194	-107
441.266	285
441.338	54
441.411	339
441.483	6928
441.555	28485
441.627	18161
441.699	1694
441.771	-44
441.843	-262
441.915	150
441.987	548
442.059	463
442.131	169
442.203	1392
442.275	1733
442.347	2357
442.419	2055
442.491	6782
442.563	35952
442.635	44307
442.706	11700
442.778	9646
442.850	4056
442.922	725
442.994	-207
443.066	1036
443.137	3004
443.209	1307
443.281	1355
443.353	2832
443.425	9720
443.496	48851
443.568	106477
443.640	68188
443.711	17708
443.783	3143
443.855	2209
443.926	1055
443.998	462
444.070	650
444.141	1480
444.213	1831
444.285	4551
444.356	3137
444.428	1894
444.499	778
444.571	252
444.642	1057
444.714	620
444.785	2043
444.857	2882
444.928	2091
445.000	2474
445.071	1639
445.143	3620
445.214	3135
445.285	3430
445.357	8191
445.428	23632
445.500	105290
445.571	130634
445.642	69580
445.714	30690
445.785	10646
445.856	4438
445.928	3734
445.999	4502
446.070	2728
446.141	1788
446.213	4194
446.284	3281
446.355	1610
446.426	244
446.497	504
446.569	-92
446.640	1528
446.711	4286
446.782	2362
446.853	754
446.924	1220
446.995	1126
447.066	1497
447.138	324
447.209	1261
447.280	53
447.351	-307
447.422	-635
447.493	1
447.564	697
447.635	2461
447.706	3099
447.777	387
447.847	-686
447.918	-45
447.989	379
448.060	628
448.131	1113
448.202	2069
448.273	4015
448.344	2597
448.414	319
448.485	439
448.556	425
448.627	-412
448.698	781
448.768	-18
448.839	-595
448.910	708
448.981	1053
449.051	991
449.122	959
449.193	697
449.263	223
449.334	-415
449.405	348
449.475	3067
449.546	6097
449.616	2619
449.687	1729
449.758	757
449.828	884
449.899	433
449.969	567
450.040	945
450.110	757
450.181	342
450.251	195
450.322	880
450.392	20
450.463	60
450.533	342
450.604	471
450.674	730
450.744	17
450.815	205
450.885	77
450.955	496
451.026	129
451.096	129
451.166	192
451.237	313
451.307	2055
451.377	1918
451.447	721
451.518	77
451.588	-132
451.658	841
451.728	548
451.799	1583
451.869	4144
451.939	1897
452.009	566
452.079	723
452.149	58
452.219	285
452.289	2224
452.360	3555
452.430	2088
452.500	386
452.570	1295
452.640	2137
452.710	3715
452.780	7995
452.850	8709
452.920	10647
452.990	8291
453.060	2149
453.129	1477
453.199	2219
453.269	2632
453.339	10861
453.409	19122
453.479	11296
453.549	17138
453.619	20642
453.688	15382
453.758	4162
453.828	748
453.898	1908
453.968	920
454.037	1173
454.087	535
454.107	261
454.168	64
454.177	19
454.247	194
454.249	221
454.316	491
454.330	527
454.386	613
454.411	491
454.456	86
454.492	1474
454.525	2704
454.574	2866
454.595	2922
454.655	1020
454.665	712
454.734	1429
454.736	1448
454.804	1210
454.817	1464
454.873	2011
454.898	3010
454.943	4648
454.979	3153
455.013	1878
455.060	1820
455.082	1830
455.141	1768
455.152	1738
455.221	2496
455.222	2569
455.291	4570
455.303	4659
455.360	5143
455.384	6135
455.430	7172
455.465	7833
455.499	8708
455.546	5696
455.569	4039
455.627	3568
455.638	3568
455.707	1932
455.708	1942
455.777	917
455.789	904
455.846	922
455.869	1168
455.916	1436
455.950	1297
455.985	1279
456.031	1533
456.054	1558
456.112	1020
456.124	947
456.193	1135
456.193	1120
456.262	810
456.274	992
456.332	1959
456.355	1624
456.401	688
456.436	1078
456.470	1473
456.516	1132
456.540	999
456.597	743
456.609	661
456.678	1148
456.678	1137
456.747	1010
456.759	1031
456.817	1182
456.840	1227
456.886	1121
456.920	1029
456.955	1059
457.001	1291
457.024	1527
457.082	1583
457.093	1509
457.162	1794
457.163	1813
457.232	1988
457.243	1922
457.301	1758
457.324	1541
457.370	1101
457.405	1301
457.439	1698
457.485	2199
457.508	2297
457.566	2394
457.577	2516
457.646	3154
457.647	3173
457.715	4588
457.727	5022
457.784	8570
457.808	10202
457.853	10925
457.889	13329
457.922	13703
457.969	11978
457.991	13285
458.050	12899
458.060	13165
458.129	19298
458.130	19618
458.198	18058
458.211	17193
458.267	15859
458.292	11882
458.336	8005
458.372	6613
458.405	7164
458.453	10019
458.474	12585
458.533	21502
458.543	22001
458.611	29775
458.614	30268
458.680	24093
458.694	20141
458.749	14433
458.775	10140
458.818	4601
458.855	3800
458.887	3249
458.936	2934
458.955	2841
459.016	2533
459.024	2468
459.093	2453
459.097	2444
459.162	2306
459.177	2429
459.230	3335
459.257	3681
459.299	3243
459.338	2971
459.368	3264
459.418	3728
459.437	3600
459.499	3425
459.505	3495
459.574	2894
459.579	2941
459.643	3020
459.659	3037
459.711	3354
459.740	3435
459.780	3371
459.820	3271
459.849	3281
459.900	3738
459.917	3841
459.981	3725
459.986	3705
460.054	4131
460.061	4163
460.123	4832
460.141	5090
460.191	6466
460.222	6838
460.260	7090
460.302	8356
460.328	7905
460.382	7224
460.397	7341
460.462	5819
460.465	5842
460.534	6746
460.543	6912
460.602	11928
460.623	13865
460.671	21697
460.703	28046
460.739	23888
460.783	21735
460.808	20792
460.864	8937
460.876	7963
460.944	2954
460.945	2903
461.013	3124
461.024	3194
461.081	3641
461.104	3995
461.150	3825
461.184	3547
461.218	3452
461.264	3146
461.286	3224
461.345	3206
461.355	3116
461.423	3331
461.425	3314
461.491	3002
461.505	3107
461.559	4514
461.585	4942
461.628	6705
461.665	8622
461.696	9017
461.745	9798
461.764	8695
461.825	5159
461.832	5236
461.901	4313
461.905	4303
461.969	3283
461.985	3141
462.037	2970
462.065	2845
462.105	3505
462.145	3904
462.173	4357
462.225	5569
462.241	6036
462.305	7794
462.310	7587
462.378	4593
462.385	4204
462.446	4230
462.465	4236
462.514	3701
462.545	3400
462.582	3514
462.625	3761
462.650	3479
462.705	2804
462.718	2980
462.785	3814
462.786	3820
462.854	3984
462.865	4032
462.922	4674
462.945	4954
462.990	4151
463.025	3457
463.058	3462
463.104	3564
463.126	3491
463.184	2974
463.194	3103
463.262	4099
463.264	4135
463.330	3648
463.344	3570
463.398	3853
463.424	3916
463.466	3568
463.504	3293
463.533	3457
463.583	3539
463.601	3723
463.663	4446
463.669	4582
463.737	6423
463.743	6552
463.805	7061
463.823	7313
463.873	9772
463.903	11131
463.940	11012
463.982	10836
464.008	9017
464.062	5354
464.076	5176
464.142	3622
464.144	3633
464.211	4160
464.221	4254
464.279	4154
464.301	4146
464.347	4495
464.381	4711
464.414	4774
464.461	4869
464.482	4929
464.540	5109
464.550	5112
464.617	4950
464.620	4941
464.685	7393
464.699	7869
464.753	8637
464.779	9221
464.820	10579
464.859	11772
464.888	10750
464.938	8921
464.956	8952
465.018	8445
465.023	8408
465.091	8236
465.098	8198
465.158	7561
465.177	7337
465.226	7715
465.257	7985
465.293	8301
465.336	8687
465.361	9131
465.416	9997
465.428	10307
465.495	11962
465.496	11993
465.563	13988
465.575	14306
465.631	16460
465.654	17432
465.698	12444
465.734	8281
465.765	8464
465.813	8390
465.833	8100
465.893	7388
465.900	7372
465.968	7140
465.972	7117
466.035	7155
466.052	7159
466.102	7817
466.131	8158
466.170	7807
466.210	7388
466.237	7945
466.290	9052
466.304	9057
466.369	8991
466.372	9018
466.439	9407
466.449	9444
466.506	9841
466.528	9985
466.573	11780
466.607	13076
466.641	16742
466.687	21762
466.708	23395
466.766	27840
466.775	26166
466.842	13320
466.845	12688
466.909	11743
466.925	11468
466.977	10401
467.004	9883
467.044	10843
467.083	11754
467.111	12982
467.163	15237
467.178	15935
467.242	18726
467.245	18617
467.312	15659
467.321	15240
467.379	14164
467.400	13736
467.446	13536
467.480	13353
467.559	12958
467.638	11075
467.717	12176
467.796	12768
467.875	15193
467.955	13209
468.034	14682
468.113	22788
468.192	30032
468.271	13099
468.350	13633
468.429	14564
468.508	15916
468.588	11294
468.667	11624
468.746	10544
468.825	10276
468.904	9293
468.983	11510
469.062	13344
469.141	14054
469.220	8428
469.299	10477
469.378	11161
469.456	16051
469.535	13273
469.614	13558
469.693	12136
469.772	14096
469.851	15322
469.930	13229
470.009	12884
470.088	15057
470.166	19063
470.245	32223
470.324	39280
470.403	23906
470.482	15633
470.560	12830
470.639	12780
470.718	15278
470.797	10415
470.875	12443
470.954	13783
471.033	14449
471.111	8520
471.190	10019
471.269	8143
471.347	10881
471.426	9298
471.505	11573
471.583	12939
471.662	11927
471.740	10083
471.819	10119
471.898	9617
471.976	10525
472.055	10070
472.133	10767
472.212	11195
472.290	11002
472.369	9565
472.447	8825
472.526	8738
472.604	10373
472.683	10808
472.761	11796
472.839	10360
472.918	8840
472.996	9519
473.075	10065
473.153	10422
473.231	9654
473.310	9455
473.388	10217
473.466	9367
473.545	12080
473.623	16515
473.701	15304
473.780	10348
473.858	11026
473.936	9257
474.014	10822
474.093	10617
474.171	11510
474.249	14011
474.327	11160
474.405	9260
474.484	8988
474.562	9348
474.640	10184
474.718	9264
474.796	9997
474.874	9497
474.952	9105
475.030	8479
475.108	9197
475.187	10194
475.265	11309
475.343	15775
475.421	17285
475.499	9207
475.577	9485
475.655	8668
475.733	14528
475.811	19134
475.889	18951
475.966	12470
476.044	10399
476.122	11563
476.200	15901
476.278	11579
476.356	6756
476.434	7937
476.512	11697
476.590	13668
476.667	12051
476.745	7003
476.823	8786
476.901	7274
476.979	7440
477.056	7255
477.134	8721
477.212	8091
477.290	8784
477.367	6868
477.445	7103
477.523	7216
477.601	7283
477.678	6197
477.756	8099
477.834	8385
477.911	7241
477.989	7403
478.066	6221
478.144	7125
478.222	9944
478.299	18119
478.377	15532
478.454	6027
478.532	6466
478.609	7638
478.687	8361
478.764	6248
478.842	8203
478.919	8498
478.997	7657
479.074	5892
479.152	6702
479.229	7187
479.307	6361
479.384	5743
479.461	6595
479.539	5427
479.616	7368
479.694	5931
479.771	5604
479.848	7535
479.926	8889
480.003	7895
480.080	6559
480.157	5704
480.235	6603
480.312	6285
480.389	6168
480.467	6997
480.544	9375
480.621	5230
480.698	6663
480.775	6422
480.853	6860
480.930	5369
481.007	5997
481.084	6372
481.161	7552
481.238	6153
481.315	5551
481.392	5471
481.470	6263
481.547	5420
481.624	5928
481.701	5426
481.778	6058
481.855	6516
481.932	7704
482.009	11183
482.086	8828
482.163	6695
482.240	11866
482.317	22143
482.393	15682
482.470	6684
482.547	6150
482.624	6223
482.701	6319
482.778	5275
482.855	6439
482.932	5701
483.009	5517
483.085	6364
483.162	7938
483.239	8068
483.316	6199
483.393	6178
483.469	6012
483.546	6037
483.623	6500
483.699	5198
483.776	5358
483.853	5818
483.930	8985
484.006	16208
484.083	28081
484.160	27627
484.236	52017
484.313	40182
484.389	27827
484.466	23904
484.543	24336
484.619	25105
484.696	24896
484.772	24246
484.849	23979
484.925	21104
485.002	21829
485.078	21823
485.155	22024
485.231	20653
485.308	19804
485.384	20497
485.461	23325
485.537	27509
485.614	28781
485.690	19497
485.766	19201
485.843	21761
485.919	29507
485.995	29688
486.072	18722
486.148	17302
486.224	18462
486.301	17685
486.377	18462
486.453	19171
486.530	21716
486.606	28127
486.682	31921
486.758	29257
486.835	30458
486.911	25821
486.987	37243
487.063	49278
487.139	70570
487.215	48234
487.292	23522
487.368	20185
487.444	22496
487.520	24265
487.596	27520
487.672	41970
487.748	97945
487.824	145732
487.900	46712
487.976	23718
488.052	20364
488.128	23268
488.204	20155
488.280	17006
488.356	19932
488.432	27306
488.508	36133
488.584	19885
488.660	17936
488.736	17451
488.812	19733
488.888	24922
488.964	32342
489.039	68094
489.115	100198
489.191	53498
489.267	18621
489.343	16205
489.418	16850
489.494	15957
489.570	14978
489.646	15862
489.722	15438
489.797	15147
489.873	18121
489.949	28075
490.024	23960
490.100	13940
490.176	15657
490.251	18478
490.327	25412
490.403	14149
490.478	14758
490.554	12143
490.629	13913
490.705	12470
490.781	13576
490.856	12601
490.932	16291
491.007	15572
491.083	15552
491.158	12593
491.234	15547
491.309	21319
491.385	22449
491.460	12338
491.536	13183
491.611	11952
491.686	13041
491.762	20390
491.837	41194
491.913	67555
491.988	89516
492.063	117227
492.139	24120
492.214	14938
492.289	12028
492.365	11303
492.440	14581
492.515	11823
492.590	11965
492.666	9697
492.741	13857
492.816	14499
492.891	10031
492.967	10628
493.042	9872
493.117	10900
493.192	11184
493.267	13444
493.342	26967
493.418	33604
493.493	12918
493.568	9345
493.643	9326
493.718	11756
493.793	15503
493.868	21125
493.943	14305
494.018	10562
494.093	9193
494.168	9342
494.243	9652
494.318	8837
494.393	9348
494.468	8755
494.543	9230
494.618	11422
494.693	10135
494.768	9220
494.842	10450
494.917	9485
494.992	10301
495.067	9359
495.142	9062
495.217	10073
495.292	9584
495.366	9657
495.441	12550
495.516	14986
495.591	26105
495.665	84604
495.740	209498
495.815	71098
495.890	12562
495.964	9081
496.039	11886
496.114	9858
496.188	12175
496.263	12013
496.338	8958
496.412	10457
496.487	12442
496.561	14083
496.636	15467
496.710	10978
496.785	12163
496.860	12661
496.934	11111
497.009	10652
497.083	11815
497.158	13071
497.232	14580
497.307	15419
497.381	14524
497.455	14800
497.530	16610
497.604	13008
497.679	13274
497.753	18237
497.827	25264
497.902	24446
497.976	27194
498.050	49587
498.125	153069
498.199	156368
498.273	44856
498.348	37847
498.422	30104
498.496	28011
498.570	25511
498.645	15900
498.719	13700
498.793	14691
498.867	18882
498.941	24555
499.016	57299
499.090	158601
499.164	50585
499.238	11767
499.312	10258
499.386	15654
499.460	13866
499.534	11323
499.609	14427
499.683	16104
499.757	13773
499.831	26759
499.905	95837
499.979	87353
500.053	16006
500.127	19654
500.201	20012
500.275	10763
500.349	11067
500.422	12035
500.496	19976
500.570	43798
500.644	67054
500.718	104728
500.792	22832
500.866	7657
500.940	9769
501.013	8180
501.087	9537
501.161	18538
501.235	23187
501.309	29593
501.382	77772
501.456	70217
501.530	18139
501.603	25561
501.677	11593
501.751	6672
501.825	8935
501.898	13088
501.972	30081
502.046	19346
502.119	9301
502.193	17682
502.266	35387
502.340	16467
502.413	15934
502.487	27384
502.561	16723
502.634	8785
502.708	9956
502.781	8030
502.855	6183
502.928	5341
503.002	4552
503.075	5313
503.149	5486
503.222	5308
503.295	6092
503.369	6720
503.442	9128
503.516	23084
503.589	55271
503.662	35084
503.736	13211
503.809	26522
503.882	23441
503.956	33141
504.029	39060
504.102	53528
504.175	73402
504.249	22500
504.322	10442
504.395	8626
504.468	6676
504.542	5536
504.615	6268
504.688	5321
504.761	4981
504.834	6449
504.907	10863
504.980	18653
505.053	8320
505.127	10845
505.200	11695
505.273	7323
505.346	5391
505.419	3846
505.492	4911
505.565	3471
505.638	5880
505.711	4210
505.784	4775
505.857	3609
505.930	4670
506.003	3437
506.076	5652
506.149	4613
506.221	7024
506.294	6380
506.367	14663
506.440	42310
506.513	24160
506.586	7073
506.659	5681
506.731	5585
506.804	7012
506.877	11250
506.950	6810
507.022	3986
507.095	6082
507.168	6471
507.241	6424
507.313	5038
507.386	7100
507.459	10158
507.531	6400
507.604	5923
507.677	4691
507.749	4114
507.822	7463
507.894	17109
507.967	23288
508.040	12461
508.112	10048
508.185	9063
508.257	10051
508.330	13838
508.402	9075
508.475	7364
508.547	8757
508.620	7909
508.692	9532
508.765	8410
508.837	8366
508.909	6171
508.982	8281
509.054	9245
509.127	7944
509.199	6880
509.271	7927
509.344	6429
509.416	7208
509.488	6677
509.560	8084
509.633	8243
509.705	10911
509.777	8460
509.849	13066
509.922	9067
509.994	7670
510.066	7294
510.138	10225
510.210	19605
510.283	17706
510.355	14308
510.427	12281
510.499	10940
510.571	11243
510.643	11434
510.715	17587
510.787	15992
510.859	11648
510.931	12032
511.003	17244
511.076	15697
511.148	11071
511.219	10198
511.291	12152
511.363	12031
511.435	9077
511.507	7823
511.579	9070
511.651	8589
511.723	8432
511.795	8858
511.867	8686
511.939	8584
512.010	13838
512.082	10635
512.154	9503
512.226	10100
512.298	15069
512.369	23772
512.441	18452
512.513	17254
512.585	13920
512.656	13418
512.728	13795
512.800	11371
512.871	10497
512.943	11405
513.015	10693
513.086	11138
513.158	12601
513.230	13245
513.301	17619
513.373	19663
513.444	12013
513.516	10061
513.588	10896
513.659	11366
513.731	14951
513.802	13169
513.874	24678
513.945	42898
514.016	15604
514.088	10744
514.159	13326
514.231	15653
514.302	21835
514.374	15610
514.445	13707
514.516	15605
514.588	14058
514.659	12248
514.730	16350
514.802	15531
514.873	14915
514.944	14333
515.016	13298
515.087	13915
515.158	15263
515.229	17402
515.301	15404
515.372	19340
515.443	14232
515.514	11578
515.585	11159
515.656	9799
515.728	10532
515.799	9982
515.870	11843
515.941	11605
516.012	13128
516.083	14965
516.154	19288
516.225	20810
516.296	18939
516.367	17128
516.438	21075
516.509	30080
516.580	55539
516.651	168115
516.722	560990
516.793	223239
516.864	33231
516.935	29476
517.006	38872
517.077	67527
517.148	178481
517.219	603676
517.289	913284
517.360	142118
517.431	36498
517.502	18930
517.573	17794
517.643	16741
517.714	18029
517.785	18017
517.856	17578
517.926	19801
517.997	25091
518.068	34406
518.138	59349
518.209	125705
518.280	408812
518.350	1297135
518.421	499988
518.492	56897
518.562	27275
518.633	23637
518.703	24677
518.774	37529
518.845	84423
518.915	79916
518.986	26700
519.056	21717
519.127	36090
519.197	46198
519.268	61745
519.338	33840
519.408	16699
519.479	22825
519.549	18458
519.620	11613
519.690	9952
519.760	10045
519.831	10368
519.901	10671
519.971	8445
520.042	8018
520.112	9112
520.182	11368
520.253	14512
520.323	8559
520.393	9620
520.463	10900
520.534	8437
520.604	10239
520.674	8624
520.744	8387
520.814	13228
520.885	15515
520.955	18725
521.025	50447
521.095	24376
521.165	7525
521.235	7479
521.305	7000
521.375	7673
521.445	9390
521.515	12682
521.585	13641
521.655	14471
521.725	10356
521.795	10340
521.865	6824
521.935	9614
522.005	7473
522.075	7074
522.145	7550
522.215	7262
522.285	9265
522.355	10869
522.424	17606
522.494	16266
522.564	15664
522.634	32971
522.704	89499
522.774	36918
522.843	7787
522.913	8764
522.983	11624
523.053	9650
523.122	8765
523.192	17037
523.262	48153
523.331	48739
523.401	10062
523.471	6892
523.540	8010
523.610	6064
523.680	5087
523.749	7357
523.819	6944
523.888	7357
523.958	5909
524.027	7003
524.097	6012
524.166	6865
524.236	7884
524.305	7766
524.375	6217
524.444	6149
524.514	6363
524.583	6663
524.653	6882
524.722	7609
524.791	6794
524.861	6934
524.930	5854
524.999	7345
525.069	9960
525.138	7808
525.207	6530
525.277	7359
525.346	6809
525.415	7368
525.484	7081
525.554	7397
525.623	6770
525.692	6772
525.761	6558
525.830	7704
525.900	9667
525.969	15191
526.038	27398
526.107	56496
526.176	154616
526.245	129318
526.314	42968
526.383	81224
526.452	119364
526.522	176603
526.591	184345
526.660	52086
526.729	26330
526.797	33579
526.867	78562
526.935	276774
527.004	444049
527.073	241734
527.142	21525
527.211	10375
527.280	11206
527.349	12018
527.418	6542
527.487	7105
527.555	5133
527.624	6413
527.693	5494
527.762	6132
527.831	5031
527.899	6062
527.968	5045
528.037	5775
528.106	6862
528.174	14694
528.243	10368
528.312	13706
528.380	19913
528.449	6258
528.518	4493
528.586	4034
528.655	4186
528.723	4474
528.792	4551
528.861	5291
528.929	4190
528.998	5227
529.066	4080
529.135	4659
529.203	3766
529.272	4547
529.340	5087
529.409	5640
529.477	4000
529.545	5092
529.614	5469
529.682	6021
529.751	5390
529.819	7136
529.887	6324
529.956	5268
530.024	4936
530.092	4697
530.161	6705
530.229	11475
530.297	7142
530.365	4921
530.434	3369
530.502	4078
530.570	4938
530.638	3031
530.707	5324
530.775	6627
530.843	4501
530.911	4740
530.979	4468
531.047	3823
531.115	4558
531.183	3779
531.252	4103
531.320	5089
531.388	4600
531.456	4536
531.524	3459
531.592	5149
531.660	5626
531.728	5115
531.796	3980
531.864	4558
531.932	4179
532.000	4160
532.067	4872
532.135	6114
532.203	6635
532.271	7845
532.339	13875
532.407	36240
532.475	21818
532.542	9234
532.610	11595
532.678	21223
532.746	64323
532.814	171809
532.881	45558
532.949	6877
533.017	6029
533.084	4817
533.152	5191
533.220	5310
533.287	6054
533.355	5432
533.423	4861
533.490	4954
533.558	4357
533.625	5735
533.693	6124
533.761	6907
533.828	6336
533.896	6829
533.963	12952
534.031	16267
534.098	21330
534.166	11203
534.233	4710
534.300	7620
534.368	6018
534.435	6160
534.503	5723
534.570	5945
534.637	5951
534.705	8291
534.772	11426
534.840	20331
534.907	66932
534.974	93620
535.041	12456
535.109	6546
535.176	5641
535.243	6206
535.310	6380
535.378	5801
535.445	4582
535.512	5815
535.579	4770
535.646	5623
535.714	6956
535.781	8216
535.848	7662
535.915	8036
535.982	6634
536.049	6903
536.116	7118
536.183	6692
536.250	5970
536.317	6566
536.384	7790
536.451	12818
536.518	12672
536.585	8128
536.652	10630
536.719	16026
536.786	13143
536.853	10388
536.920	14323
536.987	25441
537.053	28186
537.120	79135
537.187	80534
537.254	10116
537.321	6856
537.388	8428
537.454	5965
537.521	6049
537.588	6119
537.654	8172
537.721	9806
537.788	10384
537.855	8265
537.921	7684
537.988	7543
538.055	7762
538.121	7685
538.188	10232
538.254	12406
538.321	25090
538.388	15678
538.454	7434
538.521	7335
538.587	7796
538.654	6112
538.720	7202
538.787	7274
538.853	8048
538.920	8626
538.986	8905
539.053	6872
539.119	8765
539.185	8938
539.252	10481
539.318	14892
539.385	11652
539.451	10448
539.517	12313
539.583	14536
539.650	24879
539.716	63881
539.782	23293
539.849	8827
539.915	8954
539.981	8854
540.047	10910
540.114	9169
540.180	9147
540.246	10291
540.312	14324
540.378	23693
540.444	28697
540.510	27005
540.576	71543
540.643	28570
540.709	8129
540.775	8572
540.841	8116
540.907	9894
540.973	13899
541.039	13599
541.105	15923
541.171	10229
541.237	9809
541.303	9425
541.369	11547
541.435	13462
541.500	21385
541.566	14858
541.632	8659
541.698	6954
541.764	8497
541.830	7405
541.896	8168
541.961	7504
542.027	9062
542.093	9280
542.159	10068
542.224	10282
542.290	14726
542.356	21358
542.421	26181
542.487	11776
542.553	9395
542.618	9041
542.684	8894
542.750	9805
542.815	13314
542.881	19492
542.947	57606
543.012	52116
543.078	10329
543.143	8064
543.209	9467
543.274	11177
543.340	13448
543.405	22136
543.471	41093
543.536	11475
543.602	9130
543.667	7353
543.732	8630
543.798	7501
543.863	9375
543.928	7727
543.994	8101
544.059	7673
544.124	8566
544.190	7917
544.255	9563
544.320	8419
544.386	10175
544.451	12819
544.516	16973
544.581	17851
544.646	37199
544.712	65421
544.777	16062
544.842	9948
544.907	8874
544.972	9154
545.037	8926
545.102	9321
545.168	10123
545.233	10290
545.298	11574
545.363	12782
545.428	16292
545.493	23799
545.558	50817
545.623	24641
545.688	10388
545.753	9086
545.818	9890
545.883	10499
545.947	10952
546.012	10597
546.077	11902
546.142	11753
546.207	12093
546.272	13610
546.337	16461
546.401	12189
546.466	12624
546.531	11418
546.596	12781
546.661	12977
546.725	13463
546.790	12062
546.855	13356
546.919	13352
546.984	14063
547.049	14626
547.113	17613
547.178	16718
547.243	20013
547.307	22198
547.372	25484
547.436	24716
547.501	24657
547.565	26242
547.630	27564
547.695	25335
547.759	25344
547.823	24133
547.888	24152
547.952	25704
548.017	26192
548.081	27184
548.146	28449
548.210	27146
548.274	27101
548.339	26358
548.403	25085
548.468	23309
548.532	23671
548.596	23476
548.660	23987
548.725	26020
548.789	29334
548.853	28806
548.917	26583
548.982	25487
549.046	25916
549.110	21623
549.174	21980
549.238	23658
549.303	27135
549.367	27021
549.431	27011
549.495	24679
549.559	25067
549.623	28417
549.687	33037
549.751	36556
549.815	36327
549.879	36961
549.943	34401
550.007	36340
550.071	37100
550.135	36206
550.199	32996
550.263	30362
550.327	29763
550.391	30172
550.455	33218
550.519	34839
550.582	38433
550.646	43973
550.710	47224
550.774	40356
550.838	40973
550.901	40537
550.965	44208
551.029	45337
551.093	50840
551.156	54166
551.220	64410
551.284	74043
551.347	55651
551.411	50876
551.475	51947
551.538	44508
551.602	42830
551.666	38489
551.729	37539
551.793	36503
551.856	36780
551.920	35641
551.983	35335
552.047	33378
552.110	35181
552.174	34554
552.237	35900
552.301	33098
552.364	31744
552.428	32589
552.491	33515
552.554	35271
552.618	35117
552.681	38242
552.745	42503
552.808	56037
552.871	76066
552.934	47560
552.998	37426
553.061	33865
553.124	32807
553.187	31526
553.251	33321
553.314	33277
553.377	34240
553.440	37325
553.503	44168
553.567	56934
553.630	39412
553.693	33946
553.756	34304
553.819	33986
553.882	33477
553.945	32018
554.008	34530
554.071	33782
554.134	34486
554.197	32435
554.260	32282
554.323	33388
554.386	33265
554.449	33644
554.512	34691
554.575	32191
554.638	32662
554.701	32169
554.764	32494
554.827	29955
554.889	29751
554.952	27923
555.015	27461
555.078	27251
555.141	29680
555.203	27985
555.266	27999
555.329	28307
555.391	28010
555.454	26536
555.517	26910
555.580	24622
555.642	24064
555.705	24031
555.768	24150
555.830	23389
555.893	22565
555.955	22151
556.018	22462
556.080	22143
556.143	22401
556.206	22412
556.268	21512
556.330	22212
556.393	22362
556.455	20407
556.518	22309
556.580	21709
556.643	19362
556.705	18526
556.767	18905
556.830	19750
556.892	21115
556.955	24243
557.017	22448
557.079	18406
557.142	17860
557.204	19920
557.266	28754
557.328	26166
557.391	16671
557.453	15023
557.515	15542
557.577	17945
557.639	18657
557.701	16350
557.764	14376
557.826	14264
557.888	16599
557.950	16396
558.012	20633
558.074	27316
558.136	44410
558.198	104359
558.260	48167
558.322	15945
558.384	16900
558.446	19156
558.508	21673
558.570	27343
558.632	43574
558.694	74235
558.756	95727
558.818	186552
558.880	483708
558.942	185273
559.003	105564
559.065	62675
559.127	23137
559.189	24672
559.251	34619
559.312	54271
559.374	97643
559.436	287766
559.498	181914
559.559	27267
559.621	25419
559.683	35432
559.744	57093
559.806	126876
559.868	230936
559.929	51592
559.991	30152
560.052	39079
560.114	98850
560.176	80279
560.237	54375
560.299	101447
560.360	29474
560.422	11696
560.483	10880
560.545	10381
560.606	11626
560.667	9897
560.729	10701
560.790	9310
560.852	9853
560.913	10155
560.974	9901
561.036	8627
561.097	9534
561.158	10004
561.220	10546
561.281	9378
561.342	10834
561.403	13604
561.465	16630
561.526	28772
561.587	43114
561.648	14862
561.709	10685
561.771	9924
561.832	9829
561.893	9694
561.954	10430
562.015	9596
562.076	9772
562.137	9595
562.198	9682
562.259	10263
562.320	11017
562.381	10791
562.442	15039
562.503	11822
562.564	9771
562.625	8861
562.686	9630
562.747	9971
562.808	9748
562.869	8833
562.930	9842
562.991	9785
563.051	9413
563.112	9163
563.173	9561
563.234	8650
563.294	9818
563.355	9532
563.416	9340
563.477	9490
563.537	8280
563.598	9550
563.659	9872
563.720	9826
563.780	10286
563.841	10736
563.901	9062
563.962	9473
564.023	9676
564.083	9135
564.144	9639
564.204	8834
564.265	9953
564.325	9774
564.386	11598
564.446	12348
564.507	9368
564.567	8186
564.628	9471
564.688	8910
564.749	9990
564.809	9107
564.869	9852
564.930	9107
564.990	10930
565.050	9719
565.111	10260
565.171	8765
565.231	9768
565.292	10244
565.352	9532
565.412	9774
565.472	9242
565.532	10295
565.593	10472
565.653	9682
565.713	11278
565.773	10496
565.833	11476
565.893	14293
565.953	10641
566.013	9197
566.074	10762
566.134	9923
566.194	12514
566.254	15024
566.314	13029
566.374	9946
566.434	9967
566.494	10542
566.554	10817
566.614	11495
566.673	11307
566.733	10935
566.793	11636
566.853	12180
566.913	11982
566.973	12321
567.033	12553
567.092	11457
567.152	12886
567.212	12690
567.272	12531
567.331	11664
567.391	12427
567.451	13875
567.511	14703
567.570	14137
567.630	12646
567.690	10965
567.749	11951
567.809	12298
567.868	14851
567.928	15451
567.988	17265
568.047	20803
568.107	25875
568.166	33664
568.226	50225
568.285	75814
568.345	63067
568.404	45056
568.464	36781
568.523	33566
568.582	35236
568.642	40767
568.701	52581
568.761	74963
568.820	122487
568.879	127197
568.939	82607
568.998	56799
569.057	42326
569.116	32055
569.176	24698
569.235	20615
569.294	19245
569.353	16847
569.413	16272
569.472	14236
569.531	13500
569.590	12890
569.649	12401
569.708	11570
569.767	12171
569.827	12362
569.886	11460
569.945	10515
570.004	10861
570.063	11458
570.122	11254
570.181	10963
570.240	10610
570.299	10467
570.358	10595
570.417	9839
570.475	9949
570.534	10500
570.593	11272
570.652	10118
570.711	10631
570.770	10028
570.829	11491
570.887	10299
570.946	12547
571.005	10255
571.064	10489
571.122	11202
571.181	11082
571.240	10851
571.299	9959
571.357	8667
571.416	9553
571.475	8983
571.533	10286
571.592	8804
571.650	9122
571.709	9036
571.768	10350
571.826	8940
571.885	9043
571.943	9300
572.002	8865
572.060	9003
572.119	8083
572.177	7671
572.236	8181
572.294	8253
572.352	8500
572.411	7872
572.469	8471
572.528	7789
572.586	9179
572.644	7718
572.703	10202
572.761	7799
572.819	7855
572.877	8004
572.936	8625
572.994	7767
573.052	8174
573.110	7801
573.169	9099
573.227	8545
573.285	7763
573.343	6819
573.401	7651
573.459	7275
573.517	7742
573.576	7771
573.634	8213
573.692	7580
573.750	7624
573.808	7350
573.866	8175
573.924	7626
573.982	8493
574.040	7727
574.098	8113
574.155	7233
574.213	7366
574.271	6969
574.329	8202
574.387	7147
574.445	7782
574.503	6598
574.560	6480
574.618	6273
574.676	7370
574.734	6793
574.792	7919
574.849	6961
574.907	6530
574.965	6789
575.022	6751
575.080	7202
575.138	8149
575.195	7135
575.253	7501
575.311	7595
575.368	7389
575.426	6675
575.483	6285
575.541	6925
575.598	7359
575.656	6876
575.713	7057
575.771	6457
575.828	7643
575.886	5384
575.943	7538
576.001	6666
576.058	7052
576.115	7410
576.173	7047
576.230	9025
576.287	10398
576.345	7865
576.402	7072
576.459	7563
576.517	6853
576.574	6927
576.631	7686
576.688	6553
576.746	7636
576.803	6425
576.860	6320
576.917	7086
576.974	6696
577.031	6717
577.089	6923
577.146	6064
577.203	6809
577.260	7528
577.317	7462
577.374	6579
577.431	7887
577.488	6652
577.545	6926
577.602	7343
577.659	7289
577.716	6220
577.773	7180
577.830	6104
577.886	7109
577.943	6967
578.000	6587
578.057	6674
578.114	6457
578.171	6621
578.227	7845
578.284	6838
578.341	7475
578.398	6603
578.454	7596
578.511	7058
578.568	7792
578.625	6439
578.681	7441
578.738	7277
578.794	7135
578.851	7503
578.908	8303
578.964	8591
579.021	9311
579.077	7670
579.134	8739
579.190	7034
579.247	7503
579.303	7616
579.360	7304
579.416	6993
579.473	8085
579.529	6858
579.586	7554
579.642	7165
579.698	7288
579.755	7394
579.811	7909
579.867	7120
579.924	8067
579.980	7528
580.036	7318
580.093	7381
580.149	8548
580.205	8415
580.261	8440
580.317	7858
580.374	7608
580.430	7758
580.486	8289
580.542	6968
580.598	8188
580.619	8131
580.654	8034
580.692	8240
580.710	8354
580.765	8157
580.767	8151
580.823	8384
580.838	8271
580.879	7982
580.911	8099
580.935	8191
580.984	8202
580.991	8205
581.047	7950
581.057	7871
581.103	7515
581.130	8167
581.159	8884
581.203	8017
581.215	7776
581.270	8311
581.276	8263
581.326	7838
581.349	8554
581.382	9629
581.422	8275
581.438	7697
581.494	8676
581.494	8669
581.550	7895
581.567	8211
581.606	8958
581.640	8379
581.661	7980
581.713	9231
581.717	9335
581.773	8227
581.786	8477
581.829	9152
581.859	8377
581.885	7854
581.932	9678
581.940	9972
581.996	9235
582.004	9223
582.052	9150
582.077	8948
582.107	8754
582.150	8924
582.163	8980
582.219	8684
582.223	8818
582.274	10327
582.296	9930
582.330	9330
582.368	10380
582.386	10844
582.441	9598
582.441	9595
582.497	9522
582.514	9684
582.552	9980
582.587	9885
582.608	9788
582.659	9847
582.663	9859
582.719	10365
582.732	10245
582.774	9859
582.805	9879
582.830	9916
582.877	9720
582.885	9690
582.941	10549
582.950	10435
582.996	9648
583.023	10274
583.052	11162
583.095	11183
583.107	11131
583.162	11649
583.168	11543
583.218	10699
583.240	11335
583.273	12253
583.313	10712
583.328	10075
583.384	11599
583.385	11581
583.439	11131
583.458	11362
583.494	11821
583.531	11664
583.549	11552
583.603	11815
583.605	11830
583.660	11653
583.676	11710
583.715	11682
583.748	11434
583.770	11402
583.820	12344
583.825	12401
583.881	11607
583.893	11616
583.936	11938
583.965	11746
583.991	11533
584.038	11925
584.046	12029
584.101	11984
584.110	12204
584.156	12970
584.183	12901
584.211	13042
584.255	13568
584.266	13653
584.321	12606
584.328	12659
584.376	13475
584.400	13392
584.431	13118
584.472	13395
584.486	13503
584.541	13593
584.545	13625
584.596	14407
584.617	14387
584.651	14283
584.689	14868
584.706	15210
584.761	15263
584.762	15258
584.816	15720
584.834	15564
584.871	15024
584.906	15105
584.926	15436
584.978	16650
584.980	16683
585.035	16615
585.051	16612
585.090	17008
585.123	18067
585.145	18717
585.195	18025
585.200	18042
585.254	19708
585.267	20211
585.309	21666
585.340	22602
585.364	23380
585.412	25969
585.419	26305
585.473	30040
585.484	31211
585.528	36732
585.556	41352
585.583	46952
585.628	56641
585.637	60384
585.692	99663
585.700	111064
585.747	186087
585.772	177128
585.801	134829
585.845	69855
585.856	55826
585.910	30699
585.917	28245
585.965	26458
585.989	25605
586.019	24799
586.061	23807
586.074	23904
586.128	25451
586.133	25488
586.183	26006
586.205	26281
586.237	26296
586.277	25689
586.292	25643
586.346	26420
586.349	26397
586.401	26866
586.421	27144
586.455	27412
586.493	27516
586.509	27878
586.564	29680
586.565	29691
586.618	31859
586.637	32379
586.672	33731
586.709	33607
586.727	33156
586.781	33698
586.781	33751
586.835	34571
586.853	34626
586.889	34216
586.925	34036
586.944	34273
586.996	35224
586.998	35305
587.052	35765
587.068	36100
587.106	38001
587.140	39035
587.161	39210
587.212	39893
587.215	40070
587.269	41290
587.284	41932
587.323	43269
587.356	43942
587.377	44960
587.427	47687
587.431	47908
587.485	49411
587.499	49769
587.539	51918
587.571	53115
587.593	54051
587.643	56308
587.648	56703
587.702	60090
587.715	60902
587.755	64144
587.786	65890
587.810	67679
587.858	71752
587.864	72419
587.917	78275
587.930	79304
587.971	84635
588.001	88513
588.025	92286
588.073	99485
588.079	100884
588.133	112341
588.145	114732
588.187	125865
588.217	133622
588.241	141122
588.288	155786
588.295	158720
588.348	181468
588.360	186425
588.402	210473
588.431	227284
588.456	245161
588.503	280396
588.510	287246
588.564	344161
588.575	356511
588.617	422690
588.646	471489
588.671	532213
588.718	652811
588.725	680919
588.778	901858
588.789	949008
588.832	1219674
588.861	1407022
588.886	1541282
588.932	1751278
588.939	1732805
588.993	1460907
589.004	1424274
589.047	1573374
589.075	1646952
589.100	1628285
589.147	1523978
589.154	1478097
589.207	1111139
589.218	1038111
589.261	901565
589.290	814336
589.314	805752
589.361	796390
589.368	813519
589.421	956976
589.433	989635
589.475	1239690
589.504	1415492
589.528	1514129
589.576	1634038
589.582	1625549
589.635	1527912
589.647	1497501
589.689	1415388
589.718	1330182
589.742	1133351
589.790	752547
589.795	730415
589.849	517942
589.861	469107
589.902	390577
589.932	332007
589.955	306930
590.004	253466
590.009	250572
590.062	213077
590.075	203447
590.115	186616
590.146	172956
590.168	165916
590.218	148969
590.222	148384
590.275	136081
590.289	132407
590.328	125275
590.360	118779
590.381	115798
590.431	108267
590.435	108167
590.488	100900
590.503	98719
590.541	95382
590.574	91803
590.594	90381
590.645	86222
590.647	86323
590.700	82068
590.716	80634
590.753	79544
590.787	78037
590.806	77144
590.859	73797
590.859	73971
590.912	71224
590.930	70153
590.965	69733
591.001	68841
591.018	68684
591.071	67801
591.072	67587
591.124	67455
591.143	67092
591.177	66109
591.214	64716
591.230	64812
591.283	64505
591.285	64287
591.336	63254
591.356	62686
591.389	61944
591.427	60381
591.442	59982
591.495	58009
591.498	57681
591.547	57379
591.569	57013
591.600	56982
591.640	56489
591.653	56481
591.706	55725
591.711	55463
591.759	55128
591.782	54741
591.811	54698
591.853	54193
591.864	54540
591.917	55477
591.924	55412
591.969	53683
591.995	52508
592.022	52653
592.066	52387
592.075	52726
592.127	53842
592.137	53877
592.180	53965
592.208	53737
592.233	53666
592.279	52956
592.285	53020
592.338	52180
592.350	51803
592.390	51574
592.421	51149
592.443	51052
592.491	50285
592.495	50465
592.548	50719
592.562	50626
592.600	49937
592.633	49048
592.653	49332
592.704	49384
592.705	49644
592.775	48368
592.846	50528
592.916	49093
592.987	50804
593.058	50370
593.128	46607
593.199	46416
593.270	46947
593.341	46488
593.411	46082
593.482	44943
593.553	46611
593.623	45193
593.694	46363
593.764	46633
593.835	46087
593.906	45394
593.976	45613
594.047	45277
594.117	45658
594.188	45679
594.258	45716
594.329	44934
594.399	45181
594.470	45172
594.540	46083
594.611	45254
594.681	45617
594.751	44996
594.822	45024
594.892	45869
594.963	47179
595.033	45838
595.103	47896
595.174	46157
595.244	49009
595.314	51136
595.384	49145
595.455	47511
595.525	48863
595.595	50424
595.665	49993
595.736	49836
595.806	48374
595.876	49826
595.946	49637
596.016	49030
596.087	51514
596.157	51209
596.227	50664
596.297	51929
596.367	55061
596.437	55998
596.507	57222
596.577	56874
596.647	57518
596.717	57792
596.787	58814
596.857	59754
596.927	58243
596.997	57756
597.067	58544
597.137	60397
597.207	61361
597.277	61055
597.347	60431
597.417	58215
597.487	58628
597.557	59252
597.626	60631
597.696	60234
597.766	59989
597.836	60293
597.906	57343
597.975	53408
598.045	53972
598.115	55361
598.185	57639
598.254	59658
598.324	66235
598.394	67402
598.464	68754
598.533	66150
598.603	63609
598.672	61858
598.742	61180
598.812	61153
598.881	60809
598.951	60994
599.020	60676
599.090	60653
599.159	63127
599.229	63370
599.299	61334
599.368	59870
599.437	60536
599.507	58283
599.576	56340
599.646	55516
599.715	55686
599.785	55292
599.854	53971
599.924	53349
599.993	52999
600.062	52793
600.132	53864
600.201	55384
600.270	61153
600.340	66288
600.409	64844
600.478	64226
600.547	64250
600.617	64082
600.686	56758
600.755	51246
600.824	48124
600.894	46935
600.963	44887
601.032	45727
601.101	44331
601.170	44016
601.239	43304
601.308	42336
601.378	43864
601.447	41655
601.516	43214
601.585	43348
601.654	44416
601.723	43417
601.792	44175
601.861	44154
601.930	46479
601.999	48467
602.068	46993
602.137	45976
602.206	48681
602.275	47444
602.343	48843
602.412	50267
602.481	48650
602.550	47219
602.619	48629
602.688	48857
602.756	48958
602.825	48093
602.894	48133
602.963	49587
603.032	50681
603.100	50768
603.169	50314
603.238	50069
603.307	50786
603.375	51642
603.444	51981
603.513	51936
603.581	52166
603.650	52413
603.719	51543
603.787	51525
603.856	53358
603.924	53304
603.993	57065
604.061	56792
604.130	59489
604.198	59929
604.267	61506
604.335	62168
604.404	62267
604.472	62935
604.541	63821
604.609	64043
604.678	64404
604.746	64166
604.815	66521
604.883	65980
604.951	67125
605.020	67258
605.088	69019
605.156	68780
605.225	69260
605.293	70213
605.361	71302
605.429	71713
605.498	72287
605.566	72192
605.634	77196
605.702	77828
605.771	80301
605.839	81083
605.907	82185
605.975	79823
606.043	78036
606.111	76826
606.180	77324
606.248	76051
606.316	76467
606.384	75048
606.452	75576
606.520	78967
606.588	83450
606.656	80391
606.724	80037
606.792	75978
606.860	70751
606.928	64545
606.996	61739
607.064	58210
607.132	59946
607.200	62009
607.267	64634
607.335	65479
607.403	68208
607.471	66648
607.539	64910
607.607	64977
607.674	61508
607.742	58429
607.810	57634
607.878	58000
607.946	58218
608.013	58620
608.081	61665
608.149	61577
608.216	63247
608.284	65228
608.352	66613
608.419	65754
608.487	64532
608.555	64263
608.622	64780
608.690	65164
608.757	70827
608.825	76119
608.893	74280
608.960	73658
609.028	72088
609.095	71083
609.163	69563
609.230	66921
609.298	60362
609.365	59668
609.432	64604
609.500	68502
609.567	75294
609.635	85101
609.702	94682
609.769	93483
609.837	85681
609.904	68223
609.971	67745
610.039	72970
610.106	86005
610.173	120960
610.241	247641
610.308	442955
610.375	408973
610.442	171371
610.509	84168
610.577	70871
610.644	69314
610.711	68569
610.778	72254
610.845	71391
610.912	74496
610.980	77618
611.047	79025
611.114	78409
611.181	75785
611.248	73799
611.315	75431
611.382	77219
611.449	79515
611.516	81749
611.583	81823
611.650	81373
611.717	81746
611.784	82870
611.851	85624
611.918	88560
611.984	96264
612.051	112512
612.118	165924
612.185	351587
612.252	602330
612.319	185347
612.386	104970
612.452	100490
612.519	94225
612.586	91627
612.653	90742
612.719	93796
612.786	95249
612.853	89128
612.919	83603
612.986	85104
613.053	83551
613.120	78226
613.186	75266
613.253	74403
613.319	74808
613.386	73562
613.453	76321
613.519	77814
613.586	79587
613.652	86673
613.719	87401
613.785	85341
613.852	79146
613.918	76108
613.985	77547
614.051	78627
614.118	84981
614.184	91555
614.250	81375
614.317	77778
614.383	76780
614.449	77693
614.516	79010
614.582	77967
614.648	79025
614.715	77324
614.781	78691
614.847	75968
614.914	76871
614.980	75270
615.046	74984
615.112	73288
615.179	78238
615.245	79496
615.311	82994
615.377	92209
615.443	115247
615.509	95419
615.575	83438
615.642	81824
615.708	82211
615.774	84893
615.840	89924
615.906	95286
615.972	110019
616.038	155669
616.104	260199
616.170	429784
616.236	826903
616.302	311003
616.368	127132
616.434	107223
616.500	91877
616.565	90935
616.631	100997
616.697	104314
616.763	94531
616.829	103013
616.895	150434
616.961	207773
617.026	143172
617.092	86683
617.158	81845
617.224	79451
617.289	76459
617.355	72935
617.421	72223
617.487	71759
617.552	71934
617.618	68393
617.684	68283
617.749	69392
617.815	69521
617.880	65390
617.946	66239
618.012	66953
618.077	70847
618.143	69235
618.208	67779
618.274	69156
618.339	73057
618.405	68692
618.470	61780
618.536	63407
618.601	61979
618.667	62351
618.732	58651
618.798	57892
618.863	57239
618.928	56352
618.994	57030
619.059	58266
619.124	62411
619.190	65306
619.255	56805
619.320	55649
619.386	56038
619.451	55766
619.516	56260
619.581	54912
619.647	57317
619.712	60119
619.777	56967
619.842	54501
619.907	55297
619.972	56436
620.038	57988
620.103	55399
620.168	56039
620.233	54741
620.298	56739
620.363	55615
620.428	57351
620.493	58159
620.558	58454
620.623	58892
620.688	60722
620.753	59294
620.818	59115
620.883	59703
620.948	61064
621.013	60758
621.078	60400
621.143	58499
621.207	60766
621.272	59720
621.337	60245
621.402	58927
621.467	59272
621.532	58618
621.596	59646
621.661	58173
621.726	58141
621.791	57222
621.855	59745
621.920	59746
621.985	60268
622.049	59697
622.114	60196
622.179	59824
622.243	60368
622.308	61995
622.373	64381
622.437	64899
622.502	61942
622.566	60573
622.631	60485
622.695	61446
622.760	62321
622.824	60901
622.889	61025
622.953	63395
623.018	66248
623.082	77035
623.147	67396
623.211	63126
623.276	63493
623.340	62819
623.404	61145
623.469	59140
623.533	58899
623.597	58440
623.662	59748
623.726	57797
623.790	56100
623.854	53363
623.919	53314
623.983	53372
624.047	54531
624.111	54402
624.176	55875
624.240	53872
624.304	57070
624.368	56496
624.432	55976
624.496	54850
624.560	57664
624.625	61458
624.689	60191
624.753	58141
624.817	59332
624.881	55677
624.945	55461
625.009	50637
625.073	52367
625.137	53400
625.201	55457
625.265	61921
625.329	56638
625.393	52836
625.456	54301
625.520	53008
625.584	54110
625.648	56647
625.712	56373
625.776	60431
625.839	64493
625.903	58540
625.967	46745
626.031	46274
626.095	53118
626.158	55661
626.222	46945
626.286	40638
626.349	41089
626.413	38643
626.477	38727
626.540	38689
626.604	37847
626.668	36190
626.731	36797
626.795	36273
626.858	36643
626.922	35874
626.986	35971
627.049	35604
627.113	35742
627.176	36561
627.240	35005
627.303	34199
627.366	33575
627.430	34239
627.493	34693
627.557	33860
627.620	33898
627.684	33592
627.747	34673
627.810	33342
627.874	32050
627.937	29126
628.000	30001
628.064	30987
628.127	28699
628.190	27166
628.253	27134
628.317	27309
628.380	27023
628.443	24071
628.506	24635
628.569	25384
628.632	24178
628.696	23959
628.759	24003
628.822	22752
628.885	22883
628.948	22453
629.011	23764
629.074	21947
629.137	22490
629.200	20806
629.263	21609
629.326	20837
629.389	22224
629.452	21303
629.515	20890
629.578	20659
629.641	20822
629.704	21402
629.767	21856
629.830	21527
629.892	20107
629.955	20445
630.018	20670
630.081	20850
630.144	23150
630.207	22220
630.269	21609
630.332	20410
630.395	20269
630.458	19764
630.520	19382
630.583	19006
630.646	19283
630.708	18009
630.771	19439
630.834	18710
630.896	18618
630.959	18475
631.021	19100
631.084	18818
631.146	19578
631.209	18371
631.272	17862
631.334	19039
631.397	18924
631.459	18227
631.522	18942
631.584	18518
631.646	19830
631.709	19288
631.771	20228
631.834	21995
631.896	19247
631.958	18247
632.021	17844
632.083	17601
632.145	18398
632.208	17375
632.270	18454
632.332	16632
632.395	17379
632.457	17578
632.519	17090
632.581	17287
632.643	17085
632.706	16967
632.768	16878
632.830	16731
632.892	17006
632.954	16930
633.016	17298
633.078	17216
633.141	16025
633.203	16863
633.265	17060
633.327	16499
633.389	16862
633.451	17416
633.513	18240
633.575	18045
633.637	18150
633.698	18592
633.760	17831
633.822	16540
633.884	18307
633.946	17370
634.008	17224
634.070	17573
634.132	17658
634.193	17844
634.255	18836
634.317	18424
634.379	19594
634.441	18252
634.502	17470
634.564	16857
634.626	16477
634.687	15058
634.749	16976
634.811	14898
634.873	16044
634.934	15695
634.996	15385
635.057	15698
635.119	15697
635.181	15198
635.242	16084
635.304	15421
635.365	16591
635.427	14804
635.488	15401
635.550	15078
635.611	15644
635.673	14316
635.734	14735
635.796	14714
635.857	16991
635.918	15761
635.980	16290
636.041	15932
636.102	17326
636.164	17689
636.225	18509
636.286	17087
636.348	17334
636.409	15092
636.470	15591
636.531	14185
636.593	14047
636.654	14494
636.715	14480
636.776	13376
636.838	14813
636.899	14223
636.960	13639
637.021	13507
637.082	13592
637.143	12936
637.204	14006
637.265	12488
637.326	13857
637.387	12803
637.448	13862
637.509	12799
637.570	13420
637.631	12977
637.692	13126
637.753	12421
637.814	13201
637.875	12543
637.936	12878
637.997	11911
638.058	13342
638.119	12227
638.179	13090
638.240	12535
638.301	13070
638.362	12624
638.423	12818
638.483	12863
638.544	11872
638.605	12634
638.666	12370
638.726	12819
638.787	13029
638.848	12110
638.908	12302
638.969	11625
639.030	12886
639.090	11787
639.151	13021
639.211	11619
639.272	13178
639.332	15348
639.393	19524
639.453	11727
639.514	13334
639.574	11925
639.635	11602
639.695	10972
639.756	10982
639.816	10679
639.877	11831
639.937	14022
639.997	19094
640.058	16669
640.118	12166
640.178	10448
640.239	11394
640.299	9988
640.359	11239
640.420	11303
640.480	11059
640.540	11659
640.600	12068
640.661	11309
640.721	11226
640.781	12997
640.841	13265
640.901	11819
640.961	10822
641.021	10798
641.082	12224
641.142	13571
641.202	15272
641.262	10210
641.322	11438
641.382	11406
641.442	11057
641.502	9924
641.562	10966
641.622	10180
641.682	10632
641.742	10301
641.802	11540
641.861	10492
641.921	11036
641.981	10542
642.041	11568
642.101	11551
642.161	13033
642.221	10637
642.280	9304
642.340	9417
642.400	10440
642.460	9503
642.519	10531
642.579	8978
642.639	9554
642.698	9230
642.758	10408
642.818	9936
642.877	10159
642.937	10437
642.997	10735
643.056	12725
643.116	14629
643.175	11090
643.235	10682
643.294	10326
643.354	10935
643.414	11029
643.473	11998
643.532	12419
643.592	15144
643.651	19842
643.711	30162
643.770	49619
643.830	94501
643.889	256970
643.948	319788
644.008	42579
644.067	16519
644.126	12222
644.186	12204
644.245	11265
644.304	9956
644.363	10124
644.423	9741
644.482	9417
644.541	10412
644.600	8689
644.659	11596
644.719	11201
644.778	13685
644.837	17212
644.896	27462
644.955	55424
645.014	82016
645.073	19499
645.132	11754
645.191	10342
645.250	9696
645.309	9616
645.368	9590
645.427	10260
645.486	11894
645.545	17276
645.604	19181
645.663	9852
645.722	9633
645.781	9157
645.840	9999
645.898	10922
645.957	13648
646.016	17273
646.075	27571
646.134	44292
646.192	83682
646.251	242811
646.310	184365
646.369	22455
646.427	13345
646.486	11330
646.545	9794
646.603	9800
646.662	9473
646.721	8102
646.779	8965
646.838	8014
646.896	9432
646.955	9836
647.014	12464
647.072	16440
647.131	30418
647.189	58931
647.248	17386
647.306	8924
647.365	8322
647.423	7806
647.481	8088
647.540	6236
647.598	8080
647.657	7139
647.715	8605
647.773	6841
647.832	7560
647.890	6113
647.948	6506
648.007	6982
648.065	6340
648.123	5949
648.181	7837
648.240	6947
648.298	7395
648.356	6666
648.414	6709
648.472	7211
648.531	7063
648.589	6176
648.647	6862
648.705	5624
648.763	6345
648.821	6184
648.879	7069
648.937	6121
648.995	8046
649.053	7659
649.111	10372
649.169	13884
649.227	20060
649.285	35416
649.343	75906
649.401	165457
649.459	44154
649.516	23351
649.574	11801
649.632	9911
649.690	13599
649.748	11398
649.806	10082
649.863	14065
649.921	21728
649.979	44821
650.037	17372
650.094	5930
650.152	5614
650.210	6232
650.268	5883
650.325	4634
650.383	6378
650.440	5288
650.498	6582
650.556	4882
650.613	5243
650.671	6139
650.728	4887
650.786	5073
650.843	5303
650.901	5987
650.958	5221
651.016	3787
651.073	4614
651.131	4860
651.188	4607
651.246	4121
651.303	4874
651.360	4480
651.418	5054
651.475	4368
651.532	4998
651.590	4452
651.647	4253
651.704	4349
651.762	5005
651.819	4794
651.876	5006
651.933	4185
651.990	5842
652.048	4086
652.105	4567
652.162	4154
652.219	5021
652.276	4576
652.333	5012
652.390	3975
652.448	5265
652.505	3443
652.562	4961
652.619	4315
652.676	5440
652.733	5594
652.790	5719
652.847	3376
652.904	4738
652.961	4309
653.017	4000
653.074	4343
653.131	4102
653.188	3538
653.245	3365
653.302	4266
653.359	4579
653.415	3512
653.472	4718
653.529	3877
653.586	3983
653.642	3592
653.699	4446
653.756	4107
653.813	4031
653.869	3656
653.926	4648
653.983	3733
654.039	4475
654.096	3176
654.152	4639
654.209	3866
654.266	4733
654.322	3689
654.379	3950
654.435	3874
654.492	4871
654.548	4392
654.605	6072
654.661	6167
654.717	4573
654.774	4006
654.830	3882
654.887	3792
654.943	3676
655.000	3710
655.056	3914
655.112	3984
655.168	3452
655.225	3256
655.281	4326
655.337	3038
655.394	4493
655.450	4911
655.506	4496
655.562	3702
655.618	4875
655.675	3223
655.731	3867
655.787	3366
655.843	3647
655.899	2766
655.955	4330
656.011	3840
656.067	2784
656.123	3699
656.179	3593
656.235	4134
656.291	3229
656.347	3750
656.403	3453
656.459	3224
656.515	3629
656.571	3432
656.627	3676
656.683	2705
656.739	3839
656.795	2825
656.850	3285
656.906	3457
656.962	4298
657.018	3053
657.074	3449
657.129	3595
657.185	4123
657.241	5153
657.297	8533
657.352	5479
657.408	3132
657.464	4236
657.519	3143
657.575	2951
657.630	3562
657.686	3105
657.742	3336
657.797	2733
657.853	3193
657.908	3924
657.964	3114
658.019	3411
658.075	3947
658.130	3366
658.186	3380
658.241	2954
658.297	3189
658.352	2719
658.407	3595
658.463	2400
658.518	4049
658.573	2924
658.629	4074
658.684	3567
658.739	3305
658.795	2649
658.850	3685
658.905	2678
658.960	4046
659.016	3079
659.071	3827
659.126	3112
659.181	3458
659.236	3396
659.291	6216
659.346	4984
659.401	4512
659.457	4111
659.512	3960
659.567	4489
659.622	3662
659.677	2415
659.732	2695
659.787	3245
659.842	3347
659.897	2824
659.952	3540
660.007	3173
660.061	3731
660.116	2693
660.171	3322
660.226	2598
660.281	4196
660.336	3056
660.391	2828
660.445	2615
660.500	2853
660.555	3736
660.610	3209
660.664	3073
660.719	2861
660.774	2441
660.828	3016
660.883	3073
660.938	3887
660.992	3099
661.047	3163
661.101	2987
661.156	3248
661.211	2340
661.265	3180
661.320	2457
661.374	2986
661.429	3521
661.483	3776
661.538	2134
661.592	2251
661.647	2799
661.701	2792
661.755	3138
661.810	3593
661.864	2728
661.919	2934
661.973	2772
662.027	3070
662.081	2580
662.136	3447
662.190	2229
662.244	4065
662.299	3012
662.353	2834
662.407	2649
662.461	2752
662.515	2581
662.569	2813
662.624	2433
662.678	3150
662.732	3304
662.786	2731
662.840	2969
662.894	2231
662.948	2691
663.002	3137
663.056	2760
663.110	2783
663.164	2849
663.218	3075
663.272	2600
663.326	2310
663.380	3101
663.434	4162
663.488	2253
663.542	3662
663.595	3324
663.649	2467
663.703	2733
663.757	2963
663.811	2039
663.864	2688
663.918	3635
663.972	3137
664.026	2729
664.079	2182
664.133	2048
664.187	2873
664.240	3243
664.294	2991
664.348	2130
664.401	3158
664.455	3333
664.508	3328
664.562	2660
664.615	3071
664.669	2315
664.722	3080
664.776	2994
664.829	2837
664.883	2809
664.936	2434
664.990	2638
665.043	3118
665.097	1766
665.150	3215
665.203	2767
665.257	2848
665.310	2835
665.363	2989
665.417	2583
665.470	2518
665.523	2645
665.576	2502
665.630	1702
665.683	1921
665.736	2872
665.789	3285
665.842	1545
665.895	2477
665.949	2733
666.002	2683
666.055	2335
666.108	4007
666.161	2417
666.214	3234
666.267	3146
666.320	3578
666.373	3387
666.426	3943
666.479	2546
666.532	2851
666.585	2027
666.638	3946
666.691	2288
666.744	3142
666.796	2312
666.849	2931
666.902	2702
666.955	2840
667.008	2398
667.060	3144
667.113	2742
667.166	3251
667.219	2460
667.271	3591
667.324	2770
667.377	3538
667.430	3163
667.482	3514
667.535	2969
667.587	3562
667.640	2598
667.693	3055
667.745	3178
667.798	6777
667.850	4497
667.903	2670
667.955	2508
668.008	3394
668.060	2302
668.113	2863
668.165	2355
668.218	3665
668.270	2824
668.322	1708
668.375	2730
668.427	3630
668.479	1423
668.532	3153
668.584	1920
668.636	2227
668.689	1851
668.741	2618
668.793	2798
668.845	3327
668.898	3088
668.950	2508
669.002	2468
669.054	2471
669.106	2083
669.158	3950
669.211	2998
669.263	3280
669.315	2501
669.367	3430
669.419	3065
669.471	4496
669.523	3161
669.575	4683
669.627	6117
669.679	4968
669.731	3458
669.783	4381
669.835	4238
669.886	5027
669.938	4685
669.990	5397
670.042	4206
670.094	5451
670.146	5771
670.197	7026
670.249	8053
670.301	9547
670.353	12731
670.404	18116
670.456	25827
670.508	40095
670.560	61327
670.611	97514
670.663	157687
670.715	277173
670.766	508237
670.818	586406
670.869	263663
670.921	76975
670.972	38614
671.024	26572
671.075	17980
671.127	13496
671.178	10229
671.230	9595
671.281	8754
671.333	7997
671.384	6430
671.436	5905
671.487	5949
671.538	6054
671.590	5940
671.641	7557
671.692	10357
671.744	16386
671.795	27552
671.846	15837
671.897	5831
671.949	4598
672.000	3436
672.051	3075
672.102	2792
672.153	3042
672.204	3413
672.256	3321
672.307	2301
672.358	2774
672.409	2792
672.460	3073
672.511	2003
672.562	3202
672.613	1440
672.664	2845
672.715	2187
672.766	3143
672.817	2051
672.868	1631
672.919	1759
672.970	2489
673.021	1499
673.071	1721
673.122	2381
673.173	2269
673.224	1730
673.275	2583
673.326	2076
673.376	1904
673.427	1413
673.478	1788
673.528	1917
673.579	2005
673.630	1873
673.680	1881
673.731	1573
673.782	1897
673.832	2219
673.883	2204
673.934	1256
673.984	2449
674.035	1344
674.085	2171
674.136	1898
674.186	2135
674.237	1702
674.287	1359
674.338	1835
674.388	2561
674.438	1625
674.489	1757
674.539	1808
674.589	2461
674.640	2213
674.690	2389
674.740	1469
674.791	2333
674.841	854
674.891	2519
674.942	1112
674.992	1366
675.042	1259
675.092	927
675.142	1764
675.193	1212
675.243	903
675.293	1310
675.343	1643
675.393	1214
675.443	1704
675.493	2366
675.543	1548
675.593	2079
675.643	1517
675.693	1931
675.743	746
675.793	1972
675.843	664
675.893	1303
675.943	1463
675.993	1609
676.043	1691
676.093	1909
676.142	1200
676.192	1644
676.242	1206
676.292	1450
676.341	1042
676.391	2083
676.441	1539
676.491	1740
676.540	790
676.590	2164
676.640	604
676.689	1426
676.739	759
676.789	626
676.838	1451
676.888	1668
676.937	1033
676.987	1850
677.037	917
677.086	1486
677.136	1558
677.185	1561
677.235	1219
677.284	1104
677.333	1371
677.383	1897
677.432	288
677.482	1176
677.531	811
677.580	1407
677.630	485
677.679	1334
677.728	1658
677.778	1235
677.827	741
677.876	1449
677.925	621
677.975	1338
678.024	1119
678.073	1318
678.122	981
678.171	1592
678.220	654
678.269	1713
678.319	1033
678.368	1527
678.417	1096
678.466	2259
678.515	546
678.564	1656
678.613	602
678.662	1180
678.711	1347
678.760	1152
678.809	1213
678.857	1089
678.906	681
678.955	1132
679.004	1524
679.053	1498
679.102	546
679.151	1170
679.199	403
679.248	980
679.297	260
679.346	1827
679.394	355
679.443	850
679.492	507
679.540	1503
679.589	527
679.638	1059
679.686	1251
679.735	1243
679.784	351
679.832	1527
679.881	1161
679.929	967
679.978	1281
680.026	1612
680.075	303
680.123	92
680.172	1186
680.220	687
680.268	275
680.317	1713
680.365	590
680.414	517
680.462	579
680.510	1219
680.559	788
680.607	1207
680.655	631
680.703	1101
680.752	110
680.800	2069
680.848	178
680.896	1161
680.945	230
680.993	1343
681.041	90
681.089	1188
681.137	764
681.185	590
681.233	682
681.258	889
681.281	1060
681.329	543
681.377	1383
681.380	1372
681.425	686
681.473	1497
681.502	1335
681.521	1177
681.569	1444
681.617	653
681.624	780
681.665	1407
681.713	720
681.745	1312
681.761	1560
681.809	545
681.857	1511
681.867	1482
681.904	1289
681.952	948
681.989	1152
682.000	1181
682.048	2185
682.096	1220
682.111	1643
682.143	2459
682.191	1847
682.233	1786
682.239	1747
682.286	2082
682.334	1218
682.354	1547
682.382	1965
682.430	2119
682.476	2384
682.477	2365
682.525	2329
682.572	1577
682.598	1998
682.620	2334
682.667	1521
682.715	2541
682.720	2546
682.763	2363
682.810	2273
682.841	2333
682.857	2357
682.905	2054
682.952	2494
682.963	2597
683.000	2775
683.047	2182
683.085	2850
683.095	3021
683.142	2705
683.190	3337
683.206	3097
683.237	2563
683.284	2942
683.328	2582
683.332	2535
683.379	3399
683.426	3390
683.449	3050
683.473	2629
683.521	3019
683.568	2782
683.571	2805
683.615	2910
683.662	4111
683.693	3833
683.709	3639
683.757	3488
683.804	3175
683.814	3334
683.851	3783
683.898	2969
683.936	3756
683.945	3947
683.992	3411
684.039	3817
684.057	3856
684.086	3913
684.133	4372
684.179	3748
684.180	3707
684.227	4469
684.274	4195
684.300	4485
684.321	4653
684.368	4533
684.415	4755
684.422	4729
684.462	4467
684.509	4563
684.543	4054
684.556	3819
684.603	4322
684.649	3861
684.665	4123
684.696	4812
684.743	4248
684.786	4598
684.790	4604
684.837	4508
684.883	5046
684.908	4780
684.930	4509
684.977	4873
685.023	4553
685.029	4703
685.070	5770
685.117	4606
685.150	5092
685.164	5235
685.210	5089
685.257	5146
685.272	5100
685.303	5046
685.350	5685
685.393	5018
685.396	4963
685.443	6523
685.490	6051
685.514	6219
685.536	6340
685.583	6284
685.629	6996
685.636	6911
685.675	5989
685.722	6392
685.757	5783
685.768	5653
685.815	6260
685.861	5691
685.878	6124
685.908	6775
685.954	6508
686.000	6696
686.000	6692
686.047	6023
686.093	6468
686.121	6438
686.139	6507
686.185	6580
686.232	6234
686.242	6382
686.278	6616
686.324	6503
686.363	7052
686.370	7162
686.416	6340
686.463	6454
686.484	6461
686.509	6474
686.555	6798
686.601	6205
686.606	6239
686.647	6548
686.693	6206
686.727	6501
686.739	6600
686.785	6407
686.831	6286
686.848	6465
686.877	6872
686.923	6433
686.969	6806
686.969	6806
687.015	6911
687.061	7349
687.090	7087
687.107	6957
687.153	7710
687.199	7105
687.211	6939
687.245	6510
687.291	7289
687.332	6573
687.336	6503
687.382	7206
687.428	7174
687.453	7186
687.474	7257
687.520	7276
687.565	7880
687.574	7861
687.611	7608
687.657	7154
687.695	7335
687.702	7405
687.748	8127
687.794	8150
687.816	8283
687.839	8453
687.885	8596
687.931	8658
687.937	8627
687.976	7978
688.022	8288
688.058	7682
688.067	7618
688.113	8224
688.158	7575
688.179	7914
688.204	8350
688.249	7563
688.295	8085
688.300	8145
688.340	8454
688.386	8015
688.421	8120
688.431	8216
688.477	8139
688.522	8273
688.542	8658
688.567	9103
688.613	8634
688.658	8572
688.663	8559
688.703	8416
688.749	8453
688.784	8238
688.794	8189
688.839	8680
688.884	9122
688.905	9014
688.930	8955
688.975	8829
689.020	9083
689.026	9036
689.065	8625
689.110	8991
689.146	8869
689.155	8890
689.201	8961
689.246	9040
689.267	9162
689.291	9270
689.336	9192
689.381	8913
689.388	8955
689.426	9231
689.471	9242
689.509	9459
689.516	9553
689.561	10105
689.606	9398
689.630	9846
689.651	10022
689.696	9551
689.741	9286
689.750	9284
689.785	9544
689.830	9573
689.871	9827
689.875	9873
689.920	9277
689.965	9848
689.992	9921
690.010	9882
690.054	9519
690.099	9234
690.112	9123
690.144	8947
690.189	9080
690.233	9289
690.233	9304
690.278	9308
690.323	9247
690.354	9583
690.367	9723
690.412	9518
690.457	10136
690.474	9908
690.501	9471
690.546	9771
690.590	9536
690.595	9536
690.635	9888
690.680	10018
690.716	10162
690.724	10194
690.769	9996
690.813	10292
690.836	10064
690.857	10016
690.902	10719
690.946	10577
690.957	10672
690.991	11211
691.035	11537
691.077	12295
691.080	12388
691.124	13735
691.168	14923
691.198	15166
691.213	14675
691.257	14352
691.301	12970
691.318	12665
691.346	12407
691.390	11807
691.434	11326
691.439	11217
691.478	10977
691.522	11172
691.559	10797
691.567	10800
691.611	11082
691.655	11281
691.680	11435
691.699	11544
691.743	11627
691.787	11730
691.800	11649
691.831	11365
691.875	11384
691.919	11173
691.921	11154
691.964	11450
692.008	11519
692.041	11649
692.052	11701
692.096	11392
692.139	11522
692.162	11477
692.183	11510
692.227	11665
692.271	11677
692.282	11665
692.315	11533
692.359	11259
692.402	11529
692.403	11555
692.447	11035
692.490	11468
692.523	11477
692.534	11513
692.578	11530
692.622	11777
692.643	11780
692.666	11766
692.709	11668
692.753	11711
692.763	11584
692.797	11383
692.840	11582
692.884	11660
692.884	11685
692.928	11761
692.971	11635
693.004	11881
693.015	12004
693.059	11779
693.102	12007
693.124	11894
693.146	11877
693.189	12269
693.233	12048
693.245	12142
693.276	12339
693.320	12027
693.363	11910
693.365	11884
693.407	12260
693.450	12545
693.485	12660
693.493	12722
693.537	13067
693.580	13092
693.605	13325
693.624	13558
693.667	13820
693.710	14259
693.725	14293
693.753	14807
693.797	15700
693.840	16860
693.845	16989
693.883	19646
693.926	21484
693.966	23808
693.970	23656
694.013	21235
694.056	19129
694.086	17472
694.099	17016
694.142	15667
694.185	14391
694.206	13597
694.229	13551
694.272	13420
694.315	13615
694.326	13643
694.358	13922
694.401	13955
694.444	14072
694.446	14052
694.487	14633
694.530	14924
694.566	15447
694.573	15451
694.616	14781
694.659	14609
694.686	14257
694.702	14154
694.745	13944
694.787	13449
694.806	13337
694.830	13480
694.873	13651
694.916	13820
694.926	13742
694.959	13611
695.002	13795
695.044	13813
695.046	13780
695.087	13866
695.130	14008
695.166	14075
695.172	14121
695.215	14182
695.258	14242
695.286	14122
695.301	14097
695.343	14086
695.386	14240
695.406	14165
695.428	14127
695.471	13915
695.514	13958
695.526	13902
695.556	14058
695.599	14179
695.641	14250
695.646	14254
695.684	14626
695.726	14620
695.766	14823
695.769	14867
695.811	14849
695.854	14942
695.886	14795
695.896	14791
695.938	14902
695.981	14730
696.005	14808
696.023	15018
696.065	15024
696.108	15320
696.125	15357
696.150	15337
696.192	15269
696.235	15057
696.245	15033
696.277	15269
696.319	15247
696.361	15480
696.365	15446
696.404	15546
696.446	15599
696.485	15626
696.488	15670
696.530	15873
696.572	15826
696.604	15833
696.614	15913
696.656	16120
696.698	16213
696.724	16264
696.740	16140
696.783	15779
696.825	15365
696.844	15122
696.867	15331
696.909	15574
696.951	15894
696.964	15940
696.992	15866
697.034	15771
697.076	15704
697.083	15632
697.118	15668
697.160	15636
697.202	15816
697.203	15774
697.244	16001
697.286	16300
697.323	16474
697.327	16530
697.369	16704
697.411	16792
697.442	16894
697.453	16902
697.494	16620
697.536	16459
697.562	16252
697.578	16519
697.620	17173
697.661	17773
697.682	18044
697.703	18061
697.744	17930
697.786	17890
697.801	17810
697.828	18291
697.869	18998
697.911	19683
697.921	19805
697.952	19614
697.994	19204
698.035	18915
698.040	18816
698.077	18346
698.118	17862
698.160	17291
698.160	17240
698.201	17117
698.243	16954
698.279	16753
698.284	16826
698.325	17086
698.367	17347
698.399	17486
698.408	17561
698.449	17719
698.491	17803
698.518	17866
698.532	17853
698.573	17624
698.614	17429
698.638	17237
698.656	17450
698.697	17892
698.738	18286
698.757	18442
698.779	18478
698.820	18419
698.862	18370
698.877	18296
698.903	18493
698.944	18742
698.985	18983
698.996	18999
699.026	18876
699.067	18632
699.116	18291
699.235	17726
699.354	17434
699.474	17820
699.593	17387
699.713	17449
699.832	18030
699.951	17512
700.070	19701
700.190	18657
700.309	17537
700.428	17539
700.547	17706
700.667	16596
700.786	17155
700.905	18100
701.024	16763
701.143	16872
701.262	16914
701.381	17170
701.500	16277
701.619	18272
701.738	19387
701.857	17002
701.976	15538
702.095	16045
702.214	17079
702.333	18383
702.452	17916
702.571	17363
702.690	16826
702.809	15547
702.928	16375
703.047	16678
703.165	15823
703.284	16067
703.403	15276
703.522	16424
703.640	15359
703.759	16559
703.878	17476
703.997	16939
704.115	15373
704.234	16304
704.353	15555
704.471	15261
704.590	14296
704.708	14702
704.827	14475
704.946	14747
705.064	14863
705.183	14874
705.301	14307
705.420	15159
705.538	16408
705.656	15792
705.775	14650
705.893	15230
706.012	16752
706.130	17109
706.249	14736
706.367	14459
706.485	15068
706.604	15346
706.722	14704
706.840	15654
706.958	16922
707.077	15632
707.195	14950
707.313	14155
707.431	13474
707.549	14403
707.668	14041
707.786	14471
707.904	13966
708.022	13088
708.140	14486
708.258	13417
708.376	13847
708.494	14402
708.612	14156
708.730	14295
708.848	15602
708.966	15065
709.084	16415
709.202	14802
709.320	14593
709.438	13604
709.556	14228
709.674	14394
709.791	15134
709.909	14417
710.027	13780
710.145	13243
710.263	14212
710.380	13943
710.498	14073
710.616	13301
710.733	12419
710.851	13149
710.969	12763
711.086	13248
711.204	14511
711.322	13742
711.439	13596
711.557	12893
711.674	12788
711.792	12444
711.909	12512
712.027	13043
712.144	12662
712.262	13017
712.379	12096
712.497	13647
712.614	14310
712.732	14063
712.849	13617
712.966	13341
713.084	14340
713.201	16833
713.318	13588
713.436	13848
713.553	13632
713.670	13811
713.787	13476
713.905	13281
714.022	14676
714.139	12912
714.256	14338
714.373	16786
714.490	20821
714.608	33549
714.725	87772
714.842	382949
714.959	272167
715.076	24099
715.193	16965
715.310	14329
715.427	13724
715.544	11919
715.661	13305
715.778	11622
715.895	13127
716.011	12616
716.128	11843
716.245	13031
716.362	12892
716.479	15217
716.596	14173
716.713	12306
716.829	12255
716.946	11330
717.063	11673
717.180	11101
717.296	11478
717.413	10952
717.530	10386
717.646	11035
717.763	11390
717.880	11472
717.996	11009
718.113	10750
718.229	12300
718.346	11506
718.462	10408
718.579	12243
718.695	14285
718.812	25130
718.928	13660
719.045	11628
719.161	10978
719.277	11140
719.394	11232
719.510	10289
719.626	11479
719.743	11136
719.859	12924
719.975	16337
720.092	28517
720.208	108435
720.324	198728
720.440	21492
720.557	12836
720.673	13566
720.789	19910
720.905	16595
721.021	16952
721.137	11369
721.253	9829
721.369	9550
721.486	9977
721.602	10501
721.718	10934
721.834	9552
721.950	9866
722.066	9823
722.181	9963
722.297	10152
722.413	10703
722.529	9360
722.645	9643
722.761	8685
722.877	9115
722.993	9617
723.108	9909
723.224	10816
723.340	9254
723.456	8995
723.571	8668
723.687	9227
723.803	9260
723.918	9264
724.034	8724
724.150	9534
724.265	9264
724.381	8671
724.497	11093
724.612	10037
724.728	8171
724.843	8288
724.959	9000
725.074	8861
725.190	10199
725.305	9920
725.421	8749
725.536	8682
725.651	8180
725.767	7987
725.882	8111
725.997	7856
726.113	8166
726.228	7957
726.343	8583
726.459	7894
726.574	8199
726.689	8620
726.804	8494
726.920	7979
727.035	8337
727.150	8283
727.265	8606
727.380	8099
727.495	8301
727.610	8478
727.725	7523
727.841	8456
727.956	8784
728.071	9677
728.186	8912
728.301	8412
728.416	8115
728.531	8918
728.645	7769
728.760	8312
728.875	8147
728.990	9352
729.105	7910
729.220	8325
729.335	9020
729.449	9380
729.564	7495
729.679	7651
729.794	7733
729.908	7818
730.023	7704
730.138	7738
730.253	7420
730.367	7185
730.482	6758
730.596	7238
730.711	8158
730.826	8514
730.940	8722
731.055	8156
731.169	9179
731.284	7881
731.398	7725
731.513	7663
731.627	7786
731.742	7380
731.856	8592
731.970	9076
732.085	9358
732.199	10071
732.313	12469
732.428	16715
732.542	41183
732.656	123115
732.771	58324
732.885	14309
732.999	10540
733.113	9774
733.227	10041
733.342	9298
733.456	9614
733.570	9378
733.684	9413
733.798	9277
733.912	8807
734.026	8910
734.140	8361
734.254	8357
734.368	8739
734.482	9368
734.596	10376
734.710	8961
734.824	9467
734.938	8255
735.052	8674
735.166	7526
735.280	8863
735.393	9052
735.507	8719
735.621	8442
735.735	8484
735.849	9444
735.962	8502
736.076	8667
736.190	8677
736.303	8785
736.417	9299
736.531	8581
736.644	7512
736.758	8292
736.872	6961
736.985	7617
737.099	8231
737.212	8408
737.326	7671
737.439	7193
737.553	7725
737.666	7447
737.780	7790
737.893	7800
738.007	6437
738.120	7523
738.233	8154
738.347	7279
738.460	8264
738.573	7543
738.687	8621
738.800	8313
738.913	7826
739.026	10798
739.140	7713
739.253	6661
739.366	8142
739.479	7257
739.592	6189
739.705	7185
739.818	7564
739.932	7088
740.045	6607
740.158	7406
740.271	8013
740.384	6991
740.497	7152
740.610	7067
740.723	7708
740.836	6586
740.949	7175
741.062	7897
741.174	11270
741.287	8343
741.400	7387
741.513	6625
741.626	6464
741.739	7665
741.851	6916
741.964	7018
742.077	7118
742.189	6509
742.302	6725
742.415	7353
742.527	7210
742.640	6348
742.753	6775
742.865	5486
742.978	6880
743.090	6112
743.203	7189
743.316	6628
743.428	5996
743.541	5957
743.653	6758
743.766	6542
743.878	6098
743.990	5919
744.103	7061
744.215	6286
744.327	5943
744.440	7992
744.552	7747
744.664	11227
744.777	6963
744.889	6737
745.001	5871
745.113	6007
745.226	5652
745.338	5690
745.450	5824
745.562	6337
745.674	5277
745.786	6178
745.898	6064
746.010	5240
746.122	6370
746.234	5276
746.347	6017
746.459	6467
746.570	6033
746.682	5674
746.794	5824
746.906	5881
747.018	5031
747.130	6018
747.242	5841
747.354	6096
747.466	5884
747.577	5090
747.689	5835
747.801	6319
747.913	5073
748.024	6109
748.136	5303
748.248	5650
748.359	5829
748.471	5841
748.583	5606
748.694	4644
748.806	4707
748.918	5681
749.029	5023
749.141	6251
749.252	6251
749.364	6122
749.475	6921
749.587	11994
749.698	6796
749.809	5265
749.921	5380
750.032	4645
750.144	5475
750.255	5337
750.366	4707
750.478	5290
750.589	4770
750.700	5515
750.811	5070
750.923	4836
751.034	7052
751.145	13449
751.256	11350
751.367	4715
751.479	5177
751.590	4900
751.701	5264
751.812	4505
751.923	4408
752.034	5035
752.145	4540
752.256	5662
752.367	5328
752.478	4623
752.589	4928
752.700	4497
752.811	4276
752.922	5617
753.032	4369
753.143	6376
753.254	5524
753.365	5396
753.476	5131
753.586	4427
753.697	4114
753.808	5007
753.919	4496
754.029	4088
754.140	4155
754.251	4728
754.361	4540
754.472	4865
754.582	5275
754.693	5120
754.804	5093
754.914	5045
755.025	4564
755.135	4297
755.246	5073
755.356	4379
755.466	4436
755.577	4924
755.687	4279
755.798	4181
755.908	4379
756.018	4531
756.129	4352
756.239	4538
756.349	4827
756.460	3208
756.570	4970
756.680	5092
756.790	4932
756.900	5248
757.011	5005
757.121	4422
757.231	3820
757.341	4984
757.451	4538
757.561	3396
757.671	4008
757.781	3967
757.891	3779
758.001	4411
758.111	5030
758.221	4943
758.331	4931
758.441	5686
758.551	5165
758.661	7251
758.771	5698
758.880	4210
758.990	5014
759.100	5157
759.210	5126
759.320	5560
759.429	3949
759.539	4824
759.649	4800
759.758	4453
759.868	4402
759.978	4936
760.087	5242
760.197	4889
760.307	5287
760.416	5063
760.526	4883
760.635	5122
760.745	5510
760.854	4624
760.964	5392
761.073	5744
761.182	4774
761.292	4767
761.401	5641
761.511	4577
761.620	5058
761.729	4720
761.839	4536
761.948	4632
762.057	5796
762.166	5582
762.276	4314
762.385	5136
762.494	4543
762.603	4273
762.712	4747
762.822	4759
762.931	4290
763.040	4481
763.149	4081
763.258	4811
763.367	4704
763.476	4204
763.585	4936
763.694	5579
763.803	5393
763.912	5197
764.021	4769
764.130	5365
764.238	4763
764.347	5198
764.456	5144
764.565	5156
764.674	5694
764.783	5632
764.891	5195
765.000	5829
765.109	5903
765.217	6244
765.326	8099
765.435	7886
765.543	8888
765.652	10627
765.761	11723
765.869	15317
765.978	20397
766.086	30353
766.195	55565
766.303	110799
766.412	284924
766.520	642888
766.629	495752
766.737	146267
766.846	58071
766.954	34135
767.062	23598
767.171	18228
767.279	14209
767.387	11807
767.496	10227
767.604	9063
767.712	8496
767.820	7527
767.928	7538
768.037	6934
768.145	6605
768.253	6795
768.361	6316
768.469	6280
768.577	5394
768.685	6300
768.793	6169
768.901	7519
769.009	7433
769.117	7513
769.225	8423
769.333	10711
769.441	15817
769.549	23357
769.657	45344
769.765	104755
769.873	316787
769.981	520992
770.088	177521
770.196	46386
770.304	23657
770.412	17336
770.519	13540
770.627	10253
770.735	9186
770.842	8201
770.950	7187
771.058	7146
771.165	6663
771.273	5803
771.380	6169
771.488	6064
771.595	6846
771.703	6582
771.810	6092
771.918	5582
772.025	5259
772.133	5528
772.240	6390
772.348	5988
772.455	6084
772.562	5901
772.670	6085
772.777	5379
772.884	5598
772.991	4494
773.099	4630
773.206	5255
773.313	5114
773.420	5490
773.528	4848
773.635	4470
773.742	5299
773.849	5339
773.956	4331
774.063	5011
774.170	5598
774.277	5010
774.384	5437
774.491	5700
774.598	3618
774.705	3865
774.812	5582
774.919	6409
775.026	4585
775.133	4567
775.239	4827
775.346	5493
775.453	4565
775.560	4485
775.667	5000
775.773	4514
775.880	4067
775.987	5020
776.093	5083
776.200	5023
776.307	4671
776.413	3902
776.520	3747
776.627	4147
776.733	4434
776.840	4028
776.946	4898
777.053	4738
777.159	4444
777.266	4351
777.372	4494
777.478	4347
777.585	5148
777.691	4692
777.798	3870
777.904	5042
778.010	4633
778.117	6017
778.223	5810
778.329	4240
778.435	4629
778.542	3640
778.648	3845
778.754	3509
778.860	3606
778.966	3438
779.072	3278
779.178	3203
779.284	3703
779.391	3652
779.497	4200
779.603	4063
779.708	3530
779.815	5279
779.920	6481
780.026	16570
780.132	24113
780.238	5012
780.344	3437
780.450	3523
780.556	4400
780.661	3509
780.767	3266
780.873	3418
780.979	4079
781.085	3574
781.190	4112
781.296	3707
781.402	2993
781.507	4009
781.613	4029
781.719	3192
781.824	4541
781.930	3776
782.035	3066
782.141	3347
782.246	4700
782.352	3580
782.457	3582
782.563	3641
782.668	3561
782.773	3912
782.879	3314
782.984	3164
783.090	3519
783.195	4780
783.300	7030
783.405	5006
783.511	3240
783.616	3770
783.721	3855
783.826	3937
783.932	3776
784.037	3897
784.142	3350
784.247	3585
784.352	3416
784.457	3298
784.562	3708
784.667	3760
784.772	3089
784.877	2749
784.982	3519
785.087	3800
785.192	3813
785.297	3213
785.402	2681
785.507	3636
785.611	3476
785.716	2635
785.821	3282
785.926	3290
786.031	3581
786.135	3223
786.240	3754
786.345	3164
786.450	3693
786.554	2995
786.659	2855
786.763	2094
786.868	3529
786.973	3890
787.077	2801
787.182	3295
787.286	3785
787.391	3459
787.495	2862
787.600	2610
787.704	2073
787.809	2745
787.913	2465
788.017	2718
788.122	2748
788.226	2862
788.330	2540
788.435	2119
788.539	3414
788.643	2367
788.747	2698
788.852	1911
788.956	2623
789.060	3129
789.164	3164
789.268	2523
789.372	2961
789.476	3564
789.580	2407
789.684	2746
789.788	2379
789.892	2579
789.996	3824
790.100	2809
790.204	2581
790.308	3071
790.412	2767
790.516	2873
790.620	2158
790.724	3505
790.828	2222
790.931	3059
791.035	2541
791.139	2319
791.242	2434
791.346	3349
791.450	2753
791.554	2434
791.657	2576
791.761	2440
791.864	3138
791.968	1921
792.072	3431
792.175	2952
792.279	2446
792.382	2652
792.486	1622
792.589	2547
792.693	3192
792.796	2700
792.899	2751
793.003	2634
793.106	2827
793.209	2671
793.313	2656
793.416	2489
793.519	2497
793.623	3236
793.726	4118
793.829	5854
793.932	2953
794.035	1913
794.138	2674
794.242	3195
794.345	3903
794.448	3496
794.551	2891
794.654	7623
794.757	8646
794.860	10857
794.963	2790
795.066	2604
795.169	2366
795.272	1638
795.375	2887
795.477	2252
795.580	2124
795.683	1276
795.786	1866
795.889	1648
795.991	2691
796.094	2231
796.197	1865
796.300	2689
796.402	2540
796.505	1888
796.608	1842
796.710	1568
796.813	2540
796.915	2526
797.018	2706
797.120	2204
797.223	2169
797.326	1860
797.428	1873
797.530	1926
797.633	2211
797.735	2344
797.838	2388
797.940	3127
798.042	3072
798.145	2376
798.247	2007
798.349	1773
798.452	1759
798.554	1966
798.656	1895
798.758	2259
798.860	2903
798.962	1016
799.065	1912
799.167	1658
799.269	2544
799.371	2318
799.473	1789
799.575	2746
799.677	2369
799.779	2685
799.881	2563
799.983	4915
800.085	2776
800.187	1752
800.289	1960
800.390	2486
800.492	1476
800.594	2217
800.696	2405
800.798	1797
800.899	1992
801.001	1902
801.103	1805
801.205	2213
801.306	1927
801.408	1717
801.509	1586
801.611	1884
801.713	1839
801.814	1958
801.916	1557
802.017	1762
802.119	1743
802.220	1726
802.322	1191
802.423	2157
802.525	1317
802.626	2060
802.727	1854
802.829	2423
802.930	2091
803.031	1873
803.133	1789
803.234	1517
803.335	1752
803.436	1679
803.538	1253
803.639	1704
803.740	1673
803.841	957
803.942	1964
804.043	1418
804.144	1803
804.245	1179
804.346	2217
804.447	959
804.548	2301
804.649	2830
804.750	3343
804.851	1891
804.952	1531
805.053	1376
805.154	1833
805.255	2567
805.355	1672
805.456	1348
805.557	1351
805.658	1436
805.758	1750
805.859	1482
805.960	1214
806.061	1232
806.161	1362
806.262	1473
806.362	1118
806.463	1931
806.564	1911
806.664	1418
806.765	1632
806.865	1741
806.966	1072
807.066	1566
807.166	1929
807.267	2117
807.367	1232
807.468	1714
807.568	1682
807.668	2375
807.769	1682
807.869	1364
807.969	2432
808.069	2383
808.170	1352
808.270	1520
808.370	1796
808.470	2075
808.570	2238
808.670	2225
808.770	2012
808.870	1668
808.970	1087
809.070	1114
809.170	1562
809.271	2072
809.370	1682
809.470	1421
809.570	1710
809.670	909
809.770	1245
809.870	2029
809.970	1592
810.070	1852
810.169	979
810.269	1375
810.369	1890
810.469	890
810.568	1415
810.668	1649
810.768	2002
810.867	2205
810.967	1817
811.066	1312
811.166	1138
811.265	1862
811.365	1026
811.464	1877
811.564	1548
811.663	1197
811.763	930
811.862	1303
811.962	2144
812.061	1861
812.160	1645
812.260	1745
812.359	1390
812.458	3195
812.557	8012
812.657	21143
812.756	30846
812.855	7405
812.954	2800
813.053	1702
813.153	1510
813.252	2076
813.351	1813
813.450	1871
813.549	788
813.648	1781
813.747	1682
813.846	1281
813.945	1881
814.044	2013
814.143	1445
814.242	1785
814.341	1606
814.439	1511
814.538	1453
814.637	1944
814.736	2039
814.835	1701
814.933	1713
815.032	1309
815.131	2341
815.229	1972
815.328	2323
815.427	3334
815.525	2967
815.624	3129
815.722	3210
815.821	2510
815.919	3153
816.018	2459
816.116	2664
816.215	3491
816.313	2286
816.412	2584
816.510	2941
816.609	3490
816.707	3238
816.805	3682
816.904	3370
817.002	3912
817.100	3757
817.198	3982
817.296	4850
817.395	4801
817.493	4420
817.591	5173
817.689	5281
817.787	7998
817.885	10820
817.983	15647
818.081	28156
818.179	59495
818.277	142160
818.375	334020
818.473	263885
818.571	67630
818.669	26456
818.767	17572
818.865	16190
818.963	16915
819.061	20794
819.158	29068
819.256	51529
819.354	110948
819.452	247112
819.549	482678
819.647	306304
819.745	86717
819.842	36114
819.940	22334
820.038	15217
820.135	12080
820.233	9870
820.330	7911
820.428	6587
820.525	6060
820.623	5054
820.720	4892
820.818	4850
820.915	4715
821.012	4310
821.110	3387
821.207	4454
821.304	4028
821.402	3704
821.499	3880
821.596	3634
821.693	3269
821.791	3704
821.888	3339
821.985	4222
822.082	6922
822.179	6792
822.276	3068
822.373	2614
822.470	3338
822.567	2117
822.664	1982
822.761	3133
822.858	1957
822.955	2378
823.052	2329
823.149	1748
823.246	2577
823.343	2691
823.440	1994
823.536	1611
823.633	1066
823.730	2362
823.827	2405
823.923	1818
824.020	2593
824.117	1705
824.213	1038
824.310	2257
824.407	1834
824.503	1628
824.600	1484
824.696	2125
824.793	2124
824.889	2193
824.986	2180
825.082	2128
825.179	2022
825.275	1719
825.371	2369
825.468	2124
825.564	1450
825.660	1238
825.757	2043
825.853	2426
825.949	1646
826.045	1444
826.142	1561
826.238	1700
826.334	1948
826.430	1432
826.526	1895
826.622	172
826.718	1169
826.814	2031
826.910	1714
827.006	1377
827.102	873
827.198	2148
827.294	1637
827.390	2309
827.486	1471
827.582	582
827.678	585
827.774	1435
827.869	1575
827.965	1840
828.061	1204
828.157	1489
828.252	1739
828.348	1914
828.444	1600
828.539	1175
828.635	1511
828.731	2620
828.826	1093
828.922	1442
829.017	452
829.113	1514
829.208	2100
829.304	850
829.399	1984
829.495	1908
829.590	1767
829.685	921
829.781	1532
829.876	1340
829.971	1555
830.066	309
830.162	651
830.257	1328
830.352	1559
830.447	1606
830.543	835
830.638	1194
830.733	1779
830.828	1310
830.923	2070
831.018	847
831.113	1426
831.208	1105
831.303	1284
831.398	1700
831.493	1178
831.588	1794
831.683	2195
831.778	1099
831.873	1224
831.967	1105
832.062	602
832.157	811
832.252	1771
832.346	479
832.441	686
832.536	1493
832.631	3775
832.725	5669
832.820	5545
832.914	1117
833.009	1286
833.104	1370
833.198	2514
833.293	1713
833.387	1171
833.482	1290
833.576	913
833.670	1208
833.765	1127
833.859	915
833.954	1290
834.048	716
834.142	2217
834.237	281
834.331	1442
834.425	1535
834.519	589
834.613	1846
834.708	1062
834.802	661
834.896	602
834.990	344
835.084	749
835.178	945
835.272	1123
835.366	869
835.460	823
835.554	1824
835.648	1700
835.742	893
835.836	1215
835.930	1036
836.024	834
836.117	1505
836.211	1660
836.305	1629
836.399	936
836.493	1456
836.586	796
836.680	652
836.774	1003
836.867	1570
836.961	750
837.055	1122
837.148	1130
837.242	1351
837.335	1195
837.429	1318
837.522	246
837.616	695
837.709	829
837.803	1576
837.896	929
837.989	960
838.083	1515
838.176	1138
838.269	1254
838.363	1969
838.456	683
838.549	1684
838.642	2281
838.735	4158
838.829	6849
838.922	2274
839.015	2028
839.108	479
839.201	1202
839.294	569
839.387	625
839.480	1108
839.573	963
839.666	488
839.759	467
839.852	946
839.945	730
840.038	1537
840.131	1401
840.223	1557
840.316	1166
840.409	1432
840.502	219
840.594	1638
840.687	60
840.780	919
840.873	591
840.965	637
841.058	266
841.150	984
841.243	634
841.336	1543
841.428	532
841.521	352
841.613	386
841.706	1301
841.798	65
841.890	233
841.983	-322
842.075	1140
842.167	583
842.260	399
842.352	1223
842.444	563
842.537	1044
842.629	1718
842.721	1220
842.813	1066
842.905	-469
842.997	943
843.090	151
843.182	1379
843.274	617
843.366	989
843.458	1672
843.550	2998
843.642	2027
843.734	631
843.826	529
843.918	1257
844.009	1029
844.101	79
844.193	678
844.285	11
844.377	1247
844.469	820
844.560	433
844.652	639
844.744	845
844.835	600
844.927	769
845.019	191
845.110	1081
845.202	1410
845.293	240
845.385	786
845.476	401
845.568	487
845.659	732
845.751	1143
845.842	585
845.934	-164
846.025	58
846.116	-50
846.208	515
846.299	482
846.390	496
846.482	492
846.573	174
846.664	796
846.755	1499
846.846	2745
846.937	1186
847.029	972
847.120	1073
847.211	673
847.302	1221
847.393	405
847.484	849
847.575	417
847.666	90
847.757	204
847.847	656
847.938	486
848.029	117
848.120	547
848.211	647
848.302	302
848.392	852
848.483	-155
848.574	-80
848.664	398
848.755	607
848.846	463
848.936	662
849.027	559
849.118	484
849.208	635
849.299	1289
849.389	1628
849.480	1682
849.570	3600
849.661	7993
849.751	14081
849.841	25259
849.932	9238
850.022	1311
850.112	809
850.203	1001
850.293	505
850.383	1295
850.474	598
850.564	1090
850.654	816
850.744	1022
850.834	319
850.924	376
851.014	532
851.104	633
851.194	919
851.284	1422
851.374	1558
851.464	1881
851.554	1371
851.644	737
851.734	879
851.824	865
851.914	1385
852.004	1706
852.094	2542
852.183	3423
852.273	1232
852.363	306
852.452	-475
852.542	217
852.632	1029
852.721	316
852.811	679
852.901	540
852.990	1106
853.080	300
853.169	629
853.259	778
853.348	349
853.438	1592
853.527	1173
853.617	1973
853.706	2084
853.795	4588
853.885	10068
853.974	22867
854.063	44063
854.152	75280
854.242	130528
854.331	52526
854.420	8810
854.509	3579
854.598	2749
854.687	2015
854.777	2274
854.866	945
854.955	1218
855.044	265
855.133	203
855.222	822
855.311	1111
855.400	639
855.488	1693
855.577	-286
855.666	1116
855.755	-65
855.844	267
855.933	837
856.021	733
856.110	158
856.199	859
856.288	239
856.376	582
856.465	-213
856.554	599
856.642	23
856.731	1111
856.819	450
856.908	1047
856.996	739
857.085	156
857.173	280
857.262	416
857.350	606
857.438	123
857.527	315
857.615	-233
857.703	904
857.792	123
857.880	83
857.968	296
858.056	617
858.145	-62
858.233	102
858.321	160
858.409	1470
858.497	290
858.585	33
858.673	590
858.761	-351
858.849	90
858.937	500
859.025	454
859.113	707
859.201	833
859.289	760
859.377	465
859.465	611
859.552	1259
859.640	-11
859.728	772
859.816	920
859.903	824
859.991	88
860.079	21
860.166	20
860.254	757
860.342	282
860.429	548
860.517	623
860.604	446
860.692	567
860.779	551
860.867	-98
860.954	-407
861.042	363
861.129	323
861.216	982
861.304	670
861.391	618
861.478	645
861.565	544
861.653	659
861.740	-323
861.827	231
861.914	148
862.001	325
862.089	300
862.176	303
862.263	-85
862.350	82
862.437	324
862.524	570
862.611	61
862.698	-72
862.785	318
862.871	-60
862.958	-370
863.045	627
863.132	25
863.219	241
863.306	357
863.392	985
863.479	110
863.566	483
863.652	106
863.739	1009
863.826	129
863.912	358
863.999	443
864.086	25
864.172	-246
864.259	400
864.345	421
864.432	461
864.518	463
864.604	680
864.691	318
864.777	495
864.863	762
864.950	833
865.036	341
865.122	1001
865.209	1956
865.295	2608
865.381	1425
865.467	1756
865.553	2381
865.639	2689
865.726	2866
865.812	5460
865.898	11892
865.984	23220
866.070	34034
866.156	62185
866.242	76312
866.328	21501
866.414	4827
866.499	3015
866.585	2153
866.671	1730
866.757	2278
866.843	1687
866.928	1436
867.014	1979
867.100	2049
867.186	1589
867.271	1746
867.357	1014
867.442	2461
867.528	2512
867.614	1330
867.699	1199
867.785	1387
867.870	636
867.956	1394
868.041	2141
868.127	1242
868.212	1855
868.297	946
868.383	2049
868.468	2166
868.553	2101
868.639	3719
868.724	4702
868.809	8530
868.894	8665
868.979	2060
869.065	753
869.150	1147
869.235	1477
869.320	628
869.405	554
869.490	602
869.575	992
869.660	1267
869.745	974
869.830	1289
869.915	1074
870.000	1570
870.085	693
870.169	835
870.254	1073
870.339	1049
870.424	747
870.509	950
870.593	752
870.678	807
870.763	1106
870.847	816
870.932	759
871.016	1176
871.101	781
871.186	1383
871.270	405
871.355	1043
871.439	1226
871.523	533
871.608	794
871.692	727
871.777	665
871.861	1046
871.945	1080
872.030	917
872.114	377
872.198	182
872.282	474
872.367	1173
872.451	283
872.535	816
872.619	528
872.703	250
872.787	268
872.871	774
872.955	149
873.039	928
873.123	463
873.207	814
873.291	629
873.375	722
873.459	59
873.543	589
873.627	606
873.711	1264
873.794	1109
873.878	1278
873.962	663
874.045	344
874.129	857
874.137	856
874.213	846
874.245	780
874.296	670
874.352	921
874.380	1041
874.460	11
874.464	-30
874.547	123
874.568	266
874.631	693
874.676	767
874.714	821
874.784	704
874.798	682
874.881	1712
874.892	1471
874.965	-178
874.999	-96
875.048	14
875.107	519
875.131	713
875.215	908
875.215	908
875.298	463
875.323	364
875.381	140
875.430	451
875.465	675
875.538	533
875.548	509
875.631	1104
875.646	998
875.714	536
875.753	550
875.798	544
875.861	87
875.881	-36
875.964	881
875.968	861
876.047	414
876.076	609
876.130	977
876.183	612
876.213	427
876.291	464
876.296	464
876.379	983
876.398	744
876.462	-34
876.506	387
876.545	793
876.613	740
876.628	694
876.711	643
876.721	640
876.794	726
876.828	531
876.877	291
876.935	403
876.960	449
877.043	781
877.043	784
877.125	1291
877.150	1170
877.208	951
877.258	1095
877.291	1141
877.365	1657
877.374	1730
877.456	1307
877.472	1269
877.539	995
877.579	812
877.622	795
877.687	1189
877.704	1228
877.787	822
877.794	832
877.869	1189
877.901	1281
877.952	1111
878.008	734
878.034	681
878.115	927
878.117	931
878.199	322
878.222	301
878.282	276
878.329	702
878.364	943
878.437	928
878.447	941
878.529	765
878.544	775
878.611	968
878.651	913
878.694	667
878.758	749
878.776	804
878.858	313
878.865	335
878.941	779
878.972	636
879.023	204
879.078	230
879.105	290
879.185	671
879.187	680
879.269	956
879.292	882
879.351	565
879.399	705
879.433	983
879.506	1059
879.516	1005
879.598	401
879.613	356
879.680	204
879.720	277
879.762	540
879.827	898
879.844	926
879.926	446
879.933	447
880.007	685
880.040	886
880.089	989
880.147	1064
880.171	1225
880.253	2652
880.254	2664
880.335	4064
880.360	4703
880.417	6891
880.467	8197
880.499	9493
880.574	16459
880.580	16880
880.662	20282
880.680	18061
880.744	7591
880.787	3673
880.825	1621
880.893	784
880.907	680
880.989	826
881.000	787
881.070	611
881.106	782
881.152	871
881.213	504
881.233	381
881.315	411
881.319	406
881.396	542
881.426	573
881.478	550
881.532	358
881.559	251
881.639	-203
881.641	-208
881.722	457
881.745	438
881.803	243
881.852	199
881.885	245
881.958	358
881.966	364
882.047	740
882.064	745
882.129	833
882.171	920
882.210	922
882.277	866
882.291	976
882.372	2367
882.383	2388
882.454	1380
882.489	758
882.535	439
882.596	458
882.616	362
882.697	149
882.702	134
882.778	293
882.808	317
882.859	145
882.914	-65
882.940	-14
883.020	353
883.021	356
883.102	422
883.127	448
883.183	412
883.233	304
883.264	267
883.339	394
883.345	379
883.426	131
883.445	-69
883.507	-241
883.551	208
883.587	480
883.657	407
883.668	455
883.749	739
883.763	825
883.830	640
883.869	520
883.910	357
883.975	3
883.991	-50
884.072	-243
884.081	-232
884.152	123
884.187	148
884.233	227
884.292	515
884.314	537
884.394	71
884.398	72
884.475	301
884.504	279
884.555	-137
884.610	-398
884.636	-80
884.716	553
884.716	554
884.797	640
884.821	446
884.877	266
884.927	281
884.958	376
885.033	572
885.038	551
885.118	210
885.139	128
885.199	162
885.244	169
885.279	169
885.350	-112
885.359	-144
885.439	136
885.456	122
885.520	614
885.561	911
885.600	525
885.667	-208
885.680	-232
885.760	-73
885.773	-64
885.840	-73
885.878	-149
885.920	71
885.984	324
886.000	279
886.080	399
886.089	373
886.160	411
886.195	509
886.240	583
886.300	694
886.320	605
886.400	154
886.406	123
886.480	146
886.511	179
886.560	484
886.616	825
886.640	832
886.720	886
886.722	880
886.800	752
886.827	796
886.879	696
886.932	517
886.959	414
887.038	156
887.039	159
887.119	375
887.143	439
887.198	600
887.248	750
887.278	648
887.354	201
887.358	192
887.437	235
887.459	186
887.517	335
887.564	582
887.596	519
887.669	148
887.676	142
887.755	193
887.774	216
887.835	492
887.880	637
887.914	300
887.985	-331
887.994	-280
888.073	137
888.090	222
888.153	71
888.195	-30
888.232	287
888.300	914
888.311	815
888.391	34
888.405	-87
888.470	484
888.510	764
888.549	752
888.615	803
888.628	803
888.708	712
888.720	703
888.787	604
888.825	540
888.866	416
888.930	253
888.945	221
889.024	-18
889.035	-41
889.103	-189
889.140	-293
889.182	-87
889.245	238
889.261	289
889.340	523
889.349	551
889.419	275
889.454	118
889.498	245
889.559	450
889.577	482
889.656	610
889.664	624
889.735	480
889.768	408
889.814	606
889.873	872
889.978	310
890.083	-139
890.187	233
890.292	-1
890.397	835
890.501	396
890.606	245
890.710	-106
890.815	1258
890.919	-44
891.024	580
891.128	52
891.233	665
891.337	336
891.442	665
891.546	-514
891.650	263
891.755	362
891.859	905
891.963	165
892.068	-35
892.172	-407
892.276	19
892.380	195
892.484	1068
892.589	83
892.693	603
892.797	381
892.901	1005
893.005	135
893.109	509
893.213	373
893.317	-579
893.421	-282
893.525	396
893.629	300
893.733	60
893.837	499
893.941	-222
894.045	169
894.148	-56
894.252	714
894.356	814
894.460	470
894.564	245
894.667	196
894.771	20
894.875	-422
894.978	459
895.082	307
895.186	235
895.289	962
895.393	457
895.496	628
895.600	257
895.703	39
895.807	-850
895.910	827
896.014	497
896.117	85
896.221	1015
896.324	133
896.427	258
896.531	476
896.634	-160
896.737	590
896.840	732
896.944	206
897.047	835
897.150	-909
897.253	512
897.356	231
897.460	776
897.563	289
897.666	217
897.769	483
897.872	138
897.975	400
898.078	305
898.181	616
898.284	-177
898.387	235
898.490	483
898.593	-244
898.695	600
898.798	-15
898.901	-306
899.004	6
899.107	-307
899.209	58
899.312	1010
899.415	113
899.518	403
899.620	226
899.723	-154
899.826	-33
899.928	1375
900.031	543
900.133	354
900.236	155
900.338	271
900.441	-124
900.543	174
900.646	32
900.748	810
900.851	-59
900.953	430
901.055	-460
901.158	-269
901.260	278
901.362	779
901.465	702
901.567	435
901.669	-342
901.771	518
901.873	22
901.976	940
902.078	-62
902.180	396
902.282	-385
902.384	-152
902.486	-134
902.588	521
902.690	540
902.792	206
902.894	-335
902.996	5
903.098	-145
903.200	165
903.302	910
903.404	483
903.505	-420
903.607	568
903.709	-83
903.811	-120
903.913	-73
904.014	-113
904.116	-643
904.218	-203
904.319	330
904.421	97
904.523	553
904.624	-131
904.726	-82
904.827	249
904.929	-1050
905.030	747
905.132	-222
905.233	-54
905.335	-39
905.436	449
905.537	211
905.639	271
905.740	355
905.841	549
905.943	408
906.044	-237
906.145	-173
906.247	199
906.348	-457
906.449	563
906.550	167
906.651	823
906.752	252
906.854	-110
906.955	345
907.056	515
907.157	-289
907.258	382
907.359	-191
907.460	-805
907.561	-116
907.662	-74
907.762	-275
907.863	-35
907.964	-438
908.065	455
908.166	-157
908.267	235
908.367	-994
908.468	706
908.569	-700
908.670	-99
908.770	1044
908.871	229
908.971	77
909.072	782
909.173	-326
909.273	-232
909.374	-773
909.474	220
909.575	926
909.675	131
909.776	-666
909.876	-238
909.977	90
910.077	1222
910.177	222
910.278	-317
910.378	-650
910.478	-50
910.579	479
910.679	356
910.779	565
910.879	38
910.980	950
911.080	776
911.180	72
911.280	333
911.380	729
911.480	256
911.580	-145
911.680	131
911.780	562
911.880	255
911.980	-40
912.080	113
912.180	-111
912.280	-299
912.380	-24
912.480	668
912.580	-206
912.679	587
912.779	294
912.879	537
912.979	307
913.078	-134
913.178	-402
913.278	-484
913.377	24
913.477	228
913.577	81
913.676	-669
913.776	-246
913.875	461
913.975	0
914.074	-81
914.174	-1369
914.273	362
914.373	-16
914.472	-160
914.572	-621
914.671	-670
914.770	-185
914.870	1116
914.969	188
915.068	-90
915.167	256
915.267	85
915.366	45
915.465	-634
915.564	14
915.663	183
915.763	177
915.862	1506
915.961	234
916.060	475
916.159	-215
916.258	492
916.357	-80
916.456	625
916.555	521
916.654	354
916.752	-497
916.851	581
916.950	-35
917.049	-742
917.148	-270
917.247	308
917.345	-646
917.444	-458
917.543	639
917.642	-277
917.740	45
917.839	-149
917.937	-603
918.036	457
918.135	565
918.233	929
918.332	-453
918.430	-159
918.529	-125
918.627	-271
918.726	-777
918.824	767
918.923	-376
919.021	-381
919.119	279
919.218	-894
919.316	-763
919.414	372
919.512	378
919.611	-215
919.709	229
919.807	-94
919.905	367
920.003	-189
920.102	-274
920.200	-747
920.298	16
920.396	-525
920.494	24
920.592	-367
920.690	206
920.788	55
920.886	382
920.984	637
921.082	-289
921.180	-221
921.277	124
921.375	-335
921.473	752
921.571	504
921.669	276
921.766	153
921.864	507
921.962	289
922.060	-128
922.157	75
922.255	-148
922.352	293
922.450	195
922.548	-436
922.645	897
922.743	-226
922.840	709
922.938	1224
923.035	493
923.133	672
923.230	1306
923.327	1154
923.425	1377
923.522	1069
923.619	549
923.717	1021
923.814	669
923.911	1180
924.008	597
924.106	846
924.203	745
924.300	739
924.397	253
924.494	1474
924.591	1260
924.688	195
924.786	140
924.883	452
924.979	769
925.077	1406
925.173	535
925.270	1238
925.367	732
925.464	1038
925.561	727
925.658	908
925.755	1505
925.852	1339
925.948	1372
926.045	1226
926.142	968
926.239	18
926.335	707
926.432	1099
926.529	975
926.625	620
926.722	1085
926.818	281
926.915	712
927.011	1407
927.108	716
927.204	1035
927.301	-65
927.397	1606
927.494	784
927.590	1100
927.687	393
927.783	489
927.879	833
927.976	1119
928.072	462
928.168	358
928.264	647
928.361	917
928.457	499
928.553	396
928.649	-277
928.745	460
928.841	404
928.937	917
929.033	-2
929.129	1449
929.225	923
929.321	516
929.417	916
929.513	485
929.609	997
929.705	188
929.801	-257
929.897	714
929.993	-477
930.089	703
930.184	291
930.280	540
930.376	522
930.471	736
930.567	571
930.663	928
930.758	316
930.854	690
930.950	702
931.045	581
931.141	588
931.236	242
931.332	686
931.427	977
931.523	-617
931.618	975
931.714	-261
931.809	1257
931.905	416
932.000	176
932.095	-403
932.191	-439
932.286	381
932.381	582
932.476	-291
932.572	812
932.667	1089
932.762	917
932.857	82
932.952	72
933.047	180
933.142	898
933.237	406
933.332	435
933.427	1197
933.522	46
933.617	295
933.712	812
933.807	138
933.902	279
933.997	285
934.092	686
934.187	96
934.282	750
934.376	-1
934.471	974
934.566	-532
934.661	370
934.755	601
934.850	295
934.945	0
935.039	656
935.134	177
935.228	253
935.323	702
935.417	568
935.512	-507
935.606	323
935.701	460
935.795	776
935.890	-392
935.984	395
936.079	-313
936.173	-275
936.267	-291
936.362	286
936.456	215
936.550	339
936.644	800
936.738	574
936.833	177
936.927	332
937.021	-1056
937.115	424
937.209	-448
937.303	410
937.397	-568
937.491	830
937.585	744
937.679	244
937.773	292
937.867	686
937.961	37
938.055	-124
938.149	1069
938.243	-18
938.337	-72
938.430	-26
938.524	22
938.618	439
938.712	-72
938.805	-328
938.899	118
938.993	779
939.086	-104
939.180	-508
939.274	-168
939.367	519
939.461	-348
939.554	-251
939.648	120
939.741	-153
939.835	-1196
939.928	-685
940.022	319
940.115	525
940.208	347
940.302	-258
940.395	-364
940.488	58
940.582	164
940.675	426
940.768	736
940.861	131
940.954	1095
941.048	442
941.141	696
941.234	91
941.327	313
941.420	498
941.513	962
941.606	264
941.699	265
941.792	-132
941.885	287
941.978	470
942.071	-16
942.164	-230
942.257	-356
942.349	-120
942.442	267
942.535	716
942.628	506
942.721	425
942.813	-586
942.906	-380
942.999	-813
943.091	175
943.184	-495
943.277	341
943.369	505
943.462	-47
943.554	-347
943.647	-114
943.739	469
943.832	345
943.924	-889
944.017	-10
944.109	-254
944.201	-180
944.294	-364
944.386	-321
944.478	-789
944.571	13
944.663	-846
944.755	-513
944.847	-414
944.940	-385
945.032	-28
945.124	-84
945.216	547
945.308	-965
945.400	-170
945.492	27
945.584	-162
945.676	6
945.768	-78
945.860	-281
945.952	-541
946.044	354
946.136	-395
946.228	-286
946.320	-490
946.412	-66
946.503	-227
946.595	274
946.687	329
946.779	-323
946.870	-31
946.962	-390
947.054	521
947.145	-97
947.237	-460
947.329	-262
947.420	-1228
947.512	-113
947.603	67
947.695	161
947.786	-883
947.878	-58
947.969	-415
948.061	-245
948.152	784
948.243	-412
948.335	-1256
948.426	-430
948.517	-215
948.609	-53
948.700	201
948.791	433
948.882	-491
948.973	-410
949.065	-36
949.156	-353
949.247	-218
949.338	-336
949.429	-503
949.520	430
949.611	263
949.702	68
949.793	-982
949.884	-118
949.975	-646
950.066	-449
950.157	-608
950.247	-402
950.338	-383
950.429	-801
950.520	-859
950.611	-340
950.701	-61
950.792	205
950.883	214
950.973	-402
951.064	-821
951.155	-317
951.245	-486
951.336	-281
951.427	-792
951.517	465
951.608	-277
951.698	-290
951.788	-328
951.879	-394
951.969	-906
952.060	-12
952.150	-340
952.240	185
952.331	-1078
952.421	-4
952.511	-629
952.602	-384
952.692	-556
952.782	-337
952.872	-662
952.962	-582
953.052	-1144
953.143	-950
953.233	138
953.323	-97
953.413	-851
953.503	-368
953.593	-714
953.683	99
953.773	-577
953.863	-456
953.953	16
954.042	-537
954.132	-842
954.222	-532
954.312	260
954.402	-639
954.492	66
954.581	-165
954.671	-340
954.761	-389
954.850	-922
954.940	-169
955.030	-1033
955.119	205
955.209	-384
955.298	260
955.388	-799
955.477	-145
955.567	-311
955.656	-583
955.746	-195
955.835	-311
955.925	-715
956.014	-723
956.103	-332
956.193	439
956.282	-597
956.371	-278
956.461	-566
956.550	-996
956.639	-781
956.728	-612
956.817	-373
956.906	-972
956.995	-410
957.085	-340
957.174	-345
957.263	-410
957.352	110
957.441	-734
957.530	-357
957.619	-649
957.708	-870
957.796	11
957.885	-452
957.974	-379
958.063	-443
958.152	605
958.241	-780
958.329	-1211
958.418	-1067
958.507	-350
958.596	-399
958.684	-153
958.773	-715
958.861	62
958.950	-930
959.039	-226
959.127	-1195
959.216	-255
959.304	-410
959.393	-90
959.481	-281
959.570	162
959.658	-624
959.746	17
959.835	99
959.923	32
960.011	-394
960.100	-502
960.188	-641
960.276	-257
960.365	-522
960.453	-1053
960.541	-1070
960.629	-607
960.717	-1681
960.805	-702
960.893	-663
960.981	-608
961.069	-355
961.158	-98
961.245	-36
961.333	22
961.421	338
961.509	255
961.597	514
961.685	-1083
961.773	-1043
961.861	-99
961.949	163
962.036	-86
962.124	-529
962.212	-620
962.299	-1048
962.387	-665
962.475	-153
962.562	-890
962.650	232
962.738	83
962.825	-1072
962.913	-104
963.000	-783
963.088	-582
963.175	-950
963.263	12
963.350	-200
963.438	-554
963.525	-368
963.612	18
963.700	-326
963.787	954
963.874	2034
963.962	-92
964.049	-948
964.136	-300
964.223	-682
964.310	-623
964.398	-677
964.485	-367
964.572	-37
964.659	-1053
964.746	-620
964.833	-913
964.920	-308
965.007	-329
965.094	-364
965.181	-88
965.268	-1000
965.355	-809
965.441	-706
965.528	-833
965.615	-34
965.702	-1023
965.789	-286
965.875	-407
965.962	-626
966.049	-981
966.136	-768
966.222	-362
966.309	-251
966.395	-192
966.482	-594
966.569	-963
966.655	-471
966.742	-669
966.828	-631
966.915	-718
967.001	-89
967.087	29
967.174	-493
967.260	-1192
967.347	418
967.433	52
967.519	-197
967.605	678
967.692	-15
967.778	32
967.864	-683
967.950	-914
968.036	-725
968.123	-685
968.209	4
968.295	-305
968.381	-182
968.467	-571
968.553	-343
968.639	-690
968.725	-1332
968.811	-1066
968.897	-506
968.983	-529
969.069	-563
969.154	-56
969.240	-445
969.326	-638
969.412	-567
969.497	-937
969.583	-219
969.669	-962
969.755	-309
969.840	-756
969.926	-1199
970.012	-405
970.097	-760
970.183	-335
970.268	69
970.354	-606
970.439	-252
970.525	-81
970.610	635
970.696	-150
970.781	-846
970.866	-1128
970.952	-605
971.037	-1097
971.122	-544
971.208	-1142
971.293	-1423
971.378	-659
971.463	-1347
971.549	-402
971.634	-722
971.719	-650
971.804	305
971.889	-1327
971.974	-918
972.059	-1233
972.144	-1052
972.229	-903
972.314	-1701
972.399	-81
972.484	-419
972.569	-363
972.654	-1303
972.739	228
972.824	-705
972.908	-746
972.993	-1284
973.078	-534
973.163	-558
973.247	-538
973.332	-1269
973.417	-324
973.501	-495
973.586	-1014
973.671	-1677
973.755	126
973.840	66
973.924	-53
974.009	57
974.093	-1128
974.178	-272
974.262	-722
974.346	-290
974.431	21
974.515	-200
974.600	-994
974.684	-1298
974.768	-380
974.852	-184
974.937	-514
975.021	-1026
975.105	-227
975.189	-541
975.273	-657
975.358	-1505
975.442	-1048
975.526	-581
975.610	-620
975.694	-120
975.778	99
975.862	-901
975.946	-869
976.030	-359
976.114	-388
976.198	-704
976.281	-74
976.365	-642
976.449	-1063
976.533	-1053
976.617	-119
976.700	-578
976.784	-247
976.868	-1140
976.951	-756
977.035	-767
977.119	-360
977.202	-486
977.286	600
977.369	-620
977.453	-570
977.536	-988
977.620	-943
977.703	-81
977.787	70
977.870	-150
977.953	-1136
978.037	-869
978.120	-136
978.203	-1598
978.287	-630
978.370	-585
978.453	-204
978.536	-441
978.620	-421
978.703	-1205
978.786	-605
978.869	-1466
978.952	-819
979.035	-1340
979.118	-42
979.201	-1218
979.284	-191
979.367	-888
979.450	-1240
979.533	-1277
979.616	-567
979.699	-999
979.782	284
979.865	-481
979.948	-501
980.030	-1056
980.113	-194
980.196	-683
980.279	-895
980.361	-993
980.444	-107
980.526	-1025
980.609	-113
980.692	-975
980.774	171
980.857	-65
980.939	89
981.022	-1515
981.104	-1238
981.187	-1110
981.269	-961
981.352	-540
981.434	368
981.516	-897
981.599	-26
981.681	-728
981.763	-437
981.846	-1086
981.928	-358
982.010	-628
982.092	-1220
982.174	-423
982.256	-731
982.339	-854
982.421	-1037
982.503	-696
982.585	-1175
982.667	-1426
982.749	-115
982.831	-770
982.913	-496
982.995	-1281
983.077	-883
983.158	-816
983.240	-1165
983.322	-744
983.404	-321
983.486	-66
983.568	-585
983.649	-556
983.731	-789
983.813	-1181
983.894	-835
983.976	-1623
984.058	-812
984.139	-1356
984.221	-841
984.302	-1097
984.384	326
984.465	-1411
984.547	-806
984.628	-653
984.710	-453
984.791	-330
984.872	-482
984.954	-1254
985.035	-1523
985.116	-859
985.198	-564
985.279	-949
985.360	-2
985.441	-1041
985.522	-690
985.604	-422
985.685	-994
985.766	-214
985.847	-572
985.928	-485
986.009	-731
986.090	-643
986.171	-385
986.252	-1096
986.333	-332
986.414	-999
986.495	-423
986.576	-466
986.656	-558
986.737	-1473
986.818	-838
986.899	69
986.980	-183
987.060	-34
987.141	-624
987.222	-421
987.302	-1166
987.383	-1462
987.464	-912
987.544	-1378
987.625	-819
987.705	-1291
987.786	-692
987.866	-1089
987.947	-665
988.027	-1519
988.108	-964
988.188	-1102
988.268	0
988.349	-1324
988.429	-968
988.509	-336
988.589	-1011
988.670	-723
988.750	-421
988.830	-758
988.910	-904
988.990	-1272
989.070	-819
989.151	-802
989.231	-548
989.311	72
989.391	-392
989.471	-849
989.551	-961
989.631	-896
989.711	-881
989.791	-945
989.870	-744
989.950	-1039
990.030	-1102
990.110	-1846
990.190	-1049
990.269	-552
990.349	-382
990.429	-1339
990.509	-1144
990.588	-235
990.668	-856
990.747	-1043
990.827	-1256
990.907	-244
990.986	-625
991.066	-1657
991.145	-1027
991.225	-1023
991.304	-740
991.383	-858
991.463	-687
991.542	-2470
991.622	-647
991.701	-1518
991.780	-278
991.859	-754
991.939	-1515
992.018	-848
992.097	-313
992.176	-868
992.256	-717
992.335	-1207
992.414	-560
992.493	-1045
992.572	-1122
992.651	-1216
992.730	-1081
992.809	-1157
992.888	-1278
992.967	-1138
993.046	-702
993.125	-1805
993.203	-685
993.282	-948
993.361	-470
993.440	-819
993.519	-1975
993.597	-1927
993.676	-1016
993.755	-1198
993.834	-874
993.912	-1783
993.991	-1270
994.069	-710
994.148	-1331
994.226	-1672
994.305	-1012
994.384	-2308
994.462	-951
994.540	-1167
994.619	-1941
994.697	-1533
994.776	-1324
994.854	-1079
994.932	-1394
995.011	-1484
995.089	-1826
995.167	-1366
995.245	-834
995.324	-2139
995.402	-1694
995.480	-1499
995.558	-722
995.636	-1755
995.714	-1291
995.792	-1016
995.870	-1015
995.948	-1782
996.026	-1847
996.104	-1485
996.182	-1572
996.260	-1623
996.338	-1502
996.416	-2142
996.494	-1412
996.572	-1684
996.649	-1062
996.727	-1008
996.805	-1002
996.883	-1220
996.960	-185
997.038	-1019
997.116	-1285
997.193	-2517
997.271	-884
997.348	-1511
997.426	-1447
997.504	-1812
997.581	-1189
997.658	-1323
997.736	-1332
997.813	-1560
997.891	-1279
997.968	-1092
998.046	-1526
998.123	-1722
998.200	-1518
998.277	-1994
998.355	-1519
998.432	-1636
998.509	-1967
998.586	-1128
998.663	-1254
998.741	-1827
998.818	-1292
998.895	-1388
998.972	-1602
999.049	-1368
999.126	-625
999.203	-350
999.280	-2225
999.357	-1332
999.434	-1561
999.511	-1245
999.587	-999
999.664	-1730
999.741	-1607
999.818	-1017
999.895	-1207
999.971	-1042
1000.048	-1574
1000.125	-870
1000.202	-1332
1000.278	-1139
1000.355	-1467
1000.431	-1460
1000.508	-1573
1000.584	-1750
1000.661	-1772
1000.738	-2628
1000.814	-1912
1000.890	-1576
1000.967	-2060
1001.043	-1751
1001.120	-1740
1001.196	-1430
1001.272	-1526
1001.349	-771
1001.425	-1081
1001.501	-1492
1001.577	-1912
1001.654	-1763
1001.730	-1096
1001.806	-2215
1001.882	-1105
1001.958	-1793
1002.034	-1766
1002.110	-1772
1002.186	-1939
1002.262	-2187
1002.338	-1619
1002.414	-1813
1002.490	-719
1002.566	-1096
1002.642	-1335
1002.718	-1011
1002.794	-1317
1002.870	-944
1002.945	-1598
1003.021	-2075
1003.097	-1756
1003.173	-1618
1003.248	-1464
1003.324	-1842
1003.400	-2203
1003.475	-1787
1003.551	-857
1003.626	-1609
1003.702	-982
1003.777	-1361
1003.853	-1631
1003.928	-2061
1004.004	-1162
1004.079	-952
1004.155	-1199
1004.230	-1959
1004.305	-1405
1004.381	-2366
1004.456	-982
1004.531	-2049
1004.607	-2336
1004.682	-1870
1004.757	-2017
1004.832	-2178
1004.907	-1472
1004.982	-1978
1005.057	-1502
1005.133	-1355
1005.208	-1650
1005.283	-1528
1005.358	-1268
1005.433	-2364
1005.508	-1097
1005.583	-1237
1005.657	-1606
1005.732	-1723
1005.807	-1473
1005.882	-1955
1005.957	-1628
1006.032	-2105
1006.106	-2138
1006.181	-1860
1006.256	-1059
1006.331	-1666
1006.405	-1527
1006.480	-1152
1006.554	-1503
1006.629	-1137
1006.704	-1287
1006.778	-2081
1006.853	-1173
1006.927	-2692
1007.002	-1190
1007.076	-1764
1007.150	-1284
1007.225	-1763
1007.299	-2153
1007.373	-1630
1007.448	-1357
1007.522	-1671
1007.596	-1438
1007.671	-2688
1007.745	-2078
1007.819	-2090
1007.893	-1781
1007.967	-1694
1008.041	-1980
1008.115	-1687
1008.190	-1940
1008.264	-1884
1008.338	-2394
1008.412	-1952
1008.486	-1195
1008.560	-1879
1008.633	-1242
1008.707	-1573
1008.781	-1369
1008.855	-1987
1008.929	-1786
1009.003	-2320
1009.076	-1771
1009.150	-1782
1009.224	-1611
1009.298	-2219
1009.371	-1396
1009.445	-1362
1009.519	-1826
1009.592	-1628
1009.666	-1665
1009.739	-2136
1009.813	-1107
1009.886	-1200
1009.960	-2044
1010.033	-1586
1010.107	-1628
1010.180	-1595
1010.253	-1671
1010.327	-2346
1010.400	-2169
1010.473	-1249
1010.547	-1578
1010.620	-1839
1010.693	-721
1010.766	-1852
1010.840	-734
1010.913	-1772
1010.986	-1811
1011.059	-1801
1011.132	-1492
1011.205	-1418
1011.278	-1096
1011.351	-1612
1011.424	-1806
1011.497	-1535
1011.570	-1919
1011.643	-2041
1011.716	-1407
1011.789	-2205
1011.862	-1196
1011.934	-2052
1012.007	-1551
1012.080	-1576
1012.153	-1141
1012.225	-1582
1012.298	-1637
1012.371	-1044
1012.443	-946
1012.516	-1749
1012.588	-992
1012.661	-521
1012.733	-2165
1012.806	-1529
1012.879	-1844
1012.951	-1828
1013.023	-1693
1013.096	-1635
1013.168	-1592
1013.241	-1387
1013.313	-2057
1013.385	-1028
1013.458	-2044
1013.530	-1429
1013.602	-1397
1013.674	-1738
1013.746	-1698
1013.819	-1637
1013.891	-1850
1013.963	-1235
1014.035	-679
1014.107	-1820
1014.179	-1797
1014.251	-1617
1014.323	-1459
1014.395	-1219
1014.467	-1842
1014.539	-1723
1014.611	-1347
1014.683	-1315
1014.754	-1591
1014.826	-2534
1014.898	-1153
1014.970	-1462
1015.042	-680
1015.113	-2494
1015.185	-1498
1015.257	-2338
1015.328	-1162
1015.400	-2008
1015.471	-2097
1015.543	-2139
1015.615	-1157
1015.686	-1346
1015.757	-821
1015.829	-1406
1015.901	-1358
1015.972	-704
1016.043	-1838
1016.115	-1244
1016.186	-1311
1016.257	-1631
1016.328	-447
1016.400	-1303
1016.471	-1351
1016.542	-1257
1016.613	-2027
1016.685	-1829
1016.756	-1173
1016.827	-1612
1016.898	-2419
1016.969	-1574
1017.040	-1642
1017.111	-1405
1017.182	-2016
1017.253	-1903
1017.324	-2011
1017.395	-1761
1017.466	-1095
1017.537	-1859
1017.608	-1911
1017.678	-1748
1017.749	-1034
1017.820	-1407
1017.891	-1466
1017.961	-1770
1018.032	-1215
1018.103	-1736
1018.173	-2027
1018.244	-2402
1018.315	-2471
1018.385	-1285
1018.456	-1595
1018.526	-2337
1018.597	-1229
1018.667	-1472
1018.738	-1823
1018.808	-1907
1018.878	-1769
1018.949	-1821
1019.019	-1923
1019.089	-2332
1019.160	-1827
1019.230	-2465
1019.300	-1242
1019.371	-2066
1019.441	-1745
1019.511	-1978
1019.581	-1135
1019.651	-1202
1019.721	-1298
1019.791	-2199
1019.861	-1322
1019.931	-1550
1020.001	-1446
1020.071	-1734
1020.141	-1601
1020.211	-1661
1020.281	-2291
1020.351	-1988
1020.421	-1780
1020.491	-2066
1020.560	-1543
1020.630	-1509
1020.700	-1821
1020.770	-1438
1020.839	-1933
1020.909	-1671
1020.979	-1205
1021.048	-1822
1021.118	-1464
1021.187	-1809
1021.257	-1829
1021.326	-1980
1021.396	-1677
1021.465	-2392
1021.535	-1838
1021.604	-2272
1021.674	-2490
1021.743	-1403
1021.812	-1766
1021.882	-2105
1021.951	-1468
1022.020	-1929
1022.089	-2002
1022.159	-1741
1022.228	-1088
1022.297	-2359
1022.366	-1657
1022.435	-2190
1022.504	-1522
1022.573	-1557
1022.642	-2512
1022.711	-1994
1022.781	-674
1022.849	-1882
1022.918	-2131
1022.987	-2139
1023.056	-2071
1023.125	-867
1023.194	-1589
1023.263	-1965
1023.331	-1463
1023.400	-2445
1023.469	-1882
1023.538	-1039
1023.606	-2340
1023.675	-1735
1023.744	-790
1023.812	-1995
1023.881	-1413
1023.949	-1658
1024.018	-1724
1024.086	-1558
1024.155	-1551
1024.223	-1858
1024.292	-1560
1024.360	-2448
1024.429	-1166
1024.497	-2201
1024.565	-1518
1024.634	-2212
1024.702	-1877
1024.770	-1606
1024.838	-1781
1024.907	-1316
1024.975	-1786
1025.043	-1590
1025.111	-1834
1025.179	-2577
1025.247	-1532
1025.315	-2269
1025.383	-2353
1025.451	-2406
1025.519	-1410
1025.587	-1917
1025.655	-1590
1025.723	-1902
1025.791	-1559
1025.859	-1703
1025.927	-1411
1025.995	-1987
1026.062	-1559
1026.130	-2256
1026.198	-2171
1026.266	-2012
1026.333	-1624
1026.401	-1791
1026.469	-1911
1026.536	-2461
1026.604	-1241
1026.671	-1659
1026.739	-1733
1026.806	-2103
1026.874	-2021
1026.941	-1756
1027.009	-1934
1027.076	-3090
1027.144	-1693
1027.211	-2224
1027.278	-2389
1027.345	-1561
1027.413	-1984
1027.480	-2130
1027.547	-1721
1027.614	-2621
1027.682	-1759
1027.749	-2201
1027.816	-2187
1027.883	-2514
1027.950	-3046
1028.017	-2529
1028.084	-1301
1028.151	-2098
1028.218	-1847
1028.285	-2292
1028.352	-2241
1028.419	-2437
1028.486	-1898
1028.553	-1795
1028.619	-848
1028.686	-1650
1028.753	-1902
1028.820	-1880
1028.886	-2205
1028.953	-1463
1029.020	-1847
1029.086	-2189
1029.153	-1878
1029.220	-1970
1029.286	-2489
1029.353	-2027
1029.419	-1950
1029.486	-1886
1029.552	-1992
1029.619	-2216
1029.685	-1813
1029.751	-1839
1029.818	-1924
1029.884	-2696
1029.951	-1957
1030.017	-2330
1030.083	-1776
1030.149	-2092
1030.216	-1768
1030.282	-1614
1030.348	-1822
1030.414	-2139
1030.480	-682
1030.546	-1732
1030.612	-1794
1030.678	-1987
1030.744	-1121
1030.810	-2537
1030.876	-2145
1030.942	-2327
1031.008	-1970
1031.074	-2508
1031.140	-1132
1031.206	-2295
1031.272	-1601
1031.337	-1843
1031.403	-1547
1031.469	-1680
1031.534	-2283
1031.600	-1863
1031.666	-2267
1031.731	-1936
1031.797	-1857
1031.863	-1883
1031.928	-2207
1031.994	-1890
1032.059	-1518
1032.125	-2571
1032.190	-1838
1032.256	-2609
1032.321	-1631
1032.386	-1900
1032.452	-2002
1032.517	-1949
1032.582	-1334
1032.647	-1943
1032.713	-2214
1032.778	-2079
1032.843	-2051
1032.908	-1865
1032.974	-1771
1033.039	-1276
1033.104	-956
1033.169	-1741
1033.234	-2499
1033.299	-1740
1033.364	-2410
1033.429	-2149
1033.494	-1318
1033.559	-2178
1033.624	-2153
1033.688	-2155
1033.753	-1621
1033.818	-926
1033.883	-2074
1033.948	-1690
1034.013	-1973
1034.077	-2209
1034.142	-1446
1034.207	-1791
1034.271	-1233
1034.336	-1177
1034.400	-1101
1034.465	-1117
1034.530	-134
1034.594	-1366
1034.658	-1430
1034.723	-2326
1034.787	-2278
1034.852	-1124
1034.916	-2423
1034.981	-1778
1035.045	-1821
1035.109	-1831
1035.173	-2414
1035.238	-2429
1035.302	-2632
1035.366	-1607
1035.430	-1276
1035.495	-2411
1035.559	-1541
1035.623	-1298
1035.687	-1837
1035.751	-2413
1035.815	-1971
1035.879	-1136
1035.943	-2104
1036.007	-1631
1036.071	-1828
1036.135	-2216
1036.198	-1795
1036.262	-1482
1036.326	-1736
1036.390	-1504
1036.454	-2644
1036.517	-2246
1036.581	-1953
1036.645	-1354
1036.709	-1228
1036.772	-903
1036.836	-1112
1036.900	-1805
1036.963	-1489
1037.026	-2296
1037.090	-2095
1037.154	-2702
1037.217	-1620
1037.280	-1779
1037.344	-1924
1037.407	-2068
1037.471	-1903
1037.534	-2530
1037.597	-1993
1037.661	-2686
1037.724	-2435
1037.787	-2109
1037.850	-1473
1037.913	-2032
1037.977	-1682
1038.040	-2592
1038.103	-2283
1038.166	-2158
1038.229	-1465
1038.292	-2569
1038.355	-1641
1038.418	-1888
1038.481	-1605
1038.544	-2471
1038.607	-2249
1038.670	-2004
1038.732	-1507
1038.795	-2560
1038.858	-2085
1038.921	-1402
1038.984	-1176
1039.046	-1547
1039.109	-1908
1039.172	-2424
1039.234	-1964
1039.297	-2395
1039.360	-2096
1039.422	-1725
1039.485	-1622
1039.547	-2414
1039.610	-2034
1039.672	-2868
1039.734	-1160
1039.797	-2109
1039.859	-1537
1039.922	-2022
1039.984	-2134
1040.046	-1983
1040.109	-1963
1040.171	-2235
1040.233	-1368
1040.295	-2437
1040.358	-1951
1040.420	-1954
1040.482	-1623
1040.544	-2586
1040.606	-1686
1040.668	-1905
1040.730	-1633
1040.792	-1455
1040.854	-2138
1040.916	-1630
1040.978	-2278
1041.040	-1546
1041.102	-2047
1041.164	-1913
1041.225	-1344
1041.287	-1918
1041.349	-1754
1041.411	-1574
1041.472	-1974
1041.534	-1413
1041.596	-2318
1041.657	-1978
1041.719	-2627
1041.781	-2706
1041.842	-1925
1041.904	-2143
1041.965	-1725
1042.027	-2926
1042.088	-2374
1042.150	-1877
1042.211	-2044
1042.272	-2369
1042.334	-2354
1042.395	-1702
1042.456	-1596
1042.518	-2193
1042.579	-2119
1042.640	-1411
1042.701	-2082
1042.763	-1934
1042.824	-1701
1042.885	-2285
1042.946	-2267
1043.007	-1722
1043.068	-1925
1043.129	-2078
1043.190	-1556
1043.251	-1694
1043.312	-1914
1043.373	-1641
1043.434	-1132
1043.495	-2224
1043.556	-1397
1043.616	-2725
1043.677	-1990
1043.738	-2396
1043.799	-1988
1043.859	-1877
1043.920	-1396
1043.981	-3017
1044.041	-1544
1044.102	-1521
1044.162	-573
1044.223	-2441
1044.284	-2416
1044.344	-2147
1044.405	-1675
1044.465	-2095
1044.525	-1659
1044.586	-1945
1044.646	-2449
1044.707	-1461
1044.767	-2065
1044.827	-2334
1044.887	-1345
1044.948	-1519
1045.008	-975
1045.068	-1735
1045.128	-1686
1045.188	-2439
1045.249	-949
1045.309	-2913
1045.369	-1684
1045.429	-1969
1045.489	-1801
1045.549	-1571
1045.609	-1098
1045.669	-926
1045.729	-1541
1045.789	-1293
1045.848	-1611
1045.908	-1290
1045.968	-1899
1046.028	-1884
1046.088	-1403
1046.147	-1501
1046.207	-1659
1046.267	-1682
1046.326	-680
1046.386	-1616
1046.446	-650
1046.505	-1190
1046.565	-1389
1046.624	-887
1046.684	-1022
1046.743	-542
1046.803	-313
1046.862	-631
1046.922	0
